Sujet,Trial,Condition,Filter,Imname,Actor0,Actor1,Actor2,Actor3,Actor4,Actor5,Actor6,Actor7,Actor8,Actor9,Answer,Accu,RT,Score,Scoreperc, 
AHLA1505,_,posfs_BradPitt_im14.bmp,BradPitt,MattDamon,MattDamon,DanielCraig,OrlandoBloom,LeonardoDiCaprio,,,,,posfs_BradPitt_im14.bmp,3.290722800000367,
AHLA1505,_,posfs_BenAffleck_im24.bmp,BenAffleck,OrlandoBloom,OrlandoBloom,DanielRadcliffe,MattDamon,GeorgeClooney,,,,,4,4.677951700001358,
AHLA1505,_,posfs_OrlandoBloom_im3.bmp,OrlandoBloom,RobertPattinson,RobertPattinson,RyanReynolds,RyanGosling,RobertDowneyJr,,,,,0,3.584142300000167,
AHLA1505,_,posfs_RobertDowneyJr_im4.bmp,RobertDowneyJr,RyanGosling,RyanGosling,BradPitt,HughJackman,ElijahWood,,,,,4,3.117893099999492,
AHLA1505,_,posfs_DanielRadcliffe_im10.bmp,DanielRadcliffe,LeonardoDiCaprio,LeonardoDiCaprio,KeanuReeves,ElijahWood,MattDamon,,,,,2,2.272016500000973,
AHLA1505,_,posfs_BradPitt_im8.bmp,BradPitt,BenStiller,BenStiller,BenAffleck,OrlandoBloom,RobertPattinson,,,,,posfs_BradPitt_im8.bmp,2.475455300000249,
AHLA1505,_,posfs_JustinTimberlake_im1.bmp,JustinTimberlake,BenAffleck,BenAffleck,ElijahWood,PatrickDempsey,HughJackman,,,,,3,4.646586700000626,
AHLA1505,_,posfs_BenStiller_im3.bmp,BenStiller,ElijahWood,ElijahWood,JustinTimberlake,BradPitt,RobertDowneyJr,,,,,4,2.442533800000092,
AHLA1505,_,posfs_ElijahWood_im18.bmp,ElijahWood,PatrickDempsey,PatrickDempsey,JustinTimberlake,RobertPattinson,RobertDowneyJr,,,,,posfs_ElijahWood_im18.bmp,1.6458055000002787,
AHLA1505,_,posfs_LeonardoDiCaprio_im24.bmp,LeonardoDiCaprio,DanielCraig,DanielCraig,BradPitt,PatrickDempsey,RyanGosling,,,,,posfs_LeonardoDiCaprio_im24.bmp,1.8338591000010638,
AHLA1505,_,posfs_ElijahWood_im19.bmp,ElijahWood,PatrickDempsey,PatrickDempsey,RyanReynolds,BenAffleck,OrlandoBloom,,,,,posfs_ElijahWood_im19.bmp,2.046197600000596,
AHLA1505,_,posfs_RyanReynolds_im17.bmp,RyanReynolds,PatrickDempsey,PatrickDempsey,ElijahWood,BenStiller,BradPitt,,,,,4,1.9622282999989693,
AHLA1505,_,posfs_DanielCraig_im20.bmp,DanielCraig,BenStiller,BenStiller,BradPitt,LeonardoDiCaprio,OrlandoBloom,,,,,posfs_DanielCraig_im20.bmp,2.969903900000645,
AHLA1505,_,posfs_DanielRadcliffe_im8.bmp,DanielRadcliffe,MattDamon,MattDamon,PatrickDempsey,RyanReynolds,RobertDowneyJr,,,,,4,8.465508000001137,
AHLA1505,_,posfs_BenAffleck_im4.bmp,BenAffleck,BenStiller,BenStiller,KeanuReeves,ElijahWood,PatrickDempsey,,,,,4,6.003984200000559,
AHLA1505,_,posfs_MattDamon_im9.bmp,MattDamon,BradPitt,BradPitt,HughJackman,DanielCraig,LeonardoDiCaprio,,,,,4,4.152518199998667,
AHLA1505,_,posfs_JustinTimberlake_im17.bmp,JustinTimberlake,MattDamon,MattDamon,LeonardoDiCaprio,ElijahWood,GeorgeClooney,,,,,0,4.504790500001036,
AHLA1505,_,posfs_DanielRadcliffe_im20.bmp,DanielRadcliffe,GeorgeClooney,GeorgeClooney,ElijahWood,RobertPattinson,KeanuReeves,,,,,1,2.467407000000094,
AHLA1505,_,posfs_RyanGosling_im30.bmp,RyanGosling,RyanReynolds,RyanReynolds,DanielCraig,PatrickDempsey,RobertPattinson,,,,,0,4.007044300000416,
AHLA1505,_,posfs_GeorgeClooney_im14.bmp,GeorgeClooney,KeanuReeves,KeanuReeves,LeonardoDiCaprio,PatrickDempsey,RobertPattinson,,,,,4,2.83618480000041,
AHLA1505,_,posfs_JustinTimberlake_im4.bmp,JustinTimberlake,BenStiller,BenStiller,RobertDowneyJr,OrlandoBloom,PatrickDempsey,,,,,4,4.696226199999728,
AHLA1505,_,posfs_RyanReynolds_im3.bmp,RyanReynolds,BenAffleck,BenAffleck,DanielCraig,MattDamon,OrlandoBloom,,,,,4,2.991615199998705,
AHLA1505,_,posfs_HughJackman_im18.bmp,HughJackman,LeonardoDiCaprio,LeonardoDiCaprio,BradPitt,RyanGosling,DanielRadcliffe,,,,,3,3.6548213999994914,
AHLA1505,_,posfs_RobertPattinson_im30.bmp,RobertPattinson,DanielRadcliffe,DanielRadcliffe,DanielCraig,BenAffleck,JustinTimberlake,,,,,posfs_RobertPattinson_im30.bmp,1.8990405999993527,
AHLA1505,_,posfs_BenStiller_im2.bmp,BenStiller,RobertDowneyJr,RobertDowneyJr,GeorgeClooney,DanielCraig,RyanReynolds,,,,,4,1.5643797000011546,
AHLA1505,_,posfs_RobertPattinson_im4.bmp,RobertPattinson,DanielRadcliffe,DanielRadcliffe,RyanGosling,MattDamon,ElijahWood,,,,,posfs_RobertPattinson_im4.bmp,1.9477881000002526,
AHLA1505,_,posfs_LeonardoDiCaprio_im29.bmp,LeonardoDiCaprio,RobertDowneyJr,RobertDowneyJr,PatrickDempsey,OrlandoBloom,DanielCraig,,,,,posfs_LeonardoDiCaprio_im29.bmp,2.3234294000012596,
AHLA1505,_,posfs_PatrickDempsey_im16.bmp,PatrickDempsey,BradPitt,BradPitt,DanielCraig,DanielRadcliffe,LeonardoDiCaprio,,,,,2,2.9336246999992,
AHLA1505,_,posfs_KeanuReeves_im2.bmp,KeanuReeves,HughJackman,HughJackman,GeorgeClooney,RobertPattinson,BenStiller,,,,,posfs_KeanuReeves_im2.bmp,3.436867700000221,
AHLA1505,_,posfs_RyanReynolds_im22.bmp,RyanReynolds,JustinTimberlake,JustinTimberlake,BradPitt,KeanuReeves,LeonardoDiCaprio,,,,,4,3.2497934000002715,
AHLA1505,_,posfs_HughJackman_im20.bmp,HughJackman,JustinTimberlake,JustinTimberlake,RyanReynolds,DanielCraig,OrlandoBloom,,,,,4,1.9243124999993597,
AHLA1505,_,posfs_PatrickDempsey_im9.bmp,PatrickDempsey,HughJackman,HughJackman,RobertDowneyJr,KeanuReeves,BenAffleck,,,,,4,3.7259759999997186,
AHLA1505,_,posfs_HughJackman_im13.bmp,HughJackman,BradPitt,BradPitt,PatrickDempsey,MattDamon,RobertPattinson,,,,,4,1.4463235000002896,
AHLA1505,_,posfs_KeanuReeves_im8.bmp,KeanuReeves,BenAffleck,BenAffleck,LeonardoDiCaprio,RyanGosling,GeorgeClooney,,,,,posfs_KeanuReeves_im8.bmp,2.1079150999994454,
AHLA1505,_,posfs_RobertDowneyJr_im11.bmp,RobertDowneyJr,HughJackman,HughJackman,RyanGosling,JustinTimberlake,BenStiller,,,,,4,1.628400399999009,
AHLA1505,_,posfs_HughJackman_im21.bmp,HughJackman,OrlandoBloom,OrlandoBloom,GeorgeClooney,RyanGosling,BradPitt,,,,,4,0.5512741999991704,
AHLA1505,_,posfs_KeanuReeves_im10.bmp,KeanuReeves,MattDamon,MattDamon,OrlandoBloom,PatrickDempsey,LeonardoDiCaprio,,,,,posfs_KeanuReeves_im10.bmp,1.032378300000346,
AHLA1505,_,posfs_RobertPattinson_im8.bmp,RobertPattinson,DanielRadcliffe,DanielRadcliffe,OrlandoBloom,MattDamon,RyanGosling,,,,,posfs_RobertPattinson_im8.bmp,1.8286045999993803,
AHLA1505,_,posfs_PatrickDempsey_im14.bmp,PatrickDempsey,KeanuReeves,KeanuReeves,RobertDowneyJr,HughJackman,RyanReynolds,,,,,3,4.1369399999985035,
AHLA1505,_,posfs_BenAffleck_im21.bmp,BenAffleck,RyanGosling,RyanGosling,GeorgeClooney,ElijahWood,BradPitt,,,,,4,1.2089711999997235,
AHLA1505,_,posfs_BradPitt_im6.bmp,BradPitt,RyanGosling,RyanGosling,RobertDowneyJr,OrlandoBloom,HughJackman,,,,,posfs_BradPitt_im6.bmp,3.0139956000002712,
AHLA1505,_,posfs_DanielCraig_im8.bmp,DanielCraig,RobertPattinson,RobertPattinson,BenAffleck,BenStiller,LeonardoDiCaprio,,,,,4,1.6276449999986653,
AHLA1505,_,posfs_LeonardoDiCaprio_im10.bmp,LeonardoDiCaprio,BenStiller,BenStiller,RyanGosling,PatrickDempsey,RobertPattinson,,,,,posfs_LeonardoDiCaprio_im10.bmp,1.272220799999559,
AHLA1505,_,posfs_OrlandoBloom_im30.bmp,OrlandoBloom,JustinTimberlake,JustinTimberlake,BradPitt,KeanuReeves,RyanGosling,,,,,4,2.0357026000001497,
AHLA1505,_,posfs_KeanuReeves_im1.bmp,KeanuReeves,LeonardoDiCaprio,LeonardoDiCaprio,BradPitt,JustinTimberlake,RobertPattinson,,,,,posfs_KeanuReeves_im1.bmp,1.735897800001112,
AHLA1505,_,posfs_DanielCraig_im15.bmp,DanielCraig,BenAffleck,BenAffleck,MattDamon,BenStiller,HughJackman,,,,,4,1.6570437000009406,
AHLA1505,_,posfs_RyanGosling_im3.bmp,RyanGosling,RobertPattinson,RobertPattinson,PatrickDempsey,DanielCraig,JustinTimberlake,,,,,posfs_RyanGosling_im3.bmp,8.699950199999876,
AHLA1505,_,posfs_PatrickDempsey_im8.bmp,PatrickDempsey,BenStiller,BenStiller,MattDamon,BradPitt,RyanGosling,,,,,3,4.814541300000201,
AHLA1505,_,posfs_RyanGosling_im12.bmp,RyanGosling,PatrickDempsey,PatrickDempsey,RyanReynolds,BradPitt,DanielCraig,,,,,1,2.6355289000002813,
AHLA1505,_,posfs_ElijahWood_im23.bmp,ElijahWood,BenAffleck,BenAffleck,RyanGosling,BenStiller,RobertDowneyJr,,,,,posfs_ElijahWood_im23.bmp,3.615881100000479,
AHLA1505,_,posfs_OrlandoBloom_im19.bmp,OrlandoBloom,ElijahWood,ElijahWood,DanielCraig,PatrickDempsey,LeonardoDiCaprio,,,,,4,1.4779121999999916,
AHLA1505,_,posfs_DanielRadcliffe_im1.bmp,DanielRadcliffe,BradPitt,BradPitt,LeonardoDiCaprio,BenStiller,RobertPattinson,,,,,4,4.510227400000076,
AHLA1505,_,posfs_MattDamon_im18.bmp,MattDamon,DanielCraig,DanielCraig,PatrickDempsey,DanielRadcliffe,ElijahWood,,,,,4,2.890168799998719,
AHLA1505,_,posfs_MattDamon_im24.bmp,MattDamon,RobertDowneyJr,RobertDowneyJr,BradPitt,HughJackman,RobertPattinson,,,,,4,1.7798120000006747,
AHLA1505,_,posfs_GeorgeClooney_im15.bmp,GeorgeClooney,JustinTimberlake,JustinTimberlake,DanielRadcliffe,DanielCraig,BenAffleck,,,,,posfs_GeorgeClooney_im15.bmp,3.202591299999767,
AHLA1505,_,posfs_RobertDowneyJr_im19.bmp,RobertDowneyJr,DanielRadcliffe,DanielRadcliffe,DanielCraig,PatrickDempsey,BenStiller,,,,,4,2.6397397000000637,
AHLA1505,_,posfs_BenAffleck_im8.bmp,BenAffleck,OrlandoBloom,OrlandoBloom,RobertPattinson,RyanReynolds,MattDamon,,,,,4,1.4598562999999558,
AHLA1505,_,posfs_GeorgeClooney_im26.bmp,GeorgeClooney,LeonardoDiCaprio,LeonardoDiCaprio,RobertPattinson,BenAffleck,ElijahWood,,,,,posfs_GeorgeClooney_im26.bmp,1.3109146999995573,
AHLA1505,_,posfs_DanielCraig_im7.bmp,DanielCraig,BenAffleck,BenAffleck,KeanuReeves,PatrickDempsey,DanielRadcliffe,,,,,4,1.472585400000753,
AHLA1505,_,posfs_LeonardoDiCaprio_im15.bmp,LeonardoDiCaprio,RobertPattinson,RobertPattinson,DanielCraig,BradPitt,DanielRadcliffe,,,,,posfs_LeonardoDiCaprio_im15.bmp,1.5554808999986562,
AHLA1505,_,posfs_MattDamon_im16.bmp,MattDamon,LeonardoDiCaprio,LeonardoDiCaprio,RyanGosling,KeanuReeves,BenStiller,,,,,posfs_MattDamon_im16.bmp,1.755352700000003,
AHLA1505,_,posfs_BenStiller_im16.bmp,BenStiller,KeanuReeves,KeanuReeves,MattDamon,JustinTimberlake,BenAffleck,,,,,posfs_BenStiller_im16.bmp,6.203107499999533,
AHLA1505,_,posfs_ElijahWood_im12.bmp,ElijahWood,DanielRadcliffe,DanielRadcliffe,RobertDowneyJr,GeorgeClooney,BenStiller,,,,,posfs_ElijahWood_im12.bmp,1.1766642999991745,
AHLA1505,_,posfs_RyanGosling_im25.bmp,RyanGosling,DanielCraig,DanielCraig,KeanuReeves,BradPitt,MattDamon,,,,,posfs_RyanGosling_im25.bmp,4.471925300000294,
AHLA1505,_,posfs_RyanReynolds_im16.bmp,RyanReynolds,OrlandoBloom,OrlandoBloom,RobertPattinson,RyanGosling,LeonardoDiCaprio,,,,,4,0.746869799999331,
AHLA1505,_,posfs_RobertDowneyJr_im18.bmp,RobertDowneyJr,MattDamon,MattDamon,BradPitt,GeorgeClooney,JustinTimberlake,,,,,4,0.6736106000007567,
AHLA1505,_,posfs_BradPitt_im17.bmp,BradPitt,PatrickDempsey,PatrickDempsey,LeonardoDiCaprio,JustinTimberlake,HughJackman,,,,,posfs_BradPitt_im17.bmp,1.4695098000011058,
AHLA1505,_,posfs_OrlandoBloom_im2.bmp,OrlandoBloom,BenAffleck,BenAffleck,RyanGosling,MattDamon,RobertDowneyJr,,,,,4,1.7851052999994863,
AHLA1505,_,posfs_BenStiller_im7.bmp,BenStiller,LeonardoDiCaprio,LeonardoDiCaprio,RyanGosling,DanielCraig,PatrickDempsey,,,,,4,7.49352049999834,
AHLA1505,_,posfs_JustinTimberlake_im18.bmp,JustinTimberlake,ElijahWood,ElijahWood,RyanGosling,DanielRadcliffe,LeonardoDiCaprio,,,,,0,2.393184200000178,
AHLA1505,_,posfs_GeorgeClooney_im23.bmp,GeorgeClooney,BenAffleck,BenAffleck,MattDamon,OrlandoBloom,KeanuReeves,,,,,2,6.104340600000796,
AHLA1505,_,posfs_RobertPattinson_im27.bmp,RobertPattinson,RyanReynolds,RyanReynolds,OrlandoBloom,MattDamon,KeanuReeves,,,,,posfs_RobertPattinson_im27.bmp,1.122573900000134,
AHLA1505,train,pos,fs,posfs_id6_im12.bmp_posfs_id3_im17.bmp,['Im_LeonardoDiCaprio.png', 'Im_BradPitt.png', 'Im_KeanuReeves.png', 'Im_PatrickDempsey.png', 'Im_JustinTimberlake.png', 'Im_RyanGosling.png', 'Im_GeorgeClooney.png', 'Im_ElijahWood.png', 'Im_RobertPattinson.png', 'Im_BenStiller.png'],same,0,1.424920999999813,0,0,
AHLA1505,train,pos,fs,posfs_id3_im6.bmp_posfs_id7_im14.bmp,['Im_LeonardoDiCaprio.png', 'Im_BradPitt.png', 'Im_KeanuReeves.png', 'Im_PatrickDempsey.png', 'Im_JustinTimberlake.png', 'Im_RyanGosling.png', 'Im_GeorgeClooney.png', 'Im_ElijahWood.png', 'Im_RobertPattinson.png', 'Im_BenStiller.png'],diff,1,2.141681699999026,1,0,
AHLA1505,train,pos,fs,posfs_id10_im17.bmp_posfs_id10_im1.bmp,['Im_LeonardoDiCaprio.png', 'Im_BradPitt.png', 'Im_KeanuReeves.png', 'Im_PatrickDempsey.png', 'Im_JustinTimberlake.png', 'Im_RyanGosling.png', 'Im_GeorgeClooney.png', 'Im_ElijahWood.png', 'Im_RobertPattinson.png', 'Im_BenStiller.png'],same,1,1.0834087999992335,2,0,
AHLA1505,train,pos,fs,posfs_id2_im16.bmp_posfs_id2_im2.bmp,['Im_LeonardoDiCaprio.png', 'Im_BradPitt.png', 'Im_KeanuReeves.png', 'Im_PatrickDempsey.png', 'Im_JustinTimberlake.png', 'Im_RyanGosling.png', 'Im_GeorgeClooney.png', 'Im_ElijahWood.png', 'Im_RobertPattinson.png', 'Im_BenStiller.png'],diff,0,0.9415249000012409,2,0,
AHLA1505,train,pos,fs,posfs_id13_im15.bmp_posfs_id13_im29.bmp,['Im_LeonardoDiCaprio.png', 'Im_BradPitt.png', 'Im_KeanuReeves.png', 'Im_PatrickDempsey.png', 'Im_JustinTimberlake.png', 'Im_RyanGosling.png', 'Im_GeorgeClooney.png', 'Im_ElijahWood.png', 'Im_RobertPattinson.png', 'Im_BenStiller.png'],same,1,0.8832794000009017,3,0,
AHLA1505,train,pos,fs,posfs_id10_im18.bmp_posfs_id20_im30.bmp,['Im_LeonardoDiCaprio.png', 'Im_BradPitt.png', 'Im_KeanuReeves.png', 'Im_PatrickDempsey.png', 'Im_JustinTimberlake.png', 'Im_RyanGosling.png', 'Im_GeorgeClooney.png', 'Im_ElijahWood.png', 'Im_RobertPattinson.png', 'Im_BenStiller.png'],diff,1,1.0749998999999661,4,0,
AHLA1505,train,pos,fs,posfs_id19_im27.bmp_posfs_id11_im10.bmp,['Im_LeonardoDiCaprio.png', 'Im_BradPitt.png', 'Im_KeanuReeves.png', 'Im_PatrickDempsey.png', 'Im_JustinTimberlake.png', 'Im_RyanGosling.png', 'Im_GeorgeClooney.png', 'Im_ElijahWood.png', 'Im_RobertPattinson.png', 'Im_BenStiller.png'],diff,1,1.4173370999997132,5,0,
AHLA1505,train,pos,fs,posfs_id2_im3.bmp_posfs_id2_im16.bmp,['Im_LeonardoDiCaprio.png', 'Im_BradPitt.png', 'Im_KeanuReeves.png', 'Im_PatrickDempsey.png', 'Im_JustinTimberlake.png', 'Im_RyanGosling.png', 'Im_GeorgeClooney.png', 'Im_ElijahWood.png', 'Im_RobertPattinson.png', 'Im_BenStiller.png'],same,1,1.0917756999988342,6,0,
AHLA1505,train,pos,fs,posfs_id3_im17.bmp_posfs_id3_im6.bmp,['Im_LeonardoDiCaprio.png', 'Im_BradPitt.png', 'Im_KeanuReeves.png', 'Im_PatrickDempsey.png', 'Im_JustinTimberlake.png', 'Im_RyanGosling.png', 'Im_GeorgeClooney.png', 'Im_ElijahWood.png', 'Im_RobertPattinson.png', 'Im_BenStiller.png'],same,1,1.4668297999996867,7,0,
AHLA1505,train,pos,fs,posfs_id20_im3.bmp_posfs_id20_im12.bmp,['Im_LeonardoDiCaprio.png', 'Im_BradPitt.png', 'Im_KeanuReeves.png', 'Im_PatrickDempsey.png', 'Im_JustinTimberlake.png', 'Im_RyanGosling.png', 'Im_GeorgeClooney.png', 'Im_ElijahWood.png', 'Im_RobertPattinson.png', 'Im_BenStiller.png'],same,1,1.1664616000016395,8,0,
AHLA1505,train,pos,fs,posfs_id17_im14.bmp_posfs_id2_im3.bmp,['Im_LeonardoDiCaprio.png', 'Im_BradPitt.png', 'Im_KeanuReeves.png', 'Im_PatrickDempsey.png', 'Im_JustinTimberlake.png', 'Im_RyanGosling.png', 'Im_GeorgeClooney.png', 'Im_ElijahWood.png', 'Im_RobertPattinson.png', 'Im_BenStiller.png'],diff,1,2.541970599999331,9,0,
AHLA1505,train,pos,fs,posfs_id13_im29.bmp_posfs_id19_im8.bmp,['Im_LeonardoDiCaprio.png', 'Im_BradPitt.png', 'Im_KeanuReeves.png', 'Im_PatrickDempsey.png', 'Im_JustinTimberlake.png', 'Im_RyanGosling.png', 'Im_GeorgeClooney.png', 'Im_ElijahWood.png', 'Im_RobertPattinson.png', 'Im_BenStiller.png'],diff,1,1.3084161000006134,10,0,
AHLA1505,train,pos,fs,posfs_id6_im19.bmp_posfs_id6_im12.bmp,['Im_LeonardoDiCaprio.png', 'Im_BradPitt.png', 'Im_KeanuReeves.png', 'Im_PatrickDempsey.png', 'Im_JustinTimberlake.png', 'Im_RyanGosling.png', 'Im_GeorgeClooney.png', 'Im_ElijahWood.png', 'Im_RobertPattinson.png', 'Im_BenStiller.png'],same,1,0.9500959999986662,11,0,
AHLA1505,train,pos,fs,posfs_id7_im15.bmp_posfs_id7_im26.bmp,['Im_LeonardoDiCaprio.png', 'Im_BradPitt.png', 'Im_KeanuReeves.png', 'Im_PatrickDempsey.png', 'Im_JustinTimberlake.png', 'Im_RyanGosling.png', 'Im_GeorgeClooney.png', 'Im_ElijahWood.png', 'Im_RobertPattinson.png', 'Im_BenStiller.png'],same,1,1.5668138000000909,12,0,
AHLA1505,train,pos,fs,posfs_id20_im30.bmp_posfs_id20_im12.bmp,['Im_LeonardoDiCaprio.png', 'Im_BradPitt.png', 'Im_KeanuReeves.png', 'Im_PatrickDempsey.png', 'Im_JustinTimberlake.png', 'Im_RyanGosling.png', 'Im_GeorgeClooney.png', 'Im_ElijahWood.png', 'Im_RobertPattinson.png', 'Im_BenStiller.png'],same,1,0.9916850999998132,13,0,
AHLA1505,train,pos,fs,posfs_id10_im1.bmp_posfs_id6_im12.bmp,['Im_LeonardoDiCaprio.png', 'Im_BradPitt.png', 'Im_KeanuReeves.png', 'Im_PatrickDempsey.png', 'Im_JustinTimberlake.png', 'Im_RyanGosling.png', 'Im_GeorgeClooney.png', 'Im_ElijahWood.png', 'Im_RobertPattinson.png', 'Im_BenStiller.png'],diff,1,1.0831366000002163,14,0,
AHLA1505,train,pos,fs,posfs_id19_im27.bmp_posfs_id3_im17.bmp,['Im_LeonardoDiCaprio.png', 'Im_BradPitt.png', 'Im_KeanuReeves.png', 'Im_PatrickDempsey.png', 'Im_JustinTimberlake.png', 'Im_RyanGosling.png', 'Im_GeorgeClooney.png', 'Im_ElijahWood.png', 'Im_RobertPattinson.png', 'Im_BenStiller.png'],diff,1,0.9916529000001901,15,0,
AHLA1505,train,pos,fs,posfs_id13_im29.bmp_posfs_id7_im14.bmp,['Im_LeonardoDiCaprio.png', 'Im_BradPitt.png', 'Im_KeanuReeves.png', 'Im_PatrickDempsey.png', 'Im_JustinTimberlake.png', 'Im_RyanGosling.png', 'Im_GeorgeClooney.png', 'Im_ElijahWood.png', 'Im_RobertPattinson.png', 'Im_BenStiller.png'],diff,1,0.7998506000003545,16,0,
AHLA1505,train,pos,fs,posfs_id2_im2.bmp_posfs_id10_im17.bmp,['Im_LeonardoDiCaprio.png', 'Im_BradPitt.png', 'Im_KeanuReeves.png', 'Im_PatrickDempsey.png', 'Im_JustinTimberlake.png', 'Im_RyanGosling.png', 'Im_GeorgeClooney.png', 'Im_ElijahWood.png', 'Im_RobertPattinson.png', 'Im_BenStiller.png'],diff,1,0.9502320999999938,17,0,
AHLA1505,train,pos,fs,posfs_id19_im8.bmp_posfs_id19_im4.bmp,['Im_LeonardoDiCaprio.png', 'Im_BradPitt.png', 'Im_KeanuReeves.png', 'Im_PatrickDempsey.png', 'Im_JustinTimberlake.png', 'Im_RyanGosling.png', 'Im_GeorgeClooney.png', 'Im_ElijahWood.png', 'Im_RobertPattinson.png', 'Im_BenStiller.png'],same,1,0.7165179999992688,18,0,
AHLA1505,train,pos,fs,posfs_id7_im15.bmp_posfs_id19_im4.bmp,['Im_LeonardoDiCaprio.png', 'Im_BradPitt.png', 'Im_KeanuReeves.png', 'Im_PatrickDempsey.png', 'Im_JustinTimberlake.png', 'Im_RyanGosling.png', 'Im_GeorgeClooney.png', 'Im_ElijahWood.png', 'Im_RobertPattinson.png', 'Im_BenStiller.png'],diff,1,1.5334987999995064,1,0,
AHLA1505,train,neg,fs,negfs_id6_im18.bmp_negfs_id6_im19.bmp,['Im_LeonardoDiCaprio.png', 'Im_BradPitt.png', 'Im_KeanuReeves.png', 'Im_PatrickDempsey.png', 'Im_JustinTimberlake.png', 'Im_RyanGosling.png', 'Im_GeorgeClooney.png', 'Im_ElijahWood.png', 'Im_RobertPattinson.png', 'Im_BenStiller.png'],diff,0,1.6253424000005907,1,0,
AHLA1505,train,pos,fs,posfs_id3_im17.bmp_posfs_id6_im12.bmp,['Im_LeonardoDiCaprio.png', 'Im_BradPitt.png', 'Im_KeanuReeves.png', 'Im_PatrickDempsey.png', 'Im_JustinTimberlake.png', 'Im_RyanGosling.png', 'Im_GeorgeClooney.png', 'Im_ElijahWood.png', 'Im_RobertPattinson.png', 'Im_BenStiller.png'],diff,1,0.44203809999999066,2,0,
AHLA1505,train,neg,fs,negfs_id10_im17.bmp_negfs_id2_im2.bmp,['Im_LeonardoDiCaprio.png', 'Im_BradPitt.png', 'Im_KeanuReeves.png', 'Im_PatrickDempsey.png', 'Im_JustinTimberlake.png', 'Im_RyanGosling.png', 'Im_GeorgeClooney.png', 'Im_ElijahWood.png', 'Im_RobertPattinson.png', 'Im_BenStiller.png'],diff,1,1.1000638000004983,3,0,
AHLA1505,train,neg,fs,negfs_id19_im27.bmp_negfs_id19_im8.bmp,['Im_LeonardoDiCaprio.png', 'Im_BradPitt.png', 'Im_KeanuReeves.png', 'Im_PatrickDempsey.png', 'Im_JustinTimberlake.png', 'Im_RyanGosling.png', 'Im_GeorgeClooney.png', 'Im_ElijahWood.png', 'Im_RobertPattinson.png', 'Im_BenStiller.png'],same,1,0.4583823000011762,4,0,
AHLA1505,train,pos,fs,posfs_id3_im6.bmp_posfs_id7_im14.bmp,['Im_LeonardoDiCaprio.png', 'Im_BradPitt.png', 'Im_KeanuReeves.png', 'Im_PatrickDempsey.png', 'Im_JustinTimberlake.png', 'Im_RyanGosling.png', 'Im_GeorgeClooney.png', 'Im_ElijahWood.png', 'Im_RobertPattinson.png', 'Im_BenStiller.png'],diff,1,0.48315550000006624,5,0,
AHLA1505,train,pos,fs,posfs_id7_im15.bmp_posfs_id20_im12.bmp,['Im_LeonardoDiCaprio.png', 'Im_BradPitt.png', 'Im_KeanuReeves.png', 'Im_PatrickDempsey.png', 'Im_JustinTimberlake.png', 'Im_RyanGosling.png', 'Im_GeorgeClooney.png', 'Im_ElijahWood.png', 'Im_RobertPattinson.png', 'Im_BenStiller.png'],diff,1,0.4165799000002153,6,0,
AHLA1505,train,pos,fs,posfs_id17_im9.bmp_posfs_id17_im14.bmp,['Im_LeonardoDiCaprio.png', 'Im_BradPitt.png', 'Im_KeanuReeves.png', 'Im_PatrickDempsey.png', 'Im_JustinTimberlake.png', 'Im_RyanGosling.png', 'Im_GeorgeClooney.png', 'Im_ElijahWood.png', 'Im_RobertPattinson.png', 'Im_BenStiller.png'],same,1,0.43357300000025134,7,0,
AHLA1505,train,neg,fs,negfs_id20_im30.bmp_negfs_id3_im6.bmp,['Im_LeonardoDiCaprio.png', 'Im_BradPitt.png', 'Im_KeanuReeves.png', 'Im_PatrickDempsey.png', 'Im_JustinTimberlake.png', 'Im_RyanGosling.png', 'Im_GeorgeClooney.png', 'Im_ElijahWood.png', 'Im_RobertPattinson.png', 'Im_BenStiller.png'],diff,1,1.7669807000002038,8,0,
AHLA1505,train,inv,fs,posfs_id17_im14.bmp_posfs_id17_im9.bmp,['Im_LeonardoDiCaprio.png', 'Im_BradPitt.png', 'Im_KeanuReeves.png', 'Im_PatrickDempsey.png', 'Im_JustinTimberlake.png', 'Im_RyanGosling.png', 'Im_GeorgeClooney.png', 'Im_ElijahWood.png', 'Im_RobertPattinson.png', 'Im_BenStiller.png'],same,1,0.4334030000009079,9,0,
AHLA1505,train,pos,fs,posfs_id10_im17.bmp_posfs_id10_im1.bmp,['Im_LeonardoDiCaprio.png', 'Im_BradPitt.png', 'Im_KeanuReeves.png', 'Im_PatrickDempsey.png', 'Im_JustinTimberlake.png', 'Im_RyanGosling.png', 'Im_GeorgeClooney.png', 'Im_ElijahWood.png', 'Im_RobertPattinson.png', 'Im_BenStiller.png'],same,1,0.42490879999968456,10,0,
AHLA1505,train,neg,fs,negfs_id10_im17.bmp_negfs_id10_im1.bmp,['Im_LeonardoDiCaprio.png', 'Im_BradPitt.png', 'Im_KeanuReeves.png', 'Im_PatrickDempsey.png', 'Im_JustinTimberlake.png', 'Im_RyanGosling.png', 'Im_GeorgeClooney.png', 'Im_ElijahWood.png', 'Im_RobertPattinson.png', 'Im_BenStiller.png'],same,1,0.40837660000033793,11,0,
AHLA1505,train,pos,fs,posfs_id6_im12.bmp_posfs_id6_im18.bmp,['Im_LeonardoDiCaprio.png', 'Im_BradPitt.png', 'Im_KeanuReeves.png', 'Im_PatrickDempsey.png', 'Im_JustinTimberlake.png', 'Im_RyanGosling.png', 'Im_GeorgeClooney.png', 'Im_ElijahWood.png', 'Im_RobertPattinson.png', 'Im_BenStiller.png'],same,1,0.4499047999997856,12,0,
AHLA1505,train,pos,fs,posfs_id20_im30.bmp_posfs_id20_im12.bmp,['Im_LeonardoDiCaprio.png', 'Im_BradPitt.png', 'Im_KeanuReeves.png', 'Im_PatrickDempsey.png', 'Im_JustinTimberlake.png', 'Im_RyanGosling.png', 'Im_GeorgeClooney.png', 'Im_ElijahWood.png', 'Im_RobertPattinson.png', 'Im_BenStiller.png'],same,1,0.42502539999986766,13,0,
AHLA1505,train,inv,fs,posfs_id10_im1.bmp_posfs_id10_im17.bmp,['Im_LeonardoDiCaprio.png', 'Im_BradPitt.png', 'Im_KeanuReeves.png', 'Im_PatrickDempsey.png', 'Im_JustinTimberlake.png', 'Im_RyanGosling.png', 'Im_GeorgeClooney.png', 'Im_ElijahWood.png', 'Im_RobertPattinson.png', 'Im_BenStiller.png'],same,1,0.42507299999851966,14,0,
AHLA1505,train,inv,fs,posfs_id3_im8.bmp_posfs_id17_im8.bmp,['Im_LeonardoDiCaprio.png', 'Im_BradPitt.png', 'Im_KeanuReeves.png', 'Im_PatrickDempsey.png', 'Im_JustinTimberlake.png', 'Im_RyanGosling.png', 'Im_GeorgeClooney.png', 'Im_ElijahWood.png', 'Im_RobertPattinson.png', 'Im_BenStiller.png'],diff,1,1.2419645999998465,15,0,
AHLA1505,train,inv,fs,posfs_id3_im17.bmp_posfs_id3_im6.bmp,['Im_LeonardoDiCaprio.png', 'Im_BradPitt.png', 'Im_KeanuReeves.png', 'Im_PatrickDempsey.png', 'Im_JustinTimberlake.png', 'Im_RyanGosling.png', 'Im_GeorgeClooney.png', 'Im_ElijahWood.png', 'Im_RobertPattinson.png', 'Im_BenStiller.png'],same,1,0.4250651000002108,16,0,
AHLA1505,train,neg,fs,negfs_id13_im10.bmp_negfs_id13_im29.bmp,['Im_LeonardoDiCaprio.png', 'Im_BradPitt.png', 'Im_KeanuReeves.png', 'Im_PatrickDempsey.png', 'Im_JustinTimberlake.png', 'Im_RyanGosling.png', 'Im_GeorgeClooney.png', 'Im_ElijahWood.png', 'Im_RobertPattinson.png', 'Im_BenStiller.png'],diff,0,1.1332012999992003,16,0,
AHLA1505,train,pos,fs,posfs_id13_im10.bmp_posfs_id13_im15.bmp,['Im_LeonardoDiCaprio.png', 'Im_BradPitt.png', 'Im_KeanuReeves.png', 'Im_PatrickDempsey.png', 'Im_JustinTimberlake.png', 'Im_RyanGosling.png', 'Im_GeorgeClooney.png', 'Im_ElijahWood.png', 'Im_RobertPattinson.png', 'Im_BenStiller.png'],same,1,0.42516559999967285,17,0,
AHLA1505,train,pos,fs,posfs_id10_im17.bmp_posfs_id10_im18.bmp,['Im_LeonardoDiCaprio.png', 'Im_BradPitt.png', 'Im_KeanuReeves.png', 'Im_PatrickDempsey.png', 'Im_JustinTimberlake.png', 'Im_RyanGosling.png', 'Im_GeorgeClooney.png', 'Im_ElijahWood.png', 'Im_RobertPattinson.png', 'Im_BenStiller.png'],same,1,0.4167572000005748,18,0,
AHLA1505,train,neg,60,neg60_id20_im30.bmp_neg60_id20_im3.bmp,['Im_LeonardoDiCaprio.png', 'Im_BradPitt.png', 'Im_KeanuReeves.png', 'Im_PatrickDempsey.png', 'Im_JustinTimberlake.png', 'Im_RyanGosling.png', 'Im_GeorgeClooney.png', 'Im_ElijahWood.png', 'Im_RobertPattinson.png', 'Im_BenStiller.png'],same,1,0.4250802000005933,1,0,
AHLA1505,train,neg,120,neg120_id7_im15.bmp_neg120_id19_im4.bmp,['Im_LeonardoDiCaprio.png', 'Im_BradPitt.png', 'Im_KeanuReeves.png', 'Im_PatrickDempsey.png', 'Im_JustinTimberlake.png', 'Im_RyanGosling.png', 'Im_GeorgeClooney.png', 'Im_ElijahWood.png', 'Im_RobertPattinson.png', 'Im_BenStiller.png'],diff,1,0.6585880999991787,2,0,
AHLA1505,train,neg,30,neg30_id11_im2.bmp_neg30_id11_im10.bmp,['Im_LeonardoDiCaprio.png', 'Im_BradPitt.png', 'Im_KeanuReeves.png', 'Im_PatrickDempsey.png', 'Im_JustinTimberlake.png', 'Im_RyanGosling.png', 'Im_GeorgeClooney.png', 'Im_ElijahWood.png', 'Im_RobertPattinson.png', 'Im_BenStiller.png'],same,1,0.40839259999847854,3,0,
AHLA1505,train,neg,0,neg0_id13_im29.bmp_neg0_id7_im14.bmp,['Im_LeonardoDiCaprio.png', 'Im_BradPitt.png', 'Im_KeanuReeves.png', 'Im_PatrickDempsey.png', 'Im_JustinTimberlake.png', 'Im_RyanGosling.png', 'Im_GeorgeClooney.png', 'Im_ElijahWood.png', 'Im_RobertPattinson.png', 'Im_BenStiller.png'],same,0,0.8168343999986973,3,0,
AHLA1505,train,neg,120,neg120_id2_im3.bmp_neg120_id2_im2.bmp,['Im_LeonardoDiCaprio.png', 'Im_BradPitt.png', 'Im_KeanuReeves.png', 'Im_PatrickDempsey.png', 'Im_JustinTimberlake.png', 'Im_RyanGosling.png', 'Im_GeorgeClooney.png', 'Im_ElijahWood.png', 'Im_RobertPattinson.png', 'Im_BenStiller.png'],diff,0,0.45838630000071134,3,0,
AHLA1505,train,neg,fs,negfs_id19_im27.bmp_negfs_id11_im10.bmp,['Im_LeonardoDiCaprio.png', 'Im_BradPitt.png', 'Im_KeanuReeves.png', 'Im_PatrickDempsey.png', 'Im_JustinTimberlake.png', 'Im_RyanGosling.png', 'Im_GeorgeClooney.png', 'Im_ElijahWood.png', 'Im_RobertPattinson.png', 'Im_BenStiller.png'],diff,1,0.4082516999988002,4,0,
AHLA1505,train,neg,30,neg30_id10_im1.bmp_neg30_id10_im18.bmp,['Im_LeonardoDiCaprio.png', 'Im_BradPitt.png', 'Im_KeanuReeves.png', 'Im_PatrickDempsey.png', 'Im_JustinTimberlake.png', 'Im_RyanGosling.png', 'Im_GeorgeClooney.png', 'Im_ElijahWood.png', 'Im_RobertPattinson.png', 'Im_BenStiller.png'],diff,0,0.941721499999403,4,0,
AHLA1505,train,neg,150,neg150_id6_im12.bmp_neg150_id6_im18.bmp,['Im_LeonardoDiCaprio.png', 'Im_BradPitt.png', 'Im_KeanuReeves.png', 'Im_PatrickDempsey.png', 'Im_JustinTimberlake.png', 'Im_RyanGosling.png', 'Im_GeorgeClooney.png', 'Im_ElijahWood.png', 'Im_RobertPattinson.png', 'Im_BenStiller.png'],same,1,0.4083578999998281,5,0,
AHLA1505,train,neg,0,neg0_id3_im6.bmp_neg0_id7_im14.bmp,['Im_LeonardoDiCaprio.png', 'Im_BradPitt.png', 'Im_KeanuReeves.png', 'Im_PatrickDempsey.png', 'Im_JustinTimberlake.png', 'Im_RyanGosling.png', 'Im_GeorgeClooney.png', 'Im_ElijahWood.png', 'Im_RobertPattinson.png', 'Im_BenStiller.png'],diff,1,0.6087404000008974,6,0,
AHLA1505,train,neg,150,neg150_id3_im17.bmp_neg150_id3_im8.bmp,['Im_LeonardoDiCaprio.png', 'Im_BradPitt.png', 'Im_KeanuReeves.png', 'Im_PatrickDempsey.png', 'Im_JustinTimberlake.png', 'Im_RyanGosling.png', 'Im_GeorgeClooney.png', 'Im_ElijahWood.png', 'Im_RobertPattinson.png', 'Im_BenStiller.png'],same,1,0.541741600000023,7,0,
AHLA1505,train,neg,60,neg60_id7_im26.bmp_neg60_id7_im14.bmp,['Im_LeonardoDiCaprio.png', 'Im_BradPitt.png', 'Im_KeanuReeves.png', 'Im_PatrickDempsey.png', 'Im_JustinTimberlake.png', 'Im_RyanGosling.png', 'Im_GeorgeClooney.png', 'Im_ElijahWood.png', 'Im_RobertPattinson.png', 'Im_BenStiller.png'],diff,0,1.433606400001736,7,0,
AHLA1505,train,neg,90,neg90_id6_im12.bmp_neg90_id6_im19.bmp,['Im_LeonardoDiCaprio.png', 'Im_BradPitt.png', 'Im_KeanuReeves.png', 'Im_PatrickDempsey.png', 'Im_JustinTimberlake.png', 'Im_RyanGosling.png', 'Im_GeorgeClooney.png', 'Im_ElijahWood.png', 'Im_RobertPattinson.png', 'Im_BenStiller.png'],same,1,0.40834999999970023,8,0,
AHLA1505,train,neg,fs,negfs_id19_im4.bmp_negfs_id7_im26.bmp,['Im_LeonardoDiCaprio.png', 'Im_BradPitt.png', 'Im_KeanuReeves.png', 'Im_PatrickDempsey.png', 'Im_JustinTimberlake.png', 'Im_RyanGosling.png', 'Im_GeorgeClooney.png', 'Im_ElijahWood.png', 'Im_RobertPattinson.png', 'Im_BenStiller.png'],diff,1,1.191848200000095,9,0,
AHLA1505,train,neg,90,neg90_id11_im2.bmp_neg90_id11_im10.bmp,['Im_LeonardoDiCaprio.png', 'Im_BradPitt.png', 'Im_KeanuReeves.png', 'Im_PatrickDempsey.png', 'Im_JustinTimberlake.png', 'Im_RyanGosling.png', 'Im_GeorgeClooney.png', 'Im_ElijahWood.png', 'Im_RobertPattinson.png', 'Im_BenStiller.png'],same,1,0.43350699999973585,10,0,
AHLA1505,train,inv,150,pos150_id2_im16.bmp_pos150_id2_im3.bmp,['Im_LeonardoDiCaprio.png', 'Im_BradPitt.png', 'Im_KeanuReeves.png', 'Im_PatrickDempsey.png', 'Im_JustinTimberlake.png', 'Im_RyanGosling.png', 'Im_GeorgeClooney.png', 'Im_ElijahWood.png', 'Im_RobertPattinson.png', 'Im_BenStiller.png'],same,1,0.4083895999992819,11,0,
AHLA1505,train,inv,120,pos120_id10_im17.bmp_pos120_id10_im1.bmp,['Im_LeonardoDiCaprio.png', 'Im_BradPitt.png', 'Im_KeanuReeves.png', 'Im_PatrickDempsey.png', 'Im_JustinTimberlake.png', 'Im_RyanGosling.png', 'Im_GeorgeClooney.png', 'Im_ElijahWood.png', 'Im_RobertPattinson.png', 'Im_BenStiller.png'],same,1,0.40839779999987513,12,0,
AHLA1505,train,inv,90,pos90_id11_im1.bmp_pos90_id13_im15.bmp,['Im_LeonardoDiCaprio.png', 'Im_BradPitt.png', 'Im_KeanuReeves.png', 'Im_PatrickDempsey.png', 'Im_JustinTimberlake.png', 'Im_RyanGosling.png', 'Im_GeorgeClooney.png', 'Im_ElijahWood.png', 'Im_RobertPattinson.png', 'Im_BenStiller.png'],diff,1,0.6250150000014401,13,0,
AHLA1505,train,inv,fs,posfs_id3_im17.bmp_posfs_id19_im27.bmp,['Im_LeonardoDiCaprio.png', 'Im_BradPitt.png', 'Im_KeanuReeves.png', 'Im_PatrickDempsey.png', 'Im_JustinTimberlake.png', 'Im_RyanGosling.png', 'Im_GeorgeClooney.png', 'Im_ElijahWood.png', 'Im_RobertPattinson.png', 'Im_BenStiller.png'],diff,1,0.40852629999972123,14,0,
AHLA1505,train,inv,150,pos150_id10_im17.bmp_pos150_id2_im2.bmp,['Im_LeonardoDiCaprio.png', 'Im_BradPitt.png', 'Im_KeanuReeves.png', 'Im_PatrickDempsey.png', 'Im_JustinTimberlake.png', 'Im_RyanGosling.png', 'Im_GeorgeClooney.png', 'Im_ElijahWood.png', 'Im_RobertPattinson.png', 'Im_BenStiller.png'],diff,1,0.42505059999894,15,0,
AHLA1505,train,inv,30,pos30_id20_im3.bmp_pos30_id20_im30.bmp,['Im_LeonardoDiCaprio.png', 'Im_BradPitt.png', 'Im_KeanuReeves.png', 'Im_PatrickDempsey.png', 'Im_JustinTimberlake.png', 'Im_RyanGosling.png', 'Im_GeorgeClooney.png', 'Im_ElijahWood.png', 'Im_RobertPattinson.png', 'Im_BenStiller.png'],same,1,0.4084041000005527,16,0,
AHLA1505,train,inv,0,pos0_id2_im2.bmp_pos0_id2_im3.bmp,['Im_LeonardoDiCaprio.png', 'Im_BradPitt.png', 'Im_KeanuReeves.png', 'Im_PatrickDempsey.png', 'Im_JustinTimberlake.png', 'Im_RyanGosling.png', 'Im_GeorgeClooney.png', 'Im_ElijahWood.png', 'Im_RobertPattinson.png', 'Im_BenStiller.png'],same,1,0.4249967000014294,17,0,
AHLA1505,train,inv,0,pos0_id17_im14.bmp_pos0_id2_im3.bmp,['Im_LeonardoDiCaprio.png', 'Im_BradPitt.png', 'Im_KeanuReeves.png', 'Im_PatrickDempsey.png', 'Im_JustinTimberlake.png', 'Im_RyanGosling.png', 'Im_GeorgeClooney.png', 'Im_ElijahWood.png', 'Im_RobertPattinson.png', 'Im_BenStiller.png'],same,0,0.40832140000020445,17,0,
AHLA1505,train,inv,30,pos30_id7_im15.bmp_pos30_id20_im12.bmp,['Im_LeonardoDiCaprio.png', 'Im_BradPitt.png', 'Im_KeanuReeves.png', 'Im_PatrickDempsey.png', 'Im_JustinTimberlake.png', 'Im_RyanGosling.png', 'Im_GeorgeClooney.png', 'Im_ElijahWood.png', 'Im_RobertPattinson.png', 'Im_BenStiller.png'],diff,1,0.4166077000008954,18,0,
AHLA1505,train,inv,120,pos120_id3_im17.bmp_pos120_id19_im27.bmp,['Im_LeonardoDiCaprio.png', 'Im_BradPitt.png', 'Im_KeanuReeves.png', 'Im_PatrickDempsey.png', 'Im_JustinTimberlake.png', 'Im_RyanGosling.png', 'Im_GeorgeClooney.png', 'Im_ElijahWood.png', 'Im_RobertPattinson.png', 'Im_BenStiller.png'],diff,1,0.6250283999997919,19,0,
AHLA1505,train,inv,60,pos60_id7_im15.bmp_pos60_id7_im26.bmp,['Im_LeonardoDiCaprio.png', 'Im_BradPitt.png', 'Im_KeanuReeves.png', 'Im_PatrickDempsey.png', 'Im_JustinTimberlake.png', 'Im_RyanGosling.png', 'Im_GeorgeClooney.png', 'Im_ElijahWood.png', 'Im_RobertPattinson.png', 'Im_BenStiller.png'],same,1,0.41673660000014934,20,0,
AHLA1505,train,inv,60,pos60_id17_im14.bmp_pos60_id17_im8.bmp,['Im_LeonardoDiCaprio.png', 'Im_BradPitt.png', 'Im_KeanuReeves.png', 'Im_PatrickDempsey.png', 'Im_JustinTimberlake.png', 'Im_RyanGosling.png', 'Im_GeorgeClooney.png', 'Im_ElijahWood.png', 'Im_RobertPattinson.png', 'Im_BenStiller.png'],diff,0,0.5916486999994959,20,0,
AHLA1505,train,inv,90,pos90_id7_im15.bmp_pos90_id19_im4.bmp,['Im_LeonardoDiCaprio.png', 'Im_BradPitt.png', 'Im_KeanuReeves.png', 'Im_PatrickDempsey.png', 'Im_JustinTimberlake.png', 'Im_RyanGosling.png', 'Im_GeorgeClooney.png', 'Im_ElijahWood.png', 'Im_RobertPattinson.png', 'Im_BenStiller.png'],same,0,0.4250514999985171,20,0,
AHLA1505,train,inv,fs,posfs_id2_im16.bmp_posfs_id11_im2.bmp,['Im_LeonardoDiCaprio.png', 'Im_BradPitt.png', 'Im_KeanuReeves.png', 'Im_PatrickDempsey.png', 'Im_JustinTimberlake.png', 'Im_RyanGosling.png', 'Im_GeorgeClooney.png', 'Im_ElijahWood.png', 'Im_RobertPattinson.png', 'Im_BenStiller.png'],diff,1,0.4334232000001066,21,0,
AHLA1505,train,pos,0,pos0_id7_im15.bmp_pos0_id7_im14.bmp,['Im_LeonardoDiCaprio.png', 'Im_BradPitt.png', 'Im_KeanuReeves.png', 'Im_PatrickDempsey.png', 'Im_JustinTimberlake.png', 'Im_RyanGosling.png', 'Im_GeorgeClooney.png', 'Im_ElijahWood.png', 'Im_RobertPattinson.png', 'Im_BenStiller.png'],same,1,0.4916825999989669,22,0,
AHLA1505,train,pos,120,pos120_id10_im18.bmp_pos120_id10_im1.bmp,['Im_LeonardoDiCaprio.png', 'Im_BradPitt.png', 'Im_KeanuReeves.png', 'Im_PatrickDempsey.png', 'Im_JustinTimberlake.png', 'Im_RyanGosling.png', 'Im_GeorgeClooney.png', 'Im_ElijahWood.png', 'Im_RobertPattinson.png', 'Im_BenStiller.png'],diff,0,0.8334070999990217,22,0,
AHLA1505,train,pos,60,pos60_id3_im17.bmp_pos60_id19_im27.bmp,['Im_LeonardoDiCaprio.png', 'Im_BradPitt.png', 'Im_KeanuReeves.png', 'Im_PatrickDempsey.png', 'Im_JustinTimberlake.png', 'Im_RyanGosling.png', 'Im_GeorgeClooney.png', 'Im_ElijahWood.png', 'Im_RobertPattinson.png', 'Im_BenStiller.png'],diff,1,0.42502220000096713,23,0,
AHLA1505,train,pos,150,pos150_id20_im12.bmp_pos150_id20_im30.bmp,['Im_LeonardoDiCaprio.png', 'Im_BradPitt.png', 'Im_KeanuReeves.png', 'Im_PatrickDempsey.png', 'Im_JustinTimberlake.png', 'Im_RyanGosling.png', 'Im_GeorgeClooney.png', 'Im_ElijahWood.png', 'Im_RobertPattinson.png', 'Im_BenStiller.png'],same,1,0.4085615999993024,24,0,
AHLA1505,train,pos,30,pos30_id17_im8.bmp_pos30_id3_im8.bmp,['Im_LeonardoDiCaprio.png', 'Im_BradPitt.png', 'Im_KeanuReeves.png', 'Im_PatrickDempsey.png', 'Im_JustinTimberlake.png', 'Im_RyanGosling.png', 'Im_GeorgeClooney.png', 'Im_ElijahWood.png', 'Im_RobertPattinson.png', 'Im_BenStiller.png'],same,0,0.4250436999991507,24,0,
AHLA1505,train,pos,fs,posfs_id7_im14.bmp_posfs_id13_im29.bmp,['Im_LeonardoDiCaprio.png', 'Im_BradPitt.png', 'Im_KeanuReeves.png', 'Im_PatrickDempsey.png', 'Im_JustinTimberlake.png', 'Im_RyanGosling.png', 'Im_GeorgeClooney.png', 'Im_ElijahWood.png', 'Im_RobertPattinson.png', 'Im_BenStiller.png'],diff,1,0.4251951000005647,25,0,
AHLA1505,train,pos,90,pos90_id10_im18.bmp_pos90_id10_im1.bmp,['Im_LeonardoDiCaprio.png', 'Im_BradPitt.png', 'Im_KeanuReeves.png', 'Im_PatrickDempsey.png', 'Im_JustinTimberlake.png', 'Im_RyanGosling.png', 'Im_GeorgeClooney.png', 'Im_ElijahWood.png', 'Im_RobertPattinson.png', 'Im_BenStiller.png'],same,1,1.1918067000005976,26,0,
AHLA1505,train,pos,30,pos30_id11_im2.bmp_pos30_id11_im10.bmp,['Im_LeonardoDiCaprio.png', 'Im_BradPitt.png', 'Im_KeanuReeves.png', 'Im_PatrickDempsey.png', 'Im_JustinTimberlake.png', 'Im_RyanGosling.png', 'Im_GeorgeClooney.png', 'Im_ElijahWood.png', 'Im_RobertPattinson.png', 'Im_BenStiller.png'],same,1,0.416712500000358,27,0,
AHLA1505,train,pos,60,pos60_id17_im8.bmp_pos60_id3_im8.bmp,['Im_LeonardoDiCaprio.png', 'Im_BradPitt.png', 'Im_KeanuReeves.png', 'Im_PatrickDempsey.png', 'Im_JustinTimberlake.png', 'Im_RyanGosling.png', 'Im_GeorgeClooney.png', 'Im_ElijahWood.png', 'Im_RobertPattinson.png', 'Im_BenStiller.png'],same,0,0.4249801000005391,27,0,
AHLA1505,train,pos,150,pos150_id6_im12.bmp_pos150_id6_im18.bmp,['Im_LeonardoDiCaprio.png', 'Im_BradPitt.png', 'Im_KeanuReeves.png', 'Im_PatrickDempsey.png', 'Im_JustinTimberlake.png', 'Im_RyanGosling.png', 'Im_GeorgeClooney.png', 'Im_ElijahWood.png', 'Im_RobertPattinson.png', 'Im_BenStiller.png'],same,1,0.40838260000055016,28,0,
AHLA1505,train,pos,0,pos0_id11_im10.bmp_pos0_id11_im2.bmp,['Im_LeonardoDiCaprio.png', 'Im_BradPitt.png', 'Im_KeanuReeves.png', 'Im_PatrickDempsey.png', 'Im_JustinTimberlake.png', 'Im_RyanGosling.png', 'Im_GeorgeClooney.png', 'Im_ElijahWood.png', 'Im_RobertPattinson.png', 'Im_BenStiller.png'],same,1,0.4083896000011009,29,0,
AHLA1505,train,pos,fs,posfs_id3_im17.bmp_posfs_id19_im27.bmp,['Im_LeonardoDiCaprio.png', 'Im_BradPitt.png', 'Im_KeanuReeves.png', 'Im_PatrickDempsey.png', 'Im_JustinTimberlake.png', 'Im_RyanGosling.png', 'Im_GeorgeClooney.png', 'Im_ElijahWood.png', 'Im_RobertPattinson.png', 'Im_BenStiller.png'],diff,1,0.6751973000009457,30,0,
AHLA1505,train,pos,120,pos120_id6_im19.bmp_pos120_id13_im10.bmp,['Im_LeonardoDiCaprio.png', 'Im_BradPitt.png', 'Im_KeanuReeves.png', 'Im_PatrickDempsey.png', 'Im_JustinTimberlake.png', 'Im_RyanGosling.png', 'Im_GeorgeClooney.png', 'Im_ElijahWood.png', 'Im_RobertPattinson.png', 'Im_BenStiller.png'],diff,1,0.40830629999982193,31,0,
AHLA1505,train,pos,90,pos90_id2_im2.bmp_pos90_id2_im3.bmp,['Im_LeonardoDiCaprio.png', 'Im_BradPitt.png', 'Im_KeanuReeves.png', 'Im_PatrickDempsey.png', 'Im_JustinTimberlake.png', 'Im_RyanGosling.png', 'Im_GeorgeClooney.png', 'Im_ElijahWood.png', 'Im_RobertPattinson.png', 'Im_BenStiller.png'],same,1,0.7254335999987234,32,0,
AHLA1505,train,inv,0,pos0_id20_im12.bmp_pos0_id20_im3.bmp,['Im_LeonardoDiCaprio.png', 'Im_BradPitt.png', 'Im_KeanuReeves.png', 'Im_PatrickDempsey.png', 'Im_JustinTimberlake.png', 'Im_RyanGosling.png', 'Im_GeorgeClooney.png', 'Im_ElijahWood.png', 'Im_RobertPattinson.png', 'Im_BenStiller.png'],same,1,0.575232799999867,1,76.19047619047619,
AHLA1505,train,inv,fs,posfs_id17_im14.bmp_posfs_id17_im9.bmp,['Im_LeonardoDiCaprio.png', 'Im_BradPitt.png', 'Im_KeanuReeves.png', 'Im_PatrickDempsey.png', 'Im_JustinTimberlake.png', 'Im_RyanGosling.png', 'Im_GeorgeClooney.png', 'Im_ElijahWood.png', 'Im_RobertPattinson.png', 'Im_BenStiller.png'],same,1,0.4249647000015102,2,76.19047619047619,
AHLA1505,train,inv,30,pos30_id20_im30.bmp_pos30_id10_im18.bmp,['Im_LeonardoDiCaprio.png', 'Im_BradPitt.png', 'Im_KeanuReeves.png', 'Im_PatrickDempsey.png', 'Im_JustinTimberlake.png', 'Im_RyanGosling.png', 'Im_GeorgeClooney.png', 'Im_ElijahWood.png', 'Im_RobertPattinson.png', 'Im_BenStiller.png'],same,0,0.40841399999953865,2,76.19047619047619,
AHLA1505,train,inv,0,pos0_id11_im2.bmp_pos0_id11_im1.bmp,['Im_LeonardoDiCaprio.png', 'Im_BradPitt.png', 'Im_KeanuReeves.png', 'Im_PatrickDempsey.png', 'Im_JustinTimberlake.png', 'Im_RyanGosling.png', 'Im_GeorgeClooney.png', 'Im_ElijahWood.png', 'Im_RobertPattinson.png', 'Im_BenStiller.png'],same,1,0.7003426000010222,3,76.19047619047619,
AHLA1505,train,inv,150,pos150_id3_im8.bmp_pos150_id17_im9.bmp,['Im_LeonardoDiCaprio.png', 'Im_BradPitt.png', 'Im_KeanuReeves.png', 'Im_PatrickDempsey.png', 'Im_JustinTimberlake.png', 'Im_RyanGosling.png', 'Im_GeorgeClooney.png', 'Im_ElijahWood.png', 'Im_RobertPattinson.png', 'Im_BenStiller.png'],same,0,0.4249734000004537,3,76.19047619047619,
AHLA1505,train,inv,60,pos60_id2_im2.bmp_pos60_id2_im3.bmp,['Im_LeonardoDiCaprio.png', 'Im_BradPitt.png', 'Im_KeanuReeves.png', 'Im_PatrickDempsey.png', 'Im_JustinTimberlake.png', 'Im_RyanGosling.png', 'Im_GeorgeClooney.png', 'Im_ElijahWood.png', 'Im_RobertPattinson.png', 'Im_BenStiller.png'],same,1,0.7085693999997602,4,76.19047619047619,
AHLA1505,train,inv,30,pos30_id13_im29.bmp_pos30_id13_im10.bmp,['Im_LeonardoDiCaprio.png', 'Im_BradPitt.png', 'Im_KeanuReeves.png', 'Im_PatrickDempsey.png', 'Im_JustinTimberlake.png', 'Im_RyanGosling.png', 'Im_GeorgeClooney.png', 'Im_ElijahWood.png', 'Im_RobertPattinson.png', 'Im_BenStiller.png'],same,1,0.40839670000059414,5,76.19047619047619,
AHLA1505,train,inv,90,pos90_id10_im18.bmp_pos90_id10_im17.bmp,['Im_LeonardoDiCaprio.png', 'Im_BradPitt.png', 'Im_KeanuReeves.png', 'Im_PatrickDempsey.png', 'Im_JustinTimberlake.png', 'Im_RyanGosling.png', 'Im_GeorgeClooney.png', 'Im_ElijahWood.png', 'Im_RobertPattinson.png', 'Im_BenStiller.png'],diff,0,0.4919482999994216,5,76.19047619047619,
AHLA1505,train,inv,120,pos120_id3_im8.bmp_pos120_id17_im8.bmp,['Im_LeonardoDiCaprio.png', 'Im_BradPitt.png', 'Im_KeanuReeves.png', 'Im_PatrickDempsey.png', 'Im_JustinTimberlake.png', 'Im_RyanGosling.png', 'Im_GeorgeClooney.png', 'Im_ElijahWood.png', 'Im_RobertPattinson.png', 'Im_BenStiller.png'],diff,1,0.4499682000005123,6,76.19047619047619,
AHLA1505,train,inv,90,pos90_id6_im18.bmp_pos90_id6_im12.bmp,['Im_LeonardoDiCaprio.png', 'Im_BradPitt.png', 'Im_KeanuReeves.png', 'Im_PatrickDempsey.png', 'Im_JustinTimberlake.png', 'Im_RyanGosling.png', 'Im_GeorgeClooney.png', 'Im_ElijahWood.png', 'Im_RobertPattinson.png', 'Im_BenStiller.png'],same,1,0.40826779999952123,7,76.19047619047619,
AHLA1505,train,inv,150,pos150_id17_im9.bmp_pos150_id17_im14.bmp,['Im_LeonardoDiCaprio.png', 'Im_BradPitt.png', 'Im_KeanuReeves.png', 'Im_PatrickDempsey.png', 'Im_JustinTimberlake.png', 'Im_RyanGosling.png', 'Im_GeorgeClooney.png', 'Im_ElijahWood.png', 'Im_RobertPattinson.png', 'Im_BenStiller.png'],same,1,0.4168057000006229,8,76.19047619047619,
AHLA1505,train,inv,60,pos60_id19_im4.bmp_pos60_id19_im8.bmp,['Im_LeonardoDiCaprio.png', 'Im_BradPitt.png', 'Im_KeanuReeves.png', 'Im_PatrickDempsey.png', 'Im_JustinTimberlake.png', 'Im_RyanGosling.png', 'Im_GeorgeClooney.png', 'Im_ElijahWood.png', 'Im_RobertPattinson.png', 'Im_BenStiller.png'],same,1,0.4083953000008478,9,76.19047619047619,
AHLA1505,train,inv,120,pos120_id20_im3.bmp_pos120_id6_im18.bmp,['Im_LeonardoDiCaprio.png', 'Im_BradPitt.png', 'Im_KeanuReeves.png', 'Im_PatrickDempsey.png', 'Im_JustinTimberlake.png', 'Im_RyanGosling.png', 'Im_GeorgeClooney.png', 'Im_ElijahWood.png', 'Im_RobertPattinson.png', 'Im_BenStiller.png'],same,0,0.475065499998891,9,76.19047619047619,
AHLA1505,train,inv,fs,posfs_id13_im29.bmp_posfs_id7_im14.bmp,['Im_LeonardoDiCaprio.png', 'Im_BradPitt.png', 'Im_KeanuReeves.png', 'Im_PatrickDempsey.png', 'Im_JustinTimberlake.png', 'Im_RyanGosling.png', 'Im_GeorgeClooney.png', 'Im_ElijahWood.png', 'Im_RobertPattinson.png', 'Im_BenStiller.png'],diff,1,0.4250487000008434,10,76.19047619047619,
AHLA1505,train,pos,fs,posfs_id2_im2.bmp_posfs_id10_im17.bmp,['Im_LeonardoDiCaprio.png', 'Im_BradPitt.png', 'Im_KeanuReeves.png', 'Im_PatrickDempsey.png', 'Im_JustinTimberlake.png', 'Im_RyanGosling.png', 'Im_GeorgeClooney.png', 'Im_ElijahWood.png', 'Im_RobertPattinson.png', 'Im_BenStiller.png'],diff,1,0.42507630000000063,11,76.19047619047619,
AHLA1505,train,pos,0,pos0_id11_im1.bmp_pos0_id11_im10.bmp,['Im_LeonardoDiCaprio.png', 'Im_BradPitt.png', 'Im_KeanuReeves.png', 'Im_PatrickDempsey.png', 'Im_JustinTimberlake.png', 'Im_RyanGosling.png', 'Im_GeorgeClooney.png', 'Im_ElijahWood.png', 'Im_RobertPattinson.png', 'Im_BenStiller.png'],diff,0,0.4251991999990423,11,76.19047619047619,
AHLA1505,train,pos,90,pos90_id11_im2.bmp_pos90_id11_im10.bmp,['Im_LeonardoDiCaprio.png', 'Im_BradPitt.png', 'Im_KeanuReeves.png', 'Im_PatrickDempsey.png', 'Im_JustinTimberlake.png', 'Im_RyanGosling.png', 'Im_GeorgeClooney.png', 'Im_ElijahWood.png', 'Im_RobertPattinson.png', 'Im_BenStiller.png'],diff,0,0.6082876999989821,11,76.19047619047619,
AHLA1505,train,pos,60,pos60_id7_im26.bmp_pos60_id7_im14.bmp,['Im_LeonardoDiCaprio.png', 'Im_BradPitt.png', 'Im_KeanuReeves.png', 'Im_PatrickDempsey.png', 'Im_JustinTimberlake.png', 'Im_RyanGosling.png', 'Im_GeorgeClooney.png', 'Im_ElijahWood.png', 'Im_RobertPattinson.png', 'Im_BenStiller.png'],same,1,0.4083401000007143,12,76.19047619047619,
AHLA1505,train,pos,60,pos60_id19_im4.bmp_pos60_id19_im27.bmp,['Im_LeonardoDiCaprio.png', 'Im_BradPitt.png', 'Im_KeanuReeves.png', 'Im_PatrickDempsey.png', 'Im_JustinTimberlake.png', 'Im_RyanGosling.png', 'Im_GeorgeClooney.png', 'Im_ElijahWood.png', 'Im_RobertPattinson.png', 'Im_BenStiller.png'],same,1,0.47511069999927713,13,76.19047619047619,
AHLA1505,train,pos,30,pos30_id10_im1.bmp_pos30_id6_im12.bmp,['Im_LeonardoDiCaprio.png', 'Im_BradPitt.png', 'Im_KeanuReeves.png', 'Im_PatrickDempsey.png', 'Im_JustinTimberlake.png', 'Im_RyanGosling.png', 'Im_GeorgeClooney.png', 'Im_ElijahWood.png', 'Im_RobertPattinson.png', 'Im_BenStiller.png'],diff,1,0.41671779999887804,14,76.19047619047619,
AHLA1505,train,pos,0,pos0_id10_im18.bmp_pos0_id10_im1.bmp,['Im_LeonardoDiCaprio.png', 'Im_BradPitt.png', 'Im_KeanuReeves.png', 'Im_PatrickDempsey.png', 'Im_JustinTimberlake.png', 'Im_RyanGosling.png', 'Im_GeorgeClooney.png', 'Im_ElijahWood.png', 'Im_RobertPattinson.png', 'Im_BenStiller.png'],same,1,0.9917844999999943,15,76.19047619047619,
AHLA1505,train,pos,90,pos90_id20_im3.bmp_pos90_id6_im19.bmp,['Im_LeonardoDiCaprio.png', 'Im_BradPitt.png', 'Im_KeanuReeves.png', 'Im_PatrickDempsey.png', 'Im_JustinTimberlake.png', 'Im_RyanGosling.png', 'Im_GeorgeClooney.png', 'Im_ElijahWood.png', 'Im_RobertPattinson.png', 'Im_BenStiller.png'],diff,1,0.8500587000016822,16,76.19047619047619,
AHLA1505,train,pos,150,pos150_id6_im12.bmp_pos150_id3_im17.bmp,['Im_LeonardoDiCaprio.png', 'Im_BradPitt.png', 'Im_KeanuReeves.png', 'Im_PatrickDempsey.png', 'Im_JustinTimberlake.png', 'Im_RyanGosling.png', 'Im_GeorgeClooney.png', 'Im_ElijahWood.png', 'Im_RobertPattinson.png', 'Im_BenStiller.png'],diff,1,0.4085189999987051,17,76.19047619047619,
AHLA1505,train,pos,30,pos30_id10_im1.bmp_pos30_id2_im16.bmp,['Im_LeonardoDiCaprio.png', 'Im_BradPitt.png', 'Im_KeanuReeves.png', 'Im_PatrickDempsey.png', 'Im_JustinTimberlake.png', 'Im_RyanGosling.png', 'Im_GeorgeClooney.png', 'Im_ElijahWood.png', 'Im_RobertPattinson.png', 'Im_BenStiller.png'],diff,1,0.6170921000011731,18,76.19047619047619,
AHLA1505,train,pos,150,pos150_id11_im1.bmp_pos150_id13_im15.bmp,['Im_LeonardoDiCaprio.png', 'Im_BradPitt.png', 'Im_KeanuReeves.png', 'Im_PatrickDempsey.png', 'Im_JustinTimberlake.png', 'Im_RyanGosling.png', 'Im_GeorgeClooney.png', 'Im_ElijahWood.png', 'Im_RobertPattinson.png', 'Im_BenStiller.png'],diff,1,0.42506739999953425,19,76.19047619047619,
AHLA1505,train,pos,fs,posfs_id19_im8.bmp_posfs_id19_im4.bmp,['Im_LeonardoDiCaprio.png', 'Im_BradPitt.png', 'Im_KeanuReeves.png', 'Im_PatrickDempsey.png', 'Im_JustinTimberlake.png', 'Im_RyanGosling.png', 'Im_GeorgeClooney.png', 'Im_ElijahWood.png', 'Im_RobertPattinson.png', 'Im_BenStiller.png'],same,1,0.4082520000010845,20,76.19047619047619,
AHLA1505,train,pos,120,pos120_id7_im26.bmp_pos120_id19_im4.bmp,['Im_LeonardoDiCaprio.png', 'Im_BradPitt.png', 'Im_KeanuReeves.png', 'Im_PatrickDempsey.png', 'Im_JustinTimberlake.png', 'Im_RyanGosling.png', 'Im_GeorgeClooney.png', 'Im_ElijahWood.png', 'Im_RobertPattinson.png', 'Im_BenStiller.png'],diff,1,0.40835340000012366,21,76.19047619047619,
AHLA1505,train,pos,120,pos120_id17_im14.bmp_pos120_id2_im3.bmp,['Im_LeonardoDiCaprio.png', 'Im_BradPitt.png', 'Im_KeanuReeves.png', 'Im_PatrickDempsey.png', 'Im_JustinTimberlake.png', 'Im_RyanGosling.png', 'Im_GeorgeClooney.png', 'Im_ElijahWood.png', 'Im_RobertPattinson.png', 'Im_BenStiller.png'],diff,1,0.7252799999987474,22,76.19047619047619,
AHLA1505,train,neg,60,neg60_id6_im12.bmp_neg60_id10_im1.bmp,['Im_LeonardoDiCaprio.png', 'Im_BradPitt.png', 'Im_KeanuReeves.png', 'Im_PatrickDempsey.png', 'Im_JustinTimberlake.png', 'Im_RyanGosling.png', 'Im_GeorgeClooney.png', 'Im_ElijahWood.png', 'Im_RobertPattinson.png', 'Im_BenStiller.png'],same,0,0.7083072000004904,22,76.19047619047619,
AHLA1505,train,neg,60,neg60_id7_im14.bmp_neg60_id7_im15.bmp,['Im_LeonardoDiCaprio.png', 'Im_BradPitt.png', 'Im_KeanuReeves.png', 'Im_PatrickDempsey.png', 'Im_JustinTimberlake.png', 'Im_RyanGosling.png', 'Im_GeorgeClooney.png', 'Im_ElijahWood.png', 'Im_RobertPattinson.png', 'Im_BenStiller.png'],same,1,0.42504399999961606,23,76.19047619047619,
AHLA1505,train,neg,120,neg120_id7_im14.bmp_neg120_id13_im29.bmp,['Im_LeonardoDiCaprio.png', 'Im_BradPitt.png', 'Im_KeanuReeves.png', 'Im_PatrickDempsey.png', 'Im_JustinTimberlake.png', 'Im_RyanGosling.png', 'Im_GeorgeClooney.png', 'Im_ElijahWood.png', 'Im_RobertPattinson.png', 'Im_BenStiller.png'],diff,1,0.6085727999998198,24,76.19047619047619,
AHLA1505,train,neg,90,neg90_id3_im17.bmp_neg90_id19_im27.bmp,['Im_LeonardoDiCaprio.png', 'Im_BradPitt.png', 'Im_KeanuReeves.png', 'Im_PatrickDempsey.png', 'Im_JustinTimberlake.png', 'Im_RyanGosling.png', 'Im_GeorgeClooney.png', 'Im_ElijahWood.png', 'Im_RobertPattinson.png', 'Im_BenStiller.png'],diff,1,0.766468599998916,25,76.19047619047619,
AHLA1505,train,neg,90,neg90_id13_im29.bmp_neg90_id13_im10.bmp,['Im_LeonardoDiCaprio.png', 'Im_BradPitt.png', 'Im_KeanuReeves.png', 'Im_PatrickDempsey.png', 'Im_JustinTimberlake.png', 'Im_RyanGosling.png', 'Im_GeorgeClooney.png', 'Im_ElijahWood.png', 'Im_RobertPattinson.png', 'Im_BenStiller.png'],diff,0,0.875518099999681,25,76.19047619047619,
AHLA1505,train,neg,0,neg0_id7_im26.bmp_neg0_id7_im15.bmp,['Im_LeonardoDiCaprio.png', 'Im_BradPitt.png', 'Im_KeanuReeves.png', 'Im_PatrickDempsey.png', 'Im_JustinTimberlake.png', 'Im_RyanGosling.png', 'Im_GeorgeClooney.png', 'Im_ElijahWood.png', 'Im_RobertPattinson.png', 'Im_BenStiller.png'],same,1,0.4252697000010812,26,76.19047619047619,
AHLA1505,train,neg,150,neg150_id3_im17.bmp_neg150_id3_im6.bmp,['Im_LeonardoDiCaprio.png', 'Im_BradPitt.png', 'Im_KeanuReeves.png', 'Im_PatrickDempsey.png', 'Im_JustinTimberlake.png', 'Im_RyanGosling.png', 'Im_GeorgeClooney.png', 'Im_ElijahWood.png', 'Im_RobertPattinson.png', 'Im_BenStiller.png'],same,1,0.41671519999908924,27,76.19047619047619,
AHLA1505,train,neg,fs,negfs_id6_im12.bmp_negfs_id10_im1.bmp,['Im_LeonardoDiCaprio.png', 'Im_BradPitt.png', 'Im_KeanuReeves.png', 'Im_PatrickDempsey.png', 'Im_JustinTimberlake.png', 'Im_RyanGosling.png', 'Im_GeorgeClooney.png', 'Im_ElijahWood.png', 'Im_RobertPattinson.png', 'Im_BenStiller.png'],diff,1,0.4752651999988302,28,76.19047619047619,
AHLA1505,train,neg,150,neg150_id19_im27.bmp_neg150_id19_im4.bmp,['Im_LeonardoDiCaprio.png', 'Im_BradPitt.png', 'Im_KeanuReeves.png', 'Im_PatrickDempsey.png', 'Im_JustinTimberlake.png', 'Im_RyanGosling.png', 'Im_GeorgeClooney.png', 'Im_ElijahWood.png', 'Im_RobertPattinson.png', 'Im_BenStiller.png'],same,1,0.5586770000008983,29,76.19047619047619,
AHLA1505,train,neg,120,neg120_id2_im16.bmp_neg120_id11_im2.bmp,['Im_LeonardoDiCaprio.png', 'Im_BradPitt.png', 'Im_KeanuReeves.png', 'Im_PatrickDempsey.png', 'Im_JustinTimberlake.png', 'Im_RyanGosling.png', 'Im_GeorgeClooney.png', 'Im_ElijahWood.png', 'Im_RobertPattinson.png', 'Im_BenStiller.png'],diff,1,0.608574599998974,30,76.19047619047619,
AHLA1505,train,neg,0,neg0_id7_im26.bmp_neg0_id2_im3.bmp,['Im_LeonardoDiCaprio.png', 'Im_BradPitt.png', 'Im_KeanuReeves.png', 'Im_PatrickDempsey.png', 'Im_JustinTimberlake.png', 'Im_RyanGosling.png', 'Im_GeorgeClooney.png', 'Im_ElijahWood.png', 'Im_RobertPattinson.png', 'Im_BenStiller.png'],diff,1,0.5085921999998391,31,76.19047619047619,
AHLA1505,train,neg,30,neg30_id10_im17.bmp_neg30_id10_im1.bmp,['Im_LeonardoDiCaprio.png', 'Im_BradPitt.png', 'Im_KeanuReeves.png', 'Im_PatrickDempsey.png', 'Im_JustinTimberlake.png', 'Im_RyanGosling.png', 'Im_GeorgeClooney.png', 'Im_ElijahWood.png', 'Im_RobertPattinson.png', 'Im_BenStiller.png'],same,1,1.4086051000012958,32,76.19047619047619,
AHLA1505,train,neg,30,neg30_id3_im17.bmp_neg30_id6_im12.bmp,['Im_LeonardoDiCaprio.png', 'Im_BradPitt.png', 'Im_KeanuReeves.png', 'Im_PatrickDempsey.png', 'Im_JustinTimberlake.png', 'Im_RyanGosling.png', 'Im_GeorgeClooney.png', 'Im_ElijahWood.png', 'Im_RobertPattinson.png', 'Im_BenStiller.png'],diff,1,0.4166798000005656,33,76.19047619047619,
AHLA1505,train,neg,fs,negfs_id3_im8.bmp_negfs_id17_im9.bmp,['Im_LeonardoDiCaprio.png', 'Im_BradPitt.png', 'Im_KeanuReeves.png', 'Im_PatrickDempsey.png', 'Im_JustinTimberlake.png', 'Im_RyanGosling.png', 'Im_GeorgeClooney.png', 'Im_ElijahWood.png', 'Im_RobertPattinson.png', 'Im_BenStiller.png'],diff,1,0.5751838000014686,34,76.19047619047619,
AHLA1505,0,inv,120,pos120_id7_im14.bmp_pos120_id7_im26.bmp,['Im_LeonardoDiCaprio.png', 'Im_BradPitt.png', 'Im_KeanuReeves.png', 'Im_PatrickDempsey.png', 'Im_JustinTimberlake.png', 'Im_RyanGosling.png', 'Im_GeorgeClooney.png', 'Im_ElijahWood.png', 'Im_RobertPattinson.png', 'Im_BenStiller.png'],diff,0,0.783516999999847,0,0,
AHLA1505,0,inv,150,pos150_id3_im17.bmp_pos150_id6_im12.bmp,['Im_LeonardoDiCaprio.png', 'Im_BradPitt.png', 'Im_KeanuReeves.png', 'Im_PatrickDempsey.png', 'Im_JustinTimberlake.png', 'Im_RyanGosling.png', 'Im_GeorgeClooney.png', 'Im_ElijahWood.png', 'Im_RobertPattinson.png', 'Im_BenStiller.png'],diff,1,0.4250630000005913,1,0,
AHLA1505,0,inv,60,pos60_id17_im9.bmp_pos60_id3_im8.bmp,['Im_LeonardoDiCaprio.png', 'Im_BradPitt.png', 'Im_KeanuReeves.png', 'Im_PatrickDempsey.png', 'Im_JustinTimberlake.png', 'Im_RyanGosling.png', 'Im_GeorgeClooney.png', 'Im_ElijahWood.png', 'Im_RobertPattinson.png', 'Im_BenStiller.png'],diff,1,0.7501100999998016,2,0,
AHLA1505,0,inv,fs,posfs_id7_im26.bmp_posfs_id2_im3.bmp,['Im_LeonardoDiCaprio.png', 'Im_BradPitt.png', 'Im_KeanuReeves.png', 'Im_PatrickDempsey.png', 'Im_JustinTimberlake.png', 'Im_RyanGosling.png', 'Im_GeorgeClooney.png', 'Im_ElijahWood.png', 'Im_RobertPattinson.png', 'Im_BenStiller.png'],same,0,1.0750873999986652,2,0,
AHLA1505,0,inv,90,pos90_id20_im12.bmp_pos90_id20_im30.bmp,['Im_LeonardoDiCaprio.png', 'Im_BradPitt.png', 'Im_KeanuReeves.png', 'Im_PatrickDempsey.png', 'Im_JustinTimberlake.png', 'Im_RyanGosling.png', 'Im_GeorgeClooney.png', 'Im_ElijahWood.png', 'Im_RobertPattinson.png', 'Im_BenStiller.png'],diff,0,0.6500952000005782,2,0,
AHLA1505,0,inv,30,pos30_id11_im2.bmp_pos30_id2_im16.bmp,['Im_LeonardoDiCaprio.png', 'Im_BradPitt.png', 'Im_KeanuReeves.png', 'Im_PatrickDempsey.png', 'Im_JustinTimberlake.png', 'Im_RyanGosling.png', 'Im_GeorgeClooney.png', 'Im_ElijahWood.png', 'Im_RobertPattinson.png', 'Im_BenStiller.png'],diff,1,0.43365219999941473,3,0,
AHLA1505,0,inv,120,pos120_id11_im2.bmp_pos120_id10_im18.bmp,['Im_LeonardoDiCaprio.png', 'Im_BradPitt.png', 'Im_KeanuReeves.png', 'Im_PatrickDempsey.png', 'Im_JustinTimberlake.png', 'Im_RyanGosling.png', 'Im_GeorgeClooney.png', 'Im_ElijahWood.png', 'Im_RobertPattinson.png', 'Im_BenStiller.png'],diff,1,0.4167586999992636,4,0,
AHLA1505,0,inv,60,pos60_id3_im8.bmp_pos60_id3_im6.bmp,['Im_LeonardoDiCaprio.png', 'Im_BradPitt.png', 'Im_KeanuReeves.png', 'Im_PatrickDempsey.png', 'Im_JustinTimberlake.png', 'Im_RyanGosling.png', 'Im_GeorgeClooney.png', 'Im_ElijahWood.png', 'Im_RobertPattinson.png', 'Im_BenStiller.png'],same,1,0.7586236000006465,5,0,
AHLA1505,0,inv,30,pos30_id7_im26.bmp_pos30_id19_im4.bmp,['Im_LeonardoDiCaprio.png', 'Im_BradPitt.png', 'Im_KeanuReeves.png', 'Im_PatrickDempsey.png', 'Im_JustinTimberlake.png', 'Im_RyanGosling.png', 'Im_GeorgeClooney.png', 'Im_ElijahWood.png', 'Im_RobertPattinson.png', 'Im_BenStiller.png'],same,0,0.8514522000004945,5,0,
AHLA1505,0,inv,0,pos0_id6_im19.bmp_pos0_id13_im10.bmp,['Im_LeonardoDiCaprio.png', 'Im_BradPitt.png', 'Im_KeanuReeves.png', 'Im_PatrickDempsey.png', 'Im_JustinTimberlake.png', 'Im_RyanGosling.png', 'Im_GeorgeClooney.png', 'Im_ElijahWood.png', 'Im_RobertPattinson.png', 'Im_BenStiller.png'],diff,1,0.5252421000004688,6,0,
AHLA1505,0,inv,90,pos90_id3_im8.bmp_pos90_id17_im8.bmp,['Im_LeonardoDiCaprio.png', 'Im_BradPitt.png', 'Im_KeanuReeves.png', 'Im_PatrickDempsey.png', 'Im_JustinTimberlake.png', 'Im_RyanGosling.png', 'Im_GeorgeClooney.png', 'Im_ElijahWood.png', 'Im_RobertPattinson.png', 'Im_BenStiller.png'],diff,1,0.8917629000006855,7,0,
AHLA1505,0,inv,fs,posfs_id10_im17.bmp_posfs_id17_im8.bmp,['Im_LeonardoDiCaprio.png', 'Im_BradPitt.png', 'Im_KeanuReeves.png', 'Im_PatrickDempsey.png', 'Im_JustinTimberlake.png', 'Im_RyanGosling.png', 'Im_GeorgeClooney.png', 'Im_ElijahWood.png', 'Im_RobertPattinson.png', 'Im_BenStiller.png'],diff,1,0.6338338000005024,8,0,
AHLA1505,0,inv,0,pos0_id20_im30.bmp_pos0_id20_im12.bmp,['Im_LeonardoDiCaprio.png', 'Im_BradPitt.png', 'Im_KeanuReeves.png', 'Im_PatrickDempsey.png', 'Im_JustinTimberlake.png', 'Im_RyanGosling.png', 'Im_GeorgeClooney.png', 'Im_ElijahWood.png', 'Im_RobertPattinson.png', 'Im_BenStiller.png'],same,1,0.4250702999997884,9,0,
AHLA1505,0,inv,150,pos150_id6_im18.bmp_pos150_id20_im3.bmp,['Im_LeonardoDiCaprio.png', 'Im_BradPitt.png', 'Im_KeanuReeves.png', 'Im_PatrickDempsey.png', 'Im_JustinTimberlake.png', 'Im_RyanGosling.png', 'Im_GeorgeClooney.png', 'Im_ElijahWood.png', 'Im_RobertPattinson.png', 'Im_BenStiller.png'],diff,1,0.5836125999994692,10,0,
AHLA1505,1,pos,0,pos0_id11_im1.bmp_pos0_id13_im15.bmp,['Im_LeonardoDiCaprio.png', 'Im_BradPitt.png', 'Im_KeanuReeves.png', 'Im_PatrickDempsey.png', 'Im_JustinTimberlake.png', 'Im_RyanGosling.png', 'Im_GeorgeClooney.png', 'Im_ElijahWood.png', 'Im_RobertPattinson.png', 'Im_BenStiller.png'],diff,1,0.4167312999998103,11,0,
AHLA1505,1,pos,120,pos120_id13_im15.bmp_pos120_id13_im29.bmp,['Im_LeonardoDiCaprio.png', 'Im_BradPitt.png', 'Im_KeanuReeves.png', 'Im_PatrickDempsey.png', 'Im_JustinTimberlake.png', 'Im_RyanGosling.png', 'Im_GeorgeClooney.png', 'Im_ElijahWood.png', 'Im_RobertPattinson.png', 'Im_BenStiller.png'],same,1,0.46672010000111186,12,0,
AHLA1505,1,pos,fs,posfs_id6_im12.bmp_posfs_id3_im17.bmp,['Im_LeonardoDiCaprio.png', 'Im_BradPitt.png', 'Im_KeanuReeves.png', 'Im_PatrickDempsey.png', 'Im_JustinTimberlake.png', 'Im_RyanGosling.png', 'Im_GeorgeClooney.png', 'Im_ElijahWood.png', 'Im_RobertPattinson.png', 'Im_BenStiller.png'],diff,1,0.41671689999930095,13,0,
AHLA1505,1,pos,150,pos150_id13_im15.bmp_pos150_id13_im10.bmp,['Im_LeonardoDiCaprio.png', 'Im_BradPitt.png', 'Im_KeanuReeves.png', 'Im_PatrickDempsey.png', 'Im_JustinTimberlake.png', 'Im_RyanGosling.png', 'Im_GeorgeClooney.png', 'Im_ElijahWood.png', 'Im_RobertPattinson.png', 'Im_BenStiller.png'],same,1,0.5415479999992385,14,0,
AHLA1505,1,pos,90,pos90_id10_im18.bmp_pos90_id11_im2.bmp,['Im_LeonardoDiCaprio.png', 'Im_BradPitt.png', 'Im_KeanuReeves.png', 'Im_PatrickDempsey.png', 'Im_JustinTimberlake.png', 'Im_RyanGosling.png', 'Im_GeorgeClooney.png', 'Im_ElijahWood.png', 'Im_RobertPattinson.png', 'Im_BenStiller.png'],diff,1,0.42507709999881627,15,0,
AHLA1505,1,pos,120,pos120_id19_im8.bmp_pos120_id19_im4.bmp,['Im_LeonardoDiCaprio.png', 'Im_BradPitt.png', 'Im_KeanuReeves.png', 'Im_PatrickDempsey.png', 'Im_JustinTimberlake.png', 'Im_RyanGosling.png', 'Im_GeorgeClooney.png', 'Im_ElijahWood.png', 'Im_RobertPattinson.png', 'Im_BenStiller.png'],same,1,0.4168114999993122,16,0,
AHLA1505,1,pos,30,pos30_id6_im12.bmp_pos30_id3_im17.bmp,['Im_LeonardoDiCaprio.png', 'Im_BradPitt.png', 'Im_KeanuReeves.png', 'Im_PatrickDempsey.png', 'Im_JustinTimberlake.png', 'Im_RyanGosling.png', 'Im_GeorgeClooney.png', 'Im_ElijahWood.png', 'Im_RobertPattinson.png', 'Im_BenStiller.png'],diff,1,0.41658280000046943,17,0,
AHLA1505,1,pos,60,pos60_id17_im14.bmp_pos60_id17_im9.bmp,['Im_LeonardoDiCaprio.png', 'Im_BradPitt.png', 'Im_KeanuReeves.png', 'Im_PatrickDempsey.png', 'Im_JustinTimberlake.png', 'Im_RyanGosling.png', 'Im_GeorgeClooney.png', 'Im_ElijahWood.png', 'Im_RobertPattinson.png', 'Im_BenStiller.png'],same,1,0.4584688000013557,18,0,
AHLA1505,1,pos,60,pos60_id13_im15.bmp_pos60_id13_im10.bmp,['Im_LeonardoDiCaprio.png', 'Im_BradPitt.png', 'Im_KeanuReeves.png', 'Im_PatrickDempsey.png', 'Im_JustinTimberlake.png', 'Im_RyanGosling.png', 'Im_GeorgeClooney.png', 'Im_ElijahWood.png', 'Im_RobertPattinson.png', 'Im_BenStiller.png'],same,1,0.5751184000000649,19,0,
AHLA1505,1,pos,fs,posfs_id3_im6.bmp_posfs_id7_im14.bmp,['Im_LeonardoDiCaprio.png', 'Im_BradPitt.png', 'Im_KeanuReeves.png', 'Im_PatrickDempsey.png', 'Im_JustinTimberlake.png', 'Im_RyanGosling.png', 'Im_GeorgeClooney.png', 'Im_ElijahWood.png', 'Im_RobertPattinson.png', 'Im_BenStiller.png'],diff,1,0.4250608000002103,20,0,
AHLA1505,1,pos,0,pos0_id2_im16.bmp_pos0_id2_im2.bmp,['Im_LeonardoDiCaprio.png', 'Im_BradPitt.png', 'Im_KeanuReeves.png', 'Im_PatrickDempsey.png', 'Im_JustinTimberlake.png', 'Im_RyanGosling.png', 'Im_GeorgeClooney.png', 'Im_ElijahWood.png', 'Im_RobertPattinson.png', 'Im_BenStiller.png'],same,1,0.41674220000095374,21,0,
AHLA1505,1,pos,90,pos90_id19_im8.bmp_pos90_id19_im4.bmp,['Im_LeonardoDiCaprio.png', 'Im_BradPitt.png', 'Im_KeanuReeves.png', 'Im_PatrickDempsey.png', 'Im_JustinTimberlake.png', 'Im_RyanGosling.png', 'Im_GeorgeClooney.png', 'Im_ElijahWood.png', 'Im_RobertPattinson.png', 'Im_BenStiller.png'],same,1,0.41686699999991106,22,0,
AHLA1505,1,pos,30,pos30_id20_im30.bmp_pos30_id20_im12.bmp,['Im_LeonardoDiCaprio.png', 'Im_BradPitt.png', 'Im_KeanuReeves.png', 'Im_PatrickDempsey.png', 'Im_JustinTimberlake.png', 'Im_RyanGosling.png', 'Im_GeorgeClooney.png', 'Im_ElijahWood.png', 'Im_RobertPattinson.png', 'Im_BenStiller.png'],same,1,0.6418923000001087,23,0,
AHLA1505,1,pos,150,pos150_id6_im19.bmp_pos150_id20_im3.bmp,['Im_LeonardoDiCaprio.png', 'Im_BradPitt.png', 'Im_KeanuReeves.png', 'Im_PatrickDempsey.png', 'Im_JustinTimberlake.png', 'Im_RyanGosling.png', 'Im_GeorgeClooney.png', 'Im_ElijahWood.png', 'Im_RobertPattinson.png', 'Im_BenStiller.png'],diff,1,0.4169184000002133,24,0,
AHLA1505,2,neg,fs,negfs_id7_im26.bmp_negfs_id7_im14.bmp,['Im_LeonardoDiCaprio.png', 'Im_BradPitt.png', 'Im_KeanuReeves.png', 'Im_PatrickDempsey.png', 'Im_JustinTimberlake.png', 'Im_RyanGosling.png', 'Im_GeorgeClooney.png', 'Im_ElijahWood.png', 'Im_RobertPattinson.png', 'Im_BenStiller.png'],same,1,0.6667693999988842,25,0,
AHLA1505,2,neg,120,neg120_id17_im9.bmp_neg120_id17_im8.bmp,['Im_LeonardoDiCaprio.png', 'Im_BradPitt.png', 'Im_KeanuReeves.png', 'Im_PatrickDempsey.png', 'Im_JustinTimberlake.png', 'Im_RyanGosling.png', 'Im_GeorgeClooney.png', 'Im_ElijahWood.png', 'Im_RobertPattinson.png', 'Im_BenStiller.png'],same,1,0.6917344000012235,26,0,
AHLA1505,2,neg,fs,negfs_id20_im30.bmp_negfs_id3_im6.bmp,['Im_LeonardoDiCaprio.png', 'Im_BradPitt.png', 'Im_KeanuReeves.png', 'Im_PatrickDempsey.png', 'Im_JustinTimberlake.png', 'Im_RyanGosling.png', 'Im_GeorgeClooney.png', 'Im_ElijahWood.png', 'Im_RobertPattinson.png', 'Im_BenStiller.png'],diff,1,0.6168656999998348,27,0,
AHLA1505,2,neg,0,neg0_id6_im18.bmp_neg0_id6_im19.bmp,['Im_LeonardoDiCaprio.png', 'Im_BradPitt.png', 'Im_KeanuReeves.png', 'Im_PatrickDempsey.png', 'Im_JustinTimberlake.png', 'Im_RyanGosling.png', 'Im_GeorgeClooney.png', 'Im_ElijahWood.png', 'Im_RobertPattinson.png', 'Im_BenStiller.png'],same,1,0.5500659000008454,28,0,
AHLA1505,2,neg,120,neg120_id11_im10.bmp_neg120_id19_im27.bmp,['Im_LeonardoDiCaprio.png', 'Im_BradPitt.png', 'Im_KeanuReeves.png', 'Im_PatrickDempsey.png', 'Im_JustinTimberlake.png', 'Im_RyanGosling.png', 'Im_GeorgeClooney.png', 'Im_ElijahWood.png', 'Im_RobertPattinson.png', 'Im_BenStiller.png'],same,0,0.9417377000008855,28,0,
AHLA1505,2,neg,30,neg30_id11_im1.bmp_neg30_id13_im15.bmp,['Im_LeonardoDiCaprio.png', 'Im_BradPitt.png', 'Im_KeanuReeves.png', 'Im_PatrickDempsey.png', 'Im_JustinTimberlake.png', 'Im_RyanGosling.png', 'Im_GeorgeClooney.png', 'Im_ElijahWood.png', 'Im_RobertPattinson.png', 'Im_BenStiller.png'],diff,1,0.5918161999998119,29,0,
AHLA1505,2,neg,90,neg90_id17_im8.bmp_neg90_id17_im9.bmp,['Im_LeonardoDiCaprio.png', 'Im_BradPitt.png', 'Im_KeanuReeves.png', 'Im_PatrickDempsey.png', 'Im_JustinTimberlake.png', 'Im_RyanGosling.png', 'Im_GeorgeClooney.png', 'Im_ElijahWood.png', 'Im_RobertPattinson.png', 'Im_BenStiller.png'],same,1,0.4166315999991639,30,0,
AHLA1505,2,neg,30,neg30_id7_im15.bmp_neg30_id7_im26.bmp,['Im_LeonardoDiCaprio.png', 'Im_BradPitt.png', 'Im_KeanuReeves.png', 'Im_PatrickDempsey.png', 'Im_JustinTimberlake.png', 'Im_RyanGosling.png', 'Im_GeorgeClooney.png', 'Im_ElijahWood.png', 'Im_RobertPattinson.png', 'Im_BenStiller.png'],same,1,0.42509740000059537,31,0,
AHLA1505,2,neg,60,neg60_id20_im30.bmp_neg60_id20_im12.bmp,['Im_LeonardoDiCaprio.png', 'Im_BradPitt.png', 'Im_KeanuReeves.png', 'Im_PatrickDempsey.png', 'Im_JustinTimberlake.png', 'Im_RyanGosling.png', 'Im_GeorgeClooney.png', 'Im_ElijahWood.png', 'Im_RobertPattinson.png', 'Im_BenStiller.png'],same,1,0.4250513000006322,32,0,
AHLA1505,2,neg,0,neg0_id7_im15.bmp_neg0_id20_im12.bmp,['Im_LeonardoDiCaprio.png', 'Im_BradPitt.png', 'Im_KeanuReeves.png', 'Im_PatrickDempsey.png', 'Im_JustinTimberlake.png', 'Im_RyanGosling.png', 'Im_GeorgeClooney.png', 'Im_ElijahWood.png', 'Im_RobertPattinson.png', 'Im_BenStiller.png'],diff,1,0.48375839999971504,33,0,
AHLA1505,2,neg,90,neg90_id13_im29.bmp_neg90_id13_im15.bmp,['Im_LeonardoDiCaprio.png', 'Im_BradPitt.png', 'Im_KeanuReeves.png', 'Im_PatrickDempsey.png', 'Im_JustinTimberlake.png', 'Im_RyanGosling.png', 'Im_GeorgeClooney.png', 'Im_ElijahWood.png', 'Im_RobertPattinson.png', 'Im_BenStiller.png'],diff,0,0.4167381999995996,33,0,
AHLA1505,2,neg,60,neg60_id19_im8.bmp_neg60_id19_im27.bmp,['Im_LeonardoDiCaprio.png', 'Im_BradPitt.png', 'Im_KeanuReeves.png', 'Im_PatrickDempsey.png', 'Im_JustinTimberlake.png', 'Im_RyanGosling.png', 'Im_GeorgeClooney.png', 'Im_ElijahWood.png', 'Im_RobertPattinson.png', 'Im_BenStiller.png'],same,1,0.4167942000003677,34,0,
AHLA1505,2,neg,150,neg150_id13_im10.bmp_neg150_id13_im29.bmp,['Im_LeonardoDiCaprio.png', 'Im_BradPitt.png', 'Im_KeanuReeves.png', 'Im_PatrickDempsey.png', 'Im_JustinTimberlake.png', 'Im_RyanGosling.png', 'Im_GeorgeClooney.png', 'Im_ElijahWood.png', 'Im_RobertPattinson.png', 'Im_BenStiller.png'],diff,0,0.7586965000009513,34,0,
AHLA1505,2,neg,150,neg150_id2_im3.bmp_neg150_id17_im14.bmp,['Im_LeonardoDiCaprio.png', 'Im_BradPitt.png', 'Im_KeanuReeves.png', 'Im_PatrickDempsey.png', 'Im_JustinTimberlake.png', 'Im_RyanGosling.png', 'Im_GeorgeClooney.png', 'Im_ElijahWood.png', 'Im_RobertPattinson.png', 'Im_BenStiller.png'],same,0,0.5917092999989109,34,0,
AHLA1505,3,pos,120,pos120_id10_im18.bmp_pos120_id11_im2.bmp,['Im_LeonardoDiCaprio.png', 'Im_BradPitt.png', 'Im_KeanuReeves.png', 'Im_PatrickDempsey.png', 'Im_JustinTimberlake.png', 'Im_RyanGosling.png', 'Im_GeorgeClooney.png', 'Im_ElijahWood.png', 'Im_RobertPattinson.png', 'Im_BenStiller.png'],diff,1,0.5420063999990816,1,80.95238095238095,
AHLA1505,3,pos,60,pos60_id3_im8.bmp_pos60_id17_im9.bmp,['Im_LeonardoDiCaprio.png', 'Im_BradPitt.png', 'Im_KeanuReeves.png', 'Im_PatrickDempsey.png', 'Im_JustinTimberlake.png', 'Im_RyanGosling.png', 'Im_GeorgeClooney.png', 'Im_ElijahWood.png', 'Im_RobertPattinson.png', 'Im_BenStiller.png'],same,0,0.5834490999986883,1,80.95238095238095,
AHLA1505,3,pos,150,pos150_id17_im9.bmp_pos150_id17_im8.bmp,['Im_LeonardoDiCaprio.png', 'Im_BradPitt.png', 'Im_KeanuReeves.png', 'Im_PatrickDempsey.png', 'Im_JustinTimberlake.png', 'Im_RyanGosling.png', 'Im_GeorgeClooney.png', 'Im_ElijahWood.png', 'Im_RobertPattinson.png', 'Im_BenStiller.png'],same,1,0.6253143000012642,2,80.95238095238095,
AHLA1505,3,pos,0,pos0_id2_im2.bmp_pos0_id2_im3.bmp,['Im_LeonardoDiCaprio.png', 'Im_BradPitt.png', 'Im_KeanuReeves.png', 'Im_PatrickDempsey.png', 'Im_JustinTimberlake.png', 'Im_RyanGosling.png', 'Im_GeorgeClooney.png', 'Im_ElijahWood.png', 'Im_RobertPattinson.png', 'Im_BenStiller.png'],same,1,0.4166338999984873,3,80.95238095238095,
AHLA1505,3,pos,fs,posfs_id10_im17.bmp_posfs_id10_im1.bmp,['Im_LeonardoDiCaprio.png', 'Im_BradPitt.png', 'Im_KeanuReeves.png', 'Im_PatrickDempsey.png', 'Im_JustinTimberlake.png', 'Im_RyanGosling.png', 'Im_GeorgeClooney.png', 'Im_ElijahWood.png', 'Im_RobertPattinson.png', 'Im_BenStiller.png'],same,1,0.4752312000000529,4,80.95238095238095,
AHLA1505,3,pos,60,pos60_id7_im26.bmp_pos60_id2_im3.bmp,['Im_LeonardoDiCaprio.png', 'Im_BradPitt.png', 'Im_KeanuReeves.png', 'Im_PatrickDempsey.png', 'Im_JustinTimberlake.png', 'Im_RyanGosling.png', 'Im_GeorgeClooney.png', 'Im_ElijahWood.png', 'Im_RobertPattinson.png', 'Im_BenStiller.png'],same,0,0.9167481000004045,4,80.95238095238095,
AHLA1505,3,pos,150,pos150_id3_im17.bmp_pos150_id3_im8.bmp,['Im_LeonardoDiCaprio.png', 'Im_BradPitt.png', 'Im_KeanuReeves.png', 'Im_PatrickDempsey.png', 'Im_JustinTimberlake.png', 'Im_RyanGosling.png', 'Im_GeorgeClooney.png', 'Im_ElijahWood.png', 'Im_RobertPattinson.png', 'Im_BenStiller.png'],same,1,0.799964199999522,5,80.95238095238095,
AHLA1505,3,pos,0,pos0_id3_im8.bmp_pos0_id3_im17.bmp,['Im_LeonardoDiCaprio.png', 'Im_BradPitt.png', 'Im_KeanuReeves.png', 'Im_PatrickDempsey.png', 'Im_JustinTimberlake.png', 'Im_RyanGosling.png', 'Im_GeorgeClooney.png', 'Im_ElijahWood.png', 'Im_RobertPattinson.png', 'Im_BenStiller.png'],same,1,0.6251907000005303,6,80.95238095238095,
AHLA1505,3,pos,120,pos120_id11_im10.bmp_pos120_id11_im1.bmp,['Im_LeonardoDiCaprio.png', 'Im_BradPitt.png', 'Im_KeanuReeves.png', 'Im_PatrickDempsey.png', 'Im_JustinTimberlake.png', 'Im_RyanGosling.png', 'Im_GeorgeClooney.png', 'Im_ElijahWood.png', 'Im_RobertPattinson.png', 'Im_BenStiller.png'],same,1,0.6919842999996035,7,80.95238095238095,
AHLA1505,3,pos,90,pos90_id13_im29.bmp_pos90_id13_im10.bmp,['Im_LeonardoDiCaprio.png', 'Im_BradPitt.png', 'Im_KeanuReeves.png', 'Im_PatrickDempsey.png', 'Im_JustinTimberlake.png', 'Im_RyanGosling.png', 'Im_GeorgeClooney.png', 'Im_ElijahWood.png', 'Im_RobertPattinson.png', 'Im_BenStiller.png'],same,1,0.4925536999999167,8,80.95238095238095,
AHLA1505,3,pos,90,pos90_id20_im30.bmp_pos90_id20_im3.bmp,['Im_LeonardoDiCaprio.png', 'Im_BradPitt.png', 'Im_KeanuReeves.png', 'Im_PatrickDempsey.png', 'Im_JustinTimberlake.png', 'Im_RyanGosling.png', 'Im_GeorgeClooney.png', 'Im_ElijahWood.png', 'Im_RobertPattinson.png', 'Im_BenStiller.png'],same,1,0.4167478999988816,9,80.95238095238095,
AHLA1505,3,pos,30,pos30_id13_im15.bmp_pos30_id13_im29.bmp,['Im_LeonardoDiCaprio.png', 'Im_BradPitt.png', 'Im_KeanuReeves.png', 'Im_PatrickDempsey.png', 'Im_JustinTimberlake.png', 'Im_RyanGosling.png', 'Im_GeorgeClooney.png', 'Im_ElijahWood.png', 'Im_RobertPattinson.png', 'Im_BenStiller.png'],same,1,0.40846439999950235,10,80.95238095238095,
AHLA1505,3,pos,fs,posfs_id2_im2.bmp_posfs_id2_im16.bmp,['Im_LeonardoDiCaprio.png', 'Im_BradPitt.png', 'Im_KeanuReeves.png', 'Im_PatrickDempsey.png', 'Im_JustinTimberlake.png', 'Im_RyanGosling.png', 'Im_GeorgeClooney.png', 'Im_ElijahWood.png', 'Im_RobertPattinson.png', 'Im_BenStiller.png'],same,1,0.4167954999993526,11,80.95238095238095,
AHLA1505,3,pos,30,pos30_id20_im3.bmp_pos30_id6_im18.bmp,['Im_LeonardoDiCaprio.png', 'Im_BradPitt.png', 'Im_KeanuReeves.png', 'Im_PatrickDempsey.png', 'Im_JustinTimberlake.png', 'Im_RyanGosling.png', 'Im_GeorgeClooney.png', 'Im_ElijahWood.png', 'Im_RobertPattinson.png', 'Im_BenStiller.png'],diff,1,0.4167603000005329,12,80.95238095238095,
AHLA1505,4,inv,0,pos0_id7_im14.bmp_pos0_id3_im6.bmp,['Im_LeonardoDiCaprio.png', 'Im_BradPitt.png', 'Im_KeanuReeves.png', 'Im_PatrickDempsey.png', 'Im_JustinTimberlake.png', 'Im_RyanGosling.png', 'Im_GeorgeClooney.png', 'Im_ElijahWood.png', 'Im_RobertPattinson.png', 'Im_BenStiller.png'],diff,1,0.5083961000000272,13,80.95238095238095,
AHLA1505,4,inv,fs,posfs_id10_im1.bmp_posfs_id10_im18.bmp,['Im_LeonardoDiCaprio.png', 'Im_BradPitt.png', 'Im_KeanuReeves.png', 'Im_PatrickDempsey.png', 'Im_JustinTimberlake.png', 'Im_RyanGosling.png', 'Im_GeorgeClooney.png', 'Im_ElijahWood.png', 'Im_RobertPattinson.png', 'Im_BenStiller.png'],same,1,0.5666763999997784,14,80.95238095238095,
AHLA1505,4,inv,30,pos30_id13_im10.bmp_pos30_id13_im15.bmp,['Im_LeonardoDiCaprio.png', 'Im_BradPitt.png', 'Im_KeanuReeves.png', 'Im_PatrickDempsey.png', 'Im_JustinTimberlake.png', 'Im_RyanGosling.png', 'Im_GeorgeClooney.png', 'Im_ElijahWood.png', 'Im_RobertPattinson.png', 'Im_BenStiller.png'],diff,0,0.4167704000010417,14,80.95238095238095,
AHLA1505,4,inv,150,pos150_id19_im8.bmp_pos150_id13_im29.bmp,['Im_LeonardoDiCaprio.png', 'Im_BradPitt.png', 'Im_KeanuReeves.png', 'Im_PatrickDempsey.png', 'Im_JustinTimberlake.png', 'Im_RyanGosling.png', 'Im_GeorgeClooney.png', 'Im_ElijahWood.png', 'Im_RobertPattinson.png', 'Im_BenStiller.png'],same,0,0.7250595000004978,14,80.95238095238095,
AHLA1505,4,inv,60,pos60_id17_im8.bmp_pos60_id10_im17.bmp,['Im_LeonardoDiCaprio.png', 'Im_BradPitt.png', 'Im_KeanuReeves.png', 'Im_PatrickDempsey.png', 'Im_JustinTimberlake.png', 'Im_RyanGosling.png', 'Im_GeorgeClooney.png', 'Im_ElijahWood.png', 'Im_RobertPattinson.png', 'Im_BenStiller.png'],diff,1,1.2837455999997474,15,80.95238095238095,
AHLA1505,4,inv,0,pos0_id3_im17.bmp_pos0_id19_im27.bmp,['Im_LeonardoDiCaprio.png', 'Im_BradPitt.png', 'Im_KeanuReeves.png', 'Im_PatrickDempsey.png', 'Im_JustinTimberlake.png', 'Im_RyanGosling.png', 'Im_GeorgeClooney.png', 'Im_ElijahWood.png', 'Im_RobertPattinson.png', 'Im_BenStiller.png'],diff,1,1.2167088000005606,16,80.95238095238095,
AHLA1505,4,inv,90,pos90_id17_im9.bmp_pos90_id2_im2.bmp,['Im_LeonardoDiCaprio.png', 'Im_BradPitt.png', 'Im_KeanuReeves.png', 'Im_PatrickDempsey.png', 'Im_JustinTimberlake.png', 'Im_RyanGosling.png', 'Im_GeorgeClooney.png', 'Im_ElijahWood.png', 'Im_RobertPattinson.png', 'Im_BenStiller.png'],diff,1,0.8332437999997637,17,80.95238095238095,
AHLA1505,4,inv,120,pos120_id2_im16.bmp_pos120_id2_im3.bmp,['Im_LeonardoDiCaprio.png', 'Im_BradPitt.png', 'Im_KeanuReeves.png', 'Im_PatrickDempsey.png', 'Im_JustinTimberlake.png', 'Im_RyanGosling.png', 'Im_GeorgeClooney.png', 'Im_ElijahWood.png', 'Im_RobertPattinson.png', 'Im_BenStiller.png'],same,1,0.5260097999998834,18,80.95238095238095,
AHLA1505,4,inv,120,pos120_id13_im15.bmp_pos120_id13_im10.bmp,['Im_LeonardoDiCaprio.png', 'Im_BradPitt.png', 'Im_KeanuReeves.png', 'Im_PatrickDempsey.png', 'Im_JustinTimberlake.png', 'Im_RyanGosling.png', 'Im_GeorgeClooney.png', 'Im_ElijahWood.png', 'Im_RobertPattinson.png', 'Im_BenStiller.png'],diff,0,0.5837241999997786,18,80.95238095238095,
AHLA1505,4,inv,30,pos30_id20_im3.bmp_pos30_id20_im12.bmp,['Im_LeonardoDiCaprio.png', 'Im_BradPitt.png', 'Im_KeanuReeves.png', 'Im_PatrickDempsey.png', 'Im_JustinTimberlake.png', 'Im_RyanGosling.png', 'Im_GeorgeClooney.png', 'Im_ElijahWood.png', 'Im_RobertPattinson.png', 'Im_BenStiller.png'],same,1,0.4334662000001117,19,80.95238095238095,
AHLA1505,4,inv,90,pos90_id17_im14.bmp_pos90_id17_im8.bmp,['Im_LeonardoDiCaprio.png', 'Im_BradPitt.png', 'Im_KeanuReeves.png', 'Im_PatrickDempsey.png', 'Im_JustinTimberlake.png', 'Im_RyanGosling.png', 'Im_GeorgeClooney.png', 'Im_ElijahWood.png', 'Im_RobertPattinson.png', 'Im_BenStiller.png'],same,1,0.5498912999992172,20,80.95238095238095,
AHLA1505,4,inv,fs,posfs_id19_im4.bmp_posfs_id7_im15.bmp,['Im_LeonardoDiCaprio.png', 'Im_BradPitt.png', 'Im_KeanuReeves.png', 'Im_PatrickDempsey.png', 'Im_JustinTimberlake.png', 'Im_RyanGosling.png', 'Im_GeorgeClooney.png', 'Im_ElijahWood.png', 'Im_RobertPattinson.png', 'Im_BenStiller.png'],diff,1,0.41659810000055586,21,80.95238095238095,
AHLA1505,4,inv,60,pos60_id2_im3.bmp_pos60_id2_im16.bmp,['Im_LeonardoDiCaprio.png', 'Im_BradPitt.png', 'Im_KeanuReeves.png', 'Im_PatrickDempsey.png', 'Im_JustinTimberlake.png', 'Im_RyanGosling.png', 'Im_GeorgeClooney.png', 'Im_ElijahWood.png', 'Im_RobertPattinson.png', 'Im_BenStiller.png'],same,1,0.6836146000005101,22,80.95238095238095,
AHLA1505,4,inv,150,pos150_id6_im19.bmp_pos150_id20_im3.bmp,['Im_LeonardoDiCaprio.png', 'Im_BradPitt.png', 'Im_KeanuReeves.png', 'Im_PatrickDempsey.png', 'Im_JustinTimberlake.png', 'Im_RyanGosling.png', 'Im_GeorgeClooney.png', 'Im_ElijahWood.png', 'Im_RobertPattinson.png', 'Im_BenStiller.png'],diff,1,0.5915788999991491,23,80.95238095238095,
AHLA1505,5,neg,fs,negfs_id11_im1.bmp_negfs_id19_im8.bmp,['Im_LeonardoDiCaprio.png', 'Im_BradPitt.png', 'Im_KeanuReeves.png', 'Im_PatrickDempsey.png', 'Im_JustinTimberlake.png', 'Im_RyanGosling.png', 'Im_GeorgeClooney.png', 'Im_ElijahWood.png', 'Im_RobertPattinson.png', 'Im_BenStiller.png'],diff,1,1.100065700000414,24,80.95238095238095,
AHLA1505,5,neg,60,neg60_id17_im14.bmp_neg60_id17_im8.bmp,['Im_LeonardoDiCaprio.png', 'Im_BradPitt.png', 'Im_KeanuReeves.png', 'Im_PatrickDempsey.png', 'Im_JustinTimberlake.png', 'Im_RyanGosling.png', 'Im_GeorgeClooney.png', 'Im_ElijahWood.png', 'Im_RobertPattinson.png', 'Im_BenStiller.png'],same,1,0.5837518000007549,25,80.95238095238095,
AHLA1505,5,neg,150,neg150_id13_im29.bmp_neg150_id19_im8.bmp,['Im_LeonardoDiCaprio.png', 'Im_BradPitt.png', 'Im_KeanuReeves.png', 'Im_PatrickDempsey.png', 'Im_JustinTimberlake.png', 'Im_RyanGosling.png', 'Im_GeorgeClooney.png', 'Im_ElijahWood.png', 'Im_RobertPattinson.png', 'Im_BenStiller.png'],same,0,0.4333719000005658,25,80.95238095238095,
AHLA1505,5,neg,120,neg120_id2_im2.bmp_neg120_id2_im16.bmp,['Im_LeonardoDiCaprio.png', 'Im_BradPitt.png', 'Im_KeanuReeves.png', 'Im_PatrickDempsey.png', 'Im_JustinTimberlake.png', 'Im_RyanGosling.png', 'Im_GeorgeClooney.png', 'Im_ElijahWood.png', 'Im_RobertPattinson.png', 'Im_BenStiller.png'],diff,0,0.8333008000008704,25,80.95238095238095,
AHLA1505,5,neg,90,neg90_id13_im10.bmp_neg90_id6_im19.bmp,['Im_LeonardoDiCaprio.png', 'Im_BradPitt.png', 'Im_KeanuReeves.png', 'Im_PatrickDempsey.png', 'Im_JustinTimberlake.png', 'Im_RyanGosling.png', 'Im_GeorgeClooney.png', 'Im_ElijahWood.png', 'Im_RobertPattinson.png', 'Im_BenStiller.png'],diff,1,0.7498857999999018,26,80.95238095238095,
AHLA1505,5,neg,150,neg150_id3_im17.bmp_neg150_id6_im12.bmp,['Im_LeonardoDiCaprio.png', 'Im_BradPitt.png', 'Im_KeanuReeves.png', 'Im_PatrickDempsey.png', 'Im_JustinTimberlake.png', 'Im_RyanGosling.png', 'Im_GeorgeClooney.png', 'Im_ElijahWood.png', 'Im_RobertPattinson.png', 'Im_BenStiller.png'],diff,1,0.775442699999985,27,80.95238095238095,
AHLA1505,5,neg,90,neg90_id2_im16.bmp_neg90_id10_im1.bmp,['Im_LeonardoDiCaprio.png', 'Im_BradPitt.png', 'Im_KeanuReeves.png', 'Im_PatrickDempsey.png', 'Im_JustinTimberlake.png', 'Im_RyanGosling.png', 'Im_GeorgeClooney.png', 'Im_ElijahWood.png', 'Im_RobertPattinson.png', 'Im_BenStiller.png'],same,0,0.41672769999968295,27,80.95238095238095,
AHLA1505,5,neg,120,neg120_id2_im3.bmp_neg120_id7_im26.bmp,['Im_LeonardoDiCaprio.png', 'Im_BradPitt.png', 'Im_KeanuReeves.png', 'Im_PatrickDempsey.png', 'Im_JustinTimberlake.png', 'Im_RyanGosling.png', 'Im_GeorgeClooney.png', 'Im_ElijahWood.png', 'Im_RobertPattinson.png', 'Im_BenStiller.png'],same,0,1.0586574000008113,27,80.95238095238095,
AHLA1505,5,neg,60,neg60_id7_im26.bmp_neg60_id7_im15.bmp,['Im_LeonardoDiCaprio.png', 'Im_BradPitt.png', 'Im_KeanuReeves.png', 'Im_PatrickDempsey.png', 'Im_JustinTimberlake.png', 'Im_RyanGosling.png', 'Im_GeorgeClooney.png', 'Im_ElijahWood.png', 'Im_RobertPattinson.png', 'Im_BenStiller.png'],same,1,0.9335893999996188,28,80.95238095238095,
AHLA1505,5,neg,0,neg0_id20_im3.bmp_neg0_id20_im12.bmp,['Im_LeonardoDiCaprio.png', 'Im_BradPitt.png', 'Im_KeanuReeves.png', 'Im_PatrickDempsey.png', 'Im_JustinTimberlake.png', 'Im_RyanGosling.png', 'Im_GeorgeClooney.png', 'Im_ElijahWood.png', 'Im_RobertPattinson.png', 'Im_BenStiller.png'],same,1,0.4335031999999046,29,80.95238095238095,
AHLA1505,5,neg,0,neg0_id11_im1.bmp_neg0_id13_im15.bmp,['Im_LeonardoDiCaprio.png', 'Im_BradPitt.png', 'Im_KeanuReeves.png', 'Im_PatrickDempsey.png', 'Im_JustinTimberlake.png', 'Im_RyanGosling.png', 'Im_GeorgeClooney.png', 'Im_ElijahWood.png', 'Im_RobertPattinson.png', 'Im_BenStiller.png'],same,0,0.4167993999999453,29,80.95238095238095,
AHLA1505,5,neg,30,neg30_id13_im15.bmp_neg30_id6_im18.bmp,['Im_LeonardoDiCaprio.png', 'Im_BradPitt.png', 'Im_KeanuReeves.png', 'Im_PatrickDempsey.png', 'Im_JustinTimberlake.png', 'Im_RyanGosling.png', 'Im_GeorgeClooney.png', 'Im_ElijahWood.png', 'Im_RobertPattinson.png', 'Im_BenStiller.png'],diff,1,0.7500112999987323,30,80.95238095238095,
AHLA1505,5,neg,fs,negfs_id2_im2.bmp_negfs_id2_im16.bmp,['Im_LeonardoDiCaprio.png', 'Im_BradPitt.png', 'Im_KeanuReeves.png', 'Im_PatrickDempsey.png', 'Im_JustinTimberlake.png', 'Im_RyanGosling.png', 'Im_GeorgeClooney.png', 'Im_ElijahWood.png', 'Im_RobertPattinson.png', 'Im_BenStiller.png'],same,1,0.8003031999996892,31,80.95238095238095,
AHLA1505,5,neg,30,neg30_id11_im2.bmp_neg30_id11_im1.bmp,['Im_LeonardoDiCaprio.png', 'Im_BradPitt.png', 'Im_KeanuReeves.png', 'Im_PatrickDempsey.png', 'Im_JustinTimberlake.png', 'Im_RyanGosling.png', 'Im_GeorgeClooney.png', 'Im_ElijahWood.png', 'Im_RobertPattinson.png', 'Im_BenStiller.png'],diff,0,0.9585869999991701,31,80.95238095238095,
AHLA1505,6,inv,0,pos0_id7_im26.bmp_pos0_id2_im3.bmp,['Im_LeonardoDiCaprio.png', 'Im_BradPitt.png', 'Im_KeanuReeves.png', 'Im_PatrickDempsey.png', 'Im_JustinTimberlake.png', 'Im_RyanGosling.png', 'Im_GeorgeClooney.png', 'Im_ElijahWood.png', 'Im_RobertPattinson.png', 'Im_BenStiller.png'],same,0,1.6086142000003747,0,73.80952380952381,
AHLA1505,6,inv,120,pos120_id11_im10.bmp_pos120_id19_im27.bmp,['Im_LeonardoDiCaprio.png', 'Im_BradPitt.png', 'Im_KeanuReeves.png', 'Im_PatrickDempsey.png', 'Im_JustinTimberlake.png', 'Im_RyanGosling.png', 'Im_GeorgeClooney.png', 'Im_ElijahWood.png', 'Im_RobertPattinson.png', 'Im_BenStiller.png'],diff,1,0.41686640000079933,1,73.80952380952381,
AHLA1505,6,inv,0,pos0_id10_im18.bmp_pos0_id10_im17.bmp,['Im_LeonardoDiCaprio.png', 'Im_BradPitt.png', 'Im_KeanuReeves.png', 'Im_PatrickDempsey.png', 'Im_JustinTimberlake.png', 'Im_RyanGosling.png', 'Im_GeorgeClooney.png', 'Im_ElijahWood.png', 'Im_RobertPattinson.png', 'Im_BenStiller.png'],same,1,0.6419086000005336,2,73.80952380952381,
AHLA1505,6,inv,fs,posfs_id20_im30.bmp_posfs_id3_im6.bmp,['Im_LeonardoDiCaprio.png', 'Im_BradPitt.png', 'Im_KeanuReeves.png', 'Im_PatrickDempsey.png', 'Im_JustinTimberlake.png', 'Im_RyanGosling.png', 'Im_GeorgeClooney.png', 'Im_ElijahWood.png', 'Im_RobertPattinson.png', 'Im_BenStiller.png'],diff,1,1.1668647000005876,3,73.80952380952381,
AHLA1505,6,inv,fs,posfs_id2_im3.bmp_posfs_id2_im16.bmp,['Im_LeonardoDiCaprio.png', 'Im_BradPitt.png', 'Im_KeanuReeves.png', 'Im_PatrickDempsey.png', 'Im_JustinTimberlake.png', 'Im_RyanGosling.png', 'Im_GeorgeClooney.png', 'Im_ElijahWood.png', 'Im_RobertPattinson.png', 'Im_BenStiller.png'],same,1,0.43330280000009225,4,73.80952380952381,
AHLA1505,6,inv,60,pos60_id20_im30.bmp_pos60_id20_im3.bmp,['Im_LeonardoDiCaprio.png', 'Im_BradPitt.png', 'Im_KeanuReeves.png', 'Im_PatrickDempsey.png', 'Im_JustinTimberlake.png', 'Im_RyanGosling.png', 'Im_GeorgeClooney.png', 'Im_ElijahWood.png', 'Im_RobertPattinson.png', 'Im_BenStiller.png'],same,1,0.63345180000033,5,73.80952380952381,
AHLA1505,6,inv,30,pos30_id3_im17.bmp_pos30_id6_im12.bmp,['Im_LeonardoDiCaprio.png', 'Im_BradPitt.png', 'Im_KeanuReeves.png', 'Im_PatrickDempsey.png', 'Im_JustinTimberlake.png', 'Im_RyanGosling.png', 'Im_GeorgeClooney.png', 'Im_ElijahWood.png', 'Im_RobertPattinson.png', 'Im_BenStiller.png'],diff,1,0.7082298999994237,6,73.80952380952381,
AHLA1505,6,inv,90,pos90_id20_im12.bmp_pos90_id20_im3.bmp,['Im_LeonardoDiCaprio.png', 'Im_BradPitt.png', 'Im_KeanuReeves.png', 'Im_PatrickDempsey.png', 'Im_JustinTimberlake.png', 'Im_RyanGosling.png', 'Im_GeorgeClooney.png', 'Im_ElijahWood.png', 'Im_RobertPattinson.png', 'Im_BenStiller.png'],same,1,0.6082228000013856,7,73.80952380952381,
AHLA1505,6,inv,30,pos30_id13_im29.bmp_pos30_id7_im14.bmp,['Im_LeonardoDiCaprio.png', 'Im_BradPitt.png', 'Im_KeanuReeves.png', 'Im_PatrickDempsey.png', 'Im_JustinTimberlake.png', 'Im_RyanGosling.png', 'Im_GeorgeClooney.png', 'Im_ElijahWood.png', 'Im_RobertPattinson.png', 'Im_BenStiller.png'],diff,1,0.4165885000002163,8,73.80952380952381,
AHLA1505,6,inv,120,pos120_id2_im2.bmp_pos120_id10_im17.bmp,['Im_LeonardoDiCaprio.png', 'Im_BradPitt.png', 'Im_KeanuReeves.png', 'Im_PatrickDempsey.png', 'Im_JustinTimberlake.png', 'Im_RyanGosling.png', 'Im_GeorgeClooney.png', 'Im_ElijahWood.png', 'Im_RobertPattinson.png', 'Im_BenStiller.png'],diff,1,0.4084084999994957,9,73.80952380952381,
AHLA1505,6,inv,150,pos150_id3_im6.bmp_pos150_id3_im17.bmp,['Im_LeonardoDiCaprio.png', 'Im_BradPitt.png', 'Im_KeanuReeves.png', 'Im_PatrickDempsey.png', 'Im_JustinTimberlake.png', 'Im_RyanGosling.png', 'Im_GeorgeClooney.png', 'Im_ElijahWood.png', 'Im_RobertPattinson.png', 'Im_BenStiller.png'],diff,0,1.2421235000001616,9,73.80952380952381,
AHLA1505,6,inv,60,pos60_id7_im15.bmp_pos60_id7_im14.bmp,['Im_LeonardoDiCaprio.png', 'Im_BradPitt.png', 'Im_KeanuReeves.png', 'Im_PatrickDempsey.png', 'Im_JustinTimberlake.png', 'Im_RyanGosling.png', 'Im_GeorgeClooney.png', 'Im_ElijahWood.png', 'Im_RobertPattinson.png', 'Im_BenStiller.png'],same,1,0.41673310000078345,10,73.80952380952381,
AHLA1505,6,inv,150,pos150_id20_im12.bmp_pos150_id20_im30.bmp,['Im_LeonardoDiCaprio.png', 'Im_BradPitt.png', 'Im_KeanuReeves.png', 'Im_PatrickDempsey.png', 'Im_JustinTimberlake.png', 'Im_RyanGosling.png', 'Im_GeorgeClooney.png', 'Im_ElijahWood.png', 'Im_RobertPattinson.png', 'Im_BenStiller.png'],same,1,0.42499750000024505,11,73.80952380952381,
AHLA1505,6,inv,90,pos90_id2_im16.bmp_pos90_id10_im1.bmp,['Im_LeonardoDiCaprio.png', 'Im_BradPitt.png', 'Im_KeanuReeves.png', 'Im_PatrickDempsey.png', 'Im_JustinTimberlake.png', 'Im_RyanGosling.png', 'Im_GeorgeClooney.png', 'Im_ElijahWood.png', 'Im_RobertPattinson.png', 'Im_BenStiller.png'],diff,1,0.5584584999996878,12,73.80952380952381,
AHLA1505,7,neg,60,neg60_id19_im27.bmp_neg60_id3_im17.bmp,['Im_LeonardoDiCaprio.png', 'Im_BradPitt.png', 'Im_KeanuReeves.png', 'Im_PatrickDempsey.png', 'Im_JustinTimberlake.png', 'Im_RyanGosling.png', 'Im_GeorgeClooney.png', 'Im_ElijahWood.png', 'Im_RobertPattinson.png', 'Im_BenStiller.png'],diff,1,0.5502728999999817,13,73.80952380952381,
AHLA1505,7,neg,30,neg30_id3_im8.bmp_neg30_id17_im9.bmp,['Im_LeonardoDiCaprio.png', 'Im_BradPitt.png', 'Im_KeanuReeves.png', 'Im_PatrickDempsey.png', 'Im_JustinTimberlake.png', 'Im_RyanGosling.png', 'Im_GeorgeClooney.png', 'Im_ElijahWood.png', 'Im_RobertPattinson.png', 'Im_BenStiller.png'],same,0,0.733444800000143,13,73.80952380952381,
AHLA1505,7,neg,150,neg150_id6_im19.bmp_neg150_id6_im18.bmp,['Im_LeonardoDiCaprio.png', 'Im_BradPitt.png', 'Im_KeanuReeves.png', 'Im_PatrickDempsey.png', 'Im_JustinTimberlake.png', 'Im_RyanGosling.png', 'Im_GeorgeClooney.png', 'Im_ElijahWood.png', 'Im_RobertPattinson.png', 'Im_BenStiller.png'],same,1,0.5001244000013685,14,73.80952380952381,
AHLA1505,7,neg,0,neg0_id11_im10.bmp_neg0_id19_im27.bmp,['Im_LeonardoDiCaprio.png', 'Im_BradPitt.png', 'Im_KeanuReeves.png', 'Im_PatrickDempsey.png', 'Im_JustinTimberlake.png', 'Im_RyanGosling.png', 'Im_GeorgeClooney.png', 'Im_ElijahWood.png', 'Im_RobertPattinson.png', 'Im_BenStiller.png'],diff,1,0.49185709999983374,15,73.80952380952381,
AHLA1505,7,neg,30,neg30_id6_im19.bmp_neg30_id6_im18.bmp,['Im_LeonardoDiCaprio.png', 'Im_BradPitt.png', 'Im_KeanuReeves.png', 'Im_PatrickDempsey.png', 'Im_JustinTimberlake.png', 'Im_RyanGosling.png', 'Im_GeorgeClooney.png', 'Im_ElijahWood.png', 'Im_RobertPattinson.png', 'Im_BenStiller.png'],same,1,0.42511670000021695,16,73.80952380952381,
AHLA1505,7,neg,150,neg150_id19_im27.bmp_neg150_id19_im8.bmp,['Im_LeonardoDiCaprio.png', 'Im_BradPitt.png', 'Im_KeanuReeves.png', 'Im_PatrickDempsey.png', 'Im_JustinTimberlake.png', 'Im_RyanGosling.png', 'Im_GeorgeClooney.png', 'Im_ElijahWood.png', 'Im_RobertPattinson.png', 'Im_BenStiller.png'],same,1,0.4166777999998885,17,73.80952380952381,
AHLA1505,7,neg,90,neg90_id17_im9.bmp_neg90_id3_im8.bmp,['Im_LeonardoDiCaprio.png', 'Im_BradPitt.png', 'Im_KeanuReeves.png', 'Im_PatrickDempsey.png', 'Im_JustinTimberlake.png', 'Im_RyanGosling.png', 'Im_GeorgeClooney.png', 'Im_ElijahWood.png', 'Im_RobertPattinson.png', 'Im_BenStiller.png'],same,0,0.46703359999992244,17,73.80952380952381,
AHLA1505,7,neg,90,neg90_id11_im1.bmp_neg90_id11_im2.bmp,['Im_LeonardoDiCaprio.png', 'Im_BradPitt.png', 'Im_KeanuReeves.png', 'Im_PatrickDempsey.png', 'Im_JustinTimberlake.png', 'Im_RyanGosling.png', 'Im_GeorgeClooney.png', 'Im_ElijahWood.png', 'Im_RobertPattinson.png', 'Im_BenStiller.png'],diff,0,0.6084917999996833,17,73.80952380952381,
AHLA1505,7,neg,fs,negfs_id11_im2.bmp_negfs_id11_im10.bmp,['Im_LeonardoDiCaprio.png', 'Im_BradPitt.png', 'Im_KeanuReeves.png', 'Im_PatrickDempsey.png', 'Im_JustinTimberlake.png', 'Im_RyanGosling.png', 'Im_GeorgeClooney.png', 'Im_ElijahWood.png', 'Im_RobertPattinson.png', 'Im_BenStiller.png'],same,1,0.4419980000002397,18,73.80952380952381,
AHLA1505,7,neg,fs,negfs_id17_im8.bmp_negfs_id17_im9.bmp,['Im_LeonardoDiCaprio.png', 'Im_BradPitt.png', 'Im_KeanuReeves.png', 'Im_PatrickDempsey.png', 'Im_JustinTimberlake.png', 'Im_RyanGosling.png', 'Im_GeorgeClooney.png', 'Im_ElijahWood.png', 'Im_RobertPattinson.png', 'Im_BenStiller.png'],same,1,0.4166936000001442,19,73.80952380952381,
AHLA1505,7,neg,60,neg60_id19_im4.bmp_neg60_id19_im8.bmp,['Im_LeonardoDiCaprio.png', 'Im_BradPitt.png', 'Im_KeanuReeves.png', 'Im_PatrickDempsey.png', 'Im_JustinTimberlake.png', 'Im_RyanGosling.png', 'Im_GeorgeClooney.png', 'Im_ElijahWood.png', 'Im_RobertPattinson.png', 'Im_BenStiller.png'],same,1,0.4502427000006719,20,73.80952380952381,
AHLA1505,7,neg,0,neg0_id7_im14.bmp_neg0_id7_im26.bmp,['Im_LeonardoDiCaprio.png', 'Im_BradPitt.png', 'Im_KeanuReeves.png', 'Im_PatrickDempsey.png', 'Im_JustinTimberlake.png', 'Im_RyanGosling.png', 'Im_GeorgeClooney.png', 'Im_ElijahWood.png', 'Im_RobertPattinson.png', 'Im_BenStiller.png'],same,1,0.4500645000007353,21,73.80952380952381,
AHLA1505,7,neg,120,neg120_id7_im26.bmp_neg120_id7_im14.bmp,['Im_LeonardoDiCaprio.png', 'Im_BradPitt.png', 'Im_KeanuReeves.png', 'Im_PatrickDempsey.png', 'Im_JustinTimberlake.png', 'Im_RyanGosling.png', 'Im_GeorgeClooney.png', 'Im_ElijahWood.png', 'Im_RobertPattinson.png', 'Im_BenStiller.png'],same,1,0.42513700000017707,22,73.80952380952381,
AHLA1505,7,neg,120,neg120_id19_im4.bmp_neg120_id7_im26.bmp,['Im_LeonardoDiCaprio.png', 'Im_BradPitt.png', 'Im_KeanuReeves.png', 'Im_PatrickDempsey.png', 'Im_JustinTimberlake.png', 'Im_RyanGosling.png', 'Im_GeorgeClooney.png', 'Im_ElijahWood.png', 'Im_RobertPattinson.png', 'Im_BenStiller.png'],same,0,0.8835517999996227,22,73.80952380952381,
AHLA1505,8,pos,fs,posfs_id13_im15.bmp_posfs_id13_im29.bmp,['Im_LeonardoDiCaprio.png', 'Im_BradPitt.png', 'Im_KeanuReeves.png', 'Im_PatrickDempsey.png', 'Im_JustinTimberlake.png', 'Im_RyanGosling.png', 'Im_GeorgeClooney.png', 'Im_ElijahWood.png', 'Im_RobertPattinson.png', 'Im_BenStiller.png'],same,1,0.4833013999996183,23,73.80952380952381,
AHLA1505,8,pos,0,pos0_id20_im3.bmp_pos0_id20_im12.bmp,['Im_LeonardoDiCaprio.png', 'Im_BradPitt.png', 'Im_KeanuReeves.png', 'Im_PatrickDempsey.png', 'Im_JustinTimberlake.png', 'Im_RyanGosling.png', 'Im_GeorgeClooney.png', 'Im_ElijahWood.png', 'Im_RobertPattinson.png', 'Im_BenStiller.png'],same,1,0.4250363999999536,24,73.80952380952381,
AHLA1505,8,pos,60,pos60_id7_im14.bmp_pos60_id7_im15.bmp,['Im_LeonardoDiCaprio.png', 'Im_BradPitt.png', 'Im_KeanuReeves.png', 'Im_PatrickDempsey.png', 'Im_JustinTimberlake.png', 'Im_RyanGosling.png', 'Im_GeorgeClooney.png', 'Im_ElijahWood.png', 'Im_RobertPattinson.png', 'Im_BenStiller.png'],same,1,0.42512340000030235,25,73.80952380952381,
AHLA1505,8,pos,90,pos90_id7_im15.bmp_pos90_id20_im12.bmp,['Im_LeonardoDiCaprio.png', 'Im_BradPitt.png', 'Im_KeanuReeves.png', 'Im_PatrickDempsey.png', 'Im_JustinTimberlake.png', 'Im_RyanGosling.png', 'Im_GeorgeClooney.png', 'Im_ElijahWood.png', 'Im_RobertPattinson.png', 'Im_BenStiller.png'],diff,1,0.4249687999999878,26,73.80952380952381,
AHLA1505,8,pos,150,pos150_id17_im14.bmp_pos150_id11_im10.bmp,['Im_LeonardoDiCaprio.png', 'Im_BradPitt.png', 'Im_KeanuReeves.png', 'Im_PatrickDempsey.png', 'Im_JustinTimberlake.png', 'Im_RyanGosling.png', 'Im_GeorgeClooney.png', 'Im_ElijahWood.png', 'Im_RobertPattinson.png', 'Im_BenStiller.png'],diff,1,0.5667796999987331,27,73.80952380952381,
AHLA1505,8,pos,90,pos90_id3_im8.bmp_pos90_id3_im6.bmp,['Im_LeonardoDiCaprio.png', 'Im_BradPitt.png', 'Im_KeanuReeves.png', 'Im_PatrickDempsey.png', 'Im_JustinTimberlake.png', 'Im_RyanGosling.png', 'Im_GeorgeClooney.png', 'Im_ElijahWood.png', 'Im_RobertPattinson.png', 'Im_BenStiller.png'],same,1,0.6252141000004485,28,73.80952380952381,
AHLA1505,8,pos,30,pos30_id3_im8.bmp_pos30_id17_im9.bmp,['Im_LeonardoDiCaprio.png', 'Im_BradPitt.png', 'Im_KeanuReeves.png', 'Im_PatrickDempsey.png', 'Im_JustinTimberlake.png', 'Im_RyanGosling.png', 'Im_GeorgeClooney.png', 'Im_ElijahWood.png', 'Im_RobertPattinson.png', 'Im_BenStiller.png'],diff,1,1.4917900000000373,29,73.80952380952381,
AHLA1505,8,pos,120,pos120_id6_im19.bmp_pos120_id20_im3.bmp,['Im_LeonardoDiCaprio.png', 'Im_BradPitt.png', 'Im_KeanuReeves.png', 'Im_PatrickDempsey.png', 'Im_JustinTimberlake.png', 'Im_RyanGosling.png', 'Im_GeorgeClooney.png', 'Im_ElijahWood.png', 'Im_RobertPattinson.png', 'Im_BenStiller.png'],diff,1,0.4167310000011639,30,73.80952380952381,
AHLA1505,8,pos,0,pos0_id3_im8.bmp_pos0_id17_im8.bmp,['Im_LeonardoDiCaprio.png', 'Im_BradPitt.png', 'Im_KeanuReeves.png', 'Im_PatrickDempsey.png', 'Im_JustinTimberlake.png', 'Im_RyanGosling.png', 'Im_GeorgeClooney.png', 'Im_ElijahWood.png', 'Im_RobertPattinson.png', 'Im_BenStiller.png'],diff,1,0.42505329999949026,31,73.80952380952381,
AHLA1505,8,pos,60,pos60_id7_im26.bmp_pos60_id19_im4.bmp,['Im_LeonardoDiCaprio.png', 'Im_BradPitt.png', 'Im_KeanuReeves.png', 'Im_PatrickDempsey.png', 'Im_JustinTimberlake.png', 'Im_RyanGosling.png', 'Im_GeorgeClooney.png', 'Im_ElijahWood.png', 'Im_RobertPattinson.png', 'Im_BenStiller.png'],diff,1,0.4247950999997556,32,73.80952380952381,
AHLA1505,8,pos,120,pos120_id13_im29.bmp_pos120_id13_im10.bmp,['Im_LeonardoDiCaprio.png', 'Im_BradPitt.png', 'Im_KeanuReeves.png', 'Im_PatrickDempsey.png', 'Im_JustinTimberlake.png', 'Im_RyanGosling.png', 'Im_GeorgeClooney.png', 'Im_ElijahWood.png', 'Im_RobertPattinson.png', 'Im_BenStiller.png'],same,1,0.41685320000033244,33,73.80952380952381,
AHLA1505,8,pos,30,pos30_id19_im27.bmp_pos30_id11_im10.bmp,['Im_LeonardoDiCaprio.png', 'Im_BradPitt.png', 'Im_KeanuReeves.png', 'Im_PatrickDempsey.png', 'Im_JustinTimberlake.png', 'Im_RyanGosling.png', 'Im_GeorgeClooney.png', 'Im_ElijahWood.png', 'Im_RobertPattinson.png', 'Im_BenStiller.png'],diff,1,0.416795799999818,34,73.80952380952381,
AHLA1505,8,pos,150,pos150_id7_im26.bmp_pos150_id2_im3.bmp,['Im_LeonardoDiCaprio.png', 'Im_BradPitt.png', 'Im_KeanuReeves.png', 'Im_PatrickDempsey.png', 'Im_JustinTimberlake.png', 'Im_RyanGosling.png', 'Im_GeorgeClooney.png', 'Im_ElijahWood.png', 'Im_RobertPattinson.png', 'Im_BenStiller.png'],same,0,0.5502592000011646,34,73.80952380952381,
AHLA1505,8,pos,fs,posfs_id20_im30.bmp_posfs_id10_im18.bmp,['Im_LeonardoDiCaprio.png', 'Im_BradPitt.png', 'Im_KeanuReeves.png', 'Im_PatrickDempsey.png', 'Im_JustinTimberlake.png', 'Im_RyanGosling.png', 'Im_GeorgeClooney.png', 'Im_ElijahWood.png', 'Im_RobertPattinson.png', 'Im_BenStiller.png'],diff,1,0.41673720000108005,35,73.80952380952381,
AHLA1505,9,pos,150,pos150_id3_im6.bmp_pos150_id7_im14.bmp,['Im_LeonardoDiCaprio.png', 'Im_BradPitt.png', 'Im_KeanuReeves.png', 'Im_PatrickDempsey.png', 'Im_JustinTimberlake.png', 'Im_RyanGosling.png', 'Im_GeorgeClooney.png', 'Im_ElijahWood.png', 'Im_RobertPattinson.png', 'Im_BenStiller.png'],diff,1,0.4502302000000782,1,83.33333333333333,
AHLA1505,9,pos,0,pos0_id17_im14.bmp_pos0_id17_im8.bmp,['Im_LeonardoDiCaprio.png', 'Im_BradPitt.png', 'Im_KeanuReeves.png', 'Im_PatrickDempsey.png', 'Im_JustinTimberlake.png', 'Im_RyanGosling.png', 'Im_GeorgeClooney.png', 'Im_ElijahWood.png', 'Im_RobertPattinson.png', 'Im_BenStiller.png'],same,1,0.4168740999994043,2,83.33333333333333,
AHLA1505,9,pos,120,pos120_id13_im15.bmp_pos120_id13_im10.bmp,['Im_LeonardoDiCaprio.png', 'Im_BradPitt.png', 'Im_KeanuReeves.png', 'Im_PatrickDempsey.png', 'Im_JustinTimberlake.png', 'Im_RyanGosling.png', 'Im_GeorgeClooney.png', 'Im_ElijahWood.png', 'Im_RobertPattinson.png', 'Im_BenStiller.png'],same,1,0.48360089999914635,3,83.33333333333333,
AHLA1505,9,pos,60,pos60_id17_im8.bmp_pos60_id17_im9.bmp,['Im_LeonardoDiCaprio.png', 'Im_BradPitt.png', 'Im_KeanuReeves.png', 'Im_PatrickDempsey.png', 'Im_JustinTimberlake.png', 'Im_RyanGosling.png', 'Im_GeorgeClooney.png', 'Im_ElijahWood.png', 'Im_RobertPattinson.png', 'Im_BenStiller.png'],same,1,0.4336229000000458,4,83.33333333333333,
AHLA1505,9,pos,150,pos150_id17_im9.bmp_pos150_id2_im2.bmp,['Im_LeonardoDiCaprio.png', 'Im_BradPitt.png', 'Im_KeanuReeves.png', 'Im_PatrickDempsey.png', 'Im_JustinTimberlake.png', 'Im_RyanGosling.png', 'Im_GeorgeClooney.png', 'Im_ElijahWood.png', 'Im_RobertPattinson.png', 'Im_BenStiller.png'],diff,1,0.41657560000021476,5,83.33333333333333,
AHLA1505,9,pos,60,pos60_id2_im2.bmp_pos60_id2_im3.bmp,['Im_LeonardoDiCaprio.png', 'Im_BradPitt.png', 'Im_KeanuReeves.png', 'Im_PatrickDempsey.png', 'Im_JustinTimberlake.png', 'Im_RyanGosling.png', 'Im_GeorgeClooney.png', 'Im_ElijahWood.png', 'Im_RobertPattinson.png', 'Im_BenStiller.png'],same,1,0.5833476999996492,6,83.33333333333333,
AHLA1505,9,pos,30,pos30_id13_im29.bmp_pos30_id19_im8.bmp,['Im_LeonardoDiCaprio.png', 'Im_BradPitt.png', 'Im_KeanuReeves.png', 'Im_PatrickDempsey.png', 'Im_JustinTimberlake.png', 'Im_RyanGosling.png', 'Im_GeorgeClooney.png', 'Im_ElijahWood.png', 'Im_RobertPattinson.png', 'Im_BenStiller.png'],diff,1,0.4333545999998023,7,83.33333333333333,
AHLA1505,9,pos,120,pos120_id6_im19.bmp_pos120_id6_im18.bmp,['Im_LeonardoDiCaprio.png', 'Im_BradPitt.png', 'Im_KeanuReeves.png', 'Im_PatrickDempsey.png', 'Im_JustinTimberlake.png', 'Im_RyanGosling.png', 'Im_GeorgeClooney.png', 'Im_ElijahWood.png', 'Im_RobertPattinson.png', 'Im_BenStiller.png'],same,1,0.4334046000003582,8,83.33333333333333,
AHLA1505,9,pos,90,pos90_id6_im12.bmp_pos90_id6_im18.bmp,['Im_LeonardoDiCaprio.png', 'Im_BradPitt.png', 'Im_KeanuReeves.png', 'Im_PatrickDempsey.png', 'Im_JustinTimberlake.png', 'Im_RyanGosling.png', 'Im_GeorgeClooney.png', 'Im_ElijahWood.png', 'Im_RobertPattinson.png', 'Im_BenStiller.png'],same,1,0.4083757999997033,9,83.33333333333333,
AHLA1505,9,pos,fs,posfs_id2_im16.bmp_posfs_id2_im3.bmp,['Im_LeonardoDiCaprio.png', 'Im_BradPitt.png', 'Im_KeanuReeves.png', 'Im_PatrickDempsey.png', 'Im_JustinTimberlake.png', 'Im_RyanGosling.png', 'Im_GeorgeClooney.png', 'Im_ElijahWood.png', 'Im_RobertPattinson.png', 'Im_BenStiller.png'],same,1,0.5167480000000069,10,83.33333333333333,
AHLA1505,9,pos,0,pos0_id11_im2.bmp_pos0_id10_im18.bmp,['Im_LeonardoDiCaprio.png', 'Im_BradPitt.png', 'Im_KeanuReeves.png', 'Im_PatrickDempsey.png', 'Im_JustinTimberlake.png', 'Im_RyanGosling.png', 'Im_GeorgeClooney.png', 'Im_ElijahWood.png', 'Im_RobertPattinson.png', 'Im_BenStiller.png'],diff,1,0.5335704000008263,11,83.33333333333333,
AHLA1505,9,pos,30,pos30_id2_im16.bmp_pos30_id2_im2.bmp,['Im_LeonardoDiCaprio.png', 'Im_BradPitt.png', 'Im_KeanuReeves.png', 'Im_PatrickDempsey.png', 'Im_JustinTimberlake.png', 'Im_RyanGosling.png', 'Im_GeorgeClooney.png', 'Im_ElijahWood.png', 'Im_RobertPattinson.png', 'Im_BenStiller.png'],diff,0,0.7335274999986723,11,83.33333333333333,
AHLA1505,9,pos,90,pos90_id6_im18.bmp_pos90_id6_im19.bmp,['Im_LeonardoDiCaprio.png', 'Im_BradPitt.png', 'Im_KeanuReeves.png', 'Im_PatrickDempsey.png', 'Im_JustinTimberlake.png', 'Im_RyanGosling.png', 'Im_GeorgeClooney.png', 'Im_ElijahWood.png', 'Im_RobertPattinson.png', 'Im_BenStiller.png'],same,1,0.42514160000064294,12,83.33333333333333,
AHLA1505,9,pos,fs,posfs_id19_im27.bmp_posfs_id11_im10.bmp,['Im_LeonardoDiCaprio.png', 'Im_BradPitt.png', 'Im_KeanuReeves.png', 'Im_PatrickDempsey.png', 'Im_JustinTimberlake.png', 'Im_RyanGosling.png', 'Im_GeorgeClooney.png', 'Im_ElijahWood.png', 'Im_RobertPattinson.png', 'Im_BenStiller.png'],diff,1,0.4247910999984015,13,83.33333333333333,
AHLA1505,10,inv,60,pos60_id10_im1.bmp_pos60_id10_im17.bmp,['Im_LeonardoDiCaprio.png', 'Im_BradPitt.png', 'Im_KeanuReeves.png', 'Im_PatrickDempsey.png', 'Im_JustinTimberlake.png', 'Im_RyanGosling.png', 'Im_GeorgeClooney.png', 'Im_ElijahWood.png', 'Im_RobertPattinson.png', 'Im_BenStiller.png'],same,1,0.41675739999845973,14,83.33333333333333,
