Sujet,Trial,Condition,Filter,Imname,Actor0,Actor1,Actor2,Actor3,Actor4,Actor5,Actor6,Actor7,Actor8,Actor9,Answer,Accu,RT,Score,Scoreperc, 
AHLA1505,train,inv,90,pos90_id3_im6.bmp_pos90_id3_im17.bmp,['Im_PatrickDempsey.png', 'Im_GeorgeClooney.png', 'Im_BradPitt.png', 'Im_ElijahWood.png', 'Im_RyanGosling.png', 'Im_BenStiller.png', 'Im_KeanuReeves.png', 'Im_RobertPattinson.png', 'Im_LeonardoDiCaprio.png', 'Im_JustinTimberlake.png'],same,1,0.5252694999981031,1,0,
AHLA1505,train,inv,fs,posfs_id2_im16.bmp_posfs_id2_im2.bmp,['Im_PatrickDempsey.png', 'Im_GeorgeClooney.png', 'Im_BradPitt.png', 'Im_ElijahWood.png', 'Im_RyanGosling.png', 'Im_BenStiller.png', 'Im_KeanuReeves.png', 'Im_RobertPattinson.png', 'Im_LeonardoDiCaprio.png', 'Im_JustinTimberlake.png'],same,1,0.4250783000024967,2,0,
AHLA1505,train,inv,60,pos60_id13_im15.bmp_pos60_id6_im18.bmp,['Im_PatrickDempsey.png', 'Im_GeorgeClooney.png', 'Im_BradPitt.png', 'Im_ElijahWood.png', 'Im_RyanGosling.png', 'Im_BenStiller.png', 'Im_KeanuReeves.png', 'Im_RobertPattinson.png', 'Im_LeonardoDiCaprio.png', 'Im_JustinTimberlake.png'],same,0,1.0914659000009124,2,0,
AHLA1505,train,inv,120,pos120_id17_im8.bmp_pos120_id17_im9.bmp,['Im_PatrickDempsey.png', 'Im_GeorgeClooney.png', 'Im_BradPitt.png', 'Im_ElijahWood.png', 'Im_RyanGosling.png', 'Im_BenStiller.png', 'Im_KeanuReeves.png', 'Im_RobertPattinson.png', 'Im_LeonardoDiCaprio.png', 'Im_JustinTimberlake.png'],same,1,0.4327408999997715,3,0,
AHLA1505,train,inv,30,pos30_id2_im2.bmp_pos30_id2_im16.bmp,['Im_PatrickDempsey.png', 'Im_GeorgeClooney.png', 'Im_BradPitt.png', 'Im_ElijahWood.png', 'Im_RyanGosling.png', 'Im_BenStiller.png', 'Im_KeanuReeves.png', 'Im_RobertPattinson.png', 'Im_LeonardoDiCaprio.png', 'Im_JustinTimberlake.png'],same,1,0.6501851000030001,4,0,
AHLA1505,train,inv,120,pos120_id3_im6.bmp_pos120_id3_im8.bmp,['Im_PatrickDempsey.png', 'Im_GeorgeClooney.png', 'Im_BradPitt.png', 'Im_ElijahWood.png', 'Im_RyanGosling.png', 'Im_BenStiller.png', 'Im_KeanuReeves.png', 'Im_RobertPattinson.png', 'Im_LeonardoDiCaprio.png', 'Im_JustinTimberlake.png'],same,1,0.4248129000006884,5,0,
AHLA1505,train,inv,60,pos60_id13_im15.bmp_pos60_id13_im29.bmp,['Im_PatrickDempsey.png', 'Im_GeorgeClooney.png', 'Im_BradPitt.png', 'Im_ElijahWood.png', 'Im_RyanGosling.png', 'Im_BenStiller.png', 'Im_KeanuReeves.png', 'Im_RobertPattinson.png', 'Im_LeonardoDiCaprio.png', 'Im_JustinTimberlake.png'],same,1,0.408451100000093,6,0,
AHLA1505,train,inv,0,pos0_id6_im12.bmp_pos0_id6_im18.bmp,['Im_PatrickDempsey.png', 'Im_GeorgeClooney.png', 'Im_BradPitt.png', 'Im_ElijahWood.png', 'Im_RyanGosling.png', 'Im_BenStiller.png', 'Im_KeanuReeves.png', 'Im_RobertPattinson.png', 'Im_LeonardoDiCaprio.png', 'Im_JustinTimberlake.png'],same,1,0.4755709000019124,7,0,
AHLA1505,train,inv,fs,posfs_id3_im6.bmp_posfs_id7_im14.bmp,['Im_PatrickDempsey.png', 'Im_GeorgeClooney.png', 'Im_BradPitt.png', 'Im_ElijahWood.png', 'Im_RyanGosling.png', 'Im_BenStiller.png', 'Im_KeanuReeves.png', 'Im_RobertPattinson.png', 'Im_LeonardoDiCaprio.png', 'Im_JustinTimberlake.png'],diff,1,0.4251288999985263,8,0,
AHLA1505,train,inv,150,pos150_id7_im14.bmp_pos150_id7_im15.bmp,['Im_PatrickDempsey.png', 'Im_GeorgeClooney.png', 'Im_BradPitt.png', 'Im_ElijahWood.png', 'Im_RyanGosling.png', 'Im_BenStiller.png', 'Im_KeanuReeves.png', 'Im_RobertPattinson.png', 'Im_LeonardoDiCaprio.png', 'Im_JustinTimberlake.png'],same,1,0.4083470999976271,9,0,
AHLA1505,train,inv,30,pos30_id17_im8.bmp_pos30_id3_im8.bmp,['Im_PatrickDempsey.png', 'Im_GeorgeClooney.png', 'Im_BradPitt.png', 'Im_ElijahWood.png', 'Im_RyanGosling.png', 'Im_BenStiller.png', 'Im_KeanuReeves.png', 'Im_RobertPattinson.png', 'Im_LeonardoDiCaprio.png', 'Im_JustinTimberlake.png'],same,0,0.4166852000016661,9,0,
AHLA1505,train,inv,0,pos0_id6_im19.bmp_pos0_id6_im12.bmp,['Im_PatrickDempsey.png', 'Im_GeorgeClooney.png', 'Im_BradPitt.png', 'Im_ElijahWood.png', 'Im_RyanGosling.png', 'Im_BenStiller.png', 'Im_KeanuReeves.png', 'Im_RobertPattinson.png', 'Im_LeonardoDiCaprio.png', 'Im_JustinTimberlake.png'],same,1,0.6581631999979436,10,0,
AHLA1505,train,inv,90,pos90_id19_im27.bmp_pos90_id19_im8.bmp,['Im_PatrickDempsey.png', 'Im_GeorgeClooney.png', 'Im_BradPitt.png', 'Im_ElijahWood.png', 'Im_RyanGosling.png', 'Im_BenStiller.png', 'Im_KeanuReeves.png', 'Im_RobertPattinson.png', 'Im_LeonardoDiCaprio.png', 'Im_JustinTimberlake.png'],same,1,0.4249847999999474,11,0,
AHLA1505,train,inv,150,pos150_id20_im30.bmp_pos150_id10_im18.bmp,['Im_PatrickDempsey.png', 'Im_GeorgeClooney.png', 'Im_BradPitt.png', 'Im_ElijahWood.png', 'Im_RyanGosling.png', 'Im_BenStiller.png', 'Im_KeanuReeves.png', 'Im_RobertPattinson.png', 'Im_LeonardoDiCaprio.png', 'Im_JustinTimberlake.png'],same,0,0.8749526999999944,11,0,
AHLA1505,train,neg,fs,negfs_id20_im12.bmp_negfs_id20_im30.bmp,['Im_PatrickDempsey.png', 'Im_GeorgeClooney.png', 'Im_BradPitt.png', 'Im_ElijahWood.png', 'Im_RyanGosling.png', 'Im_BenStiller.png', 'Im_KeanuReeves.png', 'Im_RobertPattinson.png', 'Im_LeonardoDiCaprio.png', 'Im_JustinTimberlake.png'],same,1,0.641487100001541,12,0,
AHLA1505,train,neg,0,neg0_id11_im1.bmp_neg0_id19_im8.bmp,['Im_PatrickDempsey.png', 'Im_GeorgeClooney.png', 'Im_BradPitt.png', 'Im_ElijahWood.png', 'Im_RyanGosling.png', 'Im_BenStiller.png', 'Im_KeanuReeves.png', 'Im_RobertPattinson.png', 'Im_LeonardoDiCaprio.png', 'Im_JustinTimberlake.png'],same,0,1.2752366999993683,12,0,
AHLA1505,train,neg,150,neg150_id17_im14.bmp_neg150_id11_im10.bmp,['Im_PatrickDempsey.png', 'Im_GeorgeClooney.png', 'Im_BradPitt.png', 'Im_ElijahWood.png', 'Im_RyanGosling.png', 'Im_BenStiller.png', 'Im_KeanuReeves.png', 'Im_RobertPattinson.png', 'Im_LeonardoDiCaprio.png', 'Im_JustinTimberlake.png'],diff,1,0.7419033999976818,13,0,
AHLA1505,train,neg,0,neg0_id11_im10.bmp_neg0_id11_im1.bmp,['Im_PatrickDempsey.png', 'Im_GeorgeClooney.png', 'Im_BradPitt.png', 'Im_ElijahWood.png', 'Im_RyanGosling.png', 'Im_BenStiller.png', 'Im_KeanuReeves.png', 'Im_RobertPattinson.png', 'Im_LeonardoDiCaprio.png', 'Im_JustinTimberlake.png'],diff,0,0.43316920000143,13,0,
AHLA1505,train,neg,150,neg150_id19_im8.bmp_neg150_id11_im1.bmp,['Im_PatrickDempsey.png', 'Im_GeorgeClooney.png', 'Im_BradPitt.png', 'Im_ElijahWood.png', 'Im_RyanGosling.png', 'Im_BenStiller.png', 'Im_KeanuReeves.png', 'Im_RobertPattinson.png', 'Im_LeonardoDiCaprio.png', 'Im_JustinTimberlake.png'],same,0,0.42533519999778946,13,0,
AHLA1505,train,neg,60,neg60_id11_im10.bmp_neg60_id17_im14.bmp,['Im_PatrickDempsey.png', 'Im_GeorgeClooney.png', 'Im_BradPitt.png', 'Im_ElijahWood.png', 'Im_RyanGosling.png', 'Im_BenStiller.png', 'Im_KeanuReeves.png', 'Im_RobertPattinson.png', 'Im_LeonardoDiCaprio.png', 'Im_JustinTimberlake.png'],diff,1,0.449464799999987,14,0,
AHLA1505,train,neg,90,neg90_id17_im14.bmp_neg90_id17_im8.bmp,['Im_PatrickDempsey.png', 'Im_GeorgeClooney.png', 'Im_BradPitt.png', 'Im_ElijahWood.png', 'Im_RyanGosling.png', 'Im_BenStiller.png', 'Im_KeanuReeves.png', 'Im_RobertPattinson.png', 'Im_LeonardoDiCaprio.png', 'Im_JustinTimberlake.png'],diff,0,0.8502229000005173,14,0,
AHLA1505,train,neg,120,neg120_id7_im15.bmp_neg120_id20_im12.bmp,['Im_PatrickDempsey.png', 'Im_GeorgeClooney.png', 'Im_BradPitt.png', 'Im_ElijahWood.png', 'Im_RyanGosling.png', 'Im_BenStiller.png', 'Im_KeanuReeves.png', 'Im_RobertPattinson.png', 'Im_LeonardoDiCaprio.png', 'Im_JustinTimberlake.png'],diff,1,0.7336302000003343,15,0,
AHLA1505,train,neg,90,neg90_id2_im3.bmp_neg90_id2_im2.bmp,['Im_PatrickDempsey.png', 'Im_GeorgeClooney.png', 'Im_BradPitt.png', 'Im_ElijahWood.png', 'Im_RyanGosling.png', 'Im_BenStiller.png', 'Im_KeanuReeves.png', 'Im_RobertPattinson.png', 'Im_LeonardoDiCaprio.png', 'Im_JustinTimberlake.png'],same,1,0.6996046000022034,16,0,
AHLA1505,train,neg,30,neg30_id7_im15.bmp_neg30_id20_im12.bmp,['Im_PatrickDempsey.png', 'Im_GeorgeClooney.png', 'Im_BradPitt.png', 'Im_ElijahWood.png', 'Im_RyanGosling.png', 'Im_BenStiller.png', 'Im_KeanuReeves.png', 'Im_RobertPattinson.png', 'Im_LeonardoDiCaprio.png', 'Im_JustinTimberlake.png'],diff,1,0.5250000000014552,17,0,
AHLA1505,train,neg,30,neg30_id19_im27.bmp_neg30_id19_im8.bmp,['Im_PatrickDempsey.png', 'Im_GeorgeClooney.png', 'Im_BradPitt.png', 'Im_ElijahWood.png', 'Im_RyanGosling.png', 'Im_BenStiller.png', 'Im_KeanuReeves.png', 'Im_RobertPattinson.png', 'Im_LeonardoDiCaprio.png', 'Im_JustinTimberlake.png'],same,1,0.6418889000015042,18,0,
AHLA1505,train,neg,fs,negfs_id11_im2.bmp_negfs_id10_im18.bmp,['Im_PatrickDempsey.png', 'Im_GeorgeClooney.png', 'Im_BradPitt.png', 'Im_ElijahWood.png', 'Im_RyanGosling.png', 'Im_BenStiller.png', 'Im_KeanuReeves.png', 'Im_RobertPattinson.png', 'Im_LeonardoDiCaprio.png', 'Im_JustinTimberlake.png'],diff,1,0.5080390999974043,19,0,
AHLA1505,train,neg,120,neg120_id6_im19.bmp_neg120_id20_im3.bmp,['Im_PatrickDempsey.png', 'Im_GeorgeClooney.png', 'Im_BradPitt.png', 'Im_ElijahWood.png', 'Im_RyanGosling.png', 'Im_BenStiller.png', 'Im_KeanuReeves.png', 'Im_RobertPattinson.png', 'Im_LeonardoDiCaprio.png', 'Im_JustinTimberlake.png'],diff,1,0.42506540000249515,20,0,
AHLA1505,train,neg,60,neg60_id11_im2.bmp_neg60_id2_im16.bmp,['Im_PatrickDempsey.png', 'Im_GeorgeClooney.png', 'Im_BradPitt.png', 'Im_ElijahWood.png', 'Im_RyanGosling.png', 'Im_BenStiller.png', 'Im_KeanuReeves.png', 'Im_RobertPattinson.png', 'Im_LeonardoDiCaprio.png', 'Im_JustinTimberlake.png'],same,0,0.41674840000268887,20,0,
AHLA1505,train,inv,120,pos120_id19_im4.bmp_pos120_id7_im26.bmp,['Im_PatrickDempsey.png', 'Im_GeorgeClooney.png', 'Im_BradPitt.png', 'Im_ElijahWood.png', 'Im_RyanGosling.png', 'Im_BenStiller.png', 'Im_KeanuReeves.png', 'Im_RobertPattinson.png', 'Im_LeonardoDiCaprio.png', 'Im_JustinTimberlake.png'],same,0,0.5001516999982414,20,0,
AHLA1505,train,inv,90,pos90_id17_im9.bmp_pos90_id17_im8.bmp,['Im_PatrickDempsey.png', 'Im_GeorgeClooney.png', 'Im_BradPitt.png', 'Im_ElijahWood.png', 'Im_RyanGosling.png', 'Im_BenStiller.png', 'Im_KeanuReeves.png', 'Im_RobertPattinson.png', 'Im_LeonardoDiCaprio.png', 'Im_JustinTimberlake.png'],same,1,0.6833718000016233,21,0,
AHLA1505,train,inv,60,pos60_id11_im10.bmp_pos60_id17_im14.bmp,['Im_PatrickDempsey.png', 'Im_GeorgeClooney.png', 'Im_BradPitt.png', 'Im_ElijahWood.png', 'Im_RyanGosling.png', 'Im_BenStiller.png', 'Im_KeanuReeves.png', 'Im_RobertPattinson.png', 'Im_LeonardoDiCaprio.png', 'Im_JustinTimberlake.png'],same,0,0.5165278000022226,21,0,
AHLA1505,train,inv,0,pos0_id6_im19.bmp_pos0_id6_im18.bmp,['Im_PatrickDempsey.png', 'Im_GeorgeClooney.png', 'Im_BradPitt.png', 'Im_ElijahWood.png', 'Im_RyanGosling.png', 'Im_BenStiller.png', 'Im_KeanuReeves.png', 'Im_RobertPattinson.png', 'Im_LeonardoDiCaprio.png', 'Im_JustinTimberlake.png'],same,1,0.5332971000025282,22,0,
AHLA1505,train,inv,150,pos150_id13_im15.bmp_pos150_id13_im10.bmp,['Im_PatrickDempsey.png', 'Im_GeorgeClooney.png', 'Im_BradPitt.png', 'Im_ElijahWood.png', 'Im_RyanGosling.png', 'Im_BenStiller.png', 'Im_KeanuReeves.png', 'Im_RobertPattinson.png', 'Im_LeonardoDiCaprio.png', 'Im_JustinTimberlake.png'],same,1,0.4084106000009342,23,0,
AHLA1505,train,inv,60,pos60_id6_im12.bmp_pos60_id6_im19.bmp,['Im_PatrickDempsey.png', 'Im_GeorgeClooney.png', 'Im_BradPitt.png', 'Im_ElijahWood.png', 'Im_RyanGosling.png', 'Im_BenStiller.png', 'Im_KeanuReeves.png', 'Im_RobertPattinson.png', 'Im_LeonardoDiCaprio.png', 'Im_JustinTimberlake.png'],same,1,0.41663940000216826,24,0,
AHLA1505,train,inv,fs,posfs_id17_im9.bmp_posfs_id2_im2.bmp,['Im_PatrickDempsey.png', 'Im_GeorgeClooney.png', 'Im_BradPitt.png', 'Im_ElijahWood.png', 'Im_RyanGosling.png', 'Im_BenStiller.png', 'Im_KeanuReeves.png', 'Im_RobertPattinson.png', 'Im_LeonardoDiCaprio.png', 'Im_JustinTimberlake.png'],same,0,0.6917418000011821,24,0,
AHLA1505,train,inv,0,pos0_id3_im8.bmp_pos0_id17_im8.bmp,['Im_PatrickDempsey.png', 'Im_GeorgeClooney.png', 'Im_BradPitt.png', 'Im_ElijahWood.png', 'Im_RyanGosling.png', 'Im_BenStiller.png', 'Im_KeanuReeves.png', 'Im_RobertPattinson.png', 'Im_LeonardoDiCaprio.png', 'Im_JustinTimberlake.png'],same,0,0.4999865999998292,24,0,
AHLA1505,train,inv,150,pos150_id17_im8.bmp_pos150_id10_im17.bmp,['Im_PatrickDempsey.png', 'Im_GeorgeClooney.png', 'Im_BradPitt.png', 'Im_ElijahWood.png', 'Im_RyanGosling.png', 'Im_BenStiller.png', 'Im_KeanuReeves.png', 'Im_RobertPattinson.png', 'Im_LeonardoDiCaprio.png', 'Im_JustinTimberlake.png'],diff,1,0.6167219000017212,25,0,
AHLA1505,train,inv,120,pos120_id11_im1.bmp_pos120_id11_im10.bmp,['Im_PatrickDempsey.png', 'Im_GeorgeClooney.png', 'Im_BradPitt.png', 'Im_ElijahWood.png', 'Im_RyanGosling.png', 'Im_BenStiller.png', 'Im_KeanuReeves.png', 'Im_RobertPattinson.png', 'Im_LeonardoDiCaprio.png', 'Im_JustinTimberlake.png'],diff,0,0.41677460000209976,25,0,
AHLA1505,train,inv,90,pos90_id13_im29.bmp_pos90_id13_im15.bmp,['Im_PatrickDempsey.png', 'Im_GeorgeClooney.png', 'Im_BradPitt.png', 'Im_ElijahWood.png', 'Im_RyanGosling.png', 'Im_BenStiller.png', 'Im_KeanuReeves.png', 'Im_RobertPattinson.png', 'Im_LeonardoDiCaprio.png', 'Im_JustinTimberlake.png'],same,1,0.41677290000006906,26,0,
AHLA1505,train,inv,fs,posfs_id13_im29.bmp_posfs_id13_im15.bmp,['Im_PatrickDempsey.png', 'Im_GeorgeClooney.png', 'Im_BradPitt.png', 'Im_ElijahWood.png', 'Im_RyanGosling.png', 'Im_BenStiller.png', 'Im_KeanuReeves.png', 'Im_RobertPattinson.png', 'Im_LeonardoDiCaprio.png', 'Im_JustinTimberlake.png'],same,1,0.4083997999987332,27,0,
AHLA1505,train,inv,30,pos30_id11_im1.bmp_pos30_id11_im10.bmp,['Im_PatrickDempsey.png', 'Im_GeorgeClooney.png', 'Im_BradPitt.png', 'Im_ElijahWood.png', 'Im_RyanGosling.png', 'Im_BenStiller.png', 'Im_KeanuReeves.png', 'Im_RobertPattinson.png', 'Im_LeonardoDiCaprio.png', 'Im_JustinTimberlake.png'],same,1,0.8752074000003631,28,0,
AHLA1505,train,inv,30,pos30_id2_im16.bmp_pos30_id2_im3.bmp,['Im_PatrickDempsey.png', 'Im_GeorgeClooney.png', 'Im_BradPitt.png', 'Im_ElijahWood.png', 'Im_RyanGosling.png', 'Im_BenStiller.png', 'Im_KeanuReeves.png', 'Im_RobertPattinson.png', 'Im_LeonardoDiCaprio.png', 'Im_JustinTimberlake.png'],same,1,0.41645900000003166,29,0,
AHLA1505,train,pos,fs,posfs_id20_im30.bmp_posfs_id20_im3.bmp,['Im_PatrickDempsey.png', 'Im_GeorgeClooney.png', 'Im_BradPitt.png', 'Im_ElijahWood.png', 'Im_RyanGosling.png', 'Im_BenStiller.png', 'Im_KeanuReeves.png', 'Im_RobertPattinson.png', 'Im_LeonardoDiCaprio.png', 'Im_JustinTimberlake.png'],same,1,0.6585957000024791,1,69.04761904761905,
AHLA1505,train,pos,150,pos150_id7_im15.bmp_pos150_id19_im4.bmp,['Im_PatrickDempsey.png', 'Im_GeorgeClooney.png', 'Im_BradPitt.png', 'Im_ElijahWood.png', 'Im_RyanGosling.png', 'Im_BenStiller.png', 'Im_KeanuReeves.png', 'Im_RobertPattinson.png', 'Im_LeonardoDiCaprio.png', 'Im_JustinTimberlake.png'],diff,1,0.4167592000012519,2,69.04761904761905,
AHLA1505,train,pos,0,pos0_id6_im12.bmp_pos0_id6_im18.bmp,['Im_PatrickDempsey.png', 'Im_GeorgeClooney.png', 'Im_BradPitt.png', 'Im_ElijahWood.png', 'Im_RyanGosling.png', 'Im_BenStiller.png', 'Im_KeanuReeves.png', 'Im_RobertPattinson.png', 'Im_LeonardoDiCaprio.png', 'Im_JustinTimberlake.png'],same,1,0.4497095000006084,3,69.04761904761905,
AHLA1505,train,pos,30,pos30_id17_im14.bmp_pos30_id11_im10.bmp,['Im_PatrickDempsey.png', 'Im_GeorgeClooney.png', 'Im_BradPitt.png', 'Im_ElijahWood.png', 'Im_RyanGosling.png', 'Im_BenStiller.png', 'Im_KeanuReeves.png', 'Im_RobertPattinson.png', 'Im_LeonardoDiCaprio.png', 'Im_JustinTimberlake.png'],diff,1,0.7503074999985984,4,69.04761904761905,
AHLA1505,train,pos,60,pos60_id2_im16.bmp_pos60_id11_im2.bmp,['Im_PatrickDempsey.png', 'Im_GeorgeClooney.png', 'Im_BradPitt.png', 'Im_ElijahWood.png', 'Im_RyanGosling.png', 'Im_BenStiller.png', 'Im_KeanuReeves.png', 'Im_RobertPattinson.png', 'Im_LeonardoDiCaprio.png', 'Im_JustinTimberlake.png'],diff,1,0.42500769999969634,5,69.04761904761905,
AHLA1505,train,pos,120,pos120_id3_im6.bmp_pos120_id3_im8.bmp,['Im_PatrickDempsey.png', 'Im_GeorgeClooney.png', 'Im_BradPitt.png', 'Im_ElijahWood.png', 'Im_RyanGosling.png', 'Im_BenStiller.png', 'Im_KeanuReeves.png', 'Im_RobertPattinson.png', 'Im_LeonardoDiCaprio.png', 'Im_JustinTimberlake.png'],same,1,0.6416430999997829,6,69.04761904761905,
AHLA1505,train,pos,60,pos60_id11_im1.bmp_pos60_id11_im2.bmp,['Im_PatrickDempsey.png', 'Im_GeorgeClooney.png', 'Im_BradPitt.png', 'Im_ElijahWood.png', 'Im_RyanGosling.png', 'Im_BenStiller.png', 'Im_KeanuReeves.png', 'Im_RobertPattinson.png', 'Im_LeonardoDiCaprio.png', 'Im_JustinTimberlake.png'],diff,0,0.7667331999982707,6,69.04761904761905,
AHLA1505,train,pos,150,pos150_id20_im12.bmp_pos150_id20_im3.bmp,['Im_PatrickDempsey.png', 'Im_GeorgeClooney.png', 'Im_BradPitt.png', 'Im_ElijahWood.png', 'Im_RyanGosling.png', 'Im_BenStiller.png', 'Im_KeanuReeves.png', 'Im_RobertPattinson.png', 'Im_LeonardoDiCaprio.png', 'Im_JustinTimberlake.png'],same,1,0.4083792999990692,7,69.04761904761905,
AHLA1505,train,pos,fs,posfs_id20_im12.bmp_posfs_id7_im15.bmp,['Im_PatrickDempsey.png', 'Im_GeorgeClooney.png', 'Im_BradPitt.png', 'Im_ElijahWood.png', 'Im_RyanGosling.png', 'Im_BenStiller.png', 'Im_KeanuReeves.png', 'Im_RobertPattinson.png', 'Im_LeonardoDiCaprio.png', 'Im_JustinTimberlake.png'],diff,1,0.40830669999922975,8,69.04761904761905,
AHLA1505,train,pos,120,pos120_id11_im2.bmp_pos120_id11_im1.bmp,['Im_PatrickDempsey.png', 'Im_GeorgeClooney.png', 'Im_BradPitt.png', 'Im_ElijahWood.png', 'Im_RyanGosling.png', 'Im_BenStiller.png', 'Im_KeanuReeves.png', 'Im_RobertPattinson.png', 'Im_LeonardoDiCaprio.png', 'Im_JustinTimberlake.png'],diff,0,0.5919224000026588,8,69.04761904761905,
AHLA1505,train,pos,90,pos90_id3_im8.bmp_pos90_id3_im17.bmp,['Im_PatrickDempsey.png', 'Im_GeorgeClooney.png', 'Im_BradPitt.png', 'Im_ElijahWood.png', 'Im_RyanGosling.png', 'Im_BenStiller.png', 'Im_KeanuReeves.png', 'Im_RobertPattinson.png', 'Im_LeonardoDiCaprio.png', 'Im_JustinTimberlake.png'],same,1,0.8333910000001197,9,69.04761904761905,
AHLA1505,train,pos,30,pos30_id11_im1.bmp_pos30_id11_im10.bmp,['Im_PatrickDempsey.png', 'Im_GeorgeClooney.png', 'Im_BradPitt.png', 'Im_ElijahWood.png', 'Im_RyanGosling.png', 'Im_BenStiller.png', 'Im_KeanuReeves.png', 'Im_RobertPattinson.png', 'Im_LeonardoDiCaprio.png', 'Im_JustinTimberlake.png'],same,1,0.4084795999988273,10,69.04761904761905,
AHLA1505,train,pos,0,pos0_id7_im14.bmp_pos0_id13_im29.bmp,['Im_PatrickDempsey.png', 'Im_GeorgeClooney.png', 'Im_BradPitt.png', 'Im_ElijahWood.png', 'Im_RyanGosling.png', 'Im_BenStiller.png', 'Im_KeanuReeves.png', 'Im_RobertPattinson.png', 'Im_LeonardoDiCaprio.png', 'Im_JustinTimberlake.png'],diff,1,0.43351040000197827,11,69.04761904761905,
AHLA1505,train,pos,90,pos90_id10_im17.bmp_pos90_id10_im18.bmp,['Im_PatrickDempsey.png', 'Im_GeorgeClooney.png', 'Im_BradPitt.png', 'Im_ElijahWood.png', 'Im_RyanGosling.png', 'Im_BenStiller.png', 'Im_KeanuReeves.png', 'Im_RobertPattinson.png', 'Im_LeonardoDiCaprio.png', 'Im_JustinTimberlake.png'],same,1,0.44999839999945834,12,69.04761904761905,
AHLA1505,train,inv,120,pos120_id20_im30.bmp_pos120_id3_im6.bmp,['Im_PatrickDempsey.png', 'Im_GeorgeClooney.png', 'Im_BradPitt.png', 'Im_ElijahWood.png', 'Im_RyanGosling.png', 'Im_BenStiller.png', 'Im_KeanuReeves.png', 'Im_RobertPattinson.png', 'Im_LeonardoDiCaprio.png', 'Im_JustinTimberlake.png'],diff,1,0.7582895000014105,13,69.04761904761905,
AHLA1505,train,inv,fs,posfs_id19_im8.bmp_posfs_id19_im27.bmp,['Im_PatrickDempsey.png', 'Im_GeorgeClooney.png', 'Im_BradPitt.png', 'Im_ElijahWood.png', 'Im_RyanGosling.png', 'Im_BenStiller.png', 'Im_KeanuReeves.png', 'Im_RobertPattinson.png', 'Im_LeonardoDiCaprio.png', 'Im_JustinTimberlake.png'],same,1,0.458536299996922,14,69.04761904761905,
AHLA1505,train,inv,90,pos90_id13_im10.bmp_pos90_id6_im19.bmp,['Im_PatrickDempsey.png', 'Im_GeorgeClooney.png', 'Im_BradPitt.png', 'Im_ElijahWood.png', 'Im_RyanGosling.png', 'Im_BenStiller.png', 'Im_KeanuReeves.png', 'Im_RobertPattinson.png', 'Im_LeonardoDiCaprio.png', 'Im_JustinTimberlake.png'],same,0,0.9332910000011907,14,69.04761904761905,
AHLA1505,train,inv,0,pos0_id17_im9.bmp_pos0_id17_im8.bmp,['Im_PatrickDempsey.png', 'Im_GeorgeClooney.png', 'Im_BradPitt.png', 'Im_ElijahWood.png', 'Im_RyanGosling.png', 'Im_BenStiller.png', 'Im_KeanuReeves.png', 'Im_RobertPattinson.png', 'Im_LeonardoDiCaprio.png', 'Im_JustinTimberlake.png'],same,1,1.9669173000002047,15,69.04761904761905,
AHLA1505,train,inv,30,pos30_id20_im12.bmp_pos30_id13_im10.bmp,['Im_PatrickDempsey.png', 'Im_GeorgeClooney.png', 'Im_BradPitt.png', 'Im_ElijahWood.png', 'Im_RyanGosling.png', 'Im_BenStiller.png', 'Im_KeanuReeves.png', 'Im_RobertPattinson.png', 'Im_LeonardoDiCaprio.png', 'Im_JustinTimberlake.png'],same,0,0.6752147000006516,15,69.04761904761905,
AHLA1505,train,inv,90,pos90_id10_im1.bmp_pos90_id6_im12.bmp,['Im_PatrickDempsey.png', 'Im_GeorgeClooney.png', 'Im_BradPitt.png', 'Im_ElijahWood.png', 'Im_RyanGosling.png', 'Im_BenStiller.png', 'Im_KeanuReeves.png', 'Im_RobertPattinson.png', 'Im_LeonardoDiCaprio.png', 'Im_JustinTimberlake.png'],diff,1,0.5749994999969203,16,69.04761904761905,
AHLA1505,train,inv,30,pos30_id3_im8.bmp_pos30_id17_im9.bmp,['Im_PatrickDempsey.png', 'Im_GeorgeClooney.png', 'Im_BradPitt.png', 'Im_ElijahWood.png', 'Im_RyanGosling.png', 'Im_BenStiller.png', 'Im_KeanuReeves.png', 'Im_RobertPattinson.png', 'Im_LeonardoDiCaprio.png', 'Im_JustinTimberlake.png'],same,0,0.5834243999997852,16,69.04761904761905,
AHLA1505,train,inv,60,pos60_id6_im12.bmp_pos60_id10_im1.bmp,['Im_PatrickDempsey.png', 'Im_GeorgeClooney.png', 'Im_BradPitt.png', 'Im_ElijahWood.png', 'Im_RyanGosling.png', 'Im_BenStiller.png', 'Im_KeanuReeves.png', 'Im_RobertPattinson.png', 'Im_LeonardoDiCaprio.png', 'Im_JustinTimberlake.png'],diff,1,1.2169120999969891,17,69.04761904761905,
AHLA1505,train,inv,120,pos120_id13_im15.bmp_pos120_id11_im1.bmp,['Im_PatrickDempsey.png', 'Im_GeorgeClooney.png', 'Im_BradPitt.png', 'Im_ElijahWood.png', 'Im_RyanGosling.png', 'Im_BenStiller.png', 'Im_KeanuReeves.png', 'Im_RobertPattinson.png', 'Im_LeonardoDiCaprio.png', 'Im_JustinTimberlake.png'],same,0,0.4252210999984527,17,69.04761904761905,
AHLA1505,train,inv,150,pos150_id10_im1.bmp_pos150_id6_im12.bmp,['Im_PatrickDempsey.png', 'Im_GeorgeClooney.png', 'Im_BradPitt.png', 'Im_ElijahWood.png', 'Im_RyanGosling.png', 'Im_BenStiller.png', 'Im_KeanuReeves.png', 'Im_RobertPattinson.png', 'Im_LeonardoDiCaprio.png', 'Im_JustinTimberlake.png'],diff,1,1.3248708999999508,18,69.04761904761905,
AHLA1505,train,inv,150,pos150_id11_im10.bmp_pos150_id11_im2.bmp,['Im_PatrickDempsey.png', 'Im_GeorgeClooney.png', 'Im_BradPitt.png', 'Im_ElijahWood.png', 'Im_RyanGosling.png', 'Im_BenStiller.png', 'Im_KeanuReeves.png', 'Im_RobertPattinson.png', 'Im_LeonardoDiCaprio.png', 'Im_JustinTimberlake.png'],same,1,0.4249414000005345,19,69.04761904761905,
AHLA1505,train,inv,60,pos60_id20_im30.bmp_pos60_id20_im12.bmp,['Im_PatrickDempsey.png', 'Im_GeorgeClooney.png', 'Im_BradPitt.png', 'Im_ElijahWood.png', 'Im_RyanGosling.png', 'Im_BenStiller.png', 'Im_KeanuReeves.png', 'Im_RobertPattinson.png', 'Im_LeonardoDiCaprio.png', 'Im_JustinTimberlake.png'],same,1,0.4250350000002072,20,69.04761904761905,
AHLA1505,train,inv,fs,posfs_id19_im8.bmp_posfs_id19_im4.bmp,['Im_PatrickDempsey.png', 'Im_GeorgeClooney.png', 'Im_BradPitt.png', 'Im_ElijahWood.png', 'Im_RyanGosling.png', 'Im_BenStiller.png', 'Im_KeanuReeves.png', 'Im_RobertPattinson.png', 'Im_LeonardoDiCaprio.png', 'Im_JustinTimberlake.png'],same,1,0.4083747000004223,21,69.04761904761905,
AHLA1505,train,inv,0,pos0_id6_im18.bmp_pos0_id13_im15.bmp,['Im_PatrickDempsey.png', 'Im_GeorgeClooney.png', 'Im_BradPitt.png', 'Im_ElijahWood.png', 'Im_RyanGosling.png', 'Im_BenStiller.png', 'Im_KeanuReeves.png', 'Im_RobertPattinson.png', 'Im_LeonardoDiCaprio.png', 'Im_JustinTimberlake.png'],diff,1,0.4250976000002993,22,69.04761904761905,
AHLA1505,train,neg,0,neg0_id13_im10.bmp_neg0_id13_im29.bmp,['Im_PatrickDempsey.png', 'Im_GeorgeClooney.png', 'Im_BradPitt.png', 'Im_ElijahWood.png', 'Im_RyanGosling.png', 'Im_BenStiller.png', 'Im_KeanuReeves.png', 'Im_RobertPattinson.png', 'Im_LeonardoDiCaprio.png', 'Im_JustinTimberlake.png'],diff,0,0.6670417999994243,22,69.04761904761905,
AHLA1505,train,neg,120,neg120_id6_im19.bmp_neg120_id6_im18.bmp,['Im_PatrickDempsey.png', 'Im_GeorgeClooney.png', 'Im_BradPitt.png', 'Im_ElijahWood.png', 'Im_RyanGosling.png', 'Im_BenStiller.png', 'Im_KeanuReeves.png', 'Im_RobertPattinson.png', 'Im_LeonardoDiCaprio.png', 'Im_JustinTimberlake.png'],same,1,0.4250413000008848,23,69.04761904761905,
AHLA1505,train,neg,120,neg120_id17_im9.bmp_neg120_id3_im8.bmp,['Im_PatrickDempsey.png', 'Im_GeorgeClooney.png', 'Im_BradPitt.png', 'Im_ElijahWood.png', 'Im_RyanGosling.png', 'Im_BenStiller.png', 'Im_KeanuReeves.png', 'Im_RobertPattinson.png', 'Im_LeonardoDiCaprio.png', 'Im_JustinTimberlake.png'],same,0,0.44169890000193845,23,69.04761904761905,
AHLA1505,train,neg,150,neg150_id19_im27.bmp_neg150_id11_im10.bmp,['Im_PatrickDempsey.png', 'Im_GeorgeClooney.png', 'Im_BradPitt.png', 'Im_ElijahWood.png', 'Im_RyanGosling.png', 'Im_BenStiller.png', 'Im_KeanuReeves.png', 'Im_RobertPattinson.png', 'Im_LeonardoDiCaprio.png', 'Im_JustinTimberlake.png'],diff,1,0.4081068999985291,24,69.04761904761905,
AHLA1505,train,neg,60,neg60_id2_im2.bmp_neg60_id2_im3.bmp,['Im_PatrickDempsey.png', 'Im_GeorgeClooney.png', 'Im_BradPitt.png', 'Im_ElijahWood.png', 'Im_RyanGosling.png', 'Im_BenStiller.png', 'Im_KeanuReeves.png', 'Im_RobertPattinson.png', 'Im_LeonardoDiCaprio.png', 'Im_JustinTimberlake.png'],diff,0,1.2418173000005481,24,69.04761904761905,
AHLA1505,train,neg,150,neg150_id7_im14.bmp_neg150_id3_im6.bmp,['Im_PatrickDempsey.png', 'Im_GeorgeClooney.png', 'Im_BradPitt.png', 'Im_ElijahWood.png', 'Im_RyanGosling.png', 'Im_BenStiller.png', 'Im_KeanuReeves.png', 'Im_RobertPattinson.png', 'Im_LeonardoDiCaprio.png', 'Im_JustinTimberlake.png'],same,0,0.9586194000003161,24,69.04761904761905,
AHLA1505,train,neg,fs,negfs_id17_im9.bmp_negfs_id17_im14.bmp,['Im_PatrickDempsey.png', 'Im_GeorgeClooney.png', 'Im_BradPitt.png', 'Im_ElijahWood.png', 'Im_RyanGosling.png', 'Im_BenStiller.png', 'Im_KeanuReeves.png', 'Im_RobertPattinson.png', 'Im_LeonardoDiCaprio.png', 'Im_JustinTimberlake.png'],same,1,1.4082726999986335,25,69.04761904761905,
AHLA1505,train,neg,30,neg30_id13_im15.bmp_neg30_id13_im29.bmp,['Im_PatrickDempsey.png', 'Im_GeorgeClooney.png', 'Im_BradPitt.png', 'Im_ElijahWood.png', 'Im_RyanGosling.png', 'Im_BenStiller.png', 'Im_KeanuReeves.png', 'Im_RobertPattinson.png', 'Im_LeonardoDiCaprio.png', 'Im_JustinTimberlake.png'],same,1,0.4166652999992948,26,69.04761904761905,
AHLA1505,train,neg,90,neg90_id3_im6.bmp_neg90_id20_im30.bmp,['Im_PatrickDempsey.png', 'Im_GeorgeClooney.png', 'Im_BradPitt.png', 'Im_ElijahWood.png', 'Im_RyanGosling.png', 'Im_BenStiller.png', 'Im_KeanuReeves.png', 'Im_RobertPattinson.png', 'Im_LeonardoDiCaprio.png', 'Im_JustinTimberlake.png'],same,0,0.4250433000015619,26,69.04761904761905,
AHLA1505,train,neg,0,neg0_id17_im14.bmp_neg0_id2_im3.bmp,['Im_PatrickDempsey.png', 'Im_GeorgeClooney.png', 'Im_BradPitt.png', 'Im_ElijahWood.png', 'Im_RyanGosling.png', 'Im_BenStiller.png', 'Im_KeanuReeves.png', 'Im_RobertPattinson.png', 'Im_LeonardoDiCaprio.png', 'Im_JustinTimberlake.png'],diff,1,0.5585938000003807,27,69.04761904761905,
AHLA1505,train,neg,90,neg90_id13_im29.bmp_neg90_id19_im8.bmp,['Im_PatrickDempsey.png', 'Im_GeorgeClooney.png', 'Im_BradPitt.png', 'Im_ElijahWood.png', 'Im_RyanGosling.png', 'Im_BenStiller.png', 'Im_KeanuReeves.png', 'Im_RobertPattinson.png', 'Im_LeonardoDiCaprio.png', 'Im_JustinTimberlake.png'],same,0,0.8500571999975364,27,69.04761904761905,
AHLA1505,train,neg,60,neg60_id2_im3.bmp_neg60_id17_im14.bmp,['Im_PatrickDempsey.png', 'Im_GeorgeClooney.png', 'Im_BradPitt.png', 'Im_ElijahWood.png', 'Im_RyanGosling.png', 'Im_BenStiller.png', 'Im_KeanuReeves.png', 'Im_RobertPattinson.png', 'Im_LeonardoDiCaprio.png', 'Im_JustinTimberlake.png'],diff,1,1.2245206000006874,28,69.04761904761905,
AHLA1505,train,neg,30,neg30_id20_im30.bmp_neg30_id3_im6.bmp,['Im_PatrickDempsey.png', 'Im_GeorgeClooney.png', 'Im_BradPitt.png', 'Im_ElijahWood.png', 'Im_RyanGosling.png', 'Im_BenStiller.png', 'Im_KeanuReeves.png', 'Im_RobertPattinson.png', 'Im_LeonardoDiCaprio.png', 'Im_JustinTimberlake.png'],diff,1,0.4663378000004741,29,69.04761904761905,
AHLA1505,train,neg,fs,negfs_id6_im12.bmp_negfs_id6_im19.bmp,['Im_PatrickDempsey.png', 'Im_GeorgeClooney.png', 'Im_BradPitt.png', 'Im_ElijahWood.png', 'Im_RyanGosling.png', 'Im_BenStiller.png', 'Im_KeanuReeves.png', 'Im_RobertPattinson.png', 'Im_LeonardoDiCaprio.png', 'Im_JustinTimberlake.png'],same,1,1.2086271999978635,30,69.04761904761905,
AHLA1505,train,pos,120,pos120_id17_im9.bmp_pos120_id17_im14.bmp,['Im_PatrickDempsey.png', 'Im_GeorgeClooney.png', 'Im_BradPitt.png', 'Im_ElijahWood.png', 'Im_RyanGosling.png', 'Im_BenStiller.png', 'Im_KeanuReeves.png', 'Im_RobertPattinson.png', 'Im_LeonardoDiCaprio.png', 'Im_JustinTimberlake.png'],same,1,0.5497873999993317,1,71.42857142857143,
AHLA1505,train,pos,30,pos30_id19_im4.bmp_pos30_id7_im26.bmp,['Im_PatrickDempsey.png', 'Im_GeorgeClooney.png', 'Im_BradPitt.png', 'Im_ElijahWood.png', 'Im_RyanGosling.png', 'Im_BenStiller.png', 'Im_KeanuReeves.png', 'Im_RobertPattinson.png', 'Im_LeonardoDiCaprio.png', 'Im_JustinTimberlake.png'],diff,1,0.4083953000008478,2,71.42857142857143,
AHLA1505,train,pos,90,pos90_id20_im30.bmp_pos90_id20_im12.bmp,['Im_PatrickDempsey.png', 'Im_GeorgeClooney.png', 'Im_BradPitt.png', 'Im_ElijahWood.png', 'Im_RyanGosling.png', 'Im_BenStiller.png', 'Im_KeanuReeves.png', 'Im_RobertPattinson.png', 'Im_LeonardoDiCaprio.png', 'Im_JustinTimberlake.png'],same,1,0.42475800000102026,3,71.42857142857143,
AHLA1505,train,pos,120,pos120_id19_im4.bmp_pos120_id19_im27.bmp,['Im_PatrickDempsey.png', 'Im_GeorgeClooney.png', 'Im_BradPitt.png', 'Im_ElijahWood.png', 'Im_RyanGosling.png', 'Im_BenStiller.png', 'Im_KeanuReeves.png', 'Im_RobertPattinson.png', 'Im_LeonardoDiCaprio.png', 'Im_JustinTimberlake.png'],same,1,0.4251034000008076,4,71.42857142857143,
AHLA1505,train,pos,90,pos90_id13_im10.bmp_pos90_id20_im12.bmp,['Im_PatrickDempsey.png', 'Im_GeorgeClooney.png', 'Im_BradPitt.png', 'Im_ElijahWood.png', 'Im_RyanGosling.png', 'Im_BenStiller.png', 'Im_KeanuReeves.png', 'Im_RobertPattinson.png', 'Im_LeonardoDiCaprio.png', 'Im_JustinTimberlake.png'],diff,1,0.4084000999973796,5,71.42857142857143,
AHLA1505,train,pos,0,pos0_id10_im17.bmp_pos0_id10_im18.bmp,['Im_PatrickDempsey.png', 'Im_GeorgeClooney.png', 'Im_BradPitt.png', 'Im_ElijahWood.png', 'Im_RyanGosling.png', 'Im_BenStiller.png', 'Im_KeanuReeves.png', 'Im_RobertPattinson.png', 'Im_LeonardoDiCaprio.png', 'Im_JustinTimberlake.png'],same,1,0.40831769999931566,6,71.42857142857143,
AHLA1505,train,pos,fs,posfs_id20_im12.bmp_posfs_id13_im10.bmp,['Im_PatrickDempsey.png', 'Im_GeorgeClooney.png', 'Im_BradPitt.png', 'Im_ElijahWood.png', 'Im_RyanGosling.png', 'Im_BenStiller.png', 'Im_KeanuReeves.png', 'Im_RobertPattinson.png', 'Im_LeonardoDiCaprio.png', 'Im_JustinTimberlake.png'],diff,1,0.41664010000022245,7,71.42857142857143,
AHLA1505,train,pos,60,pos60_id11_im10.bmp_pos60_id11_im2.bmp,['Im_PatrickDempsey.png', 'Im_GeorgeClooney.png', 'Im_BradPitt.png', 'Im_ElijahWood.png', 'Im_RyanGosling.png', 'Im_BenStiller.png', 'Im_KeanuReeves.png', 'Im_RobertPattinson.png', 'Im_LeonardoDiCaprio.png', 'Im_JustinTimberlake.png'],same,1,0.40836570000101347,8,71.42857142857143,
AHLA1505,train,pos,0,pos0_id7_im15.bmp_pos0_id19_im4.bmp,['Im_PatrickDempsey.png', 'Im_GeorgeClooney.png', 'Im_BradPitt.png', 'Im_ElijahWood.png', 'Im_RyanGosling.png', 'Im_BenStiller.png', 'Im_KeanuReeves.png', 'Im_RobertPattinson.png', 'Im_LeonardoDiCaprio.png', 'Im_JustinTimberlake.png'],diff,1,0.4501589999999851,9,71.42857142857143,
AHLA1505,train,pos,150,pos150_id6_im19.bmp_pos150_id6_im12.bmp,['Im_PatrickDempsey.png', 'Im_GeorgeClooney.png', 'Im_BradPitt.png', 'Im_ElijahWood.png', 'Im_RyanGosling.png', 'Im_BenStiller.png', 'Im_KeanuReeves.png', 'Im_RobertPattinson.png', 'Im_LeonardoDiCaprio.png', 'Im_JustinTimberlake.png'],diff,0,1.7336176999997406,9,71.42857142857143,
AHLA1505,train,pos,30,pos30_id20_im12.bmp_pos30_id13_im10.bmp,['Im_PatrickDempsey.png', 'Im_GeorgeClooney.png', 'Im_BradPitt.png', 'Im_ElijahWood.png', 'Im_RyanGosling.png', 'Im_BenStiller.png', 'Im_KeanuReeves.png', 'Im_RobertPattinson.png', 'Im_LeonardoDiCaprio.png', 'Im_JustinTimberlake.png'],diff,1,0.6420352999994066,10,71.42857142857143,
AHLA1505,train,pos,fs,posfs_id17_im9.bmp_posfs_id17_im14.bmp,['Im_PatrickDempsey.png', 'Im_GeorgeClooney.png', 'Im_BradPitt.png', 'Im_ElijahWood.png', 'Im_RyanGosling.png', 'Im_BenStiller.png', 'Im_KeanuReeves.png', 'Im_RobertPattinson.png', 'Im_LeonardoDiCaprio.png', 'Im_JustinTimberlake.png'],same,1,0.40836269999999786,11,71.42857142857143,
AHLA1505,train,pos,150,pos150_id17_im9.bmp_pos150_id3_im8.bmp,['Im_PatrickDempsey.png', 'Im_GeorgeClooney.png', 'Im_BradPitt.png', 'Im_ElijahWood.png', 'Im_RyanGosling.png', 'Im_BenStiller.png', 'Im_KeanuReeves.png', 'Im_RobertPattinson.png', 'Im_LeonardoDiCaprio.png', 'Im_JustinTimberlake.png'],same,0,0.516667600000801,11,71.42857142857143,
AHLA1505,train,pos,60,pos60_id2_im16.bmp_pos60_id10_im1.bmp,['Im_PatrickDempsey.png', 'Im_GeorgeClooney.png', 'Im_BradPitt.png', 'Im_ElijahWood.png', 'Im_RyanGosling.png', 'Im_BenStiller.png', 'Im_KeanuReeves.png', 'Im_RobertPattinson.png', 'Im_LeonardoDiCaprio.png', 'Im_JustinTimberlake.png'],diff,1,0.4082957000027818,12,71.42857142857143,
AHLA1505,train,pos,120,pos120_id10_im17.bmp_pos120_id10_im18.bmp,['Im_PatrickDempsey.png', 'Im_GeorgeClooney.png', 'Im_BradPitt.png', 'Im_ElijahWood.png', 'Im_RyanGosling.png', 'Im_BenStiller.png', 'Im_KeanuReeves.png', 'Im_RobertPattinson.png', 'Im_LeonardoDiCaprio.png', 'Im_JustinTimberlake.png'],diff,0,0.43343390000154614,12,71.42857142857143,
AHLA1505,train,pos,30,pos30_id17_im14.bmp_pos30_id17_im8.bmp,['Im_PatrickDempsey.png', 'Im_GeorgeClooney.png', 'Im_BradPitt.png', 'Im_ElijahWood.png', 'Im_RyanGosling.png', 'Im_BenStiller.png', 'Im_KeanuReeves.png', 'Im_RobertPattinson.png', 'Im_LeonardoDiCaprio.png', 'Im_JustinTimberlake.png'],same,1,0.925377199997456,13,71.42857142857143,
AHLA1505,train,pos,fs,posfs_id11_im1.bmp_posfs_id11_im2.bmp,['Im_PatrickDempsey.png', 'Im_GeorgeClooney.png', 'Im_BradPitt.png', 'Im_ElijahWood.png', 'Im_RyanGosling.png', 'Im_BenStiller.png', 'Im_KeanuReeves.png', 'Im_RobertPattinson.png', 'Im_LeonardoDiCaprio.png', 'Im_JustinTimberlake.png'],same,1,0.4249555999995209,14,71.42857142857143,
AHLA1505,train,pos,0,pos0_id17_im14.bmp_pos0_id17_im9.bmp,['Im_PatrickDempsey.png', 'Im_GeorgeClooney.png', 'Im_BradPitt.png', 'Im_ElijahWood.png', 'Im_RyanGosling.png', 'Im_BenStiller.png', 'Im_KeanuReeves.png', 'Im_RobertPattinson.png', 'Im_LeonardoDiCaprio.png', 'Im_JustinTimberlake.png'],same,1,0.41681640000024345,15,71.42857142857143,
AHLA1505,train,pos,60,pos60_id13_im15.bmp_pos60_id13_im29.bmp,['Im_PatrickDempsey.png', 'Im_GeorgeClooney.png', 'Im_BradPitt.png', 'Im_ElijahWood.png', 'Im_RyanGosling.png', 'Im_BenStiller.png', 'Im_KeanuReeves.png', 'Im_RobertPattinson.png', 'Im_LeonardoDiCaprio.png', 'Im_JustinTimberlake.png'],same,1,0.42503129999749945,16,71.42857142857143,
AHLA1505,train,pos,90,pos90_id17_im14.bmp_pos90_id17_im8.bmp,['Im_PatrickDempsey.png', 'Im_GeorgeClooney.png', 'Im_BradPitt.png', 'Im_ElijahWood.png', 'Im_RyanGosling.png', 'Im_BenStiller.png', 'Im_KeanuReeves.png', 'Im_RobertPattinson.png', 'Im_LeonardoDiCaprio.png', 'Im_JustinTimberlake.png'],same,1,0.43338999999832595,17,71.42857142857143,
AHLA1505,train,pos,fs,posfs_id19_im8.bmp_posfs_id19_im27.bmp,['Im_PatrickDempsey.png', 'Im_GeorgeClooney.png', 'Im_BradPitt.png', 'Im_ElijahWood.png', 'Im_RyanGosling.png', 'Im_BenStiller.png', 'Im_KeanuReeves.png', 'Im_RobertPattinson.png', 'Im_LeonardoDiCaprio.png', 'Im_JustinTimberlake.png'],same,1,0.4162117000014405,18,71.42857142857143,
AHLA1505,train,pos,150,pos150_id7_im15.bmp_pos150_id7_im26.bmp,['Im_PatrickDempsey.png', 'Im_GeorgeClooney.png', 'Im_BradPitt.png', 'Im_ElijahWood.png', 'Im_RyanGosling.png', 'Im_BenStiller.png', 'Im_KeanuReeves.png', 'Im_RobertPattinson.png', 'Im_LeonardoDiCaprio.png', 'Im_JustinTimberlake.png'],same,1,0.5164500999999291,19,71.42857142857143,
AHLA1505,train,pos,30,pos30_id13_im10.bmp_pos30_id6_im19.bmp,['Im_PatrickDempsey.png', 'Im_GeorgeClooney.png', 'Im_BradPitt.png', 'Im_ElijahWood.png', 'Im_RyanGosling.png', 'Im_BenStiller.png', 'Im_KeanuReeves.png', 'Im_RobertPattinson.png', 'Im_LeonardoDiCaprio.png', 'Im_JustinTimberlake.png'],diff,1,0.4917354000026535,20,71.42857142857143,
AHLA1505,train,pos,90,pos90_id11_im1.bmp_pos90_id13_im15.bmp,['Im_PatrickDempsey.png', 'Im_GeorgeClooney.png', 'Im_BradPitt.png', 'Im_ElijahWood.png', 'Im_RyanGosling.png', 'Im_BenStiller.png', 'Im_KeanuReeves.png', 'Im_RobertPattinson.png', 'Im_LeonardoDiCaprio.png', 'Im_JustinTimberlake.png'],diff,1,0.42500939999808907,21,71.42857142857143,
AHLA1505,train,pos,60,pos60_id11_im10.bmp_pos60_id11_im1.bmp,['Im_PatrickDempsey.png', 'Im_GeorgeClooney.png', 'Im_BradPitt.png', 'Im_ElijahWood.png', 'Im_RyanGosling.png', 'Im_BenStiller.png', 'Im_KeanuReeves.png', 'Im_RobertPattinson.png', 'Im_LeonardoDiCaprio.png', 'Im_JustinTimberlake.png'],same,1,0.6916328000006615,22,71.42857142857143,
AHLA1505,train,pos,150,pos150_id2_im16.bmp_pos150_id10_im1.bmp,['Im_PatrickDempsey.png', 'Im_GeorgeClooney.png', 'Im_BradPitt.png', 'Im_ElijahWood.png', 'Im_RyanGosling.png', 'Im_BenStiller.png', 'Im_KeanuReeves.png', 'Im_RobertPattinson.png', 'Im_LeonardoDiCaprio.png', 'Im_JustinTimberlake.png'],diff,1,0.42500099999961094,23,71.42857142857143,
AHLA1505,train,pos,0,pos0_id20_im30.bmp_pos0_id10_im18.bmp,['Im_PatrickDempsey.png', 'Im_GeorgeClooney.png', 'Im_BradPitt.png', 'Im_ElijahWood.png', 'Im_RyanGosling.png', 'Im_BenStiller.png', 'Im_KeanuReeves.png', 'Im_RobertPattinson.png', 'Im_LeonardoDiCaprio.png', 'Im_JustinTimberlake.png'],diff,1,0.4166299999997136,24,71.42857142857143,
AHLA1505,train,pos,120,pos120_id10_im18.bmp_pos120_id20_im30.bmp,['Im_PatrickDempsey.png', 'Im_GeorgeClooney.png', 'Im_BradPitt.png', 'Im_ElijahWood.png', 'Im_RyanGosling.png', 'Im_BenStiller.png', 'Im_KeanuReeves.png', 'Im_RobertPattinson.png', 'Im_LeonardoDiCaprio.png', 'Im_JustinTimberlake.png'],diff,1,0.4244524000023375,25,71.42857142857143,
AHLA1505,train,neg,0,neg0_id20_im3.bmp_neg0_id20_im30.bmp,['Im_PatrickDempsey.png', 'Im_GeorgeClooney.png', 'Im_BradPitt.png', 'Im_ElijahWood.png', 'Im_RyanGosling.png', 'Im_BenStiller.png', 'Im_KeanuReeves.png', 'Im_RobertPattinson.png', 'Im_LeonardoDiCaprio.png', 'Im_JustinTimberlake.png'],same,1,0.9752736000009463,26,71.42857142857143,
AHLA1505,train,neg,fs,negfs_id10_im17.bmp_negfs_id2_im2.bmp,['Im_PatrickDempsey.png', 'Im_GeorgeClooney.png', 'Im_BradPitt.png', 'Im_ElijahWood.png', 'Im_RyanGosling.png', 'Im_BenStiller.png', 'Im_KeanuReeves.png', 'Im_RobertPattinson.png', 'Im_LeonardoDiCaprio.png', 'Im_JustinTimberlake.png'],diff,1,0.43341380000128993,27,71.42857142857143,
AHLA1505,train,neg,150,neg150_id2_im16.bmp_neg150_id11_im2.bmp,['Im_PatrickDempsey.png', 'Im_GeorgeClooney.png', 'Im_BradPitt.png', 'Im_ElijahWood.png', 'Im_RyanGosling.png', 'Im_BenStiller.png', 'Im_KeanuReeves.png', 'Im_RobertPattinson.png', 'Im_LeonardoDiCaprio.png', 'Im_JustinTimberlake.png'],diff,1,0.4328629000010551,28,71.42857142857143,
AHLA1505,train,neg,30,neg30_id3_im6.bmp_neg30_id3_im8.bmp,['Im_PatrickDempsey.png', 'Im_GeorgeClooney.png', 'Im_BradPitt.png', 'Im_ElijahWood.png', 'Im_RyanGosling.png', 'Im_BenStiller.png', 'Im_KeanuReeves.png', 'Im_RobertPattinson.png', 'Im_LeonardoDiCaprio.png', 'Im_JustinTimberlake.png'],same,1,0.4166912000000593,29,71.42857142857143,
AHLA1505,train,neg,60,neg60_id2_im3.bmp_neg60_id2_im16.bmp,['Im_PatrickDempsey.png', 'Im_GeorgeClooney.png', 'Im_BradPitt.png', 'Im_ElijahWood.png', 'Im_RyanGosling.png', 'Im_BenStiller.png', 'Im_KeanuReeves.png', 'Im_RobertPattinson.png', 'Im_LeonardoDiCaprio.png', 'Im_JustinTimberlake.png'],same,1,0.42506439999851864,30,71.42857142857143,
AHLA1505,train,neg,60,neg60_id3_im8.bmp_neg60_id17_im8.bmp,['Im_PatrickDempsey.png', 'Im_GeorgeClooney.png', 'Im_BradPitt.png', 'Im_ElijahWood.png', 'Im_RyanGosling.png', 'Im_BenStiller.png', 'Im_KeanuReeves.png', 'Im_RobertPattinson.png', 'Im_LeonardoDiCaprio.png', 'Im_JustinTimberlake.png'],diff,1,0.4333922000005259,31,71.42857142857143,
AHLA1505,train,neg,150,neg150_id10_im1.bmp_neg150_id6_im12.bmp,['Im_PatrickDempsey.png', 'Im_GeorgeClooney.png', 'Im_BradPitt.png', 'Im_ElijahWood.png', 'Im_RyanGosling.png', 'Im_BenStiller.png', 'Im_KeanuReeves.png', 'Im_RobertPattinson.png', 'Im_LeonardoDiCaprio.png', 'Im_JustinTimberlake.png'],diff,1,0.45032939999873633,32,71.42857142857143,
AHLA1505,train,neg,120,neg120_id20_im12.bmp_neg120_id20_im3.bmp,['Im_PatrickDempsey.png', 'Im_GeorgeClooney.png', 'Im_BradPitt.png', 'Im_ElijahWood.png', 'Im_RyanGosling.png', 'Im_BenStiller.png', 'Im_KeanuReeves.png', 'Im_RobertPattinson.png', 'Im_LeonardoDiCaprio.png', 'Im_JustinTimberlake.png'],same,1,0.40825150000091526,33,71.42857142857143,
AHLA1505,train,neg,fs,negfs_id6_im19.bmp_negfs_id6_im18.bmp,['Im_PatrickDempsey.png', 'Im_GeorgeClooney.png', 'Im_BradPitt.png', 'Im_ElijahWood.png', 'Im_RyanGosling.png', 'Im_BenStiller.png', 'Im_KeanuReeves.png', 'Im_RobertPattinson.png', 'Im_LeonardoDiCaprio.png', 'Im_JustinTimberlake.png'],same,1,0.4250508000004629,34,71.42857142857143,
AHLA1505,train,neg,90,neg90_id10_im18.bmp_neg90_id10_im17.bmp,['Im_PatrickDempsey.png', 'Im_GeorgeClooney.png', 'Im_BradPitt.png', 'Im_ElijahWood.png', 'Im_RyanGosling.png', 'Im_BenStiller.png', 'Im_KeanuReeves.png', 'Im_RobertPattinson.png', 'Im_LeonardoDiCaprio.png', 'Im_JustinTimberlake.png'],same,1,0.4667159000018728,35,71.42857142857143,
AHLA1505,train,neg,0,neg0_id2_im2.bmp_neg0_id2_im16.bmp,['Im_PatrickDempsey.png', 'Im_GeorgeClooney.png', 'Im_BradPitt.png', 'Im_ElijahWood.png', 'Im_RyanGosling.png', 'Im_BenStiller.png', 'Im_KeanuReeves.png', 'Im_RobertPattinson.png', 'Im_LeonardoDiCaprio.png', 'Im_JustinTimberlake.png'],same,1,0.4163976999989245,36,71.42857142857143,
AHLA1505,train,neg,90,neg90_id7_im14.bmp_neg90_id13_im29.bmp,['Im_PatrickDempsey.png', 'Im_GeorgeClooney.png', 'Im_BradPitt.png', 'Im_ElijahWood.png', 'Im_RyanGosling.png', 'Im_BenStiller.png', 'Im_KeanuReeves.png', 'Im_RobertPattinson.png', 'Im_LeonardoDiCaprio.png', 'Im_JustinTimberlake.png'],diff,1,0.425062500002241,37,71.42857142857143,
AHLA1505,train,neg,30,neg30_id6_im19.bmp_neg30_id20_im3.bmp,['Im_PatrickDempsey.png', 'Im_GeorgeClooney.png', 'Im_BradPitt.png', 'Im_ElijahWood.png', 'Im_RyanGosling.png', 'Im_BenStiller.png', 'Im_KeanuReeves.png', 'Im_RobertPattinson.png', 'Im_LeonardoDiCaprio.png', 'Im_JustinTimberlake.png'],diff,1,0.4167511000014201,38,71.42857142857143,
AHLA1505,train,neg,120,neg120_id3_im6.bmp_neg120_id20_im30.bmp,['Im_PatrickDempsey.png', 'Im_GeorgeClooney.png', 'Im_BradPitt.png', 'Im_ElijahWood.png', 'Im_RyanGosling.png', 'Im_BenStiller.png', 'Im_KeanuReeves.png', 'Im_RobertPattinson.png', 'Im_LeonardoDiCaprio.png', 'Im_JustinTimberlake.png'],same,0,0.42508190000080504,38,71.42857142857143,
AHLA1505,train,inv,fs,posfs_id20_im12.bmp_posfs_id13_im10.bmp,['Im_PatrickDempsey.png', 'Im_GeorgeClooney.png', 'Im_BradPitt.png', 'Im_ElijahWood.png', 'Im_RyanGosling.png', 'Im_BenStiller.png', 'Im_KeanuReeves.png', 'Im_RobertPattinson.png', 'Im_LeonardoDiCaprio.png', 'Im_JustinTimberlake.png'],diff,1,0.7332972000003792,1,90.47619047619048,
AHLA1505,train,inv,120,pos120_id2_im16.bmp_pos120_id10_im1.bmp,['Im_PatrickDempsey.png', 'Im_GeorgeClooney.png', 'Im_BradPitt.png', 'Im_ElijahWood.png', 'Im_RyanGosling.png', 'Im_BenStiller.png', 'Im_KeanuReeves.png', 'Im_RobertPattinson.png', 'Im_LeonardoDiCaprio.png', 'Im_JustinTimberlake.png'],same,0,1.075019500000053,1,90.47619047619048,
AHLA1505,train,inv,60,pos60_id17_im8.bmp_pos60_id3_im8.bmp,['Im_PatrickDempsey.png', 'Im_GeorgeClooney.png', 'Im_BradPitt.png', 'Im_ElijahWood.png', 'Im_RyanGosling.png', 'Im_BenStiller.png', 'Im_KeanuReeves.png', 'Im_RobertPattinson.png', 'Im_LeonardoDiCaprio.png', 'Im_JustinTimberlake.png'],same,0,0.6585298000027251,1,90.47619047619048,
AHLA1505,train,inv,30,pos30_id10_im18.bmp_pos30_id10_im1.bmp,['Im_PatrickDempsey.png', 'Im_GeorgeClooney.png', 'Im_BradPitt.png', 'Im_ElijahWood.png', 'Im_RyanGosling.png', 'Im_BenStiller.png', 'Im_KeanuReeves.png', 'Im_RobertPattinson.png', 'Im_LeonardoDiCaprio.png', 'Im_JustinTimberlake.png'],diff,0,0.4585717999980261,1,90.47619047619048,
AHLA1505,train,inv,60,pos60_id19_im8.bmp_pos60_id13_im29.bmp,['Im_PatrickDempsey.png', 'Im_GeorgeClooney.png', 'Im_BradPitt.png', 'Im_ElijahWood.png', 'Im_RyanGosling.png', 'Im_BenStiller.png', 'Im_KeanuReeves.png', 'Im_RobertPattinson.png', 'Im_LeonardoDiCaprio.png', 'Im_JustinTimberlake.png'],diff,1,0.40834990000075777,2,90.47619047619048,
AHLA1505,train,inv,30,pos30_id19_im8.bmp_pos30_id11_im1.bmp,['Im_PatrickDempsey.png', 'Im_GeorgeClooney.png', 'Im_BradPitt.png', 'Im_ElijahWood.png', 'Im_RyanGosling.png', 'Im_BenStiller.png', 'Im_KeanuReeves.png', 'Im_RobertPattinson.png', 'Im_LeonardoDiCaprio.png', 'Im_JustinTimberlake.png'],diff,1,0.40845270000136225,3,90.47619047619048,
AHLA1505,train,inv,0,pos0_id6_im12.bmp_pos0_id3_im17.bmp,['Im_PatrickDempsey.png', 'Im_GeorgeClooney.png', 'Im_BradPitt.png', 'Im_ElijahWood.png', 'Im_RyanGosling.png', 'Im_BenStiller.png', 'Im_KeanuReeves.png', 'Im_RobertPattinson.png', 'Im_LeonardoDiCaprio.png', 'Im_JustinTimberlake.png'],diff,1,0.4249116999999387,4,90.47619047619048,
AHLA1505,train,inv,120,pos120_id3_im17.bmp_pos120_id6_im12.bmp,['Im_PatrickDempsey.png', 'Im_GeorgeClooney.png', 'Im_BradPitt.png', 'Im_ElijahWood.png', 'Im_RyanGosling.png', 'Im_BenStiller.png', 'Im_KeanuReeves.png', 'Im_RobertPattinson.png', 'Im_LeonardoDiCaprio.png', 'Im_JustinTimberlake.png'],diff,1,0.4250477999994473,5,90.47619047619048,
AHLA1505,train,inv,150,pos150_id17_im9.bmp_pos150_id17_im8.bmp,['Im_PatrickDempsey.png', 'Im_GeorgeClooney.png', 'Im_BradPitt.png', 'Im_ElijahWood.png', 'Im_RyanGosling.png', 'Im_BenStiller.png', 'Im_KeanuReeves.png', 'Im_RobertPattinson.png', 'Im_LeonardoDiCaprio.png', 'Im_JustinTimberlake.png'],same,1,0.425047300002916,6,90.47619047619048,
AHLA1505,train,inv,90,pos90_id7_im14.bmp_pos90_id7_im26.bmp,['Im_PatrickDempsey.png', 'Im_GeorgeClooney.png', 'Im_BradPitt.png', 'Im_ElijahWood.png', 'Im_RyanGosling.png', 'Im_BenStiller.png', 'Im_KeanuReeves.png', 'Im_RobertPattinson.png', 'Im_LeonardoDiCaprio.png', 'Im_JustinTimberlake.png'],same,1,0.4083920999983093,7,90.47619047619048,
AHLA1505,train,inv,90,pos90_id3_im6.bmp_pos90_id7_im14.bmp,['Im_PatrickDempsey.png', 'Im_GeorgeClooney.png', 'Im_BradPitt.png', 'Im_ElijahWood.png', 'Im_RyanGosling.png', 'Im_BenStiller.png', 'Im_KeanuReeves.png', 'Im_RobertPattinson.png', 'Im_LeonardoDiCaprio.png', 'Im_JustinTimberlake.png'],diff,1,0.40853920000154176,8,90.47619047619048,
AHLA1505,train,inv,fs,posfs_id11_im1.bmp_posfs_id13_im15.bmp,['Im_PatrickDempsey.png', 'Im_GeorgeClooney.png', 'Im_BradPitt.png', 'Im_ElijahWood.png', 'Im_RyanGosling.png', 'Im_BenStiller.png', 'Im_KeanuReeves.png', 'Im_RobertPattinson.png', 'Im_LeonardoDiCaprio.png', 'Im_JustinTimberlake.png'],diff,1,0.4247871000006853,9,90.47619047619048,
AHLA1505,train,inv,0,pos0_id17_im8.bmp_pos0_id17_im14.bmp,['Im_PatrickDempsey.png', 'Im_GeorgeClooney.png', 'Im_BradPitt.png', 'Im_ElijahWood.png', 'Im_RyanGosling.png', 'Im_BenStiller.png', 'Im_KeanuReeves.png', 'Im_RobertPattinson.png', 'Im_LeonardoDiCaprio.png', 'Im_JustinTimberlake.png'],diff,0,0.40837979999923846,9,90.47619047619048,
AHLA1505,train,inv,150,pos150_id13_im15.bmp_pos150_id13_im29.bmp,['Im_PatrickDempsey.png', 'Im_GeorgeClooney.png', 'Im_BradPitt.png', 'Im_ElijahWood.png', 'Im_RyanGosling.png', 'Im_BenStiller.png', 'Im_KeanuReeves.png', 'Im_RobertPattinson.png', 'Im_LeonardoDiCaprio.png', 'Im_JustinTimberlake.png'],diff,0,0.8336450000024342,9,90.47619047619048,
AHLA1505,train,pos,90,pos90_id13_im10.bmp_pos90_id6_im19.bmp,['Im_PatrickDempsey.png', 'Im_GeorgeClooney.png', 'Im_BradPitt.png', 'Im_ElijahWood.png', 'Im_RyanGosling.png', 'Im_BenStiller.png', 'Im_KeanuReeves.png', 'Im_RobertPattinson.png', 'Im_LeonardoDiCaprio.png', 'Im_JustinTimberlake.png'],diff,1,0.7668755000013334,10,90.47619047619048,
AHLA1505,train,pos,60,pos60_id7_im14.bmp_pos60_id13_im29.bmp,['Im_PatrickDempsey.png', 'Im_GeorgeClooney.png', 'Im_BradPitt.png', 'Im_ElijahWood.png', 'Im_RyanGosling.png', 'Im_BenStiller.png', 'Im_KeanuReeves.png', 'Im_RobertPattinson.png', 'Im_LeonardoDiCaprio.png', 'Im_JustinTimberlake.png'],diff,1,0.4083242999986396,11,90.47619047619048,
AHLA1505,train,pos,30,pos30_id20_im3.bmp_pos30_id20_im30.bmp,['Im_PatrickDempsey.png', 'Im_GeorgeClooney.png', 'Im_BradPitt.png', 'Im_ElijahWood.png', 'Im_RyanGosling.png', 'Im_BenStiller.png', 'Im_KeanuReeves.png', 'Im_RobertPattinson.png', 'Im_LeonardoDiCaprio.png', 'Im_JustinTimberlake.png'],same,1,0.6244783999973151,12,90.47619047619048,
AHLA1505,train,pos,fs,posfs_id2_im16.bmp_posfs_id11_im2.bmp,['Im_PatrickDempsey.png', 'Im_GeorgeClooney.png', 'Im_BradPitt.png', 'Im_ElijahWood.png', 'Im_RyanGosling.png', 'Im_BenStiller.png', 'Im_KeanuReeves.png', 'Im_RobertPattinson.png', 'Im_LeonardoDiCaprio.png', 'Im_JustinTimberlake.png'],diff,1,0.4250780999973358,13,90.47619047619048,
AHLA1505,train,pos,0,pos0_id13_im10.bmp_pos0_id13_im29.bmp,['Im_PatrickDempsey.png', 'Im_GeorgeClooney.png', 'Im_BradPitt.png', 'Im_ElijahWood.png', 'Im_RyanGosling.png', 'Im_BenStiller.png', 'Im_KeanuReeves.png', 'Im_RobertPattinson.png', 'Im_LeonardoDiCaprio.png', 'Im_JustinTimberlake.png'],same,1,0.5669330000018817,14,90.47619047619048,
AHLA1505,train,pos,120,pos120_id7_im15.bmp_pos120_id19_im4.bmp,['Im_PatrickDempsey.png', 'Im_GeorgeClooney.png', 'Im_BradPitt.png', 'Im_ElijahWood.png', 'Im_RyanGosling.png', 'Im_BenStiller.png', 'Im_KeanuReeves.png', 'Im_RobertPattinson.png', 'Im_LeonardoDiCaprio.png', 'Im_JustinTimberlake.png'],diff,1,0.42502390000299783,15,90.47619047619048,
AHLA1505,train,pos,150,pos150_id17_im14.bmp_pos150_id17_im8.bmp,['Im_PatrickDempsey.png', 'Im_GeorgeClooney.png', 'Im_BradPitt.png', 'Im_ElijahWood.png', 'Im_RyanGosling.png', 'Im_BenStiller.png', 'Im_KeanuReeves.png', 'Im_RobertPattinson.png', 'Im_LeonardoDiCaprio.png', 'Im_JustinTimberlake.png'],same,1,0.42503040000156034,16,90.47619047619048,
AHLA1505,train,pos,30,pos30_id13_im15.bmp_pos30_id11_im1.bmp,['Im_PatrickDempsey.png', 'Im_GeorgeClooney.png', 'Im_BradPitt.png', 'Im_ElijahWood.png', 'Im_RyanGosling.png', 'Im_BenStiller.png', 'Im_KeanuReeves.png', 'Im_RobertPattinson.png', 'Im_LeonardoDiCaprio.png', 'Im_JustinTimberlake.png'],diff,1,0.4083801000015228,17,90.47619047619048,
AHLA1505,train,pos,0,pos0_id19_im4.bmp_pos0_id7_im26.bmp,['Im_PatrickDempsey.png', 'Im_GeorgeClooney.png', 'Im_BradPitt.png', 'Im_ElijahWood.png', 'Im_RyanGosling.png', 'Im_BenStiller.png', 'Im_KeanuReeves.png', 'Im_RobertPattinson.png', 'Im_LeonardoDiCaprio.png', 'Im_JustinTimberlake.png'],diff,1,0.40836940000008326,18,90.47619047619048,
AHLA1505,train,pos,60,pos60_id11_im10.bmp_pos60_id19_im27.bmp,['Im_PatrickDempsey.png', 'Im_GeorgeClooney.png', 'Im_BradPitt.png', 'Im_ElijahWood.png', 'Im_RyanGosling.png', 'Im_BenStiller.png', 'Im_KeanuReeves.png', 'Im_RobertPattinson.png', 'Im_LeonardoDiCaprio.png', 'Im_JustinTimberlake.png'],diff,1,0.4333879000005254,19,90.47619047619048,
AHLA1505,train,pos,90,pos90_id3_im8.bmp_pos90_id17_im8.bmp,['Im_PatrickDempsey.png', 'Im_GeorgeClooney.png', 'Im_BradPitt.png', 'Im_ElijahWood.png', 'Im_RyanGosling.png', 'Im_BenStiller.png', 'Im_KeanuReeves.png', 'Im_RobertPattinson.png', 'Im_LeonardoDiCaprio.png', 'Im_JustinTimberlake.png'],diff,1,0.4918098000016471,20,90.47619047619048,
AHLA1505,train,pos,150,pos150_id11_im10.bmp_pos150_id19_im27.bmp,['Im_PatrickDempsey.png', 'Im_GeorgeClooney.png', 'Im_BradPitt.png', 'Im_ElijahWood.png', 'Im_RyanGosling.png', 'Im_BenStiller.png', 'Im_KeanuReeves.png', 'Im_RobertPattinson.png', 'Im_LeonardoDiCaprio.png', 'Im_JustinTimberlake.png'],diff,1,0.4083563999993203,21,90.47619047619048,
AHLA1505,train,pos,fs,posfs_id20_im30.bmp_posfs_id3_im6.bmp,['Im_PatrickDempsey.png', 'Im_GeorgeClooney.png', 'Im_BradPitt.png', 'Im_ElijahWood.png', 'Im_RyanGosling.png', 'Im_BenStiller.png', 'Im_KeanuReeves.png', 'Im_RobertPattinson.png', 'Im_LeonardoDiCaprio.png', 'Im_JustinTimberlake.png'],diff,1,0.8167871000005107,22,90.47619047619048,
AHLA1505,train,pos,120,pos120_id19_im27.bmp_pos120_id11_im10.bmp,['Im_PatrickDempsey.png', 'Im_GeorgeClooney.png', 'Im_BradPitt.png', 'Im_ElijahWood.png', 'Im_RyanGosling.png', 'Im_BenStiller.png', 'Im_KeanuReeves.png', 'Im_RobertPattinson.png', 'Im_LeonardoDiCaprio.png', 'Im_JustinTimberlake.png'],diff,1,0.4083982999982254,23,90.47619047619048,
AHLA1505,train,inv,120,pos120_id10_im17.bmp_pos120_id10_im18.bmp,['Im_PatrickDempsey.png', 'Im_GeorgeClooney.png', 'Im_BradPitt.png', 'Im_ElijahWood.png', 'Im_RyanGosling.png', 'Im_BenStiller.png', 'Im_KeanuReeves.png', 'Im_RobertPattinson.png', 'Im_LeonardoDiCaprio.png', 'Im_JustinTimberlake.png'],same,1,0.4166668999969261,24,90.47619047619048,
AHLA1505,train,inv,0,pos0_id19_im27.bmp_pos0_id19_im4.bmp,['Im_PatrickDempsey.png', 'Im_GeorgeClooney.png', 'Im_BradPitt.png', 'Im_ElijahWood.png', 'Im_RyanGosling.png', 'Im_BenStiller.png', 'Im_KeanuReeves.png', 'Im_RobertPattinson.png', 'Im_LeonardoDiCaprio.png', 'Im_JustinTimberlake.png'],same,1,0.425183699997433,25,90.47619047619048,
AHLA1505,train,inv,150,pos150_id6_im19.bmp_pos150_id6_im12.bmp,['Im_PatrickDempsey.png', 'Im_GeorgeClooney.png', 'Im_BradPitt.png', 'Im_ElijahWood.png', 'Im_RyanGosling.png', 'Im_BenStiller.png', 'Im_KeanuReeves.png', 'Im_RobertPattinson.png', 'Im_LeonardoDiCaprio.png', 'Im_JustinTimberlake.png'],same,1,0.6083755000036035,26,90.47619047619048,
AHLA1505,train,inv,120,pos120_id19_im4.bmp_pos120_id19_im27.bmp,['Im_PatrickDempsey.png', 'Im_GeorgeClooney.png', 'Im_BradPitt.png', 'Im_ElijahWood.png', 'Im_RyanGosling.png', 'Im_BenStiller.png', 'Im_KeanuReeves.png', 'Im_RobertPattinson.png', 'Im_LeonardoDiCaprio.png', 'Im_JustinTimberlake.png'],same,1,0.40849209999942104,27,90.47619047619048,
AHLA1505,train,inv,90,pos90_id6_im19.bmp_pos90_id6_im12.bmp,['Im_PatrickDempsey.png', 'Im_GeorgeClooney.png', 'Im_BradPitt.png', 'Im_ElijahWood.png', 'Im_RyanGosling.png', 'Im_BenStiller.png', 'Im_KeanuReeves.png', 'Im_RobertPattinson.png', 'Im_LeonardoDiCaprio.png', 'Im_JustinTimberlake.png'],same,1,0.8248579999999492,28,90.47619047619048,
AHLA1505,train,inv,60,pos60_id6_im12.bmp_pos60_id3_im17.bmp,['Im_PatrickDempsey.png', 'Im_GeorgeClooney.png', 'Im_BradPitt.png', 'Im_ElijahWood.png', 'Im_RyanGosling.png', 'Im_BenStiller.png', 'Im_KeanuReeves.png', 'Im_RobertPattinson.png', 'Im_LeonardoDiCaprio.png', 'Im_JustinTimberlake.png'],diff,1,0.4250184000011359,29,90.47619047619048,
AHLA1505,train,inv,60,pos60_id11_im2.bmp_pos60_id11_im1.bmp,['Im_PatrickDempsey.png', 'Im_GeorgeClooney.png', 'Im_BradPitt.png', 'Im_ElijahWood.png', 'Im_RyanGosling.png', 'Im_BenStiller.png', 'Im_KeanuReeves.png', 'Im_RobertPattinson.png', 'Im_LeonardoDiCaprio.png', 'Im_JustinTimberlake.png'],diff,0,0.44992629999978817,29,90.47619047619048,
AHLA1505,train,inv,90,pos90_id13_im29.bmp_pos90_id13_im10.bmp,['Im_PatrickDempsey.png', 'Im_GeorgeClooney.png', 'Im_BradPitt.png', 'Im_ElijahWood.png', 'Im_RyanGosling.png', 'Im_BenStiller.png', 'Im_KeanuReeves.png', 'Im_RobertPattinson.png', 'Im_LeonardoDiCaprio.png', 'Im_JustinTimberlake.png'],same,1,0.9666185999994923,30,90.47619047619048,
AHLA1505,train,inv,30,pos30_id10_im17.bmp_pos30_id17_im8.bmp,['Im_PatrickDempsey.png', 'Im_GeorgeClooney.png', 'Im_BradPitt.png', 'Im_ElijahWood.png', 'Im_RyanGosling.png', 'Im_BenStiller.png', 'Im_KeanuReeves.png', 'Im_RobertPattinson.png', 'Im_LeonardoDiCaprio.png', 'Im_JustinTimberlake.png'],diff,1,1.4576644000007946,31,90.47619047619048,
AHLA1505,train,inv,0,pos0_id10_im18.bmp_pos0_id11_im2.bmp,['Im_PatrickDempsey.png', 'Im_GeorgeClooney.png', 'Im_BradPitt.png', 'Im_ElijahWood.png', 'Im_RyanGosling.png', 'Im_BenStiller.png', 'Im_KeanuReeves.png', 'Im_RobertPattinson.png', 'Im_LeonardoDiCaprio.png', 'Im_JustinTimberlake.png'],diff,1,0.8750662999991619,32,90.47619047619048,
AHLA1505,train,inv,150,pos150_id3_im8.bmp_pos150_id17_im8.bmp,['Im_PatrickDempsey.png', 'Im_GeorgeClooney.png', 'Im_BradPitt.png', 'Im_ElijahWood.png', 'Im_RyanGosling.png', 'Im_BenStiller.png', 'Im_KeanuReeves.png', 'Im_RobertPattinson.png', 'Im_LeonardoDiCaprio.png', 'Im_JustinTimberlake.png'],same,0,0.42530210000040825,32,90.47619047619048,
AHLA1505,train,inv,fs,posfs_id6_im18.bmp_posfs_id13_im15.bmp,['Im_PatrickDempsey.png', 'Im_GeorgeClooney.png', 'Im_BradPitt.png', 'Im_ElijahWood.png', 'Im_RyanGosling.png', 'Im_BenStiller.png', 'Im_KeanuReeves.png', 'Im_RobertPattinson.png', 'Im_LeonardoDiCaprio.png', 'Im_JustinTimberlake.png'],diff,1,0.8668451000012283,33,90.47619047619048,
AHLA1505,train,inv,fs,posfs_id13_im10.bmp_posfs_id6_im19.bmp,['Im_PatrickDempsey.png', 'Im_GeorgeClooney.png', 'Im_BradPitt.png', 'Im_ElijahWood.png', 'Im_RyanGosling.png', 'Im_BenStiller.png', 'Im_KeanuReeves.png', 'Im_RobertPattinson.png', 'Im_LeonardoDiCaprio.png', 'Im_JustinTimberlake.png'],diff,1,0.5750631000009889,34,90.47619047619048,
AHLA1505,train,inv,30,pos30_id7_im26.bmp_pos30_id7_im15.bmp,['Im_PatrickDempsey.png', 'Im_GeorgeClooney.png', 'Im_BradPitt.png', 'Im_ElijahWood.png', 'Im_RyanGosling.png', 'Im_BenStiller.png', 'Im_KeanuReeves.png', 'Im_RobertPattinson.png', 'Im_LeonardoDiCaprio.png', 'Im_JustinTimberlake.png'],same,1,0.9169361999993271,35,90.47619047619048,
AHLA1505,0,neg,90,neg90_id10_im17.bmp_neg90_id2_im2.bmp,['Im_PatrickDempsey.png', 'Im_GeorgeClooney.png', 'Im_BradPitt.png', 'Im_ElijahWood.png', 'Im_RyanGosling.png', 'Im_BenStiller.png', 'Im_KeanuReeves.png', 'Im_RobertPattinson.png', 'Im_LeonardoDiCaprio.png', 'Im_JustinTimberlake.png'],diff,1,0.8589458999995259,1,0,
AHLA1505,0,neg,120,neg120_id10_im17.bmp_neg120_id2_im2.bmp,['Im_PatrickDempsey.png', 'Im_GeorgeClooney.png', 'Im_BradPitt.png', 'Im_ElijahWood.png', 'Im_RyanGosling.png', 'Im_BenStiller.png', 'Im_KeanuReeves.png', 'Im_RobertPattinson.png', 'Im_LeonardoDiCaprio.png', 'Im_JustinTimberlake.png'],diff,1,0.4251787000030163,2,0,
AHLA1505,0,neg,150,neg150_id10_im1.bmp_neg150_id10_im17.bmp,['Im_PatrickDempsey.png', 'Im_GeorgeClooney.png', 'Im_BradPitt.png', 'Im_ElijahWood.png', 'Im_RyanGosling.png', 'Im_BenStiller.png', 'Im_KeanuReeves.png', 'Im_RobertPattinson.png', 'Im_LeonardoDiCaprio.png', 'Im_JustinTimberlake.png'],same,1,0.4166619999996328,3,0,
AHLA1505,0,neg,60,neg60_id2_im2.bmp_neg60_id17_im9.bmp,['Im_PatrickDempsey.png', 'Im_GeorgeClooney.png', 'Im_BradPitt.png', 'Im_ElijahWood.png', 'Im_RyanGosling.png', 'Im_BenStiller.png', 'Im_KeanuReeves.png', 'Im_RobertPattinson.png', 'Im_LeonardoDiCaprio.png', 'Im_JustinTimberlake.png'],diff,1,0.6919893999984197,4,0,
AHLA1505,0,neg,0,neg0_id13_im15.bmp_neg0_id13_im29.bmp,['Im_PatrickDempsey.png', 'Im_GeorgeClooney.png', 'Im_BradPitt.png', 'Im_ElijahWood.png', 'Im_RyanGosling.png', 'Im_BenStiller.png', 'Im_KeanuReeves.png', 'Im_RobertPattinson.png', 'Im_LeonardoDiCaprio.png', 'Im_JustinTimberlake.png'],diff,0,0.5581416999993962,4,0,
AHLA1505,0,neg,30,neg30_id20_im30.bmp_neg30_id20_im12.bmp,['Im_PatrickDempsey.png', 'Im_GeorgeClooney.png', 'Im_BradPitt.png', 'Im_ElijahWood.png', 'Im_RyanGosling.png', 'Im_BenStiller.png', 'Im_KeanuReeves.png', 'Im_RobertPattinson.png', 'Im_LeonardoDiCaprio.png', 'Im_JustinTimberlake.png'],same,1,0.4250584000001254,5,0,
AHLA1505,0,neg,30,neg30_id10_im17.bmp_neg30_id2_im2.bmp,['Im_PatrickDempsey.png', 'Im_GeorgeClooney.png', 'Im_BradPitt.png', 'Im_ElijahWood.png', 'Im_RyanGosling.png', 'Im_BenStiller.png', 'Im_KeanuReeves.png', 'Im_RobertPattinson.png', 'Im_LeonardoDiCaprio.png', 'Im_JustinTimberlake.png'],diff,1,0.416625900001236,6,0,
AHLA1505,0,neg,fs,negfs_id2_im3.bmp_negfs_id2_im2.bmp,['Im_PatrickDempsey.png', 'Im_GeorgeClooney.png', 'Im_BradPitt.png', 'Im_ElijahWood.png', 'Im_RyanGosling.png', 'Im_BenStiller.png', 'Im_KeanuReeves.png', 'Im_RobertPattinson.png', 'Im_LeonardoDiCaprio.png', 'Im_JustinTimberlake.png'],same,1,0.4249810000001162,7,0,
AHLA1505,0,neg,90,neg90_id20_im12.bmp_neg90_id7_im15.bmp,['Im_PatrickDempsey.png', 'Im_GeorgeClooney.png', 'Im_BradPitt.png', 'Im_ElijahWood.png', 'Im_RyanGosling.png', 'Im_BenStiller.png', 'Im_KeanuReeves.png', 'Im_RobertPattinson.png', 'Im_LeonardoDiCaprio.png', 'Im_JustinTimberlake.png'],diff,1,0.43343689999892376,8,0,
AHLA1505,0,neg,150,neg150_id11_im1.bmp_neg150_id11_im10.bmp,['Im_PatrickDempsey.png', 'Im_GeorgeClooney.png', 'Im_BradPitt.png', 'Im_ElijahWood.png', 'Im_RyanGosling.png', 'Im_BenStiller.png', 'Im_KeanuReeves.png', 'Im_RobertPattinson.png', 'Im_LeonardoDiCaprio.png', 'Im_JustinTimberlake.png'],same,1,1.2166619000017818,9,0,
AHLA1505,0,neg,0,neg0_id3_im8.bmp_neg0_id3_im17.bmp,['Im_PatrickDempsey.png', 'Im_GeorgeClooney.png', 'Im_BradPitt.png', 'Im_ElijahWood.png', 'Im_RyanGosling.png', 'Im_BenStiller.png', 'Im_KeanuReeves.png', 'Im_RobertPattinson.png', 'Im_LeonardoDiCaprio.png', 'Im_JustinTimberlake.png'],same,1,0.941931299999851,10,0,
AHLA1505,0,neg,fs,negfs_id11_im10.bmp_negfs_id17_im14.bmp,['Im_PatrickDempsey.png', 'Im_GeorgeClooney.png', 'Im_BradPitt.png', 'Im_ElijahWood.png', 'Im_RyanGosling.png', 'Im_BenStiller.png', 'Im_KeanuReeves.png', 'Im_RobertPattinson.png', 'Im_LeonardoDiCaprio.png', 'Im_JustinTimberlake.png'],diff,1,1.3833200999979454,11,0,
AHLA1505,0,neg,120,neg120_id11_im1.bmp_neg120_id13_im15.bmp,['Im_PatrickDempsey.png', 'Im_GeorgeClooney.png', 'Im_BradPitt.png', 'Im_ElijahWood.png', 'Im_RyanGosling.png', 'Im_BenStiller.png', 'Im_KeanuReeves.png', 'Im_RobertPattinson.png', 'Im_LeonardoDiCaprio.png', 'Im_JustinTimberlake.png'],diff,1,0.8917622000008123,12,0,
AHLA1505,0,neg,60,neg60_id3_im6.bmp_neg60_id7_im14.bmp,['Im_PatrickDempsey.png', 'Im_GeorgeClooney.png', 'Im_BradPitt.png', 'Im_ElijahWood.png', 'Im_RyanGosling.png', 'Im_BenStiller.png', 'Im_KeanuReeves.png', 'Im_RobertPattinson.png', 'Im_LeonardoDiCaprio.png', 'Im_JustinTimberlake.png'],diff,1,0.4167489999999816,13,0,
AHLA1505,1,pos,150,pos150_id20_im30.bmp_pos150_id10_im18.bmp,['Im_PatrickDempsey.png', 'Im_GeorgeClooney.png', 'Im_BradPitt.png', 'Im_ElijahWood.png', 'Im_RyanGosling.png', 'Im_BenStiller.png', 'Im_KeanuReeves.png', 'Im_RobertPattinson.png', 'Im_LeonardoDiCaprio.png', 'Im_JustinTimberlake.png'],diff,1,0.42510829999810085,14,0,
AHLA1505,1,pos,120,pos120_id3_im17.bmp_pos120_id6_im12.bmp,['Im_PatrickDempsey.png', 'Im_GeorgeClooney.png', 'Im_BradPitt.png', 'Im_ElijahWood.png', 'Im_RyanGosling.png', 'Im_BenStiller.png', 'Im_KeanuReeves.png', 'Im_RobertPattinson.png', 'Im_LeonardoDiCaprio.png', 'Im_JustinTimberlake.png'],diff,1,0.4166646999983641,15,0,
AHLA1505,1,pos,90,pos90_id11_im1.bmp_pos90_id11_im10.bmp,['Im_PatrickDempsey.png', 'Im_GeorgeClooney.png', 'Im_BradPitt.png', 'Im_ElijahWood.png', 'Im_RyanGosling.png', 'Im_BenStiller.png', 'Im_KeanuReeves.png', 'Im_RobertPattinson.png', 'Im_LeonardoDiCaprio.png', 'Im_JustinTimberlake.png'],same,1,0.4251283000012336,16,0,
AHLA1505,1,pos,150,pos150_id7_im26.bmp_pos150_id7_im14.bmp,['Im_PatrickDempsey.png', 'Im_GeorgeClooney.png', 'Im_BradPitt.png', 'Im_ElijahWood.png', 'Im_RyanGosling.png', 'Im_BenStiller.png', 'Im_KeanuReeves.png', 'Im_RobertPattinson.png', 'Im_LeonardoDiCaprio.png', 'Im_JustinTimberlake.png'],diff,0,0.8586075999992318,16,0,
AHLA1505,1,pos,fs,posfs_id13_im29.bmp_posfs_id19_im8.bmp,['Im_PatrickDempsey.png', 'Im_GeorgeClooney.png', 'Im_BradPitt.png', 'Im_ElijahWood.png', 'Im_RyanGosling.png', 'Im_BenStiller.png', 'Im_KeanuReeves.png', 'Im_RobertPattinson.png', 'Im_LeonardoDiCaprio.png', 'Im_JustinTimberlake.png'],diff,1,0.416735200000403,17,0,
AHLA1505,1,pos,0,pos0_id11_im10.bmp_pos0_id17_im14.bmp,['Im_PatrickDempsey.png', 'Im_GeorgeClooney.png', 'Im_BradPitt.png', 'Im_ElijahWood.png', 'Im_RyanGosling.png', 'Im_BenStiller.png', 'Im_KeanuReeves.png', 'Im_RobertPattinson.png', 'Im_LeonardoDiCaprio.png', 'Im_JustinTimberlake.png'],diff,1,0.8835741000002599,18,0,
AHLA1505,1,pos,120,pos120_id2_im16.bmp_pos120_id11_im2.bmp,['Im_PatrickDempsey.png', 'Im_GeorgeClooney.png', 'Im_BradPitt.png', 'Im_ElijahWood.png', 'Im_RyanGosling.png', 'Im_BenStiller.png', 'Im_KeanuReeves.png', 'Im_RobertPattinson.png', 'Im_LeonardoDiCaprio.png', 'Im_JustinTimberlake.png'],diff,1,0.42500569999901927,19,0,
AHLA1505,1,pos,0,pos0_id19_im8.bmp_pos0_id11_im1.bmp,['Im_PatrickDempsey.png', 'Im_GeorgeClooney.png', 'Im_BradPitt.png', 'Im_ElijahWood.png', 'Im_RyanGosling.png', 'Im_BenStiller.png', 'Im_KeanuReeves.png', 'Im_RobertPattinson.png', 'Im_LeonardoDiCaprio.png', 'Im_JustinTimberlake.png'],diff,1,0.41656460000012885,20,0,
AHLA1505,1,pos,30,pos30_id20_im12.bmp_pos30_id7_im15.bmp,['Im_PatrickDempsey.png', 'Im_GeorgeClooney.png', 'Im_BradPitt.png', 'Im_ElijahWood.png', 'Im_RyanGosling.png', 'Im_BenStiller.png', 'Im_KeanuReeves.png', 'Im_RobertPattinson.png', 'Im_LeonardoDiCaprio.png', 'Im_JustinTimberlake.png'],diff,1,0.4250780999973358,21,0,
AHLA1505,1,pos,fs,posfs_id2_im3.bmp_posfs_id17_im14.bmp,['Im_PatrickDempsey.png', 'Im_GeorgeClooney.png', 'Im_BradPitt.png', 'Im_ElijahWood.png', 'Im_RyanGosling.png', 'Im_BenStiller.png', 'Im_KeanuReeves.png', 'Im_RobertPattinson.png', 'Im_LeonardoDiCaprio.png', 'Im_JustinTimberlake.png'],diff,1,0.4167106999993848,22,0,
AHLA1505,1,pos,90,pos90_id13_im15.bmp_pos90_id6_im18.bmp,['Im_PatrickDempsey.png', 'Im_GeorgeClooney.png', 'Im_BradPitt.png', 'Im_ElijahWood.png', 'Im_RyanGosling.png', 'Im_BenStiller.png', 'Im_KeanuReeves.png', 'Im_RobertPattinson.png', 'Im_LeonardoDiCaprio.png', 'Im_JustinTimberlake.png'],diff,1,0.7749339000001783,23,0,
AHLA1505,1,pos,60,pos60_id10_im17.bmp_pos60_id17_im8.bmp,['Im_PatrickDempsey.png', 'Im_GeorgeClooney.png', 'Im_BradPitt.png', 'Im_ElijahWood.png', 'Im_RyanGosling.png', 'Im_BenStiller.png', 'Im_KeanuReeves.png', 'Im_RobertPattinson.png', 'Im_LeonardoDiCaprio.png', 'Im_JustinTimberlake.png'],diff,1,0.43339019999984885,24,0,
AHLA1505,1,pos,30,pos30_id6_im19.bmp_pos30_id20_im3.bmp,['Im_PatrickDempsey.png', 'Im_GeorgeClooney.png', 'Im_BradPitt.png', 'Im_ElijahWood.png', 'Im_RyanGosling.png', 'Im_BenStiller.png', 'Im_KeanuReeves.png', 'Im_RobertPattinson.png', 'Im_LeonardoDiCaprio.png', 'Im_JustinTimberlake.png'],diff,1,0.42515370000182884,25,0,
AHLA1505,1,pos,60,pos60_id6_im18.bmp_pos60_id6_im12.bmp,['Im_PatrickDempsey.png', 'Im_GeorgeClooney.png', 'Im_BradPitt.png', 'Im_ElijahWood.png', 'Im_RyanGosling.png', 'Im_BenStiller.png', 'Im_KeanuReeves.png', 'Im_RobertPattinson.png', 'Im_LeonardoDiCaprio.png', 'Im_JustinTimberlake.png'],same,1,0.42510419999962323,26,0,
AHLA1505,2,inv,30,pos30_id19_im4.bmp_pos30_id19_im27.bmp,['Im_PatrickDempsey.png', 'Im_GeorgeClooney.png', 'Im_BradPitt.png', 'Im_ElijahWood.png', 'Im_RyanGosling.png', 'Im_BenStiller.png', 'Im_KeanuReeves.png', 'Im_RobertPattinson.png', 'Im_LeonardoDiCaprio.png', 'Im_JustinTimberlake.png'],same,1,0.4167708000022685,27,0,
AHLA1505,2,inv,120,pos120_id7_im15.bmp_pos120_id19_im4.bmp,['Im_PatrickDempsey.png', 'Im_GeorgeClooney.png', 'Im_BradPitt.png', 'Im_ElijahWood.png', 'Im_RyanGosling.png', 'Im_BenStiller.png', 'Im_KeanuReeves.png', 'Im_RobertPattinson.png', 'Im_LeonardoDiCaprio.png', 'Im_JustinTimberlake.png'],same,0,0.7332143999992695,27,0,
AHLA1505,2,inv,30,pos30_id13_im10.bmp_pos30_id6_im19.bmp,['Im_PatrickDempsey.png', 'Im_GeorgeClooney.png', 'Im_BradPitt.png', 'Im_ElijahWood.png', 'Im_RyanGosling.png', 'Im_BenStiller.png', 'Im_KeanuReeves.png', 'Im_RobertPattinson.png', 'Im_LeonardoDiCaprio.png', 'Im_JustinTimberlake.png'],diff,1,0.47490319999997155,28,0,
AHLA1505,2,inv,150,pos150_id11_im2.bmp_pos150_id10_im18.bmp,['Im_PatrickDempsey.png', 'Im_GeorgeClooney.png', 'Im_BradPitt.png', 'Im_ElijahWood.png', 'Im_RyanGosling.png', 'Im_BenStiller.png', 'Im_KeanuReeves.png', 'Im_RobertPattinson.png', 'Im_LeonardoDiCaprio.png', 'Im_JustinTimberlake.png'],diff,1,0.4334930000004533,29,0,
AHLA1505,2,inv,60,pos60_id13_im29.bmp_pos60_id7_im14.bmp,['Im_PatrickDempsey.png', 'Im_GeorgeClooney.png', 'Im_BradPitt.png', 'Im_ElijahWood.png', 'Im_RyanGosling.png', 'Im_BenStiller.png', 'Im_KeanuReeves.png', 'Im_RobertPattinson.png', 'Im_LeonardoDiCaprio.png', 'Im_JustinTimberlake.png'],diff,1,0.4333232999997563,30,0,
AHLA1505,2,inv,0,pos0_id3_im6.bmp_pos0_id3_im8.bmp,['Im_PatrickDempsey.png', 'Im_GeorgeClooney.png', 'Im_BradPitt.png', 'Im_ElijahWood.png', 'Im_RyanGosling.png', 'Im_BenStiller.png', 'Im_KeanuReeves.png', 'Im_RobertPattinson.png', 'Im_LeonardoDiCaprio.png', 'Im_JustinTimberlake.png'],same,1,1.050022399998852,31,0,
AHLA1505,2,inv,90,pos90_id11_im10.bmp_pos90_id11_im1.bmp,['Im_PatrickDempsey.png', 'Im_GeorgeClooney.png', 'Im_BradPitt.png', 'Im_ElijahWood.png', 'Im_RyanGosling.png', 'Im_BenStiller.png', 'Im_KeanuReeves.png', 'Im_RobertPattinson.png', 'Im_LeonardoDiCaprio.png', 'Im_JustinTimberlake.png'],same,1,0.8835693999972136,32,0,
AHLA1505,2,inv,60,pos60_id13_im15.bmp_pos60_id11_im1.bmp,['Im_PatrickDempsey.png', 'Im_GeorgeClooney.png', 'Im_BradPitt.png', 'Im_ElijahWood.png', 'Im_RyanGosling.png', 'Im_BenStiller.png', 'Im_KeanuReeves.png', 'Im_RobertPattinson.png', 'Im_LeonardoDiCaprio.png', 'Im_JustinTimberlake.png'],same,0,0.44155790000149864,32,0,
AHLA1505,2,inv,fs,posfs_id17_im14.bmp_posfs_id11_im10.bmp,['Im_PatrickDempsey.png', 'Im_GeorgeClooney.png', 'Im_BradPitt.png', 'Im_ElijahWood.png', 'Im_RyanGosling.png', 'Im_BenStiller.png', 'Im_KeanuReeves.png', 'Im_RobertPattinson.png', 'Im_LeonardoDiCaprio.png', 'Im_JustinTimberlake.png'],same,0,0.75047160000031,32,0,
AHLA1505,2,inv,90,pos90_id2_im16.bmp_pos90_id2_im3.bmp,['Im_PatrickDempsey.png', 'Im_GeorgeClooney.png', 'Im_BradPitt.png', 'Im_ElijahWood.png', 'Im_RyanGosling.png', 'Im_BenStiller.png', 'Im_KeanuReeves.png', 'Im_RobertPattinson.png', 'Im_LeonardoDiCaprio.png', 'Im_JustinTimberlake.png'],same,1,0.6167237999979989,33,0,
AHLA1505,2,inv,150,pos150_id11_im1.bmp_pos150_id11_im10.bmp,['Im_PatrickDempsey.png', 'Im_GeorgeClooney.png', 'Im_BradPitt.png', 'Im_ElijahWood.png', 'Im_RyanGosling.png', 'Im_BenStiller.png', 'Im_KeanuReeves.png', 'Im_RobertPattinson.png', 'Im_LeonardoDiCaprio.png', 'Im_JustinTimberlake.png'],same,1,0.6501597000024049,34,0,
AHLA1505,2,inv,fs,posfs_id19_im4.bmp_posfs_id19_im27.bmp,['Im_PatrickDempsey.png', 'Im_GeorgeClooney.png', 'Im_BradPitt.png', 'Im_ElijahWood.png', 'Im_RyanGosling.png', 'Im_BenStiller.png', 'Im_KeanuReeves.png', 'Im_RobertPattinson.png', 'Im_LeonardoDiCaprio.png', 'Im_JustinTimberlake.png'],same,1,0.41669520000141347,35,0,
AHLA1505,2,inv,0,pos0_id19_im8.bmp_pos0_id13_im29.bmp,['Im_PatrickDempsey.png', 'Im_GeorgeClooney.png', 'Im_BradPitt.png', 'Im_ElijahWood.png', 'Im_RyanGosling.png', 'Im_BenStiller.png', 'Im_KeanuReeves.png', 'Im_RobertPattinson.png', 'Im_LeonardoDiCaprio.png', 'Im_JustinTimberlake.png'],diff,1,0.5503693999999086,36,0,
AHLA1505,2,inv,120,pos120_id7_im26.bmp_pos120_id7_im15.bmp,['Im_PatrickDempsey.png', 'Im_GeorgeClooney.png', 'Im_BradPitt.png', 'Im_ElijahWood.png', 'Im_RyanGosling.png', 'Im_BenStiller.png', 'Im_KeanuReeves.png', 'Im_RobertPattinson.png', 'Im_LeonardoDiCaprio.png', 'Im_JustinTimberlake.png'],same,1,0.7419389000024239,37,0,
AHLA1505,3,neg,30,neg30_id10_im1.bmp_neg30_id6_im12.bmp,['Im_PatrickDempsey.png', 'Im_GeorgeClooney.png', 'Im_BradPitt.png', 'Im_ElijahWood.png', 'Im_RyanGosling.png', 'Im_BenStiller.png', 'Im_KeanuReeves.png', 'Im_RobertPattinson.png', 'Im_LeonardoDiCaprio.png', 'Im_JustinTimberlake.png'],diff,1,0.41668489999938174,1,88.0952380952381,
AHLA1505,3,neg,0,neg0_id19_im4.bmp_neg0_id19_im27.bmp,['Im_PatrickDempsey.png', 'Im_GeorgeClooney.png', 'Im_BradPitt.png', 'Im_ElijahWood.png', 'Im_RyanGosling.png', 'Im_BenStiller.png', 'Im_KeanuReeves.png', 'Im_RobertPattinson.png', 'Im_LeonardoDiCaprio.png', 'Im_JustinTimberlake.png'],same,1,0.42505419999724836,2,88.0952380952381,
AHLA1505,3,neg,fs,negfs_id20_im12.bmp_negfs_id7_im15.bmp,['Im_PatrickDempsey.png', 'Im_GeorgeClooney.png', 'Im_BradPitt.png', 'Im_ElijahWood.png', 'Im_RyanGosling.png', 'Im_BenStiller.png', 'Im_KeanuReeves.png', 'Im_RobertPattinson.png', 'Im_LeonardoDiCaprio.png', 'Im_JustinTimberlake.png'],diff,1,0.4168085000019346,3,88.0952380952381,
AHLA1505,3,neg,120,neg120_id7_im14.bmp_neg120_id7_im15.bmp,['Im_PatrickDempsey.png', 'Im_GeorgeClooney.png', 'Im_BradPitt.png', 'Im_ElijahWood.png', 'Im_RyanGosling.png', 'Im_BenStiller.png', 'Im_KeanuReeves.png', 'Im_RobertPattinson.png', 'Im_LeonardoDiCaprio.png', 'Im_JustinTimberlake.png'],same,1,0.41672990000006394,4,88.0952380952381,
AHLA1505,3,neg,fs,negfs_id20_im3.bmp_negfs_id6_im18.bmp,['Im_PatrickDempsey.png', 'Im_GeorgeClooney.png', 'Im_BradPitt.png', 'Im_ElijahWood.png', 'Im_RyanGosling.png', 'Im_BenStiller.png', 'Im_KeanuReeves.png', 'Im_RobertPattinson.png', 'Im_LeonardoDiCaprio.png', 'Im_JustinTimberlake.png'],diff,1,0.4168106999968586,5,88.0952380952381,
AHLA1505,3,neg,60,neg60_id13_im15.bmp_neg60_id13_im10.bmp,['Im_PatrickDempsey.png', 'Im_GeorgeClooney.png', 'Im_BradPitt.png', 'Im_ElijahWood.png', 'Im_RyanGosling.png', 'Im_BenStiller.png', 'Im_KeanuReeves.png', 'Im_RobertPattinson.png', 'Im_LeonardoDiCaprio.png', 'Im_JustinTimberlake.png'],same,1,0.4083881999977166,6,88.0952380952381,
AHLA1505,3,neg,90,neg90_id13_im10.bmp_neg90_id13_im15.bmp,['Im_PatrickDempsey.png', 'Im_GeorgeClooney.png', 'Im_BradPitt.png', 'Im_ElijahWood.png', 'Im_RyanGosling.png', 'Im_BenStiller.png', 'Im_KeanuReeves.png', 'Im_RobertPattinson.png', 'Im_LeonardoDiCaprio.png', 'Im_JustinTimberlake.png'],same,1,0.41675369999938994,7,88.0952380952381,
AHLA1505,3,neg,60,neg60_id10_im17.bmp_neg60_id10_im18.bmp,['Im_PatrickDempsey.png', 'Im_GeorgeClooney.png', 'Im_BradPitt.png', 'Im_ElijahWood.png', 'Im_RyanGosling.png', 'Im_BenStiller.png', 'Im_KeanuReeves.png', 'Im_RobertPattinson.png', 'Im_LeonardoDiCaprio.png', 'Im_JustinTimberlake.png'],same,1,0.41671990000031656,8,88.0952380952381,
AHLA1505,3,neg,30,neg30_id13_im29.bmp_neg30_id19_im8.bmp,['Im_PatrickDempsey.png', 'Im_GeorgeClooney.png', 'Im_BradPitt.png', 'Im_ElijahWood.png', 'Im_RyanGosling.png', 'Im_BenStiller.png', 'Im_KeanuReeves.png', 'Im_RobertPattinson.png', 'Im_LeonardoDiCaprio.png', 'Im_JustinTimberlake.png'],diff,1,0.41665260000081616,9,88.0952380952381,
AHLA1505,3,neg,150,neg150_id6_im12.bmp_neg150_id6_im19.bmp,['Im_PatrickDempsey.png', 'Im_GeorgeClooney.png', 'Im_BradPitt.png', 'Im_ElijahWood.png', 'Im_RyanGosling.png', 'Im_BenStiller.png', 'Im_KeanuReeves.png', 'Im_RobertPattinson.png', 'Im_LeonardoDiCaprio.png', 'Im_JustinTimberlake.png'],same,1,0.42515829999683774,10,88.0952380952381,
AHLA1505,3,neg,150,neg150_id19_im4.bmp_neg150_id7_im15.bmp,['Im_PatrickDempsey.png', 'Im_GeorgeClooney.png', 'Im_BradPitt.png', 'Im_ElijahWood.png', 'Im_RyanGosling.png', 'Im_BenStiller.png', 'Im_KeanuReeves.png', 'Im_RobertPattinson.png', 'Im_LeonardoDiCaprio.png', 'Im_JustinTimberlake.png'],diff,1,0.40840169999864884,11,88.0952380952381,
AHLA1505,3,neg,120,neg120_id2_im16.bmp_neg120_id10_im1.bmp,['Im_PatrickDempsey.png', 'Im_GeorgeClooney.png', 'Im_BradPitt.png', 'Im_ElijahWood.png', 'Im_RyanGosling.png', 'Im_BenStiller.png', 'Im_KeanuReeves.png', 'Im_RobertPattinson.png', 'Im_LeonardoDiCaprio.png', 'Im_JustinTimberlake.png'],diff,1,0.4252130999993824,12,88.0952380952381,
AHLA1505,3,neg,90,neg90_id7_im15.bmp_neg90_id7_im14.bmp,['Im_PatrickDempsey.png', 'Im_GeorgeClooney.png', 'Im_BradPitt.png', 'Im_ElijahWood.png', 'Im_RyanGosling.png', 'Im_BenStiller.png', 'Im_KeanuReeves.png', 'Im_RobertPattinson.png', 'Im_LeonardoDiCaprio.png', 'Im_JustinTimberlake.png'],same,1,0.416753500001505,13,88.0952380952381,
AHLA1505,3,neg,0,neg0_id6_im19.bmp_neg0_id20_im3.bmp,['Im_PatrickDempsey.png', 'Im_GeorgeClooney.png', 'Im_BradPitt.png', 'Im_ElijahWood.png', 'Im_RyanGosling.png', 'Im_BenStiller.png', 'Im_KeanuReeves.png', 'Im_RobertPattinson.png', 'Im_LeonardoDiCaprio.png', 'Im_JustinTimberlake.png'],diff,1,0.4333273000011104,14,88.0952380952381,
AHLA1505,4,neg,30,neg30_id17_im14.bmp_neg30_id17_im9.bmp,['Im_PatrickDempsey.png', 'Im_GeorgeClooney.png', 'Im_BradPitt.png', 'Im_ElijahWood.png', 'Im_RyanGosling.png', 'Im_BenStiller.png', 'Im_KeanuReeves.png', 'Im_RobertPattinson.png', 'Im_LeonardoDiCaprio.png', 'Im_JustinTimberlake.png'],same,1,0.4167035999998916,15,88.0952380952381,
AHLA1505,4,neg,150,neg150_id7_im26.bmp_neg150_id2_im3.bmp,['Im_PatrickDempsey.png', 'Im_GeorgeClooney.png', 'Im_BradPitt.png', 'Im_ElijahWood.png', 'Im_RyanGosling.png', 'Im_BenStiller.png', 'Im_KeanuReeves.png', 'Im_RobertPattinson.png', 'Im_LeonardoDiCaprio.png', 'Im_JustinTimberlake.png'],diff,1,0.5089272000004712,16,88.0952380952381,
AHLA1505,4,neg,120,neg120_id17_im14.bmp_neg120_id17_im9.bmp,['Im_PatrickDempsey.png', 'Im_GeorgeClooney.png', 'Im_BradPitt.png', 'Im_ElijahWood.png', 'Im_RyanGosling.png', 'Im_BenStiller.png', 'Im_KeanuReeves.png', 'Im_RobertPattinson.png', 'Im_LeonardoDiCaprio.png', 'Im_JustinTimberlake.png'],diff,0,0.42511390000072424,16,88.0952380952381,
AHLA1505,4,neg,fs,negfs_id11_im2.bmp_negfs_id2_im16.bmp,['Im_PatrickDempsey.png', 'Im_GeorgeClooney.png', 'Im_BradPitt.png', 'Im_ElijahWood.png', 'Im_RyanGosling.png', 'Im_BenStiller.png', 'Im_KeanuReeves.png', 'Im_RobertPattinson.png', 'Im_LeonardoDiCaprio.png', 'Im_JustinTimberlake.png'],diff,1,0.4250756999972509,17,88.0952380952381,
AHLA1505,4,neg,90,neg90_id20_im12.bmp_neg90_id13_im10.bmp,['Im_PatrickDempsey.png', 'Im_GeorgeClooney.png', 'Im_BradPitt.png', 'Im_ElijahWood.png', 'Im_RyanGosling.png', 'Im_BenStiller.png', 'Im_KeanuReeves.png', 'Im_RobertPattinson.png', 'Im_LeonardoDiCaprio.png', 'Im_JustinTimberlake.png'],diff,1,0.4250629999987723,18,88.0952380952381,
AHLA1505,4,neg,30,neg30_id10_im18.bmp_neg30_id20_im30.bmp,['Im_PatrickDempsey.png', 'Im_GeorgeClooney.png', 'Im_BradPitt.png', 'Im_ElijahWood.png', 'Im_RyanGosling.png', 'Im_BenStiller.png', 'Im_KeanuReeves.png', 'Im_RobertPattinson.png', 'Im_LeonardoDiCaprio.png', 'Im_JustinTimberlake.png'],diff,1,0.41658319999987725,19,88.0952380952381,
AHLA1505,4,neg,120,neg120_id13_im29.bmp_neg120_id19_im8.bmp,['Im_PatrickDempsey.png', 'Im_GeorgeClooney.png', 'Im_BradPitt.png', 'Im_ElijahWood.png', 'Im_RyanGosling.png', 'Im_BenStiller.png', 'Im_KeanuReeves.png', 'Im_RobertPattinson.png', 'Im_LeonardoDiCaprio.png', 'Im_JustinTimberlake.png'],diff,1,0.4166242000028433,20,88.0952380952381,
AHLA1505,4,neg,150,neg150_id2_im3.bmp_neg150_id2_im16.bmp,['Im_PatrickDempsey.png', 'Im_GeorgeClooney.png', 'Im_BradPitt.png', 'Im_ElijahWood.png', 'Im_RyanGosling.png', 'Im_BenStiller.png', 'Im_KeanuReeves.png', 'Im_RobertPattinson.png', 'Im_LeonardoDiCaprio.png', 'Im_JustinTimberlake.png'],same,1,0.4248269000017899,21,88.0952380952381,
AHLA1505,4,neg,60,neg60_id19_im4.bmp_neg60_id19_im27.bmp,['Im_PatrickDempsey.png', 'Im_GeorgeClooney.png', 'Im_BradPitt.png', 'Im_ElijahWood.png', 'Im_RyanGosling.png', 'Im_BenStiller.png', 'Im_KeanuReeves.png', 'Im_RobertPattinson.png', 'Im_LeonardoDiCaprio.png', 'Im_JustinTimberlake.png'],diff,0,0.4167660999992222,21,88.0952380952381,
AHLA1505,4,neg,fs,negfs_id20_im3.bmp_negfs_id6_im19.bmp,['Im_PatrickDempsey.png', 'Im_GeorgeClooney.png', 'Im_BradPitt.png', 'Im_ElijahWood.png', 'Im_RyanGosling.png', 'Im_BenStiller.png', 'Im_KeanuReeves.png', 'Im_RobertPattinson.png', 'Im_LeonardoDiCaprio.png', 'Im_JustinTimberlake.png'],diff,1,0.4250847999974212,22,88.0952380952381,
AHLA1505,4,neg,0,neg0_id19_im4.bmp_neg0_id7_im26.bmp,['Im_PatrickDempsey.png', 'Im_GeorgeClooney.png', 'Im_BradPitt.png', 'Im_ElijahWood.png', 'Im_RyanGosling.png', 'Im_BenStiller.png', 'Im_KeanuReeves.png', 'Im_RobertPattinson.png', 'Im_LeonardoDiCaprio.png', 'Im_JustinTimberlake.png'],diff,1,0.40840489999754936,23,88.0952380952381,
AHLA1505,4,neg,90,neg90_id7_im26.bmp_neg90_id2_im3.bmp,['Im_PatrickDempsey.png', 'Im_GeorgeClooney.png', 'Im_BradPitt.png', 'Im_ElijahWood.png', 'Im_RyanGosling.png', 'Im_BenStiller.png', 'Im_KeanuReeves.png', 'Im_RobertPattinson.png', 'Im_LeonardoDiCaprio.png', 'Im_JustinTimberlake.png'],diff,1,0.425074399998266,24,88.0952380952381,
AHLA1505,4,neg,60,neg60_id20_im12.bmp_neg60_id13_im10.bmp,['Im_PatrickDempsey.png', 'Im_GeorgeClooney.png', 'Im_BradPitt.png', 'Im_ElijahWood.png', 'Im_RyanGosling.png', 'Im_BenStiller.png', 'Im_KeanuReeves.png', 'Im_RobertPattinson.png', 'Im_LeonardoDiCaprio.png', 'Im_JustinTimberlake.png'],diff,1,0.41672470000048634,25,88.0952380952381,
AHLA1505,4,neg,0,neg0_id20_im3.bmp_neg0_id6_im18.bmp,['Im_PatrickDempsey.png', 'Im_GeorgeClooney.png', 'Im_BradPitt.png', 'Im_ElijahWood.png', 'Im_RyanGosling.png', 'Im_BenStiller.png', 'Im_KeanuReeves.png', 'Im_RobertPattinson.png', 'Im_LeonardoDiCaprio.png', 'Im_JustinTimberlake.png'],diff,1,0.4166691999998875,26,88.0952380952381,
AHLA1505,5,inv,0,pos0_id13_im10.bmp_pos0_id20_im12.bmp,['Im_PatrickDempsey.png', 'Im_GeorgeClooney.png', 'Im_BradPitt.png', 'Im_ElijahWood.png', 'Im_RyanGosling.png', 'Im_BenStiller.png', 'Im_KeanuReeves.png', 'Im_RobertPattinson.png', 'Im_LeonardoDiCaprio.png', 'Im_JustinTimberlake.png'],diff,1,0.42502520000198274,27,88.0952380952381,
AHLA1505,5,inv,150,pos150_id13_im15.bmp_pos150_id6_im18.bmp,['Im_PatrickDempsey.png', 'Im_GeorgeClooney.png', 'Im_BradPitt.png', 'Im_ElijahWood.png', 'Im_RyanGosling.png', 'Im_BenStiller.png', 'Im_KeanuReeves.png', 'Im_RobertPattinson.png', 'Im_LeonardoDiCaprio.png', 'Im_JustinTimberlake.png'],diff,1,0.4166827999979432,28,88.0952380952381,
AHLA1505,5,inv,60,pos60_id13_im10.bmp_pos60_id13_im29.bmp,['Im_PatrickDempsey.png', 'Im_GeorgeClooney.png', 'Im_BradPitt.png', 'Im_ElijahWood.png', 'Im_RyanGosling.png', 'Im_BenStiller.png', 'Im_KeanuReeves.png', 'Im_RobertPattinson.png', 'Im_LeonardoDiCaprio.png', 'Im_JustinTimberlake.png'],same,1,0.4167186999984551,29,88.0952380952381,
AHLA1505,5,inv,fs,posfs_id7_im26.bmp_posfs_id19_im4.bmp,['Im_PatrickDempsey.png', 'Im_GeorgeClooney.png', 'Im_BradPitt.png', 'Im_ElijahWood.png', 'Im_RyanGosling.png', 'Im_BenStiller.png', 'Im_KeanuReeves.png', 'Im_RobertPattinson.png', 'Im_LeonardoDiCaprio.png', 'Im_JustinTimberlake.png'],diff,1,0.4167799999995623,30,88.0952380952381,
AHLA1505,5,inv,120,pos120_id10_im17.bmp_pos120_id17_im8.bmp,['Im_PatrickDempsey.png', 'Im_GeorgeClooney.png', 'Im_BradPitt.png', 'Im_ElijahWood.png', 'Im_RyanGosling.png', 'Im_BenStiller.png', 'Im_KeanuReeves.png', 'Im_RobertPattinson.png', 'Im_LeonardoDiCaprio.png', 'Im_JustinTimberlake.png'],same,0,0.43339109999942593,30,88.0952380952381,
AHLA1505,5,inv,30,pos30_id13_im29.bmp_pos30_id13_im15.bmp,['Im_PatrickDempsey.png', 'Im_GeorgeClooney.png', 'Im_BradPitt.png', 'Im_ElijahWood.png', 'Im_RyanGosling.png', 'Im_BenStiller.png', 'Im_KeanuReeves.png', 'Im_RobertPattinson.png', 'Im_LeonardoDiCaprio.png', 'Im_JustinTimberlake.png'],diff,0,0.558521800001472,30,88.0952380952381,
AHLA1505,5,inv,150,pos150_id10_im18.bmp_pos150_id10_im1.bmp,['Im_PatrickDempsey.png', 'Im_GeorgeClooney.png', 'Im_BradPitt.png', 'Im_ElijahWood.png', 'Im_RyanGosling.png', 'Im_BenStiller.png', 'Im_KeanuReeves.png', 'Im_RobertPattinson.png', 'Im_LeonardoDiCaprio.png', 'Im_JustinTimberlake.png'],same,1,0.4249798000018927,31,88.0952380952381,
AHLA1505,5,inv,fs,posfs_id2_im3.bmp_posfs_id2_im2.bmp,['Im_PatrickDempsey.png', 'Im_GeorgeClooney.png', 'Im_BradPitt.png', 'Im_ElijahWood.png', 'Im_RyanGosling.png', 'Im_BenStiller.png', 'Im_KeanuReeves.png', 'Im_RobertPattinson.png', 'Im_LeonardoDiCaprio.png', 'Im_JustinTimberlake.png'],same,1,0.41674090000014985,32,88.0952380952381,
AHLA1505,5,inv,30,pos30_id10_im1.bmp_pos30_id2_im16.bmp,['Im_PatrickDempsey.png', 'Im_GeorgeClooney.png', 'Im_BradPitt.png', 'Im_ElijahWood.png', 'Im_RyanGosling.png', 'Im_BenStiller.png', 'Im_KeanuReeves.png', 'Im_RobertPattinson.png', 'Im_LeonardoDiCaprio.png', 'Im_JustinTimberlake.png'],diff,1,0.416672399998788,33,88.0952380952381,
AHLA1505,5,inv,90,pos90_id7_im14.bmp_pos90_id7_im15.bmp,['Im_PatrickDempsey.png', 'Im_GeorgeClooney.png', 'Im_BradPitt.png', 'Im_ElijahWood.png', 'Im_RyanGosling.png', 'Im_BenStiller.png', 'Im_KeanuReeves.png', 'Im_RobertPattinson.png', 'Im_LeonardoDiCaprio.png', 'Im_JustinTimberlake.png'],same,1,0.433221199997206,34,88.0952380952381,
AHLA1505,5,inv,0,pos0_id19_im8.bmp_pos0_id11_im1.bmp,['Im_PatrickDempsey.png', 'Im_GeorgeClooney.png', 'Im_BradPitt.png', 'Im_ElijahWood.png', 'Im_RyanGosling.png', 'Im_BenStiller.png', 'Im_KeanuReeves.png', 'Im_RobertPattinson.png', 'Im_LeonardoDiCaprio.png', 'Im_JustinTimberlake.png'],diff,1,0.4334006999997655,35,88.0952380952381,
AHLA1505,5,inv,90,pos90_id7_im15.bmp_pos90_id7_im26.bmp,['Im_PatrickDempsey.png', 'Im_GeorgeClooney.png', 'Im_BradPitt.png', 'Im_ElijahWood.png', 'Im_RyanGosling.png', 'Im_BenStiller.png', 'Im_KeanuReeves.png', 'Im_RobertPattinson.png', 'Im_LeonardoDiCaprio.png', 'Im_JustinTimberlake.png'],same,1,0.4168002999977034,36,88.0952380952381,
AHLA1505,5,inv,60,pos60_id2_im16.bmp_pos60_id11_im2.bmp,['Im_PatrickDempsey.png', 'Im_GeorgeClooney.png', 'Im_BradPitt.png', 'Im_ElijahWood.png', 'Im_RyanGosling.png', 'Im_BenStiller.png', 'Im_KeanuReeves.png', 'Im_RobertPattinson.png', 'Im_LeonardoDiCaprio.png', 'Im_JustinTimberlake.png'],diff,1,0.41665699999794015,37,88.0952380952381,
AHLA1505,5,inv,120,pos120_id17_im8.bmp_pos120_id17_im14.bmp,['Im_PatrickDempsey.png', 'Im_GeorgeClooney.png', 'Im_BradPitt.png', 'Im_ElijahWood.png', 'Im_RyanGosling.png', 'Im_BenStiller.png', 'Im_KeanuReeves.png', 'Im_RobertPattinson.png', 'Im_LeonardoDiCaprio.png', 'Im_JustinTimberlake.png'],diff,0,0.5166466999980912,37,88.0952380952381,
AHLA1505,6,pos,150,pos150_id13_im29.bmp_pos150_id7_im14.bmp,['Im_PatrickDempsey.png', 'Im_GeorgeClooney.png', 'Im_BradPitt.png', 'Im_ElijahWood.png', 'Im_RyanGosling.png', 'Im_BenStiller.png', 'Im_KeanuReeves.png', 'Im_RobertPattinson.png', 'Im_LeonardoDiCaprio.png', 'Im_JustinTimberlake.png'],diff,1,0.7082500999968033,1,88.0952380952381,
AHLA1505,6,pos,30,pos30_id17_im9.bmp_pos30_id17_im8.bmp,['Im_PatrickDempsey.png', 'Im_GeorgeClooney.png', 'Im_BradPitt.png', 'Im_ElijahWood.png', 'Im_RyanGosling.png', 'Im_BenStiller.png', 'Im_KeanuReeves.png', 'Im_RobertPattinson.png', 'Im_LeonardoDiCaprio.png', 'Im_JustinTimberlake.png'],same,1,0.433594299996912,2,88.0952380952381,
AHLA1505,6,pos,90,pos90_id3_im8.bmp_pos90_id17_im9.bmp,['Im_PatrickDempsey.png', 'Im_GeorgeClooney.png', 'Im_BradPitt.png', 'Im_ElijahWood.png', 'Im_RyanGosling.png', 'Im_BenStiller.png', 'Im_KeanuReeves.png', 'Im_RobertPattinson.png', 'Im_LeonardoDiCaprio.png', 'Im_JustinTimberlake.png'],same,0,0.7501650999984122,2,88.0952380952381,
AHLA1505,6,pos,150,pos150_id6_im18.bmp_pos150_id20_im3.bmp,['Im_PatrickDempsey.png', 'Im_GeorgeClooney.png', 'Im_BradPitt.png', 'Im_ElijahWood.png', 'Im_RyanGosling.png', 'Im_BenStiller.png', 'Im_KeanuReeves.png', 'Im_RobertPattinson.png', 'Im_LeonardoDiCaprio.png', 'Im_JustinTimberlake.png'],diff,1,0.43338999999832595,3,88.0952380952381,
AHLA1505,6,pos,fs,posfs_id6_im12.bmp_posfs_id6_im19.bmp,['Im_PatrickDempsey.png', 'Im_GeorgeClooney.png', 'Im_BradPitt.png', 'Im_ElijahWood.png', 'Im_RyanGosling.png', 'Im_BenStiller.png', 'Im_KeanuReeves.png', 'Im_RobertPattinson.png', 'Im_LeonardoDiCaprio.png', 'Im_JustinTimberlake.png'],same,1,0.4251120000008086,4,88.0952380952381,
AHLA1505,6,pos,60,pos60_id20_im12.bmp_pos60_id20_im3.bmp,['Im_PatrickDempsey.png', 'Im_GeorgeClooney.png', 'Im_BradPitt.png', 'Im_ElijahWood.png', 'Im_RyanGosling.png', 'Im_BenStiller.png', 'Im_KeanuReeves.png', 'Im_RobertPattinson.png', 'Im_LeonardoDiCaprio.png', 'Im_JustinTimberlake.png'],same,1,0.4250525999996171,5,88.0952380952381,
AHLA1505,6,pos,120,pos120_id20_im12.bmp_pos120_id20_im3.bmp,['Im_PatrickDempsey.png', 'Im_GeorgeClooney.png', 'Im_BradPitt.png', 'Im_ElijahWood.png', 'Im_RyanGosling.png', 'Im_BenStiller.png', 'Im_KeanuReeves.png', 'Im_RobertPattinson.png', 'Im_LeonardoDiCaprio.png', 'Im_JustinTimberlake.png'],same,1,0.4083759999994072,6,88.0952380952381,
AHLA1505,6,pos,90,pos90_id7_im15.bmp_pos90_id19_im4.bmp,['Im_PatrickDempsey.png', 'Im_GeorgeClooney.png', 'Im_BradPitt.png', 'Im_ElijahWood.png', 'Im_RyanGosling.png', 'Im_BenStiller.png', 'Im_KeanuReeves.png', 'Im_RobertPattinson.png', 'Im_LeonardoDiCaprio.png', 'Im_JustinTimberlake.png'],diff,1,0.4250656000003801,7,88.0952380952381,
AHLA1505,6,pos,0,pos0_id2_im16.bmp_pos0_id2_im3.bmp,['Im_PatrickDempsey.png', 'Im_GeorgeClooney.png', 'Im_BradPitt.png', 'Im_ElijahWood.png', 'Im_RyanGosling.png', 'Im_BenStiller.png', 'Im_KeanuReeves.png', 'Im_RobertPattinson.png', 'Im_LeonardoDiCaprio.png', 'Im_JustinTimberlake.png'],same,1,0.4166503999986162,8,88.0952380952381,
AHLA1505,6,pos,60,pos60_id19_im4.bmp_pos60_id19_im8.bmp,['Im_PatrickDempsey.png', 'Im_GeorgeClooney.png', 'Im_BradPitt.png', 'Im_ElijahWood.png', 'Im_RyanGosling.png', 'Im_BenStiller.png', 'Im_KeanuReeves.png', 'Im_RobertPattinson.png', 'Im_LeonardoDiCaprio.png', 'Im_JustinTimberlake.png'],same,1,0.4250757000008889,9,88.0952380952381,
AHLA1505,6,pos,120,pos120_id17_im9.bmp_pos120_id3_im8.bmp,['Im_PatrickDempsey.png', 'Im_GeorgeClooney.png', 'Im_BradPitt.png', 'Im_ElijahWood.png', 'Im_RyanGosling.png', 'Im_BenStiller.png', 'Im_KeanuReeves.png', 'Im_RobertPattinson.png', 'Im_LeonardoDiCaprio.png', 'Im_JustinTimberlake.png'],diff,1,0.5083462000002328,10,88.0952380952381,
AHLA1505,6,pos,0,pos0_id20_im30.bmp_pos0_id3_im6.bmp,['Im_PatrickDempsey.png', 'Im_GeorgeClooney.png', 'Im_BradPitt.png', 'Im_ElijahWood.png', 'Im_RyanGosling.png', 'Im_BenStiller.png', 'Im_KeanuReeves.png', 'Im_RobertPattinson.png', 'Im_LeonardoDiCaprio.png', 'Im_JustinTimberlake.png'],diff,1,0.5502746000020124,11,88.0952380952381,
AHLA1505,6,pos,fs,posfs_id7_im15.bmp_posfs_id7_im26.bmp,['Im_PatrickDempsey.png', 'Im_GeorgeClooney.png', 'Im_BradPitt.png', 'Im_ElijahWood.png', 'Im_RyanGosling.png', 'Im_BenStiller.png', 'Im_KeanuReeves.png', 'Im_RobertPattinson.png', 'Im_LeonardoDiCaprio.png', 'Im_JustinTimberlake.png'],same,1,0.43347929999799817,12,88.0952380952381,
AHLA1505,6,pos,30,pos30_id17_im14.bmp_pos30_id17_im9.bmp,['Im_PatrickDempsey.png', 'Im_GeorgeClooney.png', 'Im_BradPitt.png', 'Im_ElijahWood.png', 'Im_RyanGosling.png', 'Im_BenStiller.png', 'Im_KeanuReeves.png', 'Im_RobertPattinson.png', 'Im_LeonardoDiCaprio.png', 'Im_JustinTimberlake.png'],same,1,0.41670730000259937,13,88.0952380952381,
AHLA1505,7,pos,90,pos90_id6_im12.bmp_pos90_id10_im1.bmp,['Im_PatrickDempsey.png', 'Im_GeorgeClooney.png', 'Im_BradPitt.png', 'Im_ElijahWood.png', 'Im_RyanGosling.png', 'Im_BenStiller.png', 'Im_KeanuReeves.png', 'Im_RobertPattinson.png', 'Im_LeonardoDiCaprio.png', 'Im_JustinTimberlake.png'],diff,1,0.4169318000022031,14,88.0952380952381,
AHLA1505,7,pos,150,pos150_id13_im10.bmp_pos150_id20_im12.bmp,['Im_PatrickDempsey.png', 'Im_GeorgeClooney.png', 'Im_BradPitt.png', 'Im_ElijahWood.png', 'Im_RyanGosling.png', 'Im_BenStiller.png', 'Im_KeanuReeves.png', 'Im_RobertPattinson.png', 'Im_LeonardoDiCaprio.png', 'Im_JustinTimberlake.png'],diff,1,0.4250701000019035,15,88.0952380952381,
AHLA1505,7,pos,60,pos60_id17_im14.bmp_pos60_id11_im10.bmp,['Im_PatrickDempsey.png', 'Im_GeorgeClooney.png', 'Im_BradPitt.png', 'Im_ElijahWood.png', 'Im_RyanGosling.png', 'Im_BenStiller.png', 'Im_KeanuReeves.png', 'Im_RobertPattinson.png', 'Im_LeonardoDiCaprio.png', 'Im_JustinTimberlake.png'],diff,1,0.43340470000111964,16,88.0952380952381,
AHLA1505,7,pos,fs,posfs_id20_im30.bmp_posfs_id20_im12.bmp,['Im_PatrickDempsey.png', 'Im_GeorgeClooney.png', 'Im_BradPitt.png', 'Im_ElijahWood.png', 'Im_RyanGosling.png', 'Im_BenStiller.png', 'Im_KeanuReeves.png', 'Im_RobertPattinson.png', 'Im_LeonardoDiCaprio.png', 'Im_JustinTimberlake.png'],same,1,0.41680230000201846,17,88.0952380952381,
AHLA1505,7,pos,0,pos0_id19_im27.bmp_pos0_id11_im10.bmp,['Im_PatrickDempsey.png', 'Im_GeorgeClooney.png', 'Im_BradPitt.png', 'Im_ElijahWood.png', 'Im_RyanGosling.png', 'Im_BenStiller.png', 'Im_KeanuReeves.png', 'Im_RobertPattinson.png', 'Im_LeonardoDiCaprio.png', 'Im_JustinTimberlake.png'],diff,1,0.42499989999851095,18,88.0952380952381,
AHLA1505,7,pos,30,pos30_id19_im8.bmp_pos30_id11_im1.bmp,['Im_PatrickDempsey.png', 'Im_GeorgeClooney.png', 'Im_BradPitt.png', 'Im_ElijahWood.png', 'Im_RyanGosling.png', 'Im_BenStiller.png', 'Im_KeanuReeves.png', 'Im_RobertPattinson.png', 'Im_LeonardoDiCaprio.png', 'Im_JustinTimberlake.png'],diff,1,0.42501529999935883,19,88.0952380952381,
AHLA1505,7,pos,120,pos120_id17_im8.bmp_pos120_id17_im9.bmp,['Im_PatrickDempsey.png', 'Im_GeorgeClooney.png', 'Im_BradPitt.png', 'Im_ElijahWood.png', 'Im_RyanGosling.png', 'Im_BenStiller.png', 'Im_KeanuReeves.png', 'Im_RobertPattinson.png', 'Im_LeonardoDiCaprio.png', 'Im_JustinTimberlake.png'],same,1,0.691694400000415,20,88.0952380952381,
AHLA1505,7,pos,30,pos30_id13_im10.bmp_pos30_id13_im15.bmp,['Im_PatrickDempsey.png', 'Im_GeorgeClooney.png', 'Im_BradPitt.png', 'Im_ElijahWood.png', 'Im_RyanGosling.png', 'Im_BenStiller.png', 'Im_KeanuReeves.png', 'Im_RobertPattinson.png', 'Im_LeonardoDiCaprio.png', 'Im_JustinTimberlake.png'],same,1,0.4169173000009323,21,88.0952380952381,
AHLA1505,7,pos,120,pos120_id20_im30.bmp_pos120_id20_im12.bmp,['Im_PatrickDempsey.png', 'Im_GeorgeClooney.png', 'Im_BradPitt.png', 'Im_ElijahWood.png', 'Im_RyanGosling.png', 'Im_BenStiller.png', 'Im_KeanuReeves.png', 'Im_RobertPattinson.png', 'Im_LeonardoDiCaprio.png', 'Im_JustinTimberlake.png'],same,1,0.4167617999992217,22,88.0952380952381,
AHLA1505,7,pos,60,pos60_id19_im4.bmp_pos60_id7_im15.bmp,['Im_PatrickDempsey.png', 'Im_GeorgeClooney.png', 'Im_BradPitt.png', 'Im_ElijahWood.png', 'Im_RyanGosling.png', 'Im_BenStiller.png', 'Im_KeanuReeves.png', 'Im_RobertPattinson.png', 'Im_LeonardoDiCaprio.png', 'Im_JustinTimberlake.png'],diff,1,0.4250925999986066,23,88.0952380952381,
AHLA1505,7,pos,150,pos150_id13_im10.bmp_pos150_id13_im29.bmp,['Im_PatrickDempsey.png', 'Im_GeorgeClooney.png', 'Im_BradPitt.png', 'Im_ElijahWood.png', 'Im_RyanGosling.png', 'Im_BenStiller.png', 'Im_KeanuReeves.png', 'Im_RobertPattinson.png', 'Im_LeonardoDiCaprio.png', 'Im_JustinTimberlake.png'],diff,0,0.4248555000012857,23,88.0952380952381,
AHLA1505,7,pos,fs,posfs_id10_im1.bmp_posfs_id6_im12.bmp,['Im_PatrickDempsey.png', 'Im_GeorgeClooney.png', 'Im_BradPitt.png', 'Im_ElijahWood.png', 'Im_RyanGosling.png', 'Im_BenStiller.png', 'Im_KeanuReeves.png', 'Im_RobertPattinson.png', 'Im_LeonardoDiCaprio.png', 'Im_JustinTimberlake.png'],diff,1,0.41671080000014626,24,88.0952380952381,
AHLA1505,7,pos,90,pos90_id3_im6.bmp_pos90_id7_im14.bmp,['Im_PatrickDempsey.png', 'Im_GeorgeClooney.png', 'Im_BradPitt.png', 'Im_ElijahWood.png', 'Im_RyanGosling.png', 'Im_BenStiller.png', 'Im_KeanuReeves.png', 'Im_RobertPattinson.png', 'Im_LeonardoDiCaprio.png', 'Im_JustinTimberlake.png'],diff,1,0.41673090000040247,25,88.0952380952381,
AHLA1505,7,pos,0,pos0_id20_im12.bmp_pos0_id7_im15.bmp,['Im_PatrickDempsey.png', 'Im_GeorgeClooney.png', 'Im_BradPitt.png', 'Im_ElijahWood.png', 'Im_RyanGosling.png', 'Im_BenStiller.png', 'Im_KeanuReeves.png', 'Im_RobertPattinson.png', 'Im_LeonardoDiCaprio.png', 'Im_JustinTimberlake.png'],diff,1,0.4166017000025022,26,88.0952380952381,
AHLA1505,8,inv,90,pos90_id20_im3.bmp_pos90_id6_im18.bmp,['Im_PatrickDempsey.png', 'Im_GeorgeClooney.png', 'Im_BradPitt.png', 'Im_ElijahWood.png', 'Im_RyanGosling.png', 'Im_BenStiller.png', 'Im_KeanuReeves.png', 'Im_RobertPattinson.png', 'Im_LeonardoDiCaprio.png', 'Im_JustinTimberlake.png'],diff,1,0.41665569999895524,27,88.0952380952381,
AHLA1505,8,inv,60,pos60_id19_im4.bmp_pos60_id7_im15.bmp,['Im_PatrickDempsey.png', 'Im_GeorgeClooney.png', 'Im_BradPitt.png', 'Im_ElijahWood.png', 'Im_RyanGosling.png', 'Im_BenStiller.png', 'Im_KeanuReeves.png', 'Im_RobertPattinson.png', 'Im_LeonardoDiCaprio.png', 'Im_JustinTimberlake.png'],diff,1,0.4250639999991108,28,88.0952380952381,
AHLA1505,8,inv,30,pos30_id13_im15.bmp_pos30_id11_im1.bmp,['Im_PatrickDempsey.png', 'Im_GeorgeClooney.png', 'Im_BradPitt.png', 'Im_ElijahWood.png', 'Im_RyanGosling.png', 'Im_BenStiller.png', 'Im_KeanuReeves.png', 'Im_RobertPattinson.png', 'Im_LeonardoDiCaprio.png', 'Im_JustinTimberlake.png'],diff,1,0.42502260000037495,29,88.0952380952381,
AHLA1505,8,inv,0,pos0_id7_im14.bmp_pos0_id13_im29.bmp,['Im_PatrickDempsey.png', 'Im_GeorgeClooney.png', 'Im_BradPitt.png', 'Im_ElijahWood.png', 'Im_RyanGosling.png', 'Im_BenStiller.png', 'Im_KeanuReeves.png', 'Im_RobertPattinson.png', 'Im_LeonardoDiCaprio.png', 'Im_JustinTimberlake.png'],diff,1,0.4334669000018039,30,88.0952380952381,
AHLA1505,8,inv,150,pos150_id2_im16.bmp_pos150_id10_im1.bmp,['Im_PatrickDempsey.png', 'Im_GeorgeClooney.png', 'Im_BradPitt.png', 'Im_ElijahWood.png', 'Im_RyanGosling.png', 'Im_BenStiller.png', 'Im_KeanuReeves.png', 'Im_RobertPattinson.png', 'Im_LeonardoDiCaprio.png', 'Im_JustinTimberlake.png'],diff,1,0.4167680999998993,31,88.0952380952381,
AHLA1505,8,inv,60,pos60_id19_im8.bmp_pos60_id11_im1.bmp,['Im_PatrickDempsey.png', 'Im_GeorgeClooney.png', 'Im_BradPitt.png', 'Im_ElijahWood.png', 'Im_RyanGosling.png', 'Im_BenStiller.png', 'Im_KeanuReeves.png', 'Im_RobertPattinson.png', 'Im_LeonardoDiCaprio.png', 'Im_JustinTimberlake.png'],diff,1,0.4250099999990198,32,88.0952380952381,
AHLA1505,8,inv,fs,posfs_id19_im27.bmp_posfs_id11_im10.bmp,['Im_PatrickDempsey.png', 'Im_GeorgeClooney.png', 'Im_BradPitt.png', 'Im_ElijahWood.png', 'Im_RyanGosling.png', 'Im_BenStiller.png', 'Im_KeanuReeves.png', 'Im_RobertPattinson.png', 'Im_LeonardoDiCaprio.png', 'Im_JustinTimberlake.png'],diff,1,0.4167206000020087,33,88.0952380952381,
AHLA1505,8,inv,0,pos0_id19_im8.bmp_pos0_id19_im27.bmp,['Im_PatrickDempsey.png', 'Im_GeorgeClooney.png', 'Im_BradPitt.png', 'Im_ElijahWood.png', 'Im_RyanGosling.png', 'Im_BenStiller.png', 'Im_KeanuReeves.png', 'Im_RobertPattinson.png', 'Im_LeonardoDiCaprio.png', 'Im_JustinTimberlake.png'],same,1,0.42519220000031055,34,88.0952380952381,
AHLA1505,8,inv,30,pos30_id10_im17.bmp_pos30_id2_im2.bmp,['Im_PatrickDempsey.png', 'Im_GeorgeClooney.png', 'Im_BradPitt.png', 'Im_ElijahWood.png', 'Im_RyanGosling.png', 'Im_BenStiller.png', 'Im_KeanuReeves.png', 'Im_RobertPattinson.png', 'Im_LeonardoDiCaprio.png', 'Im_JustinTimberlake.png'],diff,1,0.41677160000108415,35,88.0952380952381,
AHLA1505,8,inv,fs,posfs_id3_im6.bmp_posfs_id3_im8.bmp,['Im_PatrickDempsey.png', 'Im_GeorgeClooney.png', 'Im_BradPitt.png', 'Im_ElijahWood.png', 'Im_RyanGosling.png', 'Im_BenStiller.png', 'Im_KeanuReeves.png', 'Im_RobertPattinson.png', 'Im_LeonardoDiCaprio.png', 'Im_JustinTimberlake.png'],same,1,0.4250642000006337,36,88.0952380952381,
AHLA1505,8,inv,90,pos90_id2_im2.bmp_pos90_id2_im16.bmp,['Im_PatrickDempsey.png', 'Im_GeorgeClooney.png', 'Im_BradPitt.png', 'Im_ElijahWood.png', 'Im_RyanGosling.png', 'Im_BenStiller.png', 'Im_KeanuReeves.png', 'Im_RobertPattinson.png', 'Im_LeonardoDiCaprio.png', 'Im_JustinTimberlake.png'],diff,0,0.4250486999990244,36,88.0952380952381,
AHLA1505,8,inv,150,pos150_id11_im2.bmp_pos150_id11_im1.bmp,['Im_PatrickDempsey.png', 'Im_GeorgeClooney.png', 'Im_BradPitt.png', 'Im_ElijahWood.png', 'Im_RyanGosling.png', 'Im_BenStiller.png', 'Im_KeanuReeves.png', 'Im_RobertPattinson.png', 'Im_LeonardoDiCaprio.png', 'Im_JustinTimberlake.png'],same,1,0.6834617999993498,37,88.0952380952381,
AHLA1505,8,inv,120,pos120_id11_im10.bmp_pos120_id17_im14.bmp,['Im_PatrickDempsey.png', 'Im_GeorgeClooney.png', 'Im_BradPitt.png', 'Im_ElijahWood.png', 'Im_RyanGosling.png', 'Im_BenStiller.png', 'Im_KeanuReeves.png', 'Im_RobertPattinson.png', 'Im_LeonardoDiCaprio.png', 'Im_JustinTimberlake.png'],diff,1,0.4167072000018379,38,88.0952380952381,
AHLA1505,8,inv,120,pos120_id13_im15.bmp_pos120_id13_im29.bmp,['Im_PatrickDempsey.png', 'Im_GeorgeClooney.png', 'Im_BradPitt.png', 'Im_ElijahWood.png', 'Im_RyanGosling.png', 'Im_BenStiller.png', 'Im_KeanuReeves.png', 'Im_RobertPattinson.png', 'Im_LeonardoDiCaprio.png', 'Im_JustinTimberlake.png'],same,1,0.4248224000002665,39,88.0952380952381,
AHLA1505,9,neg,60,neg60_id13_im15.bmp_neg60_id11_im1.bmp,['Im_PatrickDempsey.png', 'Im_GeorgeClooney.png', 'Im_BradPitt.png', 'Im_ElijahWood.png', 'Im_RyanGosling.png', 'Im_BenStiller.png', 'Im_KeanuReeves.png', 'Im_RobertPattinson.png', 'Im_LeonardoDiCaprio.png', 'Im_JustinTimberlake.png'],diff,1,0.41673639999862644,1,92.85714285714286,
