Sujet,Trial,Condition,Filter,Imname,Actor0,Actor1,Actor2,Actor3,Actor4,Actor5,Actor6,Actor7,Actor8,Actor9,Answer,Accu,RT,Score,Scoreperc, 
ALPA2202,_,posfs_DanielCraig_im7.bmp,DanielCraig,BenAffleck,BenAffleck,KeanuReeves,PatrickDempsey,DanielRadcliffe,,,,,posfs_DanielCraig_im7.bmp,4.76088720000007,
ALPA2202,_,posfs_JustinTimberlake_im1.bmp,JustinTimberlake,BenAffleck,BenAffleck,ElijahWood,PatrickDempsey,HughJackman,,,,,posfs_JustinTimberlake_im1.bmp,2.919714200001181,
ALPA2202,_,posfs_BradPitt_im6.bmp,BradPitt,RyanGosling,RyanGosling,RobertDowneyJr,OrlandoBloom,HughJackman,,,,,posfs_BradPitt_im6.bmp,1.7661655000010796,
ALPA2202,_,posfs_KeanuReeves_im8.bmp,KeanuReeves,BenAffleck,BenAffleck,LeonardoDiCaprio,RyanGosling,GeorgeClooney,,,,,posfs_KeanuReeves_im8.bmp,1.1894303999997646,
ALPA2202,_,posfs_BenAffleck_im21.bmp,BenAffleck,RyanGosling,RyanGosling,GeorgeClooney,ElijahWood,BradPitt,,,,,posfs_BenAffleck_im21.bmp,3.804464700000608,
ALPA2202,_,posfs_MattDamon_im24.bmp,MattDamon,RobertDowneyJr,RobertDowneyJr,BradPitt,HughJackman,RobertPattinson,,,,,posfs_MattDamon_im24.bmp,2.2416466000013315,
ALPA2202,_,posfs_BenStiller_im3.bmp,BenStiller,ElijahWood,ElijahWood,JustinTimberlake,BradPitt,RobertDowneyJr,,,,,posfs_BenStiller_im3.bmp,1.6301715000008699,
ALPA2202,_,posfs_DanielCraig_im8.bmp,DanielCraig,RobertPattinson,RobertPattinson,BenAffleck,BenStiller,LeonardoDiCaprio,,,,,posfs_DanielCraig_im8.bmp,3.8751914000004035,
ALPA2202,_,posfs_JustinTimberlake_im17.bmp,JustinTimberlake,MattDamon,MattDamon,LeonardoDiCaprio,ElijahWood,GeorgeClooney,,,,,posfs_JustinTimberlake_im17.bmp,2.108829599999808,
ALPA2202,_,posfs_BenStiller_im7.bmp,BenStiller,LeonardoDiCaprio,LeonardoDiCaprio,RyanGosling,DanielCraig,PatrickDempsey,,,,,posfs_BenStiller_im7.bmp,1.7739652000000206,
ALPA2202,_,posfs_GeorgeClooney_im15.bmp,GeorgeClooney,JustinTimberlake,JustinTimberlake,DanielRadcliffe,DanielCraig,BenAffleck,,,,,posfs_GeorgeClooney_im15.bmp,1.3163445999998657,
ALPA2202,_,posfs_DanielRadcliffe_im8.bmp,DanielRadcliffe,MattDamon,MattDamon,PatrickDempsey,RyanReynolds,RobertDowneyJr,,,,,posfs_DanielRadcliffe_im8.bmp,1.156684800000221,
ALPA2202,_,posfs_BenAffleck_im24.bmp,BenAffleck,OrlandoBloom,OrlandoBloom,DanielRadcliffe,MattDamon,GeorgeClooney,,,,,posfs_BenAffleck_im24.bmp,3.0046163000006345,
ALPA2202,_,posfs_BradPitt_im8.bmp,BradPitt,BenStiller,BenStiller,BenAffleck,OrlandoBloom,RobertPattinson,,,,,posfs_BradPitt_im8.bmp,1.6663821000001917,
ALPA2202,_,posfs_RobertPattinson_im30.bmp,RobertPattinson,DanielRadcliffe,DanielRadcliffe,DanielCraig,BenAffleck,JustinTimberlake,,,,,posfs_RobertPattinson_im30.bmp,3.5096056000002136,
ALPA2202,_,posfs_LeonardoDiCaprio_im29.bmp,LeonardoDiCaprio,RobertDowneyJr,RobertDowneyJr,PatrickDempsey,OrlandoBloom,DanielCraig,,,,,posfs_LeonardoDiCaprio_im29.bmp,2.3187058999992587,
ALPA2202,_,posfs_RyanGosling_im30.bmp,RyanGosling,RyanReynolds,RyanReynolds,DanielCraig,PatrickDempsey,RobertPattinson,,,,,posfs_RyanGosling_im30.bmp,1.7834138000016537,
ALPA2202,_,posfs_RyanGosling_im25.bmp,RyanGosling,DanielCraig,DanielCraig,KeanuReeves,BradPitt,MattDamon,,,,,posfs_RyanGosling_im25.bmp,1.0389830000003712,
ALPA2202,_,posfs_BenAffleck_im8.bmp,BenAffleck,OrlandoBloom,OrlandoBloom,RobertPattinson,RyanReynolds,MattDamon,,,,,posfs_BenAffleck_im8.bmp,1.4183057000009285,
ALPA2202,_,posfs_RobertPattinson_im4.bmp,RobertPattinson,DanielRadcliffe,DanielRadcliffe,RyanGosling,MattDamon,ElijahWood,,,,,posfs_RobertPattinson_im4.bmp,1.8872332999999344,
ALPA2202,_,posfs_OrlandoBloom_im19.bmp,OrlandoBloom,ElijahWood,ElijahWood,DanielCraig,PatrickDempsey,LeonardoDiCaprio,,,,,posfs_OrlandoBloom_im19.bmp,2.5213913999996294,
ALPA2202,_,posfs_PatrickDempsey_im16.bmp,PatrickDempsey,BradPitt,BradPitt,DanielCraig,DanielRadcliffe,LeonardoDiCaprio,,,,,posfs_PatrickDempsey_im16.bmp,6.40159390000008,
ALPA2202,_,posfs_PatrickDempsey_im8.bmp,PatrickDempsey,BenStiller,BenStiller,MattDamon,BradPitt,RyanGosling,,,,,4,8.408077399999456,
ALPA2202,_,posfs_MattDamon_im16.bmp,MattDamon,LeonardoDiCaprio,LeonardoDiCaprio,RyanGosling,KeanuReeves,BenStiller,,,,,posfs_MattDamon_im16.bmp,2.7582698999995046,
ALPA2202,_,posfs_GeorgeClooney_im14.bmp,GeorgeClooney,KeanuReeves,KeanuReeves,LeonardoDiCaprio,PatrickDempsey,RobertPattinson,,,,,posfs_GeorgeClooney_im14.bmp,1.966103300001123,
ALPA2202,_,posfs_HughJackman_im21.bmp,HughJackman,OrlandoBloom,OrlandoBloom,GeorgeClooney,RyanGosling,BradPitt,,,,,posfs_HughJackman_im21.bmp,1.7333305000011023,
ALPA2202,_,posfs_RyanReynolds_im16.bmp,RyanReynolds,OrlandoBloom,OrlandoBloom,RobertPattinson,RyanGosling,LeonardoDiCaprio,,,,,posfs_RyanReynolds_im16.bmp,2.5581382000000303,
ALPA2202,_,posfs_RobertDowneyJr_im11.bmp,RobertDowneyJr,HughJackman,HughJackman,RyanGosling,JustinTimberlake,BenStiller,,,,,posfs_RobertDowneyJr_im11.bmp,1.7734397999993234,
ALPA2202,_,posfs_ElijahWood_im23.bmp,ElijahWood,BenAffleck,BenAffleck,RyanGosling,BenStiller,RobertDowneyJr,,,,,posfs_ElijahWood_im23.bmp,1.28456179999921,
ALPA2202,_,posfs_KeanuReeves_im1.bmp,KeanuReeves,LeonardoDiCaprio,LeonardoDiCaprio,BradPitt,JustinTimberlake,RobertPattinson,,,,,posfs_KeanuReeves_im1.bmp,1.5035958999997092,
ALPA2202,_,posfs_GeorgeClooney_im26.bmp,GeorgeClooney,LeonardoDiCaprio,LeonardoDiCaprio,RobertPattinson,BenAffleck,ElijahWood,,,,,posfs_GeorgeClooney_im26.bmp,1.016848499999469,
ALPA2202,_,posfs_LeonardoDiCaprio_im15.bmp,LeonardoDiCaprio,RobertPattinson,RobertPattinson,DanielCraig,BradPitt,DanielRadcliffe,,,,,posfs_LeonardoDiCaprio_im15.bmp,0.829816599998594,
ALPA2202,_,posfs_OrlandoBloom_im30.bmp,OrlandoBloom,JustinTimberlake,JustinTimberlake,BradPitt,KeanuReeves,RyanGosling,,,,,posfs_OrlandoBloom_im30.bmp,2.298391000000265,
ALPA2202,_,posfs_RobertPattinson_im27.bmp,RobertPattinson,RyanReynolds,RyanReynolds,OrlandoBloom,MattDamon,KeanuReeves,,,,,posfs_RobertPattinson_im27.bmp,0.9880659000009473,
ALPA2202,_,posfs_RyanReynolds_im17.bmp,RyanReynolds,PatrickDempsey,PatrickDempsey,ElijahWood,BenStiller,BradPitt,,,,,posfs_RyanReynolds_im17.bmp,2.5873826000006375,
ALPA2202,_,posfs_MattDamon_im9.bmp,MattDamon,BradPitt,BradPitt,HughJackman,DanielCraig,LeonardoDiCaprio,,,,,posfs_MattDamon_im9.bmp,1.4972801999992953,
ALPA2202,_,posfs_KeanuReeves_im2.bmp,KeanuReeves,HughJackman,HughJackman,GeorgeClooney,RobertPattinson,BenStiller,,,,,posfs_KeanuReeves_im2.bmp,1.4353958000010607,
ALPA2202,_,posfs_DanielCraig_im15.bmp,DanielCraig,BenAffleck,BenAffleck,MattDamon,BenStiller,HughJackman,,,,,posfs_DanielCraig_im15.bmp,1.7274661999999807,
ALPA2202,_,posfs_GeorgeClooney_im23.bmp,GeorgeClooney,BenAffleck,BenAffleck,MattDamon,OrlandoBloom,KeanuReeves,,,,,posfs_GeorgeClooney_im23.bmp,1.0157230999993772,
ALPA2202,_,posfs_HughJackman_im13.bmp,HughJackman,BradPitt,BradPitt,PatrickDempsey,MattDamon,RobertPattinson,,,,,posfs_HughJackman_im13.bmp,1.060846100001072,
ALPA2202,_,posfs_PatrickDempsey_im14.bmp,PatrickDempsey,KeanuReeves,KeanuReeves,RobertDowneyJr,HughJackman,RyanReynolds,,,,,4,6.3983424000016385,
ALPA2202,_,posfs_DanielCraig_im20.bmp,DanielCraig,BenStiller,BenStiller,BradPitt,LeonardoDiCaprio,OrlandoBloom,,,,,posfs_DanielCraig_im20.bmp,2.284465499998987,
ALPA2202,_,posfs_BenStiller_im16.bmp,BenStiller,KeanuReeves,KeanuReeves,MattDamon,JustinTimberlake,BenAffleck,,,,,posfs_BenStiller_im16.bmp,2.199668900000688,
ALPA2202,_,posfs_RyanReynolds_im3.bmp,RyanReynolds,BenAffleck,BenAffleck,DanielCraig,MattDamon,OrlandoBloom,,,,,posfs_RyanReynolds_im3.bmp,4.6206173000009585,
ALPA2202,_,posfs_HughJackman_im20.bmp,HughJackman,JustinTimberlake,JustinTimberlake,RyanReynolds,DanielCraig,OrlandoBloom,,,,,posfs_HughJackman_im20.bmp,2.1622489000001224,
ALPA2202,_,posfs_JustinTimberlake_im4.bmp,JustinTimberlake,BenStiller,BenStiller,RobertDowneyJr,OrlandoBloom,PatrickDempsey,,,,,posfs_JustinTimberlake_im4.bmp,1.648189599998659,
ALPA2202,_,posfs_JustinTimberlake_im18.bmp,JustinTimberlake,ElijahWood,ElijahWood,RyanGosling,DanielRadcliffe,LeonardoDiCaprio,,,,,posfs_JustinTimberlake_im18.bmp,2.7965198999991117,
ALPA2202,_,posfs_RobertDowneyJr_im19.bmp,RobertDowneyJr,DanielRadcliffe,DanielRadcliffe,DanielCraig,PatrickDempsey,BenStiller,,,,,posfs_RobertDowneyJr_im19.bmp,2.0993717000001197,
ALPA2202,_,posfs_ElijahWood_im12.bmp,ElijahWood,DanielRadcliffe,DanielRadcliffe,RobertDowneyJr,GeorgeClooney,BenStiller,,,,,posfs_ElijahWood_im12.bmp,2.4861224999986007,
ALPA2202,_,posfs_KeanuReeves_im10.bmp,KeanuReeves,MattDamon,MattDamon,OrlandoBloom,PatrickDempsey,LeonardoDiCaprio,,,,,posfs_KeanuReeves_im10.bmp,1.4962912000009965,
ALPA2202,_,posfs_ElijahWood_im18.bmp,ElijahWood,PatrickDempsey,PatrickDempsey,JustinTimberlake,RobertPattinson,RobertDowneyJr,,,,,posfs_ElijahWood_im18.bmp,1.6260399000002508,
ALPA2202,_,posfs_DanielRadcliffe_im20.bmp,DanielRadcliffe,GeorgeClooney,GeorgeClooney,ElijahWood,RobertPattinson,KeanuReeves,,,,,posfs_DanielRadcliffe_im20.bmp,1.1025872999998683,
ALPA2202,_,posfs_HughJackman_im18.bmp,HughJackman,LeonardoDiCaprio,LeonardoDiCaprio,BradPitt,RyanGosling,DanielRadcliffe,,,,,posfs_HughJackman_im18.bmp,1.3835700999989058,
ALPA2202,_,posfs_BenStiller_im2.bmp,BenStiller,RobertDowneyJr,RobertDowneyJr,GeorgeClooney,DanielCraig,RyanReynolds,,,,,posfs_BenStiller_im2.bmp,1.9513731000006374,
ALPA2202,_,posfs_ElijahWood_im19.bmp,ElijahWood,PatrickDempsey,PatrickDempsey,RyanReynolds,BenAffleck,OrlandoBloom,,,,,posfs_ElijahWood_im19.bmp,1.471328800000265,
ALPA2202,_,posfs_RyanReynolds_im22.bmp,RyanReynolds,JustinTimberlake,JustinTimberlake,BradPitt,KeanuReeves,LeonardoDiCaprio,,,,,posfs_RyanReynolds_im22.bmp,2.33002309999938,
ALPA2202,_,posfs_LeonardoDiCaprio_im10.bmp,LeonardoDiCaprio,BenStiller,BenStiller,RyanGosling,PatrickDempsey,RobertPattinson,,,,,posfs_LeonardoDiCaprio_im10.bmp,1.1065105999987281,
ALPA2202,_,posfs_RyanGosling_im3.bmp,RyanGosling,RobertPattinson,RobertPattinson,PatrickDempsey,DanielCraig,JustinTimberlake,,,,,posfs_RyanGosling_im3.bmp,4.292328100000304,
ALPA2202,_,posfs_RobertDowneyJr_im18.bmp,RobertDowneyJr,MattDamon,MattDamon,BradPitt,GeorgeClooney,JustinTimberlake,,,,,posfs_RobertDowneyJr_im18.bmp,1.662039700000605,
ALPA2202,_,posfs_PatrickDempsey_im9.bmp,PatrickDempsey,HughJackman,HughJackman,RobertDowneyJr,KeanuReeves,BenAffleck,,,,,4,5.329788999999437,
ALPA2202,_,posfs_LeonardoDiCaprio_im24.bmp,LeonardoDiCaprio,DanielCraig,DanielCraig,BradPitt,PatrickDempsey,RyanGosling,,,,,posfs_LeonardoDiCaprio_im24.bmp,1.6746788000000379,
ALPA2202,_,posfs_BenAffleck_im4.bmp,BenAffleck,BenStiller,BenStiller,KeanuReeves,ElijahWood,PatrickDempsey,,,,,posfs_BenAffleck_im4.bmp,2.5406586000008247,
ALPA2202,_,posfs_OrlandoBloom_im2.bmp,OrlandoBloom,BenAffleck,BenAffleck,RyanGosling,MattDamon,RobertDowneyJr,,,,,posfs_OrlandoBloom_im2.bmp,1.5722519000009925,
ALPA2202,_,posfs_RobertDowneyJr_im4.bmp,RobertDowneyJr,RyanGosling,RyanGosling,BradPitt,HughJackman,ElijahWood,,,,,posfs_RobertDowneyJr_im4.bmp,1.0596588000007614,
ALPA2202,_,posfs_OrlandoBloom_im3.bmp,OrlandoBloom,RobertPattinson,RobertPattinson,RyanReynolds,RyanGosling,RobertDowneyJr,,,,,posfs_OrlandoBloom_im3.bmp,1.3745437000015954,
ALPA2202,_,posfs_RyanGosling_im12.bmp,RyanGosling,PatrickDempsey,PatrickDempsey,RyanReynolds,BradPitt,DanielCraig,,,,,posfs_RyanGosling_im12.bmp,1.2453211000010924,
ALPA2202,_,posfs_BradPitt_im17.bmp,BradPitt,PatrickDempsey,PatrickDempsey,LeonardoDiCaprio,JustinTimberlake,HughJackman,,,,,posfs_BradPitt_im17.bmp,1.6496564999997645,
ALPA2202,_,posfs_RobertPattinson_im8.bmp,RobertPattinson,DanielRadcliffe,DanielRadcliffe,OrlandoBloom,MattDamon,RyanGosling,,,,,posfs_RobertPattinson_im8.bmp,1.557431400000496,
ALPA2202,_,posfs_BradPitt_im14.bmp,BradPitt,MattDamon,MattDamon,DanielCraig,OrlandoBloom,LeonardoDiCaprio,,,,,posfs_BradPitt_im14.bmp,1.396564299999227,
ALPA2202,_,posfs_MattDamon_im18.bmp,MattDamon,DanielCraig,DanielCraig,PatrickDempsey,DanielRadcliffe,ElijahWood,,,,,posfs_MattDamon_im18.bmp,1.5144997999996122,
ALPA2202,_,posfs_DanielRadcliffe_im1.bmp,DanielRadcliffe,BradPitt,BradPitt,LeonardoDiCaprio,BenStiller,RobertPattinson,,,,,posfs_DanielRadcliffe_im1.bmp,5.474775700000464,
ALPA2202,_,posfs_DanielRadcliffe_im10.bmp,DanielRadcliffe,LeonardoDiCaprio,LeonardoDiCaprio,KeanuReeves,ElijahWood,MattDamon,,,,,posfs_DanielRadcliffe_im10.bmp,1.8525613000001613,
ALPA2202,train,pos,fs,posfs_id2_im16.bmp_posfs_id2_im2.bmp,['Im_HughJackman.png', 'Im_RyanGosling.png', 'Im_MattDamon.png', 'Im_BenAffleck.png', 'Im_RobertDowneyJr.png', 'Im_DanielRadcliffe.png', 'Im_RobertPattinson.png', 'Im_BenStiller.png', 'Im_JustinTimberlake.png', 'Im_DanielCraig.png'],same,1,1.6580912000008539,1,0,
ALPA2202,train,pos,fs,posfs_id10_im17.bmp_posfs_id10_im18.bmp,['Im_HughJackman.png', 'Im_RyanGosling.png', 'Im_MattDamon.png', 'Im_BenAffleck.png', 'Im_RobertDowneyJr.png', 'Im_DanielRadcliffe.png', 'Im_RobertPattinson.png', 'Im_BenStiller.png', 'Im_JustinTimberlake.png', 'Im_DanielCraig.png'],same,1,1.0416573000002245,2,0,
ALPA2202,train,pos,fs,posfs_id1_im24.bmp_posfs_id8_im21.bmp,['Im_HughJackman.png', 'Im_RyanGosling.png', 'Im_MattDamon.png', 'Im_BenAffleck.png', 'Im_RobertDowneyJr.png', 'Im_DanielRadcliffe.png', 'Im_RobertPattinson.png', 'Im_BenStiller.png', 'Im_JustinTimberlake.png', 'Im_DanielCraig.png'],diff,1,1.033427300000767,3,0,
ALPA2202,train,pos,fs,posfs_id10_im1.bmp_posfs_id10_im17.bmp,['Im_HughJackman.png', 'Im_RyanGosling.png', 'Im_MattDamon.png', 'Im_BenAffleck.png', 'Im_RobertDowneyJr.png', 'Im_DanielRadcliffe.png', 'Im_RobertPattinson.png', 'Im_BenStiller.png', 'Im_JustinTimberlake.png', 'Im_DanielCraig.png'],none,1,4.408305500001006,3,0,
ALPA2202,train,pos,fs,posfs_id5_im10.bmp_posfs_id18_im18.bmp,['Im_HughJackman.png', 'Im_RyanGosling.png', 'Im_MattDamon.png', 'Im_BenAffleck.png', 'Im_RobertDowneyJr.png', 'Im_DanielRadcliffe.png', 'Im_RobertPattinson.png', 'Im_BenStiller.png', 'Im_JustinTimberlake.png', 'Im_DanielCraig.png'],diff,1,0.8501291000011406,4,0,
ALPA2202,train,pos,fs,posfs_id2_im2.bmp_posfs_id2_im3.bmp,['Im_HughJackman.png', 'Im_RyanGosling.png', 'Im_MattDamon.png', 'Im_BenAffleck.png', 'Im_RobertDowneyJr.png', 'Im_DanielRadcliffe.png', 'Im_RobertPattinson.png', 'Im_BenStiller.png', 'Im_JustinTimberlake.png', 'Im_DanielCraig.png'],diff,0,1.8085795000006328,4,0,
ALPA2202,train,pos,fs,posfs_id18_im19.bmp_posfs_id18_im11.bmp,['Im_HughJackman.png', 'Im_RyanGosling.png', 'Im_MattDamon.png', 'Im_BenAffleck.png', 'Im_RobertDowneyJr.png', 'Im_DanielRadcliffe.png', 'Im_RobertPattinson.png', 'Im_BenStiller.png', 'Im_JustinTimberlake.png', 'Im_DanielCraig.png'],same,1,1.0416936000001442,5,0,
ALPA2202,train,pos,fs,posfs_id5_im1.bmp_posfs_id4_im15.bmp,['Im_HughJackman.png', 'Im_RyanGosling.png', 'Im_MattDamon.png', 'Im_BenAffleck.png', 'Im_RobertDowneyJr.png', 'Im_DanielRadcliffe.png', 'Im_RobertPattinson.png', 'Im_BenStiller.png', 'Im_JustinTimberlake.png', 'Im_DanielCraig.png'],diff,1,0.9666264000006777,6,0,
ALPA2202,train,pos,fs,posfs_id4_im15.bmp_posfs_id1_im21.bmp,['Im_HughJackman.png', 'Im_RyanGosling.png', 'Im_MattDamon.png', 'Im_BenAffleck.png', 'Im_RobertDowneyJr.png', 'Im_DanielRadcliffe.png', 'Im_RobertPattinson.png', 'Im_BenStiller.png', 'Im_JustinTimberlake.png', 'Im_DanielCraig.png'],diff,1,0.9832554000004166,7,0,
ALPA2202,train,pos,fs,posfs_id8_im20.bmp_posfs_id20_im12.bmp,['Im_HughJackman.png', 'Im_RyanGosling.png', 'Im_MattDamon.png', 'Im_BenAffleck.png', 'Im_RobertDowneyJr.png', 'Im_DanielRadcliffe.png', 'Im_RobertPattinson.png', 'Im_BenStiller.png', 'Im_JustinTimberlake.png', 'Im_DanielCraig.png'],diff,1,0.816511699998955,8,0,
ALPA2202,train,pos,fs,posfs_id18_im18.bmp_posfs_id18_im11.bmp,['Im_HughJackman.png', 'Im_RyanGosling.png', 'Im_MattDamon.png', 'Im_BenAffleck.png', 'Im_RobertDowneyJr.png', 'Im_DanielRadcliffe.png', 'Im_RobertPattinson.png', 'Im_BenStiller.png', 'Im_JustinTimberlake.png', 'Im_DanielCraig.png'],same,1,1.0170380999988993,9,0,
ALPA2202,train,pos,fs,posfs_id1_im24.bmp_posfs_id1_im4.bmp,['Im_HughJackman.png', 'Im_RyanGosling.png', 'Im_MattDamon.png', 'Im_BenAffleck.png', 'Im_RobertDowneyJr.png', 'Im_DanielRadcliffe.png', 'Im_RobertPattinson.png', 'Im_BenStiller.png', 'Im_JustinTimberlake.png', 'Im_DanielCraig.png'],same,1,0.8501872000015283,10,0,
ALPA2202,train,pos,fs,posfs_id14_im16.bmp_posfs_id1_im4.bmp,['Im_HughJackman.png', 'Im_RyanGosling.png', 'Im_MattDamon.png', 'Im_BenAffleck.png', 'Im_RobertDowneyJr.png', 'Im_DanielRadcliffe.png', 'Im_RobertPattinson.png', 'Im_BenStiller.png', 'Im_JustinTimberlake.png', 'Im_DanielCraig.png'],diff,1,1.0004015999984404,11,0,
ALPA2202,train,pos,fs,posfs_id4_im7.bmp_posfs_id4_im15.bmp,['Im_HughJackman.png', 'Im_RyanGosling.png', 'Im_MattDamon.png', 'Im_BenAffleck.png', 'Im_RobertDowneyJr.png', 'Im_DanielRadcliffe.png', 'Im_RobertPattinson.png', 'Im_BenStiller.png', 'Im_JustinTimberlake.png', 'Im_DanielCraig.png'],same,1,1.716962100001183,12,0,
ALPA2202,train,pos,fs,posfs_id5_im20.bmp_posfs_id5_im10.bmp,['Im_HughJackman.png', 'Im_RyanGosling.png', 'Im_MattDamon.png', 'Im_BenAffleck.png', 'Im_RobertDowneyJr.png', 'Im_DanielRadcliffe.png', 'Im_RobertPattinson.png', 'Im_BenStiller.png', 'Im_JustinTimberlake.png', 'Im_DanielCraig.png'],same,1,0.8499807000007422,13,0,
ALPA2202,train,pos,fs,posfs_id1_im4.bmp_posfs_id1_im21.bmp,['Im_HughJackman.png', 'Im_RyanGosling.png', 'Im_MattDamon.png', 'Im_BenAffleck.png', 'Im_RobertDowneyJr.png', 'Im_DanielRadcliffe.png', 'Im_RobertPattinson.png', 'Im_BenStiller.png', 'Im_JustinTimberlake.png', 'Im_DanielCraig.png'],same,1,1.4168671000006725,14,0,
ALPA2202,train,pos,fs,posfs_id8_im13.bmp_posfs_id4_im20.bmp,['Im_HughJackman.png', 'Im_RyanGosling.png', 'Im_MattDamon.png', 'Im_BenAffleck.png', 'Im_RobertDowneyJr.png', 'Im_DanielRadcliffe.png', 'Im_RobertPattinson.png', 'Im_BenStiller.png', 'Im_JustinTimberlake.png', 'Im_DanielCraig.png'],diff,1,0.8752070000009553,15,0,
ALPA2202,train,pos,fs,posfs_id20_im3.bmp_posfs_id5_im20.bmp,['Im_HughJackman.png', 'Im_RyanGosling.png', 'Im_MattDamon.png', 'Im_BenAffleck.png', 'Im_RobertDowneyJr.png', 'Im_DanielRadcliffe.png', 'Im_RobertPattinson.png', 'Im_BenStiller.png', 'Im_JustinTimberlake.png', 'Im_DanielCraig.png'],diff,1,0.766697999999451,16,0,
ALPA2202,train,pos,fs,posfs_id8_im20.bmp_posfs_id8_im13.bmp,['Im_HughJackman.png', 'Im_RyanGosling.png', 'Im_MattDamon.png', 'Im_BenAffleck.png', 'Im_RobertDowneyJr.png', 'Im_DanielRadcliffe.png', 'Im_RobertPattinson.png', 'Im_BenStiller.png', 'Im_JustinTimberlake.png', 'Im_DanielCraig.png'],same,1,0.8585218999996869,17,0,
ALPA2202,train,pos,fs,posfs_id14_im16.bmp_posfs_id18_im18.bmp,['Im_HughJackman.png', 'Im_RyanGosling.png', 'Im_MattDamon.png', 'Im_BenAffleck.png', 'Im_RobertDowneyJr.png', 'Im_DanielRadcliffe.png', 'Im_RobertPattinson.png', 'Im_BenStiller.png', 'Im_JustinTimberlake.png', 'Im_DanielCraig.png'],diff,1,1.566622099999222,18,0,
ALPA2202,train,pos,fs,posfs_id14_im16.bmp_posfs_id14_im18.bmp,['Im_HughJackman.png', 'Im_RyanGosling.png', 'Im_MattDamon.png', 'Im_BenAffleck.png', 'Im_RobertDowneyJr.png', 'Im_DanielRadcliffe.png', 'Im_RobertPattinson.png', 'Im_BenStiller.png', 'Im_JustinTimberlake.png', 'Im_DanielCraig.png'],same,1,1.2416319000003568,1,0,
ALPA2202,train,inv,fs,posfs_id5_im20.bmp_posfs_id20_im3.bmp,['Im_HughJackman.png', 'Im_RyanGosling.png', 'Im_MattDamon.png', 'Im_BenAffleck.png', 'Im_RobertDowneyJr.png', 'Im_DanielRadcliffe.png', 'Im_RobertPattinson.png', 'Im_BenStiller.png', 'Im_JustinTimberlake.png', 'Im_DanielCraig.png'],diff,1,0.6667855000014242,2,0,
ALPA2202,train,neg,fs,negfs_id4_im15.bmp_negfs_id4_im7.bmp,['Im_HughJackman.png', 'Im_RyanGosling.png', 'Im_MattDamon.png', 'Im_BenAffleck.png', 'Im_RobertDowneyJr.png', 'Im_DanielRadcliffe.png', 'Im_RobertPattinson.png', 'Im_BenStiller.png', 'Im_JustinTimberlake.png', 'Im_DanielCraig.png'],same,1,0.7419479999989562,3,0,
ALPA2202,train,neg,fs,negfs_id19_im4.bmp_negfs_id4_im7.bmp,['Im_HughJackman.png', 'Im_RyanGosling.png', 'Im_MattDamon.png', 'Im_BenAffleck.png', 'Im_RobertDowneyJr.png', 'Im_DanielRadcliffe.png', 'Im_RobertPattinson.png', 'Im_BenStiller.png', 'Im_JustinTimberlake.png', 'Im_DanielCraig.png'],diff,1,0.5250887000001967,4,0,
ALPA2202,train,neg,fs,negfs_id8_im20.bmp_negfs_id8_im21.bmp,['Im_HughJackman.png', 'Im_RyanGosling.png', 'Im_MattDamon.png', 'Im_BenAffleck.png', 'Im_RobertDowneyJr.png', 'Im_DanielRadcliffe.png', 'Im_RobertPattinson.png', 'Im_BenStiller.png', 'Im_JustinTimberlake.png', 'Im_DanielCraig.png'],same,1,0.8336294000000635,5,0,
ALPA2202,train,inv,fs,posfs_id10_im1.bmp_posfs_id2_im16.bmp,['Im_HughJackman.png', 'Im_RyanGosling.png', 'Im_MattDamon.png', 'Im_BenAffleck.png', 'Im_RobertDowneyJr.png', 'Im_DanielRadcliffe.png', 'Im_RobertPattinson.png', 'Im_BenStiller.png', 'Im_JustinTimberlake.png', 'Im_DanielCraig.png'],diff,1,0.600087099999655,6,0,
ALPA2202,train,inv,fs,posfs_id1_im24.bmp_posfs_id8_im20.bmp,['Im_HughJackman.png', 'Im_RyanGosling.png', 'Im_MattDamon.png', 'Im_BenAffleck.png', 'Im_RobertDowneyJr.png', 'Im_DanielRadcliffe.png', 'Im_RobertPattinson.png', 'Im_BenStiller.png', 'Im_JustinTimberlake.png', 'Im_DanielCraig.png'],diff,1,0.833363300000201,7,0,
ALPA2202,train,pos,fs,posfs_id14_im24.bmp_posfs_id10_im18.bmp,['Im_HughJackman.png', 'Im_RyanGosling.png', 'Im_MattDamon.png', 'Im_BenAffleck.png', 'Im_RobertDowneyJr.png', 'Im_DanielRadcliffe.png', 'Im_RobertPattinson.png', 'Im_BenStiller.png', 'Im_JustinTimberlake.png', 'Im_DanielCraig.png'],diff,1,0.6500978999993094,8,0,
ALPA2202,train,pos,fs,posfs_id18_im11.bmp_posfs_id20_im12.bmp,['Im_HughJackman.png', 'Im_RyanGosling.png', 'Im_MattDamon.png', 'Im_BenAffleck.png', 'Im_RobertDowneyJr.png', 'Im_DanielRadcliffe.png', 'Im_RobertPattinson.png', 'Im_BenStiller.png', 'Im_JustinTimberlake.png', 'Im_DanielCraig.png'],diff,1,0.4916929999999411,9,0,
ALPA2202,train,neg,fs,negfs_id8_im21.bmp_negfs_id1_im24.bmp,['Im_HughJackman.png', 'Im_RyanGosling.png', 'Im_MattDamon.png', 'Im_BenAffleck.png', 'Im_RobertDowneyJr.png', 'Im_DanielRadcliffe.png', 'Im_RobertPattinson.png', 'Im_BenStiller.png', 'Im_JustinTimberlake.png', 'Im_DanielCraig.png'],diff,1,0.4917965999993612,10,0,
ALPA2202,train,inv,fs,posfs_id5_im20.bmp_posfs_id5_im1.bmp,['Im_HughJackman.png', 'Im_RyanGosling.png', 'Im_MattDamon.png', 'Im_BenAffleck.png', 'Im_RobertDowneyJr.png', 'Im_DanielRadcliffe.png', 'Im_RobertPattinson.png', 'Im_BenStiller.png', 'Im_JustinTimberlake.png', 'Im_DanielCraig.png'],same,1,2.4338066000000254,11,0,
ALPA2202,train,neg,fs,negfs_id4_im15.bmp_negfs_id1_im21.bmp,['Im_HughJackman.png', 'Im_RyanGosling.png', 'Im_MattDamon.png', 'Im_BenAffleck.png', 'Im_RobertDowneyJr.png', 'Im_DanielRadcliffe.png', 'Im_RobertPattinson.png', 'Im_BenStiller.png', 'Im_JustinTimberlake.png', 'Im_DanielCraig.png'],diff,1,2.408379300000888,12,0,
ALPA2202,train,pos,fs,posfs_id19_im8.bmp_posfs_id4_im7.bmp,['Im_HughJackman.png', 'Im_RyanGosling.png', 'Im_MattDamon.png', 'Im_BenAffleck.png', 'Im_RobertDowneyJr.png', 'Im_DanielRadcliffe.png', 'Im_RobertPattinson.png', 'Im_BenStiller.png', 'Im_JustinTimberlake.png', 'Im_DanielCraig.png'],diff,1,0.45838949999961187,13,0,
ALPA2202,train,pos,fs,posfs_id8_im21.bmp_posfs_id2_im3.bmp,['Im_HughJackman.png', 'Im_RyanGosling.png', 'Im_MattDamon.png', 'Im_BenAffleck.png', 'Im_RobertDowneyJr.png', 'Im_DanielRadcliffe.png', 'Im_RobertPattinson.png', 'Im_BenStiller.png', 'Im_JustinTimberlake.png', 'Im_DanielCraig.png'],diff,1,1.3917853000002651,14,0,
ALPA2202,train,inv,fs,posfs_id19_im27.bmp_posfs_id19_im8.bmp,['Im_HughJackman.png', 'Im_RyanGosling.png', 'Im_MattDamon.png', 'Im_BenAffleck.png', 'Im_RobertDowneyJr.png', 'Im_DanielRadcliffe.png', 'Im_RobertPattinson.png', 'Im_BenStiller.png', 'Im_JustinTimberlake.png', 'Im_DanielCraig.png'],same,1,0.6000765999997384,15,0,
ALPA2202,train,neg,fs,negfs_id5_im1.bmp_negfs_id5_im10.bmp,['Im_HughJackman.png', 'Im_RyanGosling.png', 'Im_MattDamon.png', 'Im_BenAffleck.png', 'Im_RobertDowneyJr.png', 'Im_DanielRadcliffe.png', 'Im_RobertPattinson.png', 'Im_BenStiller.png', 'Im_JustinTimberlake.png', 'Im_DanielCraig.png'],same,1,2.042202799999359,16,0,
ALPA2202,train,neg,fs,negfs_id19_im8.bmp_negfs_id19_im27.bmp,['Im_HughJackman.png', 'Im_RyanGosling.png', 'Im_MattDamon.png', 'Im_BenAffleck.png', 'Im_RobertDowneyJr.png', 'Im_DanielRadcliffe.png', 'Im_RobertPattinson.png', 'Im_BenStiller.png', 'Im_JustinTimberlake.png', 'Im_DanielCraig.png'],diff,0,3.8583600999991177,16,0,
ALPA2202,train,pos,fs,posfs_id1_im21.bmp_posfs_id1_im24.bmp,['Im_HughJackman.png', 'Im_RyanGosling.png', 'Im_MattDamon.png', 'Im_BenAffleck.png', 'Im_RobertDowneyJr.png', 'Im_DanielRadcliffe.png', 'Im_RobertPattinson.png', 'Im_BenStiller.png', 'Im_JustinTimberlake.png', 'Im_DanielCraig.png'],same,1,0.9918720999994548,17,0,
ALPA2202,train,neg,fs,negfs_id18_im19.bmp_negfs_id8_im13.bmp,['Im_HughJackman.png', 'Im_RyanGosling.png', 'Im_MattDamon.png', 'Im_BenAffleck.png', 'Im_RobertDowneyJr.png', 'Im_DanielRadcliffe.png', 'Im_RobertPattinson.png', 'Im_BenStiller.png', 'Im_JustinTimberlake.png', 'Im_DanielCraig.png'],diff,1,2.1334265999994386,18,0,
ALPA2202,train,neg,fs,negfs_id18_im18.bmp_negfs_id18_im11.bmp,['Im_HughJackman.png', 'Im_RyanGosling.png', 'Im_MattDamon.png', 'Im_BenAffleck.png', 'Im_RobertDowneyJr.png', 'Im_DanielRadcliffe.png', 'Im_RobertPattinson.png', 'Im_BenStiller.png', 'Im_JustinTimberlake.png', 'Im_DanielCraig.png'],same,1,2.3919021999990946,19,0,
ALPA2202,train,neg,120,neg120_id2_im2.bmp_neg120_id2_im16.bmp,['Im_HughJackman.png', 'Im_RyanGosling.png', 'Im_MattDamon.png', 'Im_BenAffleck.png', 'Im_RobertDowneyJr.png', 'Im_DanielRadcliffe.png', 'Im_RobertPattinson.png', 'Im_BenStiller.png', 'Im_JustinTimberlake.png', 'Im_DanielCraig.png'],same,1,0.8337131000007503,1,0,
ALPA2202,train,neg,0,neg0_id4_im20.bmp_neg0_id8_im13.bmp,['Im_HughJackman.png', 'Im_RyanGosling.png', 'Im_MattDamon.png', 'Im_BenAffleck.png', 'Im_RobertDowneyJr.png', 'Im_DanielRadcliffe.png', 'Im_RobertPattinson.png', 'Im_BenStiller.png', 'Im_JustinTimberlake.png', 'Im_DanielCraig.png'],diff,1,0.5502534999995987,2,0,
ALPA2202,train,neg,30,neg30_id2_im3.bmp_neg30_id2_im2.bmp,['Im_HughJackman.png', 'Im_RyanGosling.png', 'Im_MattDamon.png', 'Im_BenAffleck.png', 'Im_RobertDowneyJr.png', 'Im_DanielRadcliffe.png', 'Im_RobertPattinson.png', 'Im_BenStiller.png', 'Im_JustinTimberlake.png', 'Im_DanielCraig.png'],diff,0,0.8167241999999533,2,0,
ALPA2202,train,neg,90,neg90_id5_im20.bmp_neg90_id5_im10.bmp,['Im_HughJackman.png', 'Im_RyanGosling.png', 'Im_MattDamon.png', 'Im_BenAffleck.png', 'Im_RobertDowneyJr.png', 'Im_DanielRadcliffe.png', 'Im_RobertPattinson.png', 'Im_BenStiller.png', 'Im_JustinTimberlake.png', 'Im_DanielCraig.png'],same,1,0.6999682000005123,3,0,
ALPA2202,train,neg,120,neg120_id2_im2.bmp_neg120_id10_im17.bmp,['Im_HughJackman.png', 'Im_RyanGosling.png', 'Im_MattDamon.png', 'Im_BenAffleck.png', 'Im_RobertDowneyJr.png', 'Im_DanielRadcliffe.png', 'Im_RobertPattinson.png', 'Im_BenStiller.png', 'Im_JustinTimberlake.png', 'Im_DanielCraig.png'],diff,1,0.6920587999993586,4,0,
ALPA2202,train,neg,fs,negfs_id5_im1.bmp_negfs_id4_im15.bmp,['Im_HughJackman.png', 'Im_RyanGosling.png', 'Im_MattDamon.png', 'Im_BenAffleck.png', 'Im_RobertDowneyJr.png', 'Im_DanielRadcliffe.png', 'Im_RobertPattinson.png', 'Im_BenStiller.png', 'Im_JustinTimberlake.png', 'Im_DanielCraig.png'],diff,1,0.5583169999990787,5,0,
ALPA2202,train,neg,fs,negfs_id14_im18.bmp_negfs_id14_im24.bmp,['Im_HughJackman.png', 'Im_RyanGosling.png', 'Im_MattDamon.png', 'Im_BenAffleck.png', 'Im_RobertDowneyJr.png', 'Im_DanielRadcliffe.png', 'Im_RobertPattinson.png', 'Im_BenStiller.png', 'Im_JustinTimberlake.png', 'Im_DanielCraig.png'],same,1,0.4253277000007074,6,0,
ALPA2202,train,neg,150,neg150_id20_im30.bmp_neg150_id4_im20.bmp,['Im_HughJackman.png', 'Im_RyanGosling.png', 'Im_MattDamon.png', 'Im_BenAffleck.png', 'Im_RobertDowneyJr.png', 'Im_DanielRadcliffe.png', 'Im_RobertPattinson.png', 'Im_BenStiller.png', 'Im_JustinTimberlake.png', 'Im_DanielCraig.png'],diff,1,0.6751162000000477,7,0,
ALPA2202,train,neg,30,neg30_id4_im20.bmp_neg30_id4_im15.bmp,['Im_HughJackman.png', 'Im_RyanGosling.png', 'Im_MattDamon.png', 'Im_BenAffleck.png', 'Im_RobertDowneyJr.png', 'Im_DanielRadcliffe.png', 'Im_RobertPattinson.png', 'Im_BenStiller.png', 'Im_JustinTimberlake.png', 'Im_DanielCraig.png'],same,1,0.4167333999994298,8,0,
ALPA2202,train,neg,60,neg60_id2_im3.bmp_neg60_id2_im16.bmp,['Im_HughJackman.png', 'Im_RyanGosling.png', 'Im_MattDamon.png', 'Im_BenAffleck.png', 'Im_RobertDowneyJr.png', 'Im_DanielRadcliffe.png', 'Im_RobertPattinson.png', 'Im_BenStiller.png', 'Im_JustinTimberlake.png', 'Im_DanielCraig.png'],diff,0,3.958437100000083,8,0,
ALPA2202,train,neg,150,neg150_id1_im21.bmp_neg150_id1_im4.bmp,['Im_HughJackman.png', 'Im_RyanGosling.png', 'Im_MattDamon.png', 'Im_BenAffleck.png', 'Im_RobertDowneyJr.png', 'Im_DanielRadcliffe.png', 'Im_RobertPattinson.png', 'Im_BenStiller.png', 'Im_JustinTimberlake.png', 'Im_DanielCraig.png'],diff,0,0.7248519000004308,8,0,
ALPA2202,train,neg,90,neg90_id19_im8.bmp_neg90_id19_im4.bmp,['Im_HughJackman.png', 'Im_RyanGosling.png', 'Im_MattDamon.png', 'Im_BenAffleck.png', 'Im_RobertDowneyJr.png', 'Im_DanielRadcliffe.png', 'Im_RobertPattinson.png', 'Im_BenStiller.png', 'Im_JustinTimberlake.png', 'Im_DanielCraig.png'],diff,0,0.6500759999998991,8,0,
ALPA2202,train,neg,0,neg0_id19_im27.bmp_neg0_id19_im8.bmp,['Im_HughJackman.png', 'Im_RyanGosling.png', 'Im_MattDamon.png', 'Im_BenAffleck.png', 'Im_RobertDowneyJr.png', 'Im_DanielRadcliffe.png', 'Im_RobertPattinson.png', 'Im_BenStiller.png', 'Im_JustinTimberlake.png', 'Im_DanielCraig.png'],same,1,0.4251459999995859,9,0,
ALPA2202,train,neg,60,neg60_id8_im13.bmp_neg60_id4_im20.bmp,['Im_HughJackman.png', 'Im_RyanGosling.png', 'Im_MattDamon.png', 'Im_BenAffleck.png', 'Im_RobertDowneyJr.png', 'Im_DanielRadcliffe.png', 'Im_RobertPattinson.png', 'Im_BenStiller.png', 'Im_JustinTimberlake.png', 'Im_DanielCraig.png'],diff,1,0.9169675999983156,10,0,
ALPA2202,train,inv,30,pos30_id5_im10.bmp_pos30_id18_im18.bmp,['Im_HughJackman.png', 'Im_RyanGosling.png', 'Im_MattDamon.png', 'Im_BenAffleck.png', 'Im_RobertDowneyJr.png', 'Im_DanielRadcliffe.png', 'Im_RobertPattinson.png', 'Im_BenStiller.png', 'Im_JustinTimberlake.png', 'Im_DanielCraig.png'],same,0,4.367443700000877,10,0,
ALPA2202,train,inv,120,pos120_id5_im20.bmp_pos120_id18_im11.bmp,['Im_HughJackman.png', 'Im_RyanGosling.png', 'Im_MattDamon.png', 'Im_BenAffleck.png', 'Im_RobertDowneyJr.png', 'Im_DanielRadcliffe.png', 'Im_RobertPattinson.png', 'Im_BenStiller.png', 'Im_JustinTimberlake.png', 'Im_DanielCraig.png'],diff,1,0.40838199999961944,11,0,
ALPA2202,train,inv,60,pos60_id5_im10.bmp_pos60_id5_im20.bmp,['Im_HughJackman.png', 'Im_RyanGosling.png', 'Im_MattDamon.png', 'Im_BenAffleck.png', 'Im_RobertDowneyJr.png', 'Im_DanielRadcliffe.png', 'Im_RobertPattinson.png', 'Im_BenStiller.png', 'Im_JustinTimberlake.png', 'Im_DanielCraig.png'],same,1,1.1915722000012465,12,0,
ALPA2202,train,inv,fs,posfs_id18_im11.bmp_posfs_id5_im20.bmp,['Im_HughJackman.png', 'Im_RyanGosling.png', 'Im_MattDamon.png', 'Im_BenAffleck.png', 'Im_RobertDowneyJr.png', 'Im_DanielRadcliffe.png', 'Im_RobertPattinson.png', 'Im_BenStiller.png', 'Im_JustinTimberlake.png', 'Im_DanielCraig.png'],diff,1,0.4250362999991921,13,0,
ALPA2202,train,inv,0,pos0_id4_im7.bmp_pos0_id19_im8.bmp,['Im_HughJackman.png', 'Im_RyanGosling.png', 'Im_MattDamon.png', 'Im_BenAffleck.png', 'Im_RobertDowneyJr.png', 'Im_DanielRadcliffe.png', 'Im_RobertPattinson.png', 'Im_BenStiller.png', 'Im_JustinTimberlake.png', 'Im_DanielCraig.png'],diff,1,0.4583691000007093,14,0,
ALPA2202,train,inv,150,pos150_id1_im4.bmp_pos150_id1_im24.bmp,['Im_HughJackman.png', 'Im_RyanGosling.png', 'Im_MattDamon.png', 'Im_BenAffleck.png', 'Im_RobertDowneyJr.png', 'Im_DanielRadcliffe.png', 'Im_RobertPattinson.png', 'Im_BenStiller.png', 'Im_JustinTimberlake.png', 'Im_DanielCraig.png'],same,1,0.425154399999883,15,0,
ALPA2202,train,inv,150,pos150_id2_im16.bmp_pos150_id2_im2.bmp,['Im_HughJackman.png', 'Im_RyanGosling.png', 'Im_MattDamon.png', 'Im_BenAffleck.png', 'Im_RobertDowneyJr.png', 'Im_DanielRadcliffe.png', 'Im_RobertPattinson.png', 'Im_BenStiller.png', 'Im_JustinTimberlake.png', 'Im_DanielCraig.png'],same,1,1.591945999998643,16,0,
ALPA2202,train,inv,0,pos0_id8_im20.bmp_pos0_id8_im21.bmp,['Im_HughJackman.png', 'Im_RyanGosling.png', 'Im_MattDamon.png', 'Im_BenAffleck.png', 'Im_RobertDowneyJr.png', 'Im_DanielRadcliffe.png', 'Im_RobertPattinson.png', 'Im_BenStiller.png', 'Im_JustinTimberlake.png', 'Im_DanielCraig.png'],same,1,0.5167859000011958,17,0,
ALPA2202,train,inv,120,pos120_id20_im3.bmp_pos120_id20_im30.bmp,['Im_HughJackman.png', 'Im_RyanGosling.png', 'Im_MattDamon.png', 'Im_BenAffleck.png', 'Im_RobertDowneyJr.png', 'Im_DanielRadcliffe.png', 'Im_RobertPattinson.png', 'Im_BenStiller.png', 'Im_JustinTimberlake.png', 'Im_DanielCraig.png'],same,1,0.6248943999999028,18,0,
ALPA2202,train,inv,30,pos30_id1_im21.bmp_pos30_id1_im4.bmp,['Im_HughJackman.png', 'Im_RyanGosling.png', 'Im_MattDamon.png', 'Im_BenAffleck.png', 'Im_RobertDowneyJr.png', 'Im_DanielRadcliffe.png', 'Im_RobertPattinson.png', 'Im_BenStiller.png', 'Im_JustinTimberlake.png', 'Im_DanielCraig.png'],same,1,0.7583818000002793,19,0,
ALPA2202,train,inv,90,pos90_id8_im20.bmp_pos90_id8_im21.bmp,['Im_HughJackman.png', 'Im_RyanGosling.png', 'Im_MattDamon.png', 'Im_BenAffleck.png', 'Im_RobertDowneyJr.png', 'Im_DanielRadcliffe.png', 'Im_RobertPattinson.png', 'Im_BenStiller.png', 'Im_JustinTimberlake.png', 'Im_DanielCraig.png'],same,1,0.725348899999517,20,0,
ALPA2202,train,inv,90,pos90_id2_im2.bmp_pos90_id2_im16.bmp,['Im_HughJackman.png', 'Im_RyanGosling.png', 'Im_MattDamon.png', 'Im_BenAffleck.png', 'Im_RobertDowneyJr.png', 'Im_DanielRadcliffe.png', 'Im_RobertPattinson.png', 'Im_BenStiller.png', 'Im_JustinTimberlake.png', 'Im_DanielCraig.png'],same,1,1.3001366999997117,21,0,
ALPA2202,train,inv,fs,posfs_id18_im19.bmp_posfs_id1_im4.bmp,['Im_HughJackman.png', 'Im_RyanGosling.png', 'Im_MattDamon.png', 'Im_BenAffleck.png', 'Im_RobertDowneyJr.png', 'Im_DanielRadcliffe.png', 'Im_RobertPattinson.png', 'Im_BenStiller.png', 'Im_JustinTimberlake.png', 'Im_DanielCraig.png'],diff,1,0.5252739999996265,22,0,
ALPA2202,train,inv,60,pos60_id2_im2.bmp_pos60_id2_im3.bmp,['Im_HughJackman.png', 'Im_RyanGosling.png', 'Im_MattDamon.png', 'Im_BenAffleck.png', 'Im_RobertDowneyJr.png', 'Im_DanielRadcliffe.png', 'Im_RobertPattinson.png', 'Im_BenStiller.png', 'Im_JustinTimberlake.png', 'Im_DanielCraig.png'],same,1,0.45020450000083656,23,0,
ALPA2202,train,pos,120,pos120_id18_im18.bmp_pos120_id18_im11.bmp,['Im_HughJackman.png', 'Im_RyanGosling.png', 'Im_MattDamon.png', 'Im_BenAffleck.png', 'Im_RobertDowneyJr.png', 'Im_DanielRadcliffe.png', 'Im_RobertPattinson.png', 'Im_BenStiller.png', 'Im_JustinTimberlake.png', 'Im_DanielCraig.png'],same,1,0.5918943999986368,24,0,
ALPA2202,train,pos,60,pos60_id5_im10.bmp_pos60_id5_im20.bmp,['Im_HughJackman.png', 'Im_RyanGosling.png', 'Im_MattDamon.png', 'Im_BenAffleck.png', 'Im_RobertDowneyJr.png', 'Im_DanielRadcliffe.png', 'Im_RobertPattinson.png', 'Im_BenStiller.png', 'Im_JustinTimberlake.png', 'Im_DanielCraig.png'],same,1,0.4336052999988169,25,0,
ALPA2202,train,pos,150,pos150_id14_im16.bmp_pos150_id18_im18.bmp,['Im_HughJackman.png', 'Im_RyanGosling.png', 'Im_MattDamon.png', 'Im_BenAffleck.png', 'Im_RobertDowneyJr.png', 'Im_DanielRadcliffe.png', 'Im_RobertPattinson.png', 'Im_BenStiller.png', 'Im_JustinTimberlake.png', 'Im_DanielCraig.png'],diff,1,0.4167061999996804,26,0,
ALPA2202,train,pos,120,pos120_id18_im18.bmp_pos120_id18_im19.bmp,['Im_HughJackman.png', 'Im_RyanGosling.png', 'Im_MattDamon.png', 'Im_BenAffleck.png', 'Im_RobertDowneyJr.png', 'Im_DanielRadcliffe.png', 'Im_RobertPattinson.png', 'Im_BenStiller.png', 'Im_JustinTimberlake.png', 'Im_DanielCraig.png'],same,1,0.45859180000115884,27,0,
ALPA2202,train,pos,30,pos30_id5_im10.bmp_pos30_id5_im1.bmp,['Im_HughJackman.png', 'Im_RyanGosling.png', 'Im_MattDamon.png', 'Im_BenAffleck.png', 'Im_RobertDowneyJr.png', 'Im_DanielRadcliffe.png', 'Im_RobertPattinson.png', 'Im_BenStiller.png', 'Im_JustinTimberlake.png', 'Im_DanielCraig.png'],same,1,0.6418257999994239,28,0,
ALPA2202,train,pos,150,pos150_id10_im17.bmp_pos150_id19_im4.bmp,['Im_HughJackman.png', 'Im_RyanGosling.png', 'Im_MattDamon.png', 'Im_BenAffleck.png', 'Im_RobertDowneyJr.png', 'Im_DanielRadcliffe.png', 'Im_RobertPattinson.png', 'Im_BenStiller.png', 'Im_JustinTimberlake.png', 'Im_DanielCraig.png'],diff,1,0.7082669000010355,29,0,
ALPA2202,train,pos,30,pos30_id8_im20.bmp_pos30_id8_im21.bmp,['Im_HughJackman.png', 'Im_RyanGosling.png', 'Im_MattDamon.png', 'Im_BenAffleck.png', 'Im_RobertDowneyJr.png', 'Im_DanielRadcliffe.png', 'Im_RobertPattinson.png', 'Im_BenStiller.png', 'Im_JustinTimberlake.png', 'Im_DanielCraig.png'],same,1,1.4083977999998751,30,0,
ALPA2202,train,pos,0,pos0_id20_im12.bmp_pos0_id20_im3.bmp,['Im_HughJackman.png', 'Im_RyanGosling.png', 'Im_MattDamon.png', 'Im_BenAffleck.png', 'Im_RobertDowneyJr.png', 'Im_DanielRadcliffe.png', 'Im_RobertPattinson.png', 'Im_BenStiller.png', 'Im_JustinTimberlake.png', 'Im_DanielCraig.png'],same,1,0.458444400001099,31,0,
ALPA2202,train,pos,60,pos60_id5_im20.bmp_pos60_id20_im3.bmp,['Im_HughJackman.png', 'Im_RyanGosling.png', 'Im_MattDamon.png', 'Im_BenAffleck.png', 'Im_RobertDowneyJr.png', 'Im_DanielRadcliffe.png', 'Im_RobertPattinson.png', 'Im_BenStiller.png', 'Im_JustinTimberlake.png', 'Im_DanielCraig.png'],diff,1,1.0416949999998906,32,0,
ALPA2202,train,pos,90,pos90_id5_im20.bmp_pos90_id5_im1.bmp,['Im_HughJackman.png', 'Im_RyanGosling.png', 'Im_MattDamon.png', 'Im_BenAffleck.png', 'Im_RobertDowneyJr.png', 'Im_DanielRadcliffe.png', 'Im_RobertPattinson.png', 'Im_BenStiller.png', 'Im_JustinTimberlake.png', 'Im_DanielCraig.png'],same,1,0.41687129999991157,33,0,
ALPA2202,train,pos,fs,posfs_id4_im20.bmp_posfs_id8_im13.bmp,['Im_HughJackman.png', 'Im_RyanGosling.png', 'Im_MattDamon.png', 'Im_BenAffleck.png', 'Im_RobertDowneyJr.png', 'Im_DanielRadcliffe.png', 'Im_RobertPattinson.png', 'Im_BenStiller.png', 'Im_JustinTimberlake.png', 'Im_DanielCraig.png'],diff,1,0.41655009999885806,34,0,
ALPA2202,train,pos,0,pos0_id4_im7.bmp_pos0_id4_im15.bmp,['Im_HughJackman.png', 'Im_RyanGosling.png', 'Im_MattDamon.png', 'Im_BenAffleck.png', 'Im_RobertDowneyJr.png', 'Im_DanielRadcliffe.png', 'Im_RobertPattinson.png', 'Im_BenStiller.png', 'Im_JustinTimberlake.png', 'Im_DanielCraig.png'],same,1,0.5087225000006583,35,0,
ALPA2202,train,pos,90,pos90_id2_im16.bmp_pos90_id2_im3.bmp,['Im_HughJackman.png', 'Im_RyanGosling.png', 'Im_MattDamon.png', 'Im_BenAffleck.png', 'Im_RobertDowneyJr.png', 'Im_DanielRadcliffe.png', 'Im_RobertPattinson.png', 'Im_BenStiller.png', 'Im_JustinTimberlake.png', 'Im_DanielCraig.png'],same,1,0.542006699999547,36,0,
ALPA2202,train,pos,fs,posfs_id20_im3.bmp_posfs_id5_im20.bmp,['Im_HughJackman.png', 'Im_RyanGosling.png', 'Im_MattDamon.png', 'Im_BenAffleck.png', 'Im_RobertDowneyJr.png', 'Im_DanielRadcliffe.png', 'Im_RobertPattinson.png', 'Im_BenStiller.png', 'Im_JustinTimberlake.png', 'Im_DanielCraig.png'],diff,1,0.5417852999999013,37,0,
ALPA2202,train,neg,0,neg0_id18_im19.bmp_neg0_id8_im13.bmp,['Im_HughJackman.png', 'Im_RyanGosling.png', 'Im_MattDamon.png', 'Im_BenAffleck.png', 'Im_RobertDowneyJr.png', 'Im_DanielRadcliffe.png', 'Im_RobertPattinson.png', 'Im_BenStiller.png', 'Im_JustinTimberlake.png', 'Im_DanielCraig.png'],same,0,3.0085312000010163,0,88.0952380952381,
ALPA2202,train,neg,60,neg60_id19_im8.bmp_neg60_id4_im7.bmp,['Im_HughJackman.png', 'Im_RyanGosling.png', 'Im_MattDamon.png', 'Im_BenAffleck.png', 'Im_RobertDowneyJr.png', 'Im_DanielRadcliffe.png', 'Im_RobertPattinson.png', 'Im_BenStiller.png', 'Im_JustinTimberlake.png', 'Im_DanielCraig.png'],diff,1,0.44167449999986275,1,88.0952380952381,
ALPA2202,train,neg,150,neg150_id19_im4.bmp_neg150_id4_im7.bmp,['Im_HughJackman.png', 'Im_RyanGosling.png', 'Im_MattDamon.png', 'Im_BenAffleck.png', 'Im_RobertDowneyJr.png', 'Im_DanielRadcliffe.png', 'Im_RobertPattinson.png', 'Im_BenStiller.png', 'Im_JustinTimberlake.png', 'Im_DanielCraig.png'],diff,1,0.6414236000000528,2,88.0952380952381,
ALPA2202,train,neg,90,neg90_id1_im4.bmp_neg90_id18_im19.bmp,['Im_HughJackman.png', 'Im_RyanGosling.png', 'Im_MattDamon.png', 'Im_BenAffleck.png', 'Im_RobertDowneyJr.png', 'Im_DanielRadcliffe.png', 'Im_RobertPattinson.png', 'Im_BenStiller.png', 'Im_JustinTimberlake.png', 'Im_DanielCraig.png'],diff,1,2.058457199998884,3,88.0952380952381,
ALPA2202,train,neg,120,neg120_id19_im8.bmp_neg120_id19_im4.bmp,['Im_HughJackman.png', 'Im_RyanGosling.png', 'Im_MattDamon.png', 'Im_BenAffleck.png', 'Im_RobertDowneyJr.png', 'Im_DanielRadcliffe.png', 'Im_RobertPattinson.png', 'Im_BenStiller.png', 'Im_JustinTimberlake.png', 'Im_DanielCraig.png'],same,1,0.6917234999982611,4,88.0952380952381,
ALPA2202,train,neg,fs,negfs_id4_im20.bmp_negfs_id20_im30.bmp,['Im_HughJackman.png', 'Im_RyanGosling.png', 'Im_MattDamon.png', 'Im_BenAffleck.png', 'Im_RobertDowneyJr.png', 'Im_DanielRadcliffe.png', 'Im_RobertPattinson.png', 'Im_BenStiller.png', 'Im_JustinTimberlake.png', 'Im_DanielCraig.png'],diff,1,0.4086791000008816,5,88.0952380952381,
ALPA2202,train,neg,fs,negfs_id5_im20.bmp_negfs_id5_im10.bmp,['Im_HughJackman.png', 'Im_RyanGosling.png', 'Im_MattDamon.png', 'Im_BenAffleck.png', 'Im_RobertDowneyJr.png', 'Im_DanielRadcliffe.png', 'Im_RobertPattinson.png', 'Im_BenStiller.png', 'Im_JustinTimberlake.png', 'Im_DanielCraig.png'],same,1,2.8248708000010083,6,88.0952380952381,
ALPA2202,train,neg,30,neg30_id1_im4.bmp_neg30_id14_im16.bmp,['Im_HughJackman.png', 'Im_RyanGosling.png', 'Im_MattDamon.png', 'Im_BenAffleck.png', 'Im_RobertDowneyJr.png', 'Im_DanielRadcliffe.png', 'Im_RobertPattinson.png', 'Im_BenStiller.png', 'Im_JustinTimberlake.png', 'Im_DanielCraig.png'],same,0,0.5169172999994771,6,88.0952380952381,
ALPA2202,train,neg,150,neg150_id2_im2.bmp_neg150_id2_im3.bmp,['Im_HughJackman.png', 'Im_RyanGosling.png', 'Im_MattDamon.png', 'Im_BenAffleck.png', 'Im_RobertDowneyJr.png', 'Im_DanielRadcliffe.png', 'Im_RobertPattinson.png', 'Im_BenStiller.png', 'Im_JustinTimberlake.png', 'Im_DanielCraig.png'],same,1,0.749886499999775,7,88.0952380952381,
ALPA2202,train,neg,90,neg90_id20_im3.bmp_neg90_id5_im20.bmp,['Im_HughJackman.png', 'Im_RyanGosling.png', 'Im_MattDamon.png', 'Im_BenAffleck.png', 'Im_RobertDowneyJr.png', 'Im_DanielRadcliffe.png', 'Im_RobertPattinson.png', 'Im_BenStiller.png', 'Im_JustinTimberlake.png', 'Im_DanielCraig.png'],diff,1,0.5250140999996802,8,88.0952380952381,
ALPA2202,train,neg,60,neg60_id10_im17.bmp_neg60_id10_im18.bmp,['Im_HughJackman.png', 'Im_RyanGosling.png', 'Im_MattDamon.png', 'Im_BenAffleck.png', 'Im_RobertDowneyJr.png', 'Im_DanielRadcliffe.png', 'Im_RobertPattinson.png', 'Im_BenStiller.png', 'Im_JustinTimberlake.png', 'Im_DanielCraig.png'],same,1,1.7166685000011057,9,88.0952380952381,
ALPA2202,train,neg,0,neg0_id10_im17.bmp_neg0_id10_im1.bmp,['Im_HughJackman.png', 'Im_RyanGosling.png', 'Im_MattDamon.png', 'Im_BenAffleck.png', 'Im_RobertDowneyJr.png', 'Im_DanielRadcliffe.png', 'Im_RobertPattinson.png', 'Im_BenStiller.png', 'Im_JustinTimberlake.png', 'Im_DanielCraig.png'],diff,0,1.008612899999207,9,88.0952380952381,
ALPA2202,train,neg,120,neg120_id18_im11.bmp_neg120_id18_im18.bmp,['Im_HughJackman.png', 'Im_RyanGosling.png', 'Im_MattDamon.png', 'Im_BenAffleck.png', 'Im_RobertDowneyJr.png', 'Im_DanielRadcliffe.png', 'Im_RobertPattinson.png', 'Im_BenStiller.png', 'Im_JustinTimberlake.png', 'Im_DanielCraig.png'],same,1,0.45857580000119924,10,88.0952380952381,
ALPA2202,train,neg,30,neg30_id20_im12.bmp_neg30_id8_im20.bmp,['Im_HughJackman.png', 'Im_RyanGosling.png', 'Im_MattDamon.png', 'Im_BenAffleck.png', 'Im_RobertDowneyJr.png', 'Im_DanielRadcliffe.png', 'Im_RobertPattinson.png', 'Im_BenStiller.png', 'Im_JustinTimberlake.png', 'Im_DanielCraig.png'],diff,1,0.5250486000004457,11,88.0952380952381,
ALPA2202,train,pos,90,pos90_id1_im4.bmp_pos90_id1_im21.bmp,['Im_HughJackman.png', 'Im_RyanGosling.png', 'Im_MattDamon.png', 'Im_BenAffleck.png', 'Im_RobertDowneyJr.png', 'Im_DanielRadcliffe.png', 'Im_RobertPattinson.png', 'Im_BenStiller.png', 'Im_JustinTimberlake.png', 'Im_DanielCraig.png'],same,1,0.6335839000003034,12,88.0952380952381,
ALPA2202,train,pos,fs,posfs_id8_im13.bmp_posfs_id8_im20.bmp,['Im_HughJackman.png', 'Im_RyanGosling.png', 'Im_MattDamon.png', 'Im_BenAffleck.png', 'Im_RobertDowneyJr.png', 'Im_DanielRadcliffe.png', 'Im_RobertPattinson.png', 'Im_BenStiller.png', 'Im_JustinTimberlake.png', 'Im_DanielCraig.png'],same,1,0.41678719999981695,13,88.0952380952381,
ALPA2202,train,pos,30,pos30_id20_im30.bmp_pos30_id10_im18.bmp,['Im_HughJackman.png', 'Im_RyanGosling.png', 'Im_MattDamon.png', 'Im_BenAffleck.png', 'Im_RobertDowneyJr.png', 'Im_DanielRadcliffe.png', 'Im_RobertPattinson.png', 'Im_BenStiller.png', 'Im_JustinTimberlake.png', 'Im_DanielCraig.png'],diff,1,0.416630300000179,14,88.0952380952381,
ALPA2202,train,pos,60,pos60_id14_im18.bmp_pos60_id1_im21.bmp,['Im_HughJackman.png', 'Im_RyanGosling.png', 'Im_MattDamon.png', 'Im_BenAffleck.png', 'Im_RobertDowneyJr.png', 'Im_DanielRadcliffe.png', 'Im_RobertPattinson.png', 'Im_BenStiller.png', 'Im_JustinTimberlake.png', 'Im_DanielCraig.png'],diff,1,2.6915408999993815,15,88.0952380952381,
ALPA2202,train,pos,30,pos30_id4_im15.bmp_pos30_id1_im21.bmp,['Im_HughJackman.png', 'Im_RyanGosling.png', 'Im_MattDamon.png', 'Im_BenAffleck.png', 'Im_RobertDowneyJr.png', 'Im_DanielRadcliffe.png', 'Im_RobertPattinson.png', 'Im_BenStiller.png', 'Im_JustinTimberlake.png', 'Im_DanielCraig.png'],diff,1,0.4247747999997955,16,88.0952380952381,
ALPA2202,train,pos,120,pos120_id10_im1.bmp_pos120_id5_im1.bmp,['Im_HughJackman.png', 'Im_RyanGosling.png', 'Im_MattDamon.png', 'Im_BenAffleck.png', 'Im_RobertDowneyJr.png', 'Im_DanielRadcliffe.png', 'Im_RobertPattinson.png', 'Im_BenStiller.png', 'Im_JustinTimberlake.png', 'Im_DanielCraig.png'],diff,1,1.0002497999994375,17,88.0952380952381,
ALPA2202,train,pos,0,pos0_id18_im11.bmp_pos0_id20_im12.bmp,['Im_HughJackman.png', 'Im_RyanGosling.png', 'Im_MattDamon.png', 'Im_BenAffleck.png', 'Im_RobertDowneyJr.png', 'Im_DanielRadcliffe.png', 'Im_RobertPattinson.png', 'Im_BenStiller.png', 'Im_JustinTimberlake.png', 'Im_DanielCraig.png'],diff,1,0.408570100000361,18,88.0952380952381,
ALPA2202,train,pos,60,pos60_id4_im20.bmp_pos60_id4_im7.bmp,['Im_HughJackman.png', 'Im_RyanGosling.png', 'Im_MattDamon.png', 'Im_BenAffleck.png', 'Im_RobertDowneyJr.png', 'Im_DanielRadcliffe.png', 'Im_RobertPattinson.png', 'Im_BenStiller.png', 'Im_JustinTimberlake.png', 'Im_DanielCraig.png'],same,1,0.42502520000016375,19,88.0952380952381,
ALPA2202,train,pos,150,pos150_id4_im15.bmp_pos150_id5_im1.bmp,['Im_HughJackman.png', 'Im_RyanGosling.png', 'Im_MattDamon.png', 'Im_BenAffleck.png', 'Im_RobertDowneyJr.png', 'Im_DanielRadcliffe.png', 'Im_RobertPattinson.png', 'Im_BenStiller.png', 'Im_JustinTimberlake.png', 'Im_DanielCraig.png'],diff,1,0.4251646999982768,20,88.0952380952381,
ALPA2202,train,pos,120,pos120_id10_im1.bmp_pos120_id10_im18.bmp,['Im_HughJackman.png', 'Im_RyanGosling.png', 'Im_MattDamon.png', 'Im_BenAffleck.png', 'Im_RobertDowneyJr.png', 'Im_DanielRadcliffe.png', 'Im_RobertPattinson.png', 'Im_BenStiller.png', 'Im_JustinTimberlake.png', 'Im_DanielCraig.png'],same,1,0.4751237000000401,21,88.0952380952381,
ALPA2202,train,pos,0,pos0_id14_im18.bmp_pos0_id14_im16.bmp,['Im_HughJackman.png', 'Im_RyanGosling.png', 'Im_MattDamon.png', 'Im_BenAffleck.png', 'Im_RobertDowneyJr.png', 'Im_DanielRadcliffe.png', 'Im_RobertPattinson.png', 'Im_BenStiller.png', 'Im_JustinTimberlake.png', 'Im_DanielCraig.png'],same,1,0.4748840000011114,22,88.0952380952381,
ALPA2202,train,pos,150,pos150_id5_im1.bmp_pos150_id10_im1.bmp,['Im_HughJackman.png', 'Im_RyanGosling.png', 'Im_MattDamon.png', 'Im_BenAffleck.png', 'Im_RobertDowneyJr.png', 'Im_DanielRadcliffe.png', 'Im_RobertPattinson.png', 'Im_BenStiller.png', 'Im_JustinTimberlake.png', 'Im_DanielCraig.png'],diff,1,0.4249627999997756,23,88.0952380952381,
ALPA2202,train,pos,fs,posfs_id14_im16.bmp_posfs_id18_im18.bmp,['Im_HughJackman.png', 'Im_RyanGosling.png', 'Im_MattDamon.png', 'Im_BenAffleck.png', 'Im_RobertDowneyJr.png', 'Im_DanielRadcliffe.png', 'Im_RobertPattinson.png', 'Im_BenStiller.png', 'Im_JustinTimberlake.png', 'Im_DanielCraig.png'],diff,1,0.41655680000076245,24,88.0952380952381,
ALPA2202,train,pos,90,pos90_id5_im10.bmp_pos90_id5_im20.bmp,['Im_HughJackman.png', 'Im_RyanGosling.png', 'Im_MattDamon.png', 'Im_BenAffleck.png', 'Im_RobertDowneyJr.png', 'Im_DanielRadcliffe.png', 'Im_RobertPattinson.png', 'Im_BenStiller.png', 'Im_JustinTimberlake.png', 'Im_DanielCraig.png'],same,1,0.4917088000001968,25,88.0952380952381,
ALPA2202,train,inv,fs,posfs_id1_im24.bmp_posfs_id8_im21.bmp,['Im_HughJackman.png', 'Im_RyanGosling.png', 'Im_MattDamon.png', 'Im_BenAffleck.png', 'Im_RobertDowneyJr.png', 'Im_DanielRadcliffe.png', 'Im_RobertPattinson.png', 'Im_BenStiller.png', 'Im_JustinTimberlake.png', 'Im_DanielCraig.png'],diff,1,0.5334261000007245,26,88.0952380952381,
ALPA2202,train,inv,30,pos30_id4_im7.bmp_pos30_id4_im20.bmp,['Im_HughJackman.png', 'Im_RyanGosling.png', 'Im_MattDamon.png', 'Im_BenAffleck.png', 'Im_RobertDowneyJr.png', 'Im_DanielRadcliffe.png', 'Im_RobertPattinson.png', 'Im_BenStiller.png', 'Im_JustinTimberlake.png', 'Im_DanielCraig.png'],same,1,0.5417207999998936,27,88.0952380952381,
ALPA2202,train,inv,90,pos90_id1_im4.bmp_pos90_id1_im21.bmp,['Im_HughJackman.png', 'Im_RyanGosling.png', 'Im_MattDamon.png', 'Im_BenAffleck.png', 'Im_RobertDowneyJr.png', 'Im_DanielRadcliffe.png', 'Im_RobertPattinson.png', 'Im_BenStiller.png', 'Im_JustinTimberlake.png', 'Im_DanielCraig.png'],same,1,0.4666498999995383,28,88.0952380952381,
ALPA2202,train,inv,150,pos150_id10_im17.bmp_pos150_id10_im18.bmp,['Im_HughJackman.png', 'Im_RyanGosling.png', 'Im_MattDamon.png', 'Im_BenAffleck.png', 'Im_RobertDowneyJr.png', 'Im_DanielRadcliffe.png', 'Im_RobertPattinson.png', 'Im_BenStiller.png', 'Im_JustinTimberlake.png', 'Im_DanielCraig.png'],same,1,0.6665605999987747,29,88.0952380952381,
ALPA2202,train,inv,90,pos90_id18_im19.bmp_pos90_id1_im4.bmp,['Im_HughJackman.png', 'Im_RyanGosling.png', 'Im_MattDamon.png', 'Im_BenAffleck.png', 'Im_RobertDowneyJr.png', 'Im_DanielRadcliffe.png', 'Im_RobertPattinson.png', 'Im_BenStiller.png', 'Im_JustinTimberlake.png', 'Im_DanielCraig.png'],diff,1,0.5502128999996785,30,88.0952380952381,
ALPA2202,train,inv,0,pos0_id1_im21.bmp_pos0_id1_im24.bmp,['Im_HughJackman.png', 'Im_RyanGosling.png', 'Im_MattDamon.png', 'Im_BenAffleck.png', 'Im_RobertDowneyJr.png', 'Im_DanielRadcliffe.png', 'Im_RobertPattinson.png', 'Im_BenStiller.png', 'Im_JustinTimberlake.png', 'Im_DanielCraig.png'],same,1,4.291608000001361,31,88.0952380952381,
ALPA2202,train,inv,60,pos60_id18_im11.bmp_pos60_id20_im12.bmp,['Im_HughJackman.png', 'Im_RyanGosling.png', 'Im_MattDamon.png', 'Im_BenAffleck.png', 'Im_RobertDowneyJr.png', 'Im_DanielRadcliffe.png', 'Im_RobertPattinson.png', 'Im_BenStiller.png', 'Im_JustinTimberlake.png', 'Im_DanielCraig.png'],diff,1,0.5750420999993366,32,88.0952380952381,
ALPA2202,train,inv,120,pos120_id2_im2.bmp_pos120_id10_im17.bmp,['Im_HughJackman.png', 'Im_RyanGosling.png', 'Im_MattDamon.png', 'Im_BenAffleck.png', 'Im_RobertDowneyJr.png', 'Im_DanielRadcliffe.png', 'Im_RobertPattinson.png', 'Im_BenStiller.png', 'Im_JustinTimberlake.png', 'Im_DanielCraig.png'],diff,1,0.6252595000005385,33,88.0952380952381,
ALPA2202,train,inv,0,pos0_id14_im16.bmp_pos0_id14_im18.bmp,['Im_HughJackman.png', 'Im_RyanGosling.png', 'Im_MattDamon.png', 'Im_BenAffleck.png', 'Im_RobertDowneyJr.png', 'Im_DanielRadcliffe.png', 'Im_RobertPattinson.png', 'Im_BenStiller.png', 'Im_JustinTimberlake.png', 'Im_DanielCraig.png'],same,1,0.4167202999997244,34,88.0952380952381,
ALPA2202,train,inv,150,pos150_id10_im18.bmp_pos150_id14_im24.bmp,['Im_HughJackman.png', 'Im_RyanGosling.png', 'Im_MattDamon.png', 'Im_BenAffleck.png', 'Im_RobertDowneyJr.png', 'Im_DanielRadcliffe.png', 'Im_RobertPattinson.png', 'Im_BenStiller.png', 'Im_JustinTimberlake.png', 'Im_DanielCraig.png'],diff,1,0.4167055000016262,35,88.0952380952381,
ALPA2202,train,inv,fs,posfs_id18_im11.bmp_posfs_id18_im18.bmp,['Im_HughJackman.png', 'Im_RyanGosling.png', 'Im_MattDamon.png', 'Im_BenAffleck.png', 'Im_RobertDowneyJr.png', 'Im_DanielRadcliffe.png', 'Im_RobertPattinson.png', 'Im_BenStiller.png', 'Im_JustinTimberlake.png', 'Im_DanielCraig.png'],same,1,0.40825979999863193,36,88.0952380952381,
ALPA2202,train,inv,120,pos120_id1_im21.bmp_pos120_id14_im18.bmp,['Im_HughJackman.png', 'Im_RyanGosling.png', 'Im_MattDamon.png', 'Im_BenAffleck.png', 'Im_RobertDowneyJr.png', 'Im_DanielRadcliffe.png', 'Im_RobertPattinson.png', 'Im_BenStiller.png', 'Im_JustinTimberlake.png', 'Im_DanielCraig.png'],diff,1,0.4750437000002421,37,88.0952380952381,
ALPA2202,train,inv,60,pos60_id14_im16.bmp_pos60_id1_im4.bmp,['Im_HughJackman.png', 'Im_RyanGosling.png', 'Im_MattDamon.png', 'Im_BenAffleck.png', 'Im_RobertDowneyJr.png', 'Im_DanielRadcliffe.png', 'Im_RobertPattinson.png', 'Im_BenStiller.png', 'Im_JustinTimberlake.png', 'Im_DanielCraig.png'],diff,1,0.7669213999997737,38,88.0952380952381,
ALPA2202,train,inv,30,pos30_id8_im20.bmp_pos30_id1_im24.bmp,['Im_HughJackman.png', 'Im_RyanGosling.png', 'Im_MattDamon.png', 'Im_BenAffleck.png', 'Im_RobertDowneyJr.png', 'Im_DanielRadcliffe.png', 'Im_RobertPattinson.png', 'Im_BenStiller.png', 'Im_JustinTimberlake.png', 'Im_DanielCraig.png'],diff,1,0.8666687999993883,39,88.0952380952381,
ALPA2202,0,pos,0,pos0_id10_im18.bmp_pos0_id14_im24.bmp,['Im_HughJackman.png', 'Im_RyanGosling.png', 'Im_MattDamon.png', 'Im_BenAffleck.png', 'Im_RobertDowneyJr.png', 'Im_DanielRadcliffe.png', 'Im_RobertPattinson.png', 'Im_BenStiller.png', 'Im_JustinTimberlake.png', 'Im_DanielCraig.png'],diff,1,0.7002928000001702,1,0,
ALPA2202,0,pos,0,pos0_id5_im20.bmp_pos0_id5_im1.bmp,['Im_HughJackman.png', 'Im_RyanGosling.png', 'Im_MattDamon.png', 'Im_BenAffleck.png', 'Im_RobertDowneyJr.png', 'Im_DanielRadcliffe.png', 'Im_RobertPattinson.png', 'Im_BenStiller.png', 'Im_JustinTimberlake.png', 'Im_DanielCraig.png'],same,1,0.4167638999988412,2,0,
ALPA2202,0,pos,60,pos60_id14_im24.bmp_pos60_id14_im18.bmp,['Im_HughJackman.png', 'Im_RyanGosling.png', 'Im_MattDamon.png', 'Im_BenAffleck.png', 'Im_RobertDowneyJr.png', 'Im_DanielRadcliffe.png', 'Im_RobertPattinson.png', 'Im_BenStiller.png', 'Im_JustinTimberlake.png', 'Im_DanielCraig.png'],same,1,0.4252969999997731,3,0,
ALPA2202,0,pos,30,pos30_id19_im27.bmp_pos30_id19_im4.bmp,['Im_HughJackman.png', 'Im_RyanGosling.png', 'Im_MattDamon.png', 'Im_BenAffleck.png', 'Im_RobertDowneyJr.png', 'Im_DanielRadcliffe.png', 'Im_RobertPattinson.png', 'Im_BenStiller.png', 'Im_JustinTimberlake.png', 'Im_DanielCraig.png'],same,1,0.5845554000006814,4,0,
ALPA2202,0,pos,150,pos150_id20_im30.bmp_pos150_id10_im18.bmp,['Im_HughJackman.png', 'Im_RyanGosling.png', 'Im_MattDamon.png', 'Im_BenAffleck.png', 'Im_RobertDowneyJr.png', 'Im_DanielRadcliffe.png', 'Im_RobertPattinson.png', 'Im_BenStiller.png', 'Im_JustinTimberlake.png', 'Im_DanielCraig.png'],diff,1,0.45843000000058964,5,0,
ALPA2202,0,pos,120,pos120_id5_im1.bmp_pos120_id5_im10.bmp,['Im_HughJackman.png', 'Im_RyanGosling.png', 'Im_MattDamon.png', 'Im_BenAffleck.png', 'Im_RobertDowneyJr.png', 'Im_DanielRadcliffe.png', 'Im_RobertPattinson.png', 'Im_BenStiller.png', 'Im_JustinTimberlake.png', 'Im_DanielCraig.png'],same,1,0.41657370000029914,6,0,
ALPA2202,0,pos,90,pos90_id1_im24.bmp_pos90_id1_im21.bmp,['Im_HughJackman.png', 'Im_RyanGosling.png', 'Im_MattDamon.png', 'Im_BenAffleck.png', 'Im_RobertDowneyJr.png', 'Im_DanielRadcliffe.png', 'Im_RobertPattinson.png', 'Im_BenStiller.png', 'Im_JustinTimberlake.png', 'Im_DanielCraig.png'],same,1,1.783558200000698,7,0,
ALPA2202,0,pos,90,pos90_id4_im7.bmp_pos90_id4_im15.bmp,['Im_HughJackman.png', 'Im_RyanGosling.png', 'Im_MattDamon.png', 'Im_BenAffleck.png', 'Im_RobertDowneyJr.png', 'Im_DanielRadcliffe.png', 'Im_RobertPattinson.png', 'Im_BenStiller.png', 'Im_JustinTimberlake.png', 'Im_DanielCraig.png'],same,1,0.8420390999999654,8,0,
ALPA2202,0,pos,60,pos60_id5_im1.bmp_pos60_id5_im10.bmp,['Im_HughJackman.png', 'Im_RyanGosling.png', 'Im_MattDamon.png', 'Im_BenAffleck.png', 'Im_RobertDowneyJr.png', 'Im_DanielRadcliffe.png', 'Im_RobertPattinson.png', 'Im_BenStiller.png', 'Im_JustinTimberlake.png', 'Im_DanielCraig.png'],same,1,0.9000802000009571,9,0,
ALPA2202,0,pos,30,pos30_id8_im21.bmp_pos30_id1_im24.bmp,['Im_HughJackman.png', 'Im_RyanGosling.png', 'Im_MattDamon.png', 'Im_BenAffleck.png', 'Im_RobertDowneyJr.png', 'Im_DanielRadcliffe.png', 'Im_RobertPattinson.png', 'Im_BenStiller.png', 'Im_JustinTimberlake.png', 'Im_DanielCraig.png'],diff,1,0.6502529999997932,10,0,
ALPA2202,0,pos,120,pos120_id14_im24.bmp_pos120_id2_im16.bmp,['Im_HughJackman.png', 'Im_RyanGosling.png', 'Im_MattDamon.png', 'Im_BenAffleck.png', 'Im_RobertDowneyJr.png', 'Im_DanielRadcliffe.png', 'Im_RobertPattinson.png', 'Im_BenStiller.png', 'Im_JustinTimberlake.png', 'Im_DanielCraig.png'],diff,1,0.4250718000002962,11,0,
ALPA2202,0,pos,fs,posfs_id10_im17.bmp_posfs_id10_im18.bmp,['Im_HughJackman.png', 'Im_RyanGosling.png', 'Im_MattDamon.png', 'Im_BenAffleck.png', 'Im_RobertDowneyJr.png', 'Im_DanielRadcliffe.png', 'Im_RobertPattinson.png', 'Im_BenStiller.png', 'Im_JustinTimberlake.png', 'Im_DanielCraig.png'],same,1,0.4167317000010371,12,0,
ALPA2202,0,pos,150,pos150_id19_im8.bmp_pos150_id4_im7.bmp,['Im_HughJackman.png', 'Im_RyanGosling.png', 'Im_MattDamon.png', 'Im_BenAffleck.png', 'Im_RobertDowneyJr.png', 'Im_DanielRadcliffe.png', 'Im_RobertPattinson.png', 'Im_BenStiller.png', 'Im_JustinTimberlake.png', 'Im_DanielCraig.png'],diff,1,0.424989999999525,13,0,
ALPA2202,0,pos,fs,posfs_id2_im16.bmp_posfs_id2_im2.bmp,['Im_HughJackman.png', 'Im_RyanGosling.png', 'Im_MattDamon.png', 'Im_BenAffleck.png', 'Im_RobertDowneyJr.png', 'Im_DanielRadcliffe.png', 'Im_RobertPattinson.png', 'Im_BenStiller.png', 'Im_JustinTimberlake.png', 'Im_DanielCraig.png'],same,1,1.4918899000003876,14,0,
ALPA2202,1,neg,90,neg90_id20_im12.bmp_neg90_id20_im3.bmp,['Im_HughJackman.png', 'Im_RyanGosling.png', 'Im_MattDamon.png', 'Im_BenAffleck.png', 'Im_RobertDowneyJr.png', 'Im_DanielRadcliffe.png', 'Im_RobertPattinson.png', 'Im_BenStiller.png', 'Im_JustinTimberlake.png', 'Im_DanielCraig.png'],same,1,1.1669783999986976,15,0,
ALPA2202,1,neg,120,neg120_id5_im1.bmp_neg120_id5_im20.bmp,['Im_HughJackman.png', 'Im_RyanGosling.png', 'Im_MattDamon.png', 'Im_BenAffleck.png', 'Im_RobertDowneyJr.png', 'Im_DanielRadcliffe.png', 'Im_RobertPattinson.png', 'Im_BenStiller.png', 'Im_JustinTimberlake.png', 'Im_DanielCraig.png'],same,1,0.5917203000008158,16,0,
ALPA2202,1,neg,0,neg0_id4_im7.bmp_neg0_id4_im20.bmp,['Im_HughJackman.png', 'Im_RyanGosling.png', 'Im_MattDamon.png', 'Im_BenAffleck.png', 'Im_RobertDowneyJr.png', 'Im_DanielRadcliffe.png', 'Im_RobertPattinson.png', 'Im_BenStiller.png', 'Im_JustinTimberlake.png', 'Im_DanielCraig.png'],same,1,0.6667054999998072,17,0,
ALPA2202,1,neg,90,neg90_id14_im24.bmp_neg90_id10_im18.bmp,['Im_HughJackman.png', 'Im_RyanGosling.png', 'Im_MattDamon.png', 'Im_BenAffleck.png', 'Im_RobertDowneyJr.png', 'Im_DanielRadcliffe.png', 'Im_RobertPattinson.png', 'Im_BenStiller.png', 'Im_JustinTimberlake.png', 'Im_DanielCraig.png'],diff,1,0.4253571999997803,18,0,
ALPA2202,1,neg,60,neg60_id14_im16.bmp_neg60_id1_im4.bmp,['Im_HughJackman.png', 'Im_RyanGosling.png', 'Im_MattDamon.png', 'Im_BenAffleck.png', 'Im_RobertDowneyJr.png', 'Im_DanielRadcliffe.png', 'Im_RobertPattinson.png', 'Im_BenStiller.png', 'Im_JustinTimberlake.png', 'Im_DanielCraig.png'],same,0,1.4167495000001509,18,0,
ALPA2202,1,neg,150,neg150_id8_im20.bmp_neg150_id1_im24.bmp,['Im_HughJackman.png', 'Im_RyanGosling.png', 'Im_MattDamon.png', 'Im_BenAffleck.png', 'Im_RobertDowneyJr.png', 'Im_DanielRadcliffe.png', 'Im_RobertPattinson.png', 'Im_BenStiller.png', 'Im_JustinTimberlake.png', 'Im_DanielCraig.png'],diff,1,1.6250122000001284,19,0,
ALPA2202,1,neg,fs,negfs_id2_im16.bmp_negfs_id2_im3.bmp,['Im_HughJackman.png', 'Im_RyanGosling.png', 'Im_MattDamon.png', 'Im_BenAffleck.png', 'Im_RobertDowneyJr.png', 'Im_DanielRadcliffe.png', 'Im_RobertPattinson.png', 'Im_BenStiller.png', 'Im_JustinTimberlake.png', 'Im_DanielCraig.png'],same,1,0.4248673999991297,20,0,
ALPA2202,1,neg,60,neg60_id4_im7.bmp_neg60_id4_im15.bmp,['Im_HughJackman.png', 'Im_RyanGosling.png', 'Im_MattDamon.png', 'Im_BenAffleck.png', 'Im_RobertDowneyJr.png', 'Im_DanielRadcliffe.png', 'Im_RobertPattinson.png', 'Im_BenStiller.png', 'Im_JustinTimberlake.png', 'Im_DanielCraig.png'],same,1,0.416748199999347,21,0,
ALPA2202,1,neg,150,neg150_id1_im4.bmp_neg150_id18_im19.bmp,['Im_HughJackman.png', 'Im_RyanGosling.png', 'Im_MattDamon.png', 'Im_BenAffleck.png', 'Im_RobertDowneyJr.png', 'Im_DanielRadcliffe.png', 'Im_RobertPattinson.png', 'Im_BenStiller.png', 'Im_JustinTimberlake.png', 'Im_DanielCraig.png'],same,0,0.6582925000002433,21,0,
ALPA2202,1,neg,30,neg30_id2_im2.bmp_neg30_id19_im8.bmp,['Im_HughJackman.png', 'Im_RyanGosling.png', 'Im_MattDamon.png', 'Im_BenAffleck.png', 'Im_RobertDowneyJr.png', 'Im_DanielRadcliffe.png', 'Im_RobertPattinson.png', 'Im_BenStiller.png', 'Im_JustinTimberlake.png', 'Im_DanielCraig.png'],diff,1,0.4167612999990524,22,0,
ALPA2202,1,neg,fs,negfs_id20_im12.bmp_negfs_id18_im11.bmp,['Im_HughJackman.png', 'Im_RyanGosling.png', 'Im_MattDamon.png', 'Im_BenAffleck.png', 'Im_RobertDowneyJr.png', 'Im_DanielRadcliffe.png', 'Im_RobertPattinson.png', 'Im_BenStiller.png', 'Im_JustinTimberlake.png', 'Im_DanielCraig.png'],diff,1,0.4251387000003888,23,0,
ALPA2202,1,neg,30,neg30_id20_im3.bmp_neg30_id20_im12.bmp,['Im_HughJackman.png', 'Im_RyanGosling.png', 'Im_MattDamon.png', 'Im_BenAffleck.png', 'Im_RobertDowneyJr.png', 'Im_DanielRadcliffe.png', 'Im_RobertPattinson.png', 'Im_BenStiller.png', 'Im_JustinTimberlake.png', 'Im_DanielCraig.png'],same,1,0.8087143000011565,24,0,
ALPA2202,1,neg,0,neg0_id19_im4.bmp_neg0_id19_im8.bmp,['Im_HughJackman.png', 'Im_RyanGosling.png', 'Im_MattDamon.png', 'Im_BenAffleck.png', 'Im_RobertDowneyJr.png', 'Im_DanielRadcliffe.png', 'Im_RobertPattinson.png', 'Im_BenStiller.png', 'Im_JustinTimberlake.png', 'Im_DanielCraig.png'],same,1,0.7337153000007675,25,0,
ALPA2202,1,neg,120,neg120_id1_im4.bmp_neg120_id1_im24.bmp,['Im_HughJackman.png', 'Im_RyanGosling.png', 'Im_MattDamon.png', 'Im_BenAffleck.png', 'Im_RobertDowneyJr.png', 'Im_DanielRadcliffe.png', 'Im_RobertPattinson.png', 'Im_BenStiller.png', 'Im_JustinTimberlake.png', 'Im_DanielCraig.png'],diff,0,0.416672400000607,25,0,
ALPA2202,2,inv,120,pos120_id2_im3.bmp_pos120_id2_im2.bmp,['Im_HughJackman.png', 'Im_RyanGosling.png', 'Im_MattDamon.png', 'Im_BenAffleck.png', 'Im_RobertDowneyJr.png', 'Im_DanielRadcliffe.png', 'Im_RobertPattinson.png', 'Im_BenStiller.png', 'Im_JustinTimberlake.png', 'Im_DanielCraig.png'],diff,0,1.116970200000651,25,0,
ALPA2202,2,inv,150,pos150_id18_im19.bmp_pos150_id1_im4.bmp,['Im_HughJackman.png', 'Im_RyanGosling.png', 'Im_MattDamon.png', 'Im_BenAffleck.png', 'Im_RobertDowneyJr.png', 'Im_DanielRadcliffe.png', 'Im_RobertPattinson.png', 'Im_BenStiller.png', 'Im_JustinTimberlake.png', 'Im_DanielCraig.png'],same,0,0.40824029999930644,25,0,
ALPA2202,2,inv,90,pos90_id14_im24.bmp_pos90_id14_im18.bmp,['Im_HughJackman.png', 'Im_RyanGosling.png', 'Im_MattDamon.png', 'Im_BenAffleck.png', 'Im_RobertDowneyJr.png', 'Im_DanielRadcliffe.png', 'Im_RobertPattinson.png', 'Im_BenStiller.png', 'Im_JustinTimberlake.png', 'Im_DanielCraig.png'],same,1,0.4250718000002962,26,0,
ALPA2202,2,inv,30,pos30_id1_im4.bmp_pos30_id18_im19.bmp,['Im_HughJackman.png', 'Im_RyanGosling.png', 'Im_MattDamon.png', 'Im_BenAffleck.png', 'Im_RobertDowneyJr.png', 'Im_DanielRadcliffe.png', 'Im_RobertPattinson.png', 'Im_BenStiller.png', 'Im_JustinTimberlake.png', 'Im_DanielCraig.png'],same,0,1.100335700000869,26,0,
ALPA2202,2,inv,0,pos0_id20_im12.bmp_pos0_id20_im30.bmp,['Im_HughJackman.png', 'Im_RyanGosling.png', 'Im_MattDamon.png', 'Im_BenAffleck.png', 'Im_RobertDowneyJr.png', 'Im_DanielRadcliffe.png', 'Im_RobertPattinson.png', 'Im_BenStiller.png', 'Im_JustinTimberlake.png', 'Im_DanielCraig.png'],same,1,0.4333826999991288,27,0,
ALPA2202,2,inv,60,pos60_id4_im15.bmp_pos60_id5_im1.bmp,['Im_HughJackman.png', 'Im_RyanGosling.png', 'Im_MattDamon.png', 'Im_BenAffleck.png', 'Im_RobertDowneyJr.png', 'Im_DanielRadcliffe.png', 'Im_RobertPattinson.png', 'Im_BenStiller.png', 'Im_JustinTimberlake.png', 'Im_DanielCraig.png'],diff,1,0.4249634999996488,28,0,
ALPA2202,2,inv,60,pos60_id14_im24.bmp_pos60_id14_im16.bmp,['Im_HughJackman.png', 'Im_RyanGosling.png', 'Im_MattDamon.png', 'Im_BenAffleck.png', 'Im_RobertDowneyJr.png', 'Im_DanielRadcliffe.png', 'Im_RobertPattinson.png', 'Im_BenStiller.png', 'Im_JustinTimberlake.png', 'Im_DanielCraig.png'],diff,0,0.4248843000004854,28,0,
ALPA2202,2,inv,90,pos90_id8_im20.bmp_pos90_id1_im24.bmp,['Im_HughJackman.png', 'Im_RyanGosling.png', 'Im_MattDamon.png', 'Im_BenAffleck.png', 'Im_RobertDowneyJr.png', 'Im_DanielRadcliffe.png', 'Im_RobertPattinson.png', 'Im_BenStiller.png', 'Im_JustinTimberlake.png', 'Im_DanielCraig.png'],same,0,1.041757700000744,28,0,
ALPA2202,2,inv,fs,posfs_id14_im18.bmp_posfs_id1_im21.bmp,['Im_HughJackman.png', 'Im_RyanGosling.png', 'Im_MattDamon.png', 'Im_BenAffleck.png', 'Im_RobertDowneyJr.png', 'Im_DanielRadcliffe.png', 'Im_RobertPattinson.png', 'Im_BenStiller.png', 'Im_JustinTimberlake.png', 'Im_DanielCraig.png'],diff,1,0.44192759999896225,29,0,
ALPA2202,2,inv,30,pos30_id5_im10.bmp_pos30_id20_im3.bmp,['Im_HughJackman.png', 'Im_RyanGosling.png', 'Im_MattDamon.png', 'Im_BenAffleck.png', 'Im_RobertDowneyJr.png', 'Im_DanielRadcliffe.png', 'Im_RobertPattinson.png', 'Im_BenStiller.png', 'Im_JustinTimberlake.png', 'Im_DanielCraig.png'],diff,1,0.48320930000045337,30,0,
ALPA2202,2,inv,150,pos150_id18_im11.bmp_pos150_id20_im12.bmp,['Im_HughJackman.png', 'Im_RyanGosling.png', 'Im_MattDamon.png', 'Im_BenAffleck.png', 'Im_RobertDowneyJr.png', 'Im_DanielRadcliffe.png', 'Im_RobertPattinson.png', 'Im_BenStiller.png', 'Im_JustinTimberlake.png', 'Im_DanielCraig.png'],diff,1,1.7917204000004858,31,0,
ALPA2202,2,inv,120,pos120_id10_im1.bmp_pos120_id2_im16.bmp,['Im_HughJackman.png', 'Im_RyanGosling.png', 'Im_MattDamon.png', 'Im_BenAffleck.png', 'Im_RobertDowneyJr.png', 'Im_DanielRadcliffe.png', 'Im_RobertPattinson.png', 'Im_BenStiller.png', 'Im_JustinTimberlake.png', 'Im_DanielCraig.png'],diff,1,0.45030229999974836,32,0,
ALPA2202,2,inv,0,pos0_id10_im1.bmp_pos0_id5_im1.bmp,['Im_HughJackman.png', 'Im_RyanGosling.png', 'Im_MattDamon.png', 'Im_BenAffleck.png', 'Im_RobertDowneyJr.png', 'Im_DanielRadcliffe.png', 'Im_RobertPattinson.png', 'Im_BenStiller.png', 'Im_JustinTimberlake.png', 'Im_DanielCraig.png'],diff,1,0.4166946999994252,33,0,
ALPA2202,2,inv,fs,posfs_id20_im12.bmp_posfs_id20_im3.bmp,['Im_HughJackman.png', 'Im_RyanGosling.png', 'Im_MattDamon.png', 'Im_BenAffleck.png', 'Im_RobertDowneyJr.png', 'Im_DanielRadcliffe.png', 'Im_RobertPattinson.png', 'Im_BenStiller.png', 'Im_JustinTimberlake.png', 'Im_DanielCraig.png'],same,1,0.4167178999996395,34,0,
ALPA2202,3,neg,30,neg30_id4_im20.bmp_neg30_id20_im30.bmp,['Im_HughJackman.png', 'Im_RyanGosling.png', 'Im_MattDamon.png', 'Im_BenAffleck.png', 'Im_RobertDowneyJr.png', 'Im_DanielRadcliffe.png', 'Im_RobertPattinson.png', 'Im_BenStiller.png', 'Im_JustinTimberlake.png', 'Im_DanielCraig.png'],diff,1,3.7755168999992748,1,80.95238095238095,
ALPA2202,3,neg,90,neg90_id20_im12.bmp_neg90_id8_im20.bmp,['Im_HughJackman.png', 'Im_RyanGosling.png', 'Im_MattDamon.png', 'Im_BenAffleck.png', 'Im_RobertDowneyJr.png', 'Im_DanielRadcliffe.png', 'Im_RobertPattinson.png', 'Im_BenStiller.png', 'Im_JustinTimberlake.png', 'Im_DanielCraig.png'],diff,1,0.4167403999999806,2,80.95238095238095,
ALPA2202,3,neg,30,neg30_id5_im20.bmp_neg30_id5_im10.bmp,['Im_HughJackman.png', 'Im_RyanGosling.png', 'Im_MattDamon.png', 'Im_BenAffleck.png', 'Im_RobertDowneyJr.png', 'Im_DanielRadcliffe.png', 'Im_RobertPattinson.png', 'Im_BenStiller.png', 'Im_JustinTimberlake.png', 'Im_DanielCraig.png'],same,1,0.45853119999992487,3,80.95238095238095,
ALPA2202,3,neg,120,neg120_id2_im2.bmp_neg120_id19_im8.bmp,['Im_HughJackman.png', 'Im_RyanGosling.png', 'Im_MattDamon.png', 'Im_BenAffleck.png', 'Im_RobertDowneyJr.png', 'Im_DanielRadcliffe.png', 'Im_RobertPattinson.png', 'Im_BenStiller.png', 'Im_JustinTimberlake.png', 'Im_DanielCraig.png'],diff,1,0.41685320000033244,4,80.95238095238095,
ALPA2202,3,neg,150,neg150_id8_im13.bmp_neg150_id18_im19.bmp,['Im_HughJackman.png', 'Im_RyanGosling.png', 'Im_MattDamon.png', 'Im_BenAffleck.png', 'Im_RobertDowneyJr.png', 'Im_DanielRadcliffe.png', 'Im_RobertPattinson.png', 'Im_BenStiller.png', 'Im_JustinTimberlake.png', 'Im_DanielCraig.png'],diff,1,3.166714700000739,5,80.95238095238095,
ALPA2202,3,neg,90,neg90_id8_im21.bmp_neg90_id8_im20.bmp,['Im_HughJackman.png', 'Im_RyanGosling.png', 'Im_MattDamon.png', 'Im_BenAffleck.png', 'Im_RobertDowneyJr.png', 'Im_DanielRadcliffe.png', 'Im_RobertPattinson.png', 'Im_BenStiller.png', 'Im_JustinTimberlake.png', 'Im_DanielCraig.png'],same,1,0.41673810000065714,6,80.95238095238095,
ALPA2202,3,neg,60,neg60_id20_im12.bmp_neg60_id18_im11.bmp,['Im_HughJackman.png', 'Im_RyanGosling.png', 'Im_MattDamon.png', 'Im_BenAffleck.png', 'Im_RobertDowneyJr.png', 'Im_DanielRadcliffe.png', 'Im_RobertPattinson.png', 'Im_BenStiller.png', 'Im_JustinTimberlake.png', 'Im_DanielCraig.png'],diff,1,0.5585088999996515,7,80.95238095238095,
ALPA2202,3,neg,120,neg120_id10_im1.bmp_neg120_id10_im17.bmp,['Im_HughJackman.png', 'Im_RyanGosling.png', 'Im_MattDamon.png', 'Im_BenAffleck.png', 'Im_RobertDowneyJr.png', 'Im_DanielRadcliffe.png', 'Im_RobertPattinson.png', 'Im_BenStiller.png', 'Im_JustinTimberlake.png', 'Im_DanielCraig.png'],same,1,0.42521169999963604,8,80.95238095238095,
ALPA2202,3,neg,0,neg0_id10_im18.bmp_neg0_id10_im1.bmp,['Im_HughJackman.png', 'Im_RyanGosling.png', 'Im_MattDamon.png', 'Im_BenAffleck.png', 'Im_RobertDowneyJr.png', 'Im_DanielRadcliffe.png', 'Im_RobertPattinson.png', 'Im_BenStiller.png', 'Im_JustinTimberlake.png', 'Im_DanielCraig.png'],same,1,0.41675670000040554,9,80.95238095238095,
ALPA2202,3,neg,fs,negfs_id8_im21.bmp_negfs_id8_im20.bmp,['Im_HughJackman.png', 'Im_RyanGosling.png', 'Im_MattDamon.png', 'Im_BenAffleck.png', 'Im_RobertDowneyJr.png', 'Im_DanielRadcliffe.png', 'Im_RobertPattinson.png', 'Im_BenStiller.png', 'Im_JustinTimberlake.png', 'Im_DanielCraig.png'],same,1,0.45829740000044694,10,80.95238095238095,
ALPA2202,3,neg,fs,negfs_id8_im21.bmp_negfs_id2_im3.bmp,['Im_HughJackman.png', 'Im_RyanGosling.png', 'Im_MattDamon.png', 'Im_BenAffleck.png', 'Im_RobertDowneyJr.png', 'Im_DanielRadcliffe.png', 'Im_RobertPattinson.png', 'Im_BenStiller.png', 'Im_JustinTimberlake.png', 'Im_DanielCraig.png'],diff,1,0.7084586000000854,11,80.95238095238095,
ALPA2202,3,neg,60,neg60_id19_im27.bmp_neg60_id14_im18.bmp,['Im_HughJackman.png', 'Im_RyanGosling.png', 'Im_MattDamon.png', 'Im_BenAffleck.png', 'Im_RobertDowneyJr.png', 'Im_DanielRadcliffe.png', 'Im_RobertPattinson.png', 'Im_BenStiller.png', 'Im_JustinTimberlake.png', 'Im_DanielCraig.png'],diff,1,0.4918518000013137,12,80.95238095238095,
ALPA2202,3,neg,150,neg150_id2_im3.bmp_neg150_id19_im27.bmp,['Im_HughJackman.png', 'Im_RyanGosling.png', 'Im_MattDamon.png', 'Im_BenAffleck.png', 'Im_RobertDowneyJr.png', 'Im_DanielRadcliffe.png', 'Im_RobertPattinson.png', 'Im_BenStiller.png', 'Im_JustinTimberlake.png', 'Im_DanielCraig.png'],same,0,1.983396300000095,12,80.95238095238095,
ALPA2202,3,neg,0,neg0_id20_im3.bmp_neg0_id20_im12.bmp,['Im_HughJackman.png', 'Im_RyanGosling.png', 'Im_MattDamon.png', 'Im_BenAffleck.png', 'Im_RobertDowneyJr.png', 'Im_DanielRadcliffe.png', 'Im_RobertPattinson.png', 'Im_BenStiller.png', 'Im_JustinTimberlake.png', 'Im_DanielCraig.png'],diff,0,1.160606800000096,12,80.95238095238095,
ALPA2202,4,pos,120,pos120_id2_im2.bmp_pos120_id10_im17.bmp,['Im_HughJackman.png', 'Im_RyanGosling.png', 'Im_MattDamon.png', 'Im_BenAffleck.png', 'Im_RobertDowneyJr.png', 'Im_DanielRadcliffe.png', 'Im_RobertPattinson.png', 'Im_BenStiller.png', 'Im_JustinTimberlake.png', 'Im_DanielCraig.png'],diff,1,0.4083715000015218,13,80.95238095238095,
ALPA2202,4,pos,90,pos90_id2_im3.bmp_pos90_id19_im27.bmp,['Im_HughJackman.png', 'Im_RyanGosling.png', 'Im_MattDamon.png', 'Im_BenAffleck.png', 'Im_RobertDowneyJr.png', 'Im_DanielRadcliffe.png', 'Im_RobertPattinson.png', 'Im_BenStiller.png', 'Im_JustinTimberlake.png', 'Im_DanielCraig.png'],diff,1,1.5420525000008638,14,80.95238095238095,
ALPA2202,4,pos,0,pos0_id2_im2.bmp_pos0_id19_im8.bmp,['Im_HughJackman.png', 'Im_RyanGosling.png', 'Im_MattDamon.png', 'Im_BenAffleck.png', 'Im_RobertDowneyJr.png', 'Im_DanielRadcliffe.png', 'Im_RobertPattinson.png', 'Im_BenStiller.png', 'Im_JustinTimberlake.png', 'Im_DanielCraig.png'],diff,1,0.45033609999882174,15,80.95238095238095,
ALPA2202,4,pos,120,pos120_id2_im3.bmp_pos120_id8_im21.bmp,['Im_HughJackman.png', 'Im_RyanGosling.png', 'Im_MattDamon.png', 'Im_BenAffleck.png', 'Im_RobertDowneyJr.png', 'Im_DanielRadcliffe.png', 'Im_RobertPattinson.png', 'Im_BenStiller.png', 'Im_JustinTimberlake.png', 'Im_DanielCraig.png'],diff,1,0.4251127000006818,16,80.95238095238095,
ALPA2202,4,pos,60,pos60_id20_im3.bmp_pos60_id20_im12.bmp,['Im_HughJackman.png', 'Im_RyanGosling.png', 'Im_MattDamon.png', 'Im_BenAffleck.png', 'Im_RobertDowneyJr.png', 'Im_DanielRadcliffe.png', 'Im_RobertPattinson.png', 'Im_BenStiller.png', 'Im_JustinTimberlake.png', 'Im_DanielCraig.png'],same,1,0.4166652999992948,17,80.95238095238095,
ALPA2202,4,pos,150,pos150_id8_im13.bmp_pos150_id4_im20.bmp,['Im_HughJackman.png', 'Im_RyanGosling.png', 'Im_MattDamon.png', 'Im_BenAffleck.png', 'Im_RobertDowneyJr.png', 'Im_DanielRadcliffe.png', 'Im_RobertPattinson.png', 'Im_BenStiller.png', 'Im_JustinTimberlake.png', 'Im_DanielCraig.png'],diff,1,0.4085717999987537,18,80.95238095238095,
ALPA2202,4,pos,fs,posfs_id10_im1.bmp_posfs_id10_im17.bmp,['Im_HughJackman.png', 'Im_RyanGosling.png', 'Im_MattDamon.png', 'Im_BenAffleck.png', 'Im_RobertDowneyJr.png', 'Im_DanielRadcliffe.png', 'Im_RobertPattinson.png', 'Im_BenStiller.png', 'Im_JustinTimberlake.png', 'Im_DanielCraig.png'],same,1,0.433358500000395,19,80.95238095238095,
ALPA2202,4,pos,150,pos150_id4_im20.bmp_pos150_id20_im30.bmp,['Im_HughJackman.png', 'Im_RyanGosling.png', 'Im_MattDamon.png', 'Im_BenAffleck.png', 'Im_RobertDowneyJr.png', 'Im_DanielRadcliffe.png', 'Im_RobertPattinson.png', 'Im_BenStiller.png', 'Im_JustinTimberlake.png', 'Im_DanielCraig.png'],diff,1,0.42508529999940947,20,80.95238095238095,
ALPA2202,4,pos,90,pos90_id14_im16.bmp_pos90_id18_im18.bmp,['Im_HughJackman.png', 'Im_RyanGosling.png', 'Im_MattDamon.png', 'Im_BenAffleck.png', 'Im_RobertDowneyJr.png', 'Im_DanielRadcliffe.png', 'Im_RobertPattinson.png', 'Im_BenStiller.png', 'Im_JustinTimberlake.png', 'Im_DanielCraig.png'],diff,1,0.4168604000005871,21,80.95238095238095,
ALPA2202,4,pos,30,pos30_id2_im3.bmp_pos30_id2_im2.bmp,['Im_HughJackman.png', 'Im_RyanGosling.png', 'Im_MattDamon.png', 'Im_BenAffleck.png', 'Im_RobertDowneyJr.png', 'Im_DanielRadcliffe.png', 'Im_RobertPattinson.png', 'Im_BenStiller.png', 'Im_JustinTimberlake.png', 'Im_DanielCraig.png'],same,1,0.42505589999927906,22,80.95238095238095,
ALPA2202,4,pos,fs,posfs_id1_im24.bmp_posfs_id8_im21.bmp,['Im_HughJackman.png', 'Im_RyanGosling.png', 'Im_MattDamon.png', 'Im_BenAffleck.png', 'Im_RobertDowneyJr.png', 'Im_DanielRadcliffe.png', 'Im_RobertPattinson.png', 'Im_BenStiller.png', 'Im_JustinTimberlake.png', 'Im_DanielCraig.png'],diff,1,0.41689170000063314,23,80.95238095238095,
ALPA2202,4,pos,60,pos60_id14_im16.bmp_pos60_id1_im4.bmp,['Im_HughJackman.png', 'Im_RyanGosling.png', 'Im_MattDamon.png', 'Im_BenAffleck.png', 'Im_RobertDowneyJr.png', 'Im_DanielRadcliffe.png', 'Im_RobertPattinson.png', 'Im_BenStiller.png', 'Im_JustinTimberlake.png', 'Im_DanielCraig.png'],diff,1,0.4166659000002255,24,80.95238095238095,
ALPA2202,4,pos,0,pos0_id8_im20.bmp_pos0_id8_im21.bmp,['Im_HughJackman.png', 'Im_RyanGosling.png', 'Im_MattDamon.png', 'Im_BenAffleck.png', 'Im_RobertDowneyJr.png', 'Im_DanielRadcliffe.png', 'Im_RobertPattinson.png', 'Im_BenStiller.png', 'Im_JustinTimberlake.png', 'Im_DanielCraig.png'],same,1,0.41676600000027975,25,80.95238095238095,
ALPA2202,4,pos,30,pos30_id14_im18.bmp_pos30_id14_im16.bmp,['Im_HughJackman.png', 'Im_RyanGosling.png', 'Im_MattDamon.png', 'Im_BenAffleck.png', 'Im_RobertDowneyJr.png', 'Im_DanielRadcliffe.png', 'Im_RobertPattinson.png', 'Im_BenStiller.png', 'Im_JustinTimberlake.png', 'Im_DanielCraig.png'],same,1,0.5750076000003901,26,80.95238095238095,
ALPA2202,5,inv,150,pos150_id4_im15.bmp_pos150_id4_im7.bmp,['Im_HughJackman.png', 'Im_RyanGosling.png', 'Im_MattDamon.png', 'Im_BenAffleck.png', 'Im_RobertDowneyJr.png', 'Im_DanielRadcliffe.png', 'Im_RobertPattinson.png', 'Im_BenStiller.png', 'Im_JustinTimberlake.png', 'Im_DanielCraig.png'],same,1,0.4167323000001488,27,80.95238095238095,
ALPA2202,5,inv,120,pos120_id2_im16.bmp_pos120_id14_im24.bmp,['Im_HughJackman.png', 'Im_RyanGosling.png', 'Im_MattDamon.png', 'Im_BenAffleck.png', 'Im_RobertDowneyJr.png', 'Im_DanielRadcliffe.png', 'Im_RobertPattinson.png', 'Im_BenStiller.png', 'Im_JustinTimberlake.png', 'Im_DanielCraig.png'],diff,1,0.7750648999990517,28,80.95238095238095,
ALPA2202,5,inv,30,pos30_id2_im3.bmp_pos30_id2_im2.bmp,['Im_HughJackman.png', 'Im_RyanGosling.png', 'Im_MattDamon.png', 'Im_BenAffleck.png', 'Im_RobertDowneyJr.png', 'Im_DanielRadcliffe.png', 'Im_RobertPattinson.png', 'Im_BenStiller.png', 'Im_JustinTimberlake.png', 'Im_DanielCraig.png'],same,1,0.5501466999994591,29,80.95238095238095,
ALPA2202,5,inv,0,pos0_id14_im18.bmp_pos0_id19_im27.bmp,['Im_HughJackman.png', 'Im_RyanGosling.png', 'Im_MattDamon.png', 'Im_BenAffleck.png', 'Im_RobertDowneyJr.png', 'Im_DanielRadcliffe.png', 'Im_RobertPattinson.png', 'Im_BenStiller.png', 'Im_JustinTimberlake.png', 'Im_DanielCraig.png'],same,0,0.9750895000015589,29,80.95238095238095,
ALPA2202,5,inv,60,pos60_id10_im17.bmp_pos60_id10_im18.bmp,['Im_HughJackman.png', 'Im_RyanGosling.png', 'Im_MattDamon.png', 'Im_BenAffleck.png', 'Im_RobertDowneyJr.png', 'Im_DanielRadcliffe.png', 'Im_RobertPattinson.png', 'Im_BenStiller.png', 'Im_JustinTimberlake.png', 'Im_DanielCraig.png'],same,1,0.883487499999319,30,80.95238095238095,
ALPA2202,5,inv,90,pos90_id2_im2.bmp_pos90_id10_im17.bmp,['Im_HughJackman.png', 'Im_RyanGosling.png', 'Im_MattDamon.png', 'Im_BenAffleck.png', 'Im_RobertDowneyJr.png', 'Im_DanielRadcliffe.png', 'Im_RobertPattinson.png', 'Im_BenStiller.png', 'Im_JustinTimberlake.png', 'Im_DanielCraig.png'],diff,1,0.42508380000072066,31,80.95238095238095,
ALPA2202,5,inv,0,pos0_id4_im7.bmp_pos0_id19_im4.bmp,['Im_HughJackman.png', 'Im_RyanGosling.png', 'Im_MattDamon.png', 'Im_BenAffleck.png', 'Im_RobertDowneyJr.png', 'Im_DanielRadcliffe.png', 'Im_RobertPattinson.png', 'Im_BenStiller.png', 'Im_JustinTimberlake.png', 'Im_DanielCraig.png'],diff,1,0.4749262000004819,32,80.95238095238095,
ALPA2202,5,inv,fs,posfs_id5_im1.bmp_posfs_id4_im15.bmp,['Im_HughJackman.png', 'Im_RyanGosling.png', 'Im_MattDamon.png', 'Im_BenAffleck.png', 'Im_RobertDowneyJr.png', 'Im_DanielRadcliffe.png', 'Im_RobertPattinson.png', 'Im_BenStiller.png', 'Im_JustinTimberlake.png', 'Im_DanielCraig.png'],diff,1,0.4167414999992616,33,80.95238095238095,
ALPA2202,5,inv,30,pos30_id5_im20.bmp_pos30_id18_im11.bmp,['Im_HughJackman.png', 'Im_RyanGosling.png', 'Im_MattDamon.png', 'Im_BenAffleck.png', 'Im_RobertDowneyJr.png', 'Im_DanielRadcliffe.png', 'Im_RobertPattinson.png', 'Im_BenStiller.png', 'Im_JustinTimberlake.png', 'Im_DanielCraig.png'],diff,1,0.9169824000000517,34,80.95238095238095,
ALPA2202,5,inv,120,pos120_id4_im20.bmp_pos120_id20_im30.bmp,['Im_HughJackman.png', 'Im_RyanGosling.png', 'Im_MattDamon.png', 'Im_BenAffleck.png', 'Im_RobertDowneyJr.png', 'Im_DanielRadcliffe.png', 'Im_RobertPattinson.png', 'Im_BenStiller.png', 'Im_JustinTimberlake.png', 'Im_DanielCraig.png'],diff,1,0.4753149999996822,35,80.95238095238095,
ALPA2202,5,inv,fs,posfs_id19_im4.bmp_posfs_id10_im17.bmp,['Im_HughJackman.png', 'Im_RyanGosling.png', 'Im_MattDamon.png', 'Im_BenAffleck.png', 'Im_RobertDowneyJr.png', 'Im_DanielRadcliffe.png', 'Im_RobertPattinson.png', 'Im_BenStiller.png', 'Im_JustinTimberlake.png', 'Im_DanielCraig.png'],diff,1,0.433613700000933,36,80.95238095238095,
ALPA2202,5,inv,60,pos60_id18_im18.bmp_pos60_id18_im19.bmp,['Im_HughJackman.png', 'Im_RyanGosling.png', 'Im_MattDamon.png', 'Im_BenAffleck.png', 'Im_RobertDowneyJr.png', 'Im_DanielRadcliffe.png', 'Im_RobertPattinson.png', 'Im_BenStiller.png', 'Im_JustinTimberlake.png', 'Im_DanielCraig.png'],diff,0,0.5585139999984676,36,80.95238095238095,
ALPA2202,5,inv,150,pos150_id1_im24.bmp_pos150_id8_im20.bmp,['Im_HughJackman.png', 'Im_RyanGosling.png', 'Im_MattDamon.png', 'Im_BenAffleck.png', 'Im_RobertDowneyJr.png', 'Im_DanielRadcliffe.png', 'Im_RobertPattinson.png', 'Im_BenStiller.png', 'Im_JustinTimberlake.png', 'Im_DanielCraig.png'],same,0,0.4335462999988522,36,80.95238095238095,
ALPA2202,5,inv,90,pos90_id5_im10.bmp_pos90_id5_im20.bmp,['Im_HughJackman.png', 'Im_RyanGosling.png', 'Im_MattDamon.png', 'Im_BenAffleck.png', 'Im_RobertDowneyJr.png', 'Im_DanielRadcliffe.png', 'Im_RobertPattinson.png', 'Im_BenStiller.png', 'Im_JustinTimberlake.png', 'Im_DanielCraig.png'],same,1,0.44190079999862064,37,80.95238095238095,
ALPA2202,6,inv,120,pos120_id20_im3.bmp_pos120_id5_im20.bmp,['Im_HughJackman.png', 'Im_RyanGosling.png', 'Im_MattDamon.png', 'Im_BenAffleck.png', 'Im_RobertDowneyJr.png', 'Im_DanielRadcliffe.png', 'Im_RobertPattinson.png', 'Im_BenStiller.png', 'Im_JustinTimberlake.png', 'Im_DanielCraig.png'],diff,1,1.116789499999868,1,88.0952380952381,
ALPA2202,6,inv,fs,posfs_id19_im27.bmp_posfs_id2_im3.bmp,['Im_HughJackman.png', 'Im_RyanGosling.png', 'Im_MattDamon.png', 'Im_BenAffleck.png', 'Im_RobertDowneyJr.png', 'Im_DanielRadcliffe.png', 'Im_RobertPattinson.png', 'Im_BenStiller.png', 'Im_JustinTimberlake.png', 'Im_DanielCraig.png'],diff,1,0.4167047000009916,2,88.0952380952381,
ALPA2202,6,inv,0,pos0_id4_im15.bmp_pos0_id1_im21.bmp,['Im_HughJackman.png', 'Im_RyanGosling.png', 'Im_MattDamon.png', 'Im_BenAffleck.png', 'Im_RobertDowneyJr.png', 'Im_DanielRadcliffe.png', 'Im_RobertPattinson.png', 'Im_BenStiller.png', 'Im_JustinTimberlake.png', 'Im_DanielCraig.png'],diff,1,0.4167050999985804,3,88.0952380952381,
ALPA2202,6,inv,90,pos90_id4_im15.bmp_pos90_id4_im20.bmp,['Im_HughJackman.png', 'Im_RyanGosling.png', 'Im_MattDamon.png', 'Im_BenAffleck.png', 'Im_RobertDowneyJr.png', 'Im_DanielRadcliffe.png', 'Im_RobertPattinson.png', 'Im_BenStiller.png', 'Im_JustinTimberlake.png', 'Im_DanielCraig.png'],same,1,1.083383600000161,4,88.0952380952381,
ALPA2202,6,inv,30,pos30_id19_im4.bmp_pos30_id4_im7.bmp,['Im_HughJackman.png', 'Im_RyanGosling.png', 'Im_MattDamon.png', 'Im_BenAffleck.png', 'Im_RobertDowneyJr.png', 'Im_DanielRadcliffe.png', 'Im_RobertPattinson.png', 'Im_BenStiller.png', 'Im_JustinTimberlake.png', 'Im_DanielCraig.png'],diff,1,0.4250804999992397,5,88.0952380952381,
ALPA2202,6,inv,fs,posfs_id1_im24.bmp_posfs_id8_im20.bmp,['Im_HughJackman.png', 'Im_RyanGosling.png', 'Im_MattDamon.png', 'Im_BenAffleck.png', 'Im_RobertDowneyJr.png', 'Im_DanielRadcliffe.png', 'Im_RobertPattinson.png', 'Im_BenStiller.png', 'Im_JustinTimberlake.png', 'Im_DanielCraig.png'],same,0,0.4667509000009886,5,88.0952380952381,
ALPA2202,6,inv,0,pos0_id4_im20.bmp_pos0_id8_im13.bmp,['Im_HughJackman.png', 'Im_RyanGosling.png', 'Im_MattDamon.png', 'Im_BenAffleck.png', 'Im_RobertDowneyJr.png', 'Im_DanielRadcliffe.png', 'Im_RobertPattinson.png', 'Im_BenStiller.png', 'Im_JustinTimberlake.png', 'Im_DanielCraig.png'],diff,1,0.5500861000000441,6,88.0952380952381,
ALPA2202,6,inv,60,pos60_id19_im8.bmp_pos60_id19_im4.bmp,['Im_HughJackman.png', 'Im_RyanGosling.png', 'Im_MattDamon.png', 'Im_BenAffleck.png', 'Im_RobertDowneyJr.png', 'Im_DanielRadcliffe.png', 'Im_RobertPattinson.png', 'Im_BenStiller.png', 'Im_JustinTimberlake.png', 'Im_DanielCraig.png'],same,1,1.7751090000001568,7,88.0952380952381,
ALPA2202,6,inv,150,pos150_id19_im8.bmp_pos150_id19_im27.bmp,['Im_HughJackman.png', 'Im_RyanGosling.png', 'Im_MattDamon.png', 'Im_BenAffleck.png', 'Im_RobertDowneyJr.png', 'Im_DanielRadcliffe.png', 'Im_RobertPattinson.png', 'Im_BenStiller.png', 'Im_JustinTimberlake.png', 'Im_DanielCraig.png'],same,1,0.41696570000021893,8,88.0952380952381,
ALPA2202,6,inv,90,pos90_id5_im1.bmp_pos90_id5_im20.bmp,['Im_HughJackman.png', 'Im_RyanGosling.png', 'Im_MattDamon.png', 'Im_BenAffleck.png', 'Im_RobertDowneyJr.png', 'Im_DanielRadcliffe.png', 'Im_RobertPattinson.png', 'Im_BenStiller.png', 'Im_JustinTimberlake.png', 'Im_DanielCraig.png'],same,1,0.42525779999959923,9,88.0952380952381,
ALPA2202,6,inv,120,pos120_id1_im21.bmp_pos120_id1_im24.bmp,['Im_HughJackman.png', 'Im_RyanGosling.png', 'Im_MattDamon.png', 'Im_BenAffleck.png', 'Im_RobertDowneyJr.png', 'Im_DanielRadcliffe.png', 'Im_RobertPattinson.png', 'Im_BenStiller.png', 'Im_JustinTimberlake.png', 'Im_DanielCraig.png'],diff,0,2.350128100000802,9,88.0952380952381,
ALPA2202,6,inv,60,pos60_id5_im1.bmp_pos60_id10_im1.bmp,['Im_HughJackman.png', 'Im_RyanGosling.png', 'Im_MattDamon.png', 'Im_BenAffleck.png', 'Im_RobertDowneyJr.png', 'Im_DanielRadcliffe.png', 'Im_RobertPattinson.png', 'Im_BenStiller.png', 'Im_JustinTimberlake.png', 'Im_DanielCraig.png'],diff,1,2.4002100999987306,10,88.0952380952381,
ALPA2202,6,inv,30,pos30_id20_im30.bmp_pos30_id10_im18.bmp,['Im_HughJackman.png', 'Im_RyanGosling.png', 'Im_MattDamon.png', 'Im_BenAffleck.png', 'Im_RobertDowneyJr.png', 'Im_DanielRadcliffe.png', 'Im_RobertPattinson.png', 'Im_BenStiller.png', 'Im_JustinTimberlake.png', 'Im_DanielCraig.png'],diff,1,0.6837797999996837,11,88.0952380952381,
ALPA2202,6,inv,150,pos150_id2_im2.bmp_pos150_id10_im17.bmp,['Im_HughJackman.png', 'Im_RyanGosling.png', 'Im_MattDamon.png', 'Im_BenAffleck.png', 'Im_RobertDowneyJr.png', 'Im_DanielRadcliffe.png', 'Im_RobertPattinson.png', 'Im_BenStiller.png', 'Im_JustinTimberlake.png', 'Im_DanielCraig.png'],diff,1,0.41674799999964307,12,88.0952380952381,
ALPA2202,7,neg,120,neg120_id10_im1.bmp_neg120_id10_im18.bmp,['Im_HughJackman.png', 'Im_RyanGosling.png', 'Im_MattDamon.png', 'Im_BenAffleck.png', 'Im_RobertDowneyJr.png', 'Im_DanielRadcliffe.png', 'Im_RobertPattinson.png', 'Im_BenStiller.png', 'Im_JustinTimberlake.png', 'Im_DanielCraig.png'],same,1,0.41675000000032014,13,88.0952380952381,
ALPA2202,7,neg,150,neg150_id8_im13.bmp_neg150_id8_im21.bmp,['Im_HughJackman.png', 'Im_RyanGosling.png', 'Im_MattDamon.png', 'Im_BenAffleck.png', 'Im_RobertDowneyJr.png', 'Im_DanielRadcliffe.png', 'Im_RobertPattinson.png', 'Im_BenStiller.png', 'Im_JustinTimberlake.png', 'Im_DanielCraig.png'],same,1,0.958251800000653,14,88.0952380952381,
ALPA2202,7,neg,0,neg0_id1_im24.bmp_neg0_id8_im21.bmp,['Im_HughJackman.png', 'Im_RyanGosling.png', 'Im_MattDamon.png', 'Im_BenAffleck.png', 'Im_RobertDowneyJr.png', 'Im_DanielRadcliffe.png', 'Im_RobertPattinson.png', 'Im_BenStiller.png', 'Im_JustinTimberlake.png', 'Im_DanielCraig.png'],diff,1,1.691971399999602,15,88.0952380952381,
ALPA2202,7,neg,0,neg0_id14_im18.bmp_neg0_id14_im16.bmp,['Im_HughJackman.png', 'Im_RyanGosling.png', 'Im_MattDamon.png', 'Im_BenAffleck.png', 'Im_RobertDowneyJr.png', 'Im_DanielRadcliffe.png', 'Im_RobertPattinson.png', 'Im_BenStiller.png', 'Im_JustinTimberlake.png', 'Im_DanielCraig.png'],same,1,0.45018420000087644,16,88.0952380952381,
ALPA2202,7,neg,fs,negfs_id18_im11.bmp_negfs_id18_im18.bmp,['Im_HughJackman.png', 'Im_RyanGosling.png', 'Im_MattDamon.png', 'Im_BenAffleck.png', 'Im_RobertDowneyJr.png', 'Im_DanielRadcliffe.png', 'Im_RobertPattinson.png', 'Im_BenStiller.png', 'Im_JustinTimberlake.png', 'Im_DanielCraig.png'],same,1,0.41677729999901203,17,88.0952380952381,
ALPA2202,7,neg,150,neg150_id19_im27.bmp_neg150_id14_im18.bmp,['Im_HughJackman.png', 'Im_RyanGosling.png', 'Im_MattDamon.png', 'Im_BenAffleck.png', 'Im_RobertDowneyJr.png', 'Im_DanielRadcliffe.png', 'Im_RobertPattinson.png', 'Im_BenStiller.png', 'Im_JustinTimberlake.png', 'Im_DanielCraig.png'],diff,1,0.41675190000023576,18,88.0952380952381,
ALPA2202,7,neg,90,neg90_id8_im20.bmp_neg90_id8_im13.bmp,['Im_HughJackman.png', 'Im_RyanGosling.png', 'Im_MattDamon.png', 'Im_BenAffleck.png', 'Im_RobertDowneyJr.png', 'Im_DanielRadcliffe.png', 'Im_RobertPattinson.png', 'Im_BenStiller.png', 'Im_JustinTimberlake.png', 'Im_DanielCraig.png'],same,1,0.41676899999947636,19,88.0952380952381,
ALPA2202,7,neg,30,neg30_id5_im20.bmp_neg30_id5_im1.bmp,['Im_HughJackman.png', 'Im_RyanGosling.png', 'Im_MattDamon.png', 'Im_BenAffleck.png', 'Im_RobertDowneyJr.png', 'Im_DanielRadcliffe.png', 'Im_RobertPattinson.png', 'Im_BenStiller.png', 'Im_JustinTimberlake.png', 'Im_DanielCraig.png'],same,1,0.4334326999996847,20,88.0952380952381,
ALPA2202,7,neg,60,neg60_id14_im24.bmp_neg60_id10_im18.bmp,['Im_HughJackman.png', 'Im_RyanGosling.png', 'Im_MattDamon.png', 'Im_BenAffleck.png', 'Im_RobertDowneyJr.png', 'Im_DanielRadcliffe.png', 'Im_RobertPattinson.png', 'Im_BenStiller.png', 'Im_JustinTimberlake.png', 'Im_DanielCraig.png'],none,1,4.416538099998434,20,88.0952380952381,
ALPA2202,7,neg,fs,negfs_id10_im17.bmp_negfs_id2_im2.bmp,['Im_HughJackman.png', 'Im_RyanGosling.png', 'Im_MattDamon.png', 'Im_BenAffleck.png', 'Im_RobertDowneyJr.png', 'Im_DanielRadcliffe.png', 'Im_RobertPattinson.png', 'Im_BenStiller.png', 'Im_JustinTimberlake.png', 'Im_DanielCraig.png'],diff,1,0.4167543999992631,21,88.0952380952381,
ALPA2202,7,neg,30,neg30_id10_im18.bmp_neg30_id10_im17.bmp,['Im_HughJackman.png', 'Im_RyanGosling.png', 'Im_MattDamon.png', 'Im_BenAffleck.png', 'Im_RobertDowneyJr.png', 'Im_DanielRadcliffe.png', 'Im_RobertPattinson.png', 'Im_BenStiller.png', 'Im_JustinTimberlake.png', 'Im_DanielCraig.png'],same,1,0.4165866000003007,22,88.0952380952381,
ALPA2202,7,neg,120,neg120_id1_im21.bmp_neg120_id1_im4.bmp,['Im_HughJackman.png', 'Im_RyanGosling.png', 'Im_MattDamon.png', 'Im_BenAffleck.png', 'Im_RobertDowneyJr.png', 'Im_DanielRadcliffe.png', 'Im_RobertPattinson.png', 'Im_BenStiller.png', 'Im_JustinTimberlake.png', 'Im_DanielCraig.png'],diff,0,0.9001341999992292,22,88.0952380952381,
ALPA2202,7,neg,90,neg90_id20_im3.bmp_neg90_id20_im30.bmp,['Im_HughJackman.png', 'Im_RyanGosling.png', 'Im_MattDamon.png', 'Im_BenAffleck.png', 'Im_RobertDowneyJr.png', 'Im_DanielRadcliffe.png', 'Im_RobertPattinson.png', 'Im_BenStiller.png', 'Im_JustinTimberlake.png', 'Im_DanielCraig.png'],same,1,0.4083725999989838,23,88.0952380952381,
ALPA2202,7,neg,60,neg60_id14_im24.bmp_neg60_id2_im16.bmp,['Im_HughJackman.png', 'Im_RyanGosling.png', 'Im_MattDamon.png', 'Im_BenAffleck.png', 'Im_RobertDowneyJr.png', 'Im_DanielRadcliffe.png', 'Im_RobertPattinson.png', 'Im_BenStiller.png', 'Im_JustinTimberlake.png', 'Im_DanielCraig.png'],diff,1,0.433349900000394,24,88.0952380952381,
ALPA2202,8,pos,fs,posfs_id2_im3.bmp_posfs_id2_im2.bmp,['Im_HughJackman.png', 'Im_RyanGosling.png', 'Im_MattDamon.png', 'Im_BenAffleck.png', 'Im_RobertDowneyJr.png', 'Im_DanielRadcliffe.png', 'Im_RobertPattinson.png', 'Im_BenStiller.png', 'Im_JustinTimberlake.png', 'Im_DanielCraig.png'],same,1,0.6584044999999605,25,88.0952380952381,
ALPA2202,8,pos,150,pos150_id18_im11.bmp_pos150_id18_im19.bmp,['Im_HughJackman.png', 'Im_RyanGosling.png', 'Im_MattDamon.png', 'Im_BenAffleck.png', 'Im_RobertDowneyJr.png', 'Im_DanielRadcliffe.png', 'Im_RobertPattinson.png', 'Im_BenStiller.png', 'Im_JustinTimberlake.png', 'Im_DanielCraig.png'],same,1,0.48366619999978866,26,88.0952380952381,
ALPA2202,8,pos,90,pos90_id14_im16.bmp_pos90_id1_im4.bmp,['Im_HughJackman.png', 'Im_RyanGosling.png', 'Im_MattDamon.png', 'Im_BenAffleck.png', 'Im_RobertDowneyJr.png', 'Im_DanielRadcliffe.png', 'Im_RobertPattinson.png', 'Im_BenStiller.png', 'Im_JustinTimberlake.png', 'Im_DanielCraig.png'],diff,1,0.41684650000024703,27,88.0952380952381,
ALPA2202,8,pos,90,pos90_id2_im2.bmp_pos90_id2_im16.bmp,['Im_HughJackman.png', 'Im_RyanGosling.png', 'Im_MattDamon.png', 'Im_BenAffleck.png', 'Im_RobertDowneyJr.png', 'Im_DanielRadcliffe.png', 'Im_RobertPattinson.png', 'Im_BenStiller.png', 'Im_JustinTimberlake.png', 'Im_DanielCraig.png'],same,1,1.8836215999999695,28,88.0952380952381,
ALPA2202,8,pos,120,pos120_id8_im13.bmp_pos120_id8_im20.bmp,['Im_HughJackman.png', 'Im_RyanGosling.png', 'Im_MattDamon.png', 'Im_BenAffleck.png', 'Im_RobertDowneyJr.png', 'Im_DanielRadcliffe.png', 'Im_RobertPattinson.png', 'Im_BenStiller.png', 'Im_JustinTimberlake.png', 'Im_DanielCraig.png'],same,1,0.5002564000005805,29,88.0952380952381,
ALPA2202,8,pos,fs,posfs_id18_im18.bmp_posfs_id5_im10.bmp,['Im_HughJackman.png', 'Im_RyanGosling.png', 'Im_MattDamon.png', 'Im_BenAffleck.png', 'Im_RobertDowneyJr.png', 'Im_DanielRadcliffe.png', 'Im_RobertPattinson.png', 'Im_BenStiller.png', 'Im_JustinTimberlake.png', 'Im_DanielCraig.png'],diff,1,0.42510610000135785,30,88.0952380952381,
ALPA2202,8,pos,0,pos0_id19_im4.bmp_pos0_id10_im17.bmp,['Im_HughJackman.png', 'Im_RyanGosling.png', 'Im_MattDamon.png', 'Im_BenAffleck.png', 'Im_RobertDowneyJr.png', 'Im_DanielRadcliffe.png', 'Im_RobertPattinson.png', 'Im_BenStiller.png', 'Im_JustinTimberlake.png', 'Im_DanielCraig.png'],diff,1,0.817059099999824,31,88.0952380952381,
ALPA2202,8,pos,30,pos30_id19_im8.bmp_pos30_id4_im7.bmp,['Im_HughJackman.png', 'Im_RyanGosling.png', 'Im_MattDamon.png', 'Im_BenAffleck.png', 'Im_RobertDowneyJr.png', 'Im_DanielRadcliffe.png', 'Im_RobertPattinson.png', 'Im_BenStiller.png', 'Im_JustinTimberlake.png', 'Im_DanielCraig.png'],diff,1,0.4165814000007231,32,88.0952380952381,
ALPA2202,8,pos,0,pos0_id5_im1.bmp_pos0_id5_im10.bmp,['Im_HughJackman.png', 'Im_RyanGosling.png', 'Im_MattDamon.png', 'Im_BenAffleck.png', 'Im_RobertDowneyJr.png', 'Im_DanielRadcliffe.png', 'Im_RobertPattinson.png', 'Im_BenStiller.png', 'Im_JustinTimberlake.png', 'Im_DanielCraig.png'],same,1,0.4167486000005738,33,88.0952380952381,
ALPA2202,8,pos,60,pos60_id8_im21.bmp_pos60_id8_im13.bmp,['Im_HughJackman.png', 'Im_RyanGosling.png', 'Im_MattDamon.png', 'Im_BenAffleck.png', 'Im_RobertDowneyJr.png', 'Im_DanielRadcliffe.png', 'Im_RobertPattinson.png', 'Im_BenStiller.png', 'Im_JustinTimberlake.png', 'Im_DanielCraig.png'],same,1,1.0833545999994385,34,88.0952380952381,
ALPA2202,8,pos,120,pos120_id20_im12.bmp_pos120_id8_im20.bmp,['Im_HughJackman.png', 'Im_RyanGosling.png', 'Im_MattDamon.png', 'Im_BenAffleck.png', 'Im_RobertDowneyJr.png', 'Im_DanielRadcliffe.png', 'Im_RobertPattinson.png', 'Im_BenStiller.png', 'Im_JustinTimberlake.png', 'Im_DanielCraig.png'],diff,1,0.40841790000013134,35,88.0952380952381,
ALPA2202,8,pos,60,pos60_id20_im30.bmp_pos60_id20_im3.bmp,['Im_HughJackman.png', 'Im_RyanGosling.png', 'Im_MattDamon.png', 'Im_BenAffleck.png', 'Im_RobertDowneyJr.png', 'Im_DanielRadcliffe.png', 'Im_RobertPattinson.png', 'Im_BenStiller.png', 'Im_JustinTimberlake.png', 'Im_DanielCraig.png'],same,1,0.42516670000077283,36,88.0952380952381,
ALPA2202,8,pos,150,pos150_id14_im18.bmp_pos150_id14_im16.bmp,['Im_HughJackman.png', 'Im_RyanGosling.png', 'Im_MattDamon.png', 'Im_BenAffleck.png', 'Im_RobertDowneyJr.png', 'Im_DanielRadcliffe.png', 'Im_RobertPattinson.png', 'Im_BenStiller.png', 'Im_JustinTimberlake.png', 'Im_DanielCraig.png'],same,1,1.0835141999996267,37,88.0952380952381,
ALPA2202,8,pos,30,pos30_id10_im18.bmp_pos30_id10_im1.bmp,['Im_HughJackman.png', 'Im_RyanGosling.png', 'Im_MattDamon.png', 'Im_BenAffleck.png', 'Im_RobertDowneyJr.png', 'Im_DanielRadcliffe.png', 'Im_RobertPattinson.png', 'Im_BenStiller.png', 'Im_JustinTimberlake.png', 'Im_DanielCraig.png'],same,1,0.4333100999992894,38,88.0952380952381,
ALPA2202,9,neg,120,neg120_id5_im20.bmp_neg120_id20_im3.bmp,['Im_HughJackman.png', 'Im_RyanGosling.png', 'Im_MattDamon.png', 'Im_BenAffleck.png', 'Im_RobertDowneyJr.png', 'Im_DanielRadcliffe.png', 'Im_RobertPattinson.png', 'Im_BenStiller.png', 'Im_JustinTimberlake.png', 'Im_DanielCraig.png'],diff,1,1.1085387999992236,1,90.47619047619048,
ALPA2202,9,neg,fs,negfs_id19_im27.bmp_negfs_id19_im8.bmp,['Im_HughJackman.png', 'Im_RyanGosling.png', 'Im_MattDamon.png', 'Im_BenAffleck.png', 'Im_RobertDowneyJr.png', 'Im_DanielRadcliffe.png', 'Im_RobertPattinson.png', 'Im_BenStiller.png', 'Im_JustinTimberlake.png', 'Im_DanielCraig.png'],same,1,0.4250382999998692,2,90.47619047619048,
ALPA2202,9,neg,90,neg90_id19_im4.bmp_neg90_id4_im7.bmp,['Im_HughJackman.png', 'Im_RyanGosling.png', 'Im_MattDamon.png', 'Im_BenAffleck.png', 'Im_RobertDowneyJr.png', 'Im_DanielRadcliffe.png', 'Im_RobertPattinson.png', 'Im_BenStiller.png', 'Im_JustinTimberlake.png', 'Im_DanielCraig.png'],diff,1,0.42505870000059076,3,90.47619047619048,
ALPA2202,9,neg,150,neg150_id2_im2.bmp_neg150_id19_im8.bmp,['Im_HughJackman.png', 'Im_RyanGosling.png', 'Im_MattDamon.png', 'Im_BenAffleck.png', 'Im_RobertDowneyJr.png', 'Im_DanielRadcliffe.png', 'Im_RobertPattinson.png', 'Im_BenStiller.png', 'Im_JustinTimberlake.png', 'Im_DanielCraig.png'],same,0,0.5167175000005955,3,90.47619047619048,
ALPA2202,9,neg,60,neg60_id20_im3.bmp_neg60_id5_im10.bmp,['Im_HughJackman.png', 'Im_RyanGosling.png', 'Im_MattDamon.png', 'Im_BenAffleck.png', 'Im_RobertDowneyJr.png', 'Im_DanielRadcliffe.png', 'Im_RobertPattinson.png', 'Im_BenStiller.png', 'Im_JustinTimberlake.png', 'Im_DanielCraig.png'],diff,1,0.41675430000032065,4,90.47619047619048,
ALPA2202,9,neg,60,neg60_id1_im24.bmp_neg60_id8_im21.bmp,['Im_HughJackman.png', 'Im_RyanGosling.png', 'Im_MattDamon.png', 'Im_BenAffleck.png', 'Im_RobertDowneyJr.png', 'Im_DanielRadcliffe.png', 'Im_RobertPattinson.png', 'Im_BenStiller.png', 'Im_JustinTimberlake.png', 'Im_DanielCraig.png'],diff,1,0.4333539999988716,5,90.47619047619048,
ALPA2202,9,neg,30,neg30_id18_im11.bmp_neg30_id18_im19.bmp,['Im_HughJackman.png', 'Im_RyanGosling.png', 'Im_MattDamon.png', 'Im_BenAffleck.png', 'Im_RobertDowneyJr.png', 'Im_DanielRadcliffe.png', 'Im_RobertPattinson.png', 'Im_BenStiller.png', 'Im_JustinTimberlake.png', 'Im_DanielCraig.png'],diff,0,0.7836579000013444,5,90.47619047619048,
ALPA2202,9,neg,fs,negfs_id2_im2.bmp_negfs_id2_im3.bmp,['Im_HughJackman.png', 'Im_RyanGosling.png', 'Im_MattDamon.png', 'Im_BenAffleck.png', 'Im_RobertDowneyJr.png', 'Im_DanielRadcliffe.png', 'Im_RobertPattinson.png', 'Im_BenStiller.png', 'Im_JustinTimberlake.png', 'Im_DanielCraig.png'],same,1,0.4083421000013914,6,90.47619047619048,
ALPA2202,9,neg,0,neg0_id14_im24.bmp_neg0_id14_im16.bmp,['Im_HughJackman.png', 'Im_RyanGosling.png', 'Im_MattDamon.png', 'Im_BenAffleck.png', 'Im_RobertDowneyJr.png', 'Im_DanielRadcliffe.png', 'Im_RobertPattinson.png', 'Im_BenStiller.png', 'Im_JustinTimberlake.png', 'Im_DanielCraig.png'],same,1,0.4252271000004839,7,90.47619047619048,
ALPA2202,9,neg,30,neg30_id20_im30.bmp_neg30_id20_im12.bmp,['Im_HughJackman.png', 'Im_RyanGosling.png', 'Im_MattDamon.png', 'Im_BenAffleck.png', 'Im_RobertDowneyJr.png', 'Im_DanielRadcliffe.png', 'Im_RobertPattinson.png', 'Im_BenStiller.png', 'Im_JustinTimberlake.png', 'Im_DanielCraig.png'],same,1,0.975223499999629,8,90.47619047619048,
ALPA2202,9,neg,150,neg150_id19_im8.bmp_neg150_id19_im27.bmp,['Im_HughJackman.png', 'Im_RyanGosling.png', 'Im_MattDamon.png', 'Im_BenAffleck.png', 'Im_RobertDowneyJr.png', 'Im_DanielRadcliffe.png', 'Im_RobertPattinson.png', 'Im_BenStiller.png', 'Im_JustinTimberlake.png', 'Im_DanielCraig.png'],same,1,0.5333648000014364,9,90.47619047619048,
ALPA2202,9,neg,0,neg0_id18_im19.bmp_neg0_id18_im18.bmp,['Im_HughJackman.png', 'Im_RyanGosling.png', 'Im_MattDamon.png', 'Im_BenAffleck.png', 'Im_RobertDowneyJr.png', 'Im_DanielRadcliffe.png', 'Im_RobertPattinson.png', 'Im_BenStiller.png', 'Im_JustinTimberlake.png', 'Im_DanielCraig.png'],diff,0,0.4166776000001846,9,90.47619047619048,
ALPA2202,9,neg,120,neg120_id20_im30.bmp_neg120_id10_im18.bmp,['Im_HughJackman.png', 'Im_RyanGosling.png', 'Im_MattDamon.png', 'Im_BenAffleck.png', 'Im_RobertDowneyJr.png', 'Im_DanielRadcliffe.png', 'Im_RobertPattinson.png', 'Im_BenStiller.png', 'Im_JustinTimberlake.png', 'Im_DanielCraig.png'],diff,1,0.45017299999926763,10,90.47619047619048,
