Sujet,Trial,Condition,Filter,Imname,Actor0,Actor1,Actor2,Actor3,Actor4,Actor5,Actor6,Actor7,Actor8,Actor9,Answer,Accu,RT,Score,Scoreperc
ALRE2209,train,pos,fs,posfs_id19_im4.bmp_posfs_id19_im27.bmp,['Im_DanielRadcliffe.png', 'Im_GeorgeClooney.png', 'Im_KeanuReeves.png', 'Im_RobertPattinson.png', 'Im_RyanGosling.png', 'Im_PatrickDempsey.png', 'Im_BenStiller.png', 'Im_OrlandoBloom.png', 'Im_LeonardoDiCaprio.png', 'Im_DanielCraig.png'],same,1,88.53415580000001,1,0
ALRE2209,train,pos,fs,posfs_id16_im3.bmp_posfs_id16_im19.bmp,['Im_DanielRadcliffe.png', 'Im_GeorgeClooney.png', 'Im_KeanuReeves.png', 'Im_RobertPattinson.png', 'Im_RyanGosling.png', 'Im_PatrickDempsey.png', 'Im_BenStiller.png', 'Im_OrlandoBloom.png', 'Im_LeonardoDiCaprio.png', 'Im_DanielCraig.png'],same,1,92.17554400000017,2,0
ALRE2209,train,pos,fs,posfs_id4_im7.bmp_posfs_id4_im20.bmp,['Im_DanielRadcliffe.png', 'Im_GeorgeClooney.png', 'Im_KeanuReeves.png', 'Im_RobertPattinson.png', 'Im_RyanGosling.png', 'Im_PatrickDempsey.png', 'Im_BenStiller.png', 'Im_OrlandoBloom.png', 'Im_LeonardoDiCaprio.png', 'Im_DanielCraig.png'],same,1,95.68391780000002,3,0
ALRE2209,train,pos,fs,posfs_id20_im12.bmp_posfs_id20_im3.bmp,['Im_DanielRadcliffe.png', 'Im_GeorgeClooney.png', 'Im_KeanuReeves.png', 'Im_RobertPattinson.png', 'Im_RyanGosling.png', 'Im_PatrickDempsey.png', 'Im_BenStiller.png', 'Im_OrlandoBloom.png', 'Im_LeonardoDiCaprio.png', 'Im_DanielCraig.png'],same,1,100.24214210000036,4,0
ALRE2209,train,pos,fs,posfs_id7_im14.bmp_posfs_id7_im26.bmp,['Im_DanielRadcliffe.png', 'Im_GeorgeClooney.png', 'Im_KeanuReeves.png', 'Im_RobertPattinson.png', 'Im_RyanGosling.png', 'Im_PatrickDempsey.png', 'Im_BenStiller.png', 'Im_OrlandoBloom.png', 'Im_LeonardoDiCaprio.png', 'Im_DanielCraig.png'],same,1,103.95877090000022,5,0
ALRE2209,train,pos,fs,posfs_id4_im7.bmp_posfs_id17_im9.bmp,['Im_DanielRadcliffe.png', 'Im_GeorgeClooney.png', 'Im_KeanuReeves.png', 'Im_RobertPattinson.png', 'Im_RyanGosling.png', 'Im_PatrickDempsey.png', 'Im_BenStiller.png', 'Im_OrlandoBloom.png', 'Im_LeonardoDiCaprio.png', 'Im_DanielCraig.png'],diff,1,108.0589186000002,6,0
ALRE2209,train,pos,fs,posfs_id11_im2.bmp_posfs_id20_im30.bmp,['Im_DanielRadcliffe.png', 'Im_GeorgeClooney.png', 'Im_KeanuReeves.png', 'Im_RobertPattinson.png', 'Im_RyanGosling.png', 'Im_PatrickDempsey.png', 'Im_BenStiller.png', 'Im_OrlandoBloom.png', 'Im_LeonardoDiCaprio.png', 'Im_DanielCraig.png'],diff,1,111.65920080000024,7,0
ALRE2209,train,pos,fs,posfs_id16_im2.bmp_posfs_id5_im10.bmp,['Im_DanielRadcliffe.png', 'Im_GeorgeClooney.png', 'Im_KeanuReeves.png', 'Im_RobertPattinson.png', 'Im_RyanGosling.png', 'Im_PatrickDempsey.png', 'Im_BenStiller.png', 'Im_OrlandoBloom.png', 'Im_LeonardoDiCaprio.png', 'Im_DanielCraig.png'],diff,1,115.45061110000006,8,0
ALRE2209,train,pos,fs,posfs_id20_im30.bmp_posfs_id4_im20.bmp,['Im_DanielRadcliffe.png', 'Im_GeorgeClooney.png', 'Im_KeanuReeves.png', 'Im_RobertPattinson.png', 'Im_RyanGosling.png', 'Im_PatrickDempsey.png', 'Im_BenStiller.png', 'Im_OrlandoBloom.png', 'Im_LeonardoDiCaprio.png', 'Im_DanielCraig.png'],diff,1,119.0837389000003,9,0
ALRE2209,train,pos,fs,posfs_id2_im3.bmp_posfs_id7_im26.bmp,['Im_DanielRadcliffe.png', 'Im_GeorgeClooney.png', 'Im_KeanuReeves.png', 'Im_RobertPattinson.png', 'Im_RyanGosling.png', 'Im_PatrickDempsey.png', 'Im_BenStiller.png', 'Im_OrlandoBloom.png', 'Im_LeonardoDiCaprio.png', 'Im_DanielCraig.png'],diff,1,123.24249420000024,10,0
ALRE2209,train,pos,fs,posfs_id7_im26.bmp_posfs_id19_im4.bmp,['Im_DanielRadcliffe.png', 'Im_GeorgeClooney.png', 'Im_KeanuReeves.png', 'Im_RobertPattinson.png', 'Im_RyanGosling.png', 'Im_PatrickDempsey.png', 'Im_BenStiller.png', 'Im_OrlandoBloom.png', 'Im_LeonardoDiCaprio.png', 'Im_DanielCraig.png'],diff,1,127.06728740000017,11,0
ALRE2209,train,pos,fs,posfs_id2_im16.bmp_posfs_id11_im1.bmp,['Im_DanielRadcliffe.png', 'Im_GeorgeClooney.png', 'Im_KeanuReeves.png', 'Im_RobertPattinson.png', 'Im_RyanGosling.png', 'Im_PatrickDempsey.png', 'Im_BenStiller.png', 'Im_OrlandoBloom.png', 'Im_LeonardoDiCaprio.png', 'Im_DanielCraig.png'],diff,1,130.9674745000002,12,0
ALRE2209,train,pos,fs,posfs_id7_im15.bmp_posfs_id7_im14.bmp,['Im_DanielRadcliffe.png', 'Im_GeorgeClooney.png', 'Im_KeanuReeves.png', 'Im_RobertPattinson.png', 'Im_RyanGosling.png', 'Im_PatrickDempsey.png', 'Im_BenStiller.png', 'Im_OrlandoBloom.png', 'Im_LeonardoDiCaprio.png', 'Im_DanielCraig.png'],same,1,134.58397710000008,13,0
ALRE2209,train,pos,fs,posfs_id17_im8.bmp_posfs_id11_im10.bmp,['Im_DanielRadcliffe.png', 'Im_GeorgeClooney.png', 'Im_KeanuReeves.png', 'Im_RobertPattinson.png', 'Im_RyanGosling.png', 'Im_PatrickDempsey.png', 'Im_BenStiller.png', 'Im_OrlandoBloom.png', 'Im_LeonardoDiCaprio.png', 'Im_DanielCraig.png'],diff,1,138.45924860000014,14,0
ALRE2209,train,pos,fs,posfs_id20_im3.bmp_posfs_id5_im20.bmp,['Im_DanielRadcliffe.png', 'Im_GeorgeClooney.png', 'Im_KeanuReeves.png', 'Im_RobertPattinson.png', 'Im_RyanGosling.png', 'Im_PatrickDempsey.png', 'Im_BenStiller.png', 'Im_OrlandoBloom.png', 'Im_LeonardoDiCaprio.png', 'Im_DanielCraig.png'],diff,1,142.30917910000016,15,0
ALRE2209,train,pos,fs,posfs_id4_im15.bmp_posfs_id19_im27.bmp,['Im_DanielRadcliffe.png', 'Im_GeorgeClooney.png', 'Im_KeanuReeves.png', 'Im_RobertPattinson.png', 'Im_RyanGosling.png', 'Im_PatrickDempsey.png', 'Im_BenStiller.png', 'Im_OrlandoBloom.png', 'Im_LeonardoDiCaprio.png', 'Im_DanielCraig.png'],diff,1,145.9590290000001,16,0
ALRE2209,train,pos,fs,posfs_id13_im10.bmp_posfs_id16_im2.bmp,['Im_DanielRadcliffe.png', 'Im_GeorgeClooney.png', 'Im_KeanuReeves.png', 'Im_RobertPattinson.png', 'Im_RyanGosling.png', 'Im_PatrickDempsey.png', 'Im_BenStiller.png', 'Im_OrlandoBloom.png', 'Im_LeonardoDiCaprio.png', 'Im_DanielCraig.png'],diff,1,149.53401900000017,17,0
ALRE2209,train,pos,fs,posfs_id17_im9.bmp_posfs_id2_im2.bmp,['Im_DanielRadcliffe.png', 'Im_GeorgeClooney.png', 'Im_KeanuReeves.png', 'Im_RobertPattinson.png', 'Im_RyanGosling.png', 'Im_PatrickDempsey.png', 'Im_BenStiller.png', 'Im_OrlandoBloom.png', 'Im_LeonardoDiCaprio.png', 'Im_DanielCraig.png'],diff,1,153.0839216000004,18,0
ALRE2209,train,pos,fs,posfs_id13_im10.bmp_posfs_id19_im8.bmp,['Im_DanielRadcliffe.png', 'Im_GeorgeClooney.png', 'Im_KeanuReeves.png', 'Im_RobertPattinson.png', 'Im_RyanGosling.png', 'Im_PatrickDempsey.png', 'Im_BenStiller.png', 'Im_OrlandoBloom.png', 'Im_LeonardoDiCaprio.png', 'Im_DanielCraig.png'],diff,1,156.7173458000002,19,0
ALRE2209,train,pos,fs,posfs_id19_im8.bmp_posfs_id19_im27.bmp,['Im_DanielRadcliffe.png', 'Im_GeorgeClooney.png', 'Im_KeanuReeves.png', 'Im_RobertPattinson.png', 'Im_RyanGosling.png', 'Im_PatrickDempsey.png', 'Im_BenStiller.png', 'Im_OrlandoBloom.png', 'Im_LeonardoDiCaprio.png', 'Im_DanielCraig.png'],same,1,160.61751550000008,20,0
ALRE2209,train,neg,fs,negfs_id13_im10.bmp_negfs_id19_im8.bmp,['Im_DanielRadcliffe.png', 'Im_GeorgeClooney.png', 'Im_KeanuReeves.png', 'Im_RobertPattinson.png', 'Im_RyanGosling.png', 'Im_PatrickDempsey.png', 'Im_BenStiller.png', 'Im_OrlandoBloom.png', 'Im_LeonardoDiCaprio.png', 'Im_DanielCraig.png'],same,0,187.9508009000001,0,0
ALRE2209,train,neg,fs,negfs_id19_im8.bmp_negfs_id19_im4.bmp,['Im_DanielRadcliffe.png', 'Im_GeorgeClooney.png', 'Im_KeanuReeves.png', 'Im_RobertPattinson.png', 'Im_RyanGosling.png', 'Im_PatrickDempsey.png', 'Im_BenStiller.png', 'Im_OrlandoBloom.png', 'Im_LeonardoDiCaprio.png', 'Im_DanielCraig.png'],diff,0,192.47598779999998,0,0
ALRE2209,train,inv,fs,posfs_id11_im2.bmp_posfs_id11_im1.bmp,['Im_DanielRadcliffe.png', 'Im_GeorgeClooney.png', 'Im_KeanuReeves.png', 'Im_RobertPattinson.png', 'Im_RyanGosling.png', 'Im_PatrickDempsey.png', 'Im_BenStiller.png', 'Im_OrlandoBloom.png', 'Im_LeonardoDiCaprio.png', 'Im_DanielCraig.png'],same,1,196.55087010000034,1,0
ALRE2209,train,inv,fs,posfs_id4_im15.bmp_posfs_id5_im1.bmp,['Im_DanielRadcliffe.png', 'Im_GeorgeClooney.png', 'Im_KeanuReeves.png', 'Im_RobertPattinson.png', 'Im_RyanGosling.png', 'Im_PatrickDempsey.png', 'Im_BenStiller.png', 'Im_OrlandoBloom.png', 'Im_LeonardoDiCaprio.png', 'Im_DanielCraig.png'],diff,1,200.21739019999995,2,0
ALRE2209,train,neg,fs,negfs_id16_im2.bmp_negfs_id5_im10.bmp,['Im_DanielRadcliffe.png', 'Im_GeorgeClooney.png', 'Im_KeanuReeves.png', 'Im_RobertPattinson.png', 'Im_RyanGosling.png', 'Im_PatrickDempsey.png', 'Im_BenStiller.png', 'Im_OrlandoBloom.png', 'Im_LeonardoDiCaprio.png', 'Im_DanielCraig.png'],diff,1,203.8338743000004,3,0
ALRE2209,train,pos,fs,posfs_id7_im26.bmp_posfs_id7_im15.bmp,['Im_DanielRadcliffe.png', 'Im_GeorgeClooney.png', 'Im_KeanuReeves.png', 'Im_RobertPattinson.png', 'Im_RyanGosling.png', 'Im_PatrickDempsey.png', 'Im_BenStiller.png', 'Im_OrlandoBloom.png', 'Im_LeonardoDiCaprio.png', 'Im_DanielCraig.png'],same,1,207.83427960000017,4,0
ALRE2209,train,neg,fs,negfs_id7_im14.bmp_negfs_id16_im3.bmp,['Im_DanielRadcliffe.png', 'Im_GeorgeClooney.png', 'Im_KeanuReeves.png', 'Im_RobertPattinson.png', 'Im_RyanGosling.png', 'Im_PatrickDempsey.png', 'Im_BenStiller.png', 'Im_OrlandoBloom.png', 'Im_LeonardoDiCaprio.png', 'Im_DanielCraig.png'],diff,1,211.61734390000038,5,0
ALRE2209,train,inv,fs,posfs_id16_im2.bmp_posfs_id16_im3.bmp,['Im_DanielRadcliffe.png', 'Im_GeorgeClooney.png', 'Im_KeanuReeves.png', 'Im_RobertPattinson.png', 'Im_RyanGosling.png', 'Im_PatrickDempsey.png', 'Im_BenStiller.png', 'Im_OrlandoBloom.png', 'Im_LeonardoDiCaprio.png', 'Im_DanielCraig.png'],diff,0,215.82580180000014,5,0
ALRE2209,train,pos,fs,posfs_id13_im15.bmp_posfs_id19_im27.bmp,['Im_DanielRadcliffe.png', 'Im_GeorgeClooney.png', 'Im_KeanuReeves.png', 'Im_RobertPattinson.png', 'Im_RyanGosling.png', 'Im_PatrickDempsey.png', 'Im_BenStiller.png', 'Im_OrlandoBloom.png', 'Im_LeonardoDiCaprio.png', 'Im_DanielCraig.png'],diff,1,219.52568689999998,6,0
ALRE2209,train,inv,fs,posfs_id4_im20.bmp_posfs_id4_im7.bmp,['Im_DanielRadcliffe.png', 'Im_GeorgeClooney.png', 'Im_KeanuReeves.png', 'Im_RobertPattinson.png', 'Im_RyanGosling.png', 'Im_PatrickDempsey.png', 'Im_BenStiller.png', 'Im_OrlandoBloom.png', 'Im_LeonardoDiCaprio.png', 'Im_DanielCraig.png'],same,1,224.63403050000034,7,0
ALRE2209,train,pos,fs,posfs_id11_im10.bmp_posfs_id2_im2.bmp,['Im_DanielRadcliffe.png', 'Im_GeorgeClooney.png', 'Im_KeanuReeves.png', 'Im_RobertPattinson.png', 'Im_RyanGosling.png', 'Im_PatrickDempsey.png', 'Im_BenStiller.png', 'Im_OrlandoBloom.png', 'Im_LeonardoDiCaprio.png', 'Im_DanielCraig.png'],diff,1,228.37577690000035,8,0
ALRE2209,train,neg,fs,negfs_id11_im10.bmp_negfs_id11_im2.bmp,['Im_DanielRadcliffe.png', 'Im_GeorgeClooney.png', 'Im_KeanuReeves.png', 'Im_RobertPattinson.png', 'Im_RyanGosling.png', 'Im_PatrickDempsey.png', 'Im_BenStiller.png', 'Im_OrlandoBloom.png', 'Im_LeonardoDiCaprio.png', 'Im_DanielCraig.png'],same,1,232.44246629999998,9,0
ALRE2209,train,pos,fs,posfs_id17_im9.bmp_posfs_id4_im7.bmp,['Im_DanielRadcliffe.png', 'Im_GeorgeClooney.png', 'Im_KeanuReeves.png', 'Im_RobertPattinson.png', 'Im_RyanGosling.png', 'Im_PatrickDempsey.png', 'Im_BenStiller.png', 'Im_OrlandoBloom.png', 'Im_LeonardoDiCaprio.png', 'Im_DanielCraig.png'],diff,1,236.1757015000003,10,0
ALRE2209,train,pos,fs,posfs_id7_im14.bmp_posfs_id16_im3.bmp,['Im_DanielRadcliffe.png', 'Im_GeorgeClooney.png', 'Im_KeanuReeves.png', 'Im_RobertPattinson.png', 'Im_RyanGosling.png', 'Im_PatrickDempsey.png', 'Im_BenStiller.png', 'Im_OrlandoBloom.png', 'Im_LeonardoDiCaprio.png', 'Im_DanielCraig.png'],diff,1,240.20903850000013,11,0
ALRE2209,train,inv,fs,posfs_id19_im8.bmp_posfs_id16_im3.bmp,['Im_DanielRadcliffe.png', 'Im_GeorgeClooney.png', 'Im_KeanuReeves.png', 'Im_RobertPattinson.png', 'Im_RyanGosling.png', 'Im_PatrickDempsey.png', 'Im_BenStiller.png', 'Im_OrlandoBloom.png', 'Im_LeonardoDiCaprio.png', 'Im_DanielCraig.png'],same,0,244.9090100000003,11,0
ALRE2209,train,pos,fs,posfs_id2_im2.bmp_posfs_id17_im9.bmp,['Im_DanielRadcliffe.png', 'Im_GeorgeClooney.png', 'Im_KeanuReeves.png', 'Im_RobertPattinson.png', 'Im_RyanGosling.png', 'Im_PatrickDempsey.png', 'Im_BenStiller.png', 'Im_OrlandoBloom.png', 'Im_LeonardoDiCaprio.png', 'Im_DanielCraig.png'],diff,1,248.2924098000003,12,0
ALRE2209,train,inv,fs,posfs_id7_im15.bmp_posfs_id7_im26.bmp,['Im_DanielRadcliffe.png', 'Im_GeorgeClooney.png', 'Im_KeanuReeves.png', 'Im_RobertPattinson.png', 'Im_RyanGosling.png', 'Im_PatrickDempsey.png', 'Im_BenStiller.png', 'Im_OrlandoBloom.png', 'Im_LeonardoDiCaprio.png', 'Im_DanielCraig.png'],same,1,252.47557760000018,13,0
ALRE2209,train,inv,fs,posfs_id17_im8.bmp_posfs_id17_im14.bmp,['Im_DanielRadcliffe.png', 'Im_GeorgeClooney.png', 'Im_KeanuReeves.png', 'Im_RobertPattinson.png', 'Im_RyanGosling.png', 'Im_PatrickDempsey.png', 'Im_BenStiller.png', 'Im_OrlandoBloom.png', 'Im_LeonardoDiCaprio.png', 'Im_DanielCraig.png'],diff,0,256.434068,13,0
ALRE2209,train,inv,fs,posfs_id13_im15.bmp_posfs_id17_im14.bmp,['Im_DanielRadcliffe.png', 'Im_GeorgeClooney.png', 'Im_KeanuReeves.png', 'Im_RobertPattinson.png', 'Im_RyanGosling.png', 'Im_PatrickDempsey.png', 'Im_BenStiller.png', 'Im_OrlandoBloom.png', 'Im_LeonardoDiCaprio.png', 'Im_DanielCraig.png'],diff,1,261.50080160000016,14,0
ALRE2209,train,pos,fs,posfs_id7_im15.bmp_posfs_id20_im12.bmp,['Im_DanielRadcliffe.png', 'Im_GeorgeClooney.png', 'Im_KeanuReeves.png', 'Im_RobertPattinson.png', 'Im_RyanGosling.png', 'Im_PatrickDempsey.png', 'Im_BenStiller.png', 'Im_OrlandoBloom.png', 'Im_LeonardoDiCaprio.png', 'Im_DanielCraig.png'],diff,1,265.3507017000002,15,0
ALRE2209,train,inv,fs,posfs_id4_im20.bmp_posfs_id20_im30.bmp,['Im_DanielRadcliffe.png', 'Im_GeorgeClooney.png', 'Im_KeanuReeves.png', 'Im_RobertPattinson.png', 'Im_RyanGosling.png', 'Im_PatrickDempsey.png', 'Im_BenStiller.png', 'Im_OrlandoBloom.png', 'Im_LeonardoDiCaprio.png', 'Im_DanielCraig.png'],diff,1,274.09241880000036,1,75.0
ALRE2209,train,pos,fs,posfs_id2_im3.bmp_posfs_id7_im26.bmp,['Im_DanielRadcliffe.png', 'Im_GeorgeClooney.png', 'Im_KeanuReeves.png', 'Im_RobertPattinson.png', 'Im_RyanGosling.png', 'Im_PatrickDempsey.png', 'Im_BenStiller.png', 'Im_OrlandoBloom.png', 'Im_LeonardoDiCaprio.png', 'Im_DanielCraig.png'],diff,1,278.2673398000002,2,75.0
ALRE2209,train,neg,fs,negfs_id19_im8.bmp_negfs_id16_im3.bmp,['Im_DanielRadcliffe.png', 'Im_GeorgeClooney.png', 'Im_KeanuReeves.png', 'Im_RobertPattinson.png', 'Im_RyanGosling.png', 'Im_PatrickDempsey.png', 'Im_BenStiller.png', 'Im_OrlandoBloom.png', 'Im_LeonardoDiCaprio.png', 'Im_DanielCraig.png'],same,0,281.9843127000004,2,75.0
ALRE2209,train,pos,fs,posfs_id13_im29.bmp_posfs_id13_im15.bmp,['Im_DanielRadcliffe.png', 'Im_GeorgeClooney.png', 'Im_KeanuReeves.png', 'Im_RobertPattinson.png', 'Im_RyanGosling.png', 'Im_PatrickDempsey.png', 'Im_BenStiller.png', 'Im_OrlandoBloom.png', 'Im_LeonardoDiCaprio.png', 'Im_DanielCraig.png'],same,1,285.36759900000015,3,75.0
ALRE2209,train,pos,fs,posfs_id19_im27.bmp_posfs_id19_im4.bmp,['Im_DanielRadcliffe.png', 'Im_GeorgeClooney.png', 'Im_KeanuReeves.png', 'Im_RobertPattinson.png', 'Im_RyanGosling.png', 'Im_PatrickDempsey.png', 'Im_BenStiller.png', 'Im_OrlandoBloom.png', 'Im_LeonardoDiCaprio.png', 'Im_DanielCraig.png'],same,1,289.1924352000001,4,75.0
ALRE2209,train,pos,fs,posfs_id13_im10.bmp_posfs_id13_im15.bmp,['Im_DanielRadcliffe.png', 'Im_GeorgeClooney.png', 'Im_KeanuReeves.png', 'Im_RobertPattinson.png', 'Im_RyanGosling.png', 'Im_PatrickDempsey.png', 'Im_BenStiller.png', 'Im_OrlandoBloom.png', 'Im_LeonardoDiCaprio.png', 'Im_DanielCraig.png'],same,1,292.5840092000003,5,75.0
ALRE2209,train,neg,fs,negfs_id13_im10.bmp_negfs_id13_im29.bmp,['Im_DanielRadcliffe.png', 'Im_GeorgeClooney.png', 'Im_KeanuReeves.png', 'Im_RobertPattinson.png', 'Im_RyanGosling.png', 'Im_PatrickDempsey.png', 'Im_BenStiller.png', 'Im_OrlandoBloom.png', 'Im_LeonardoDiCaprio.png', 'Im_DanielCraig.png'],same,1,297.4924175000001,6,75.0
ALRE2209,train,neg,fs,negfs_id2_im16.bmp_negfs_id13_im29.bmp,['Im_DanielRadcliffe.png', 'Im_GeorgeClooney.png', 'Im_KeanuReeves.png', 'Im_RobertPattinson.png', 'Im_RyanGosling.png', 'Im_PatrickDempsey.png', 'Im_BenStiller.png', 'Im_OrlandoBloom.png', 'Im_LeonardoDiCaprio.png', 'Im_DanielCraig.png'],diff,1,301.0011506000001,7,75.0
ALRE2209,train,neg,fs,negfs_id20_im3.bmp_negfs_id5_im10.bmp,['Im_DanielRadcliffe.png', 'Im_GeorgeClooney.png', 'Im_KeanuReeves.png', 'Im_RobertPattinson.png', 'Im_RyanGosling.png', 'Im_PatrickDempsey.png', 'Im_BenStiller.png', 'Im_OrlandoBloom.png', 'Im_LeonardoDiCaprio.png', 'Im_DanielCraig.png'],diff,1,304.8258315000003,8,75.0
ALRE2209,train,neg,fs,negfs_id2_im3.bmp_negfs_id7_im26.bmp,['Im_DanielRadcliffe.png', 'Im_GeorgeClooney.png', 'Im_KeanuReeves.png', 'Im_RobertPattinson.png', 'Im_RyanGosling.png', 'Im_PatrickDempsey.png', 'Im_BenStiller.png', 'Im_OrlandoBloom.png', 'Im_LeonardoDiCaprio.png', 'Im_DanielCraig.png'],diff,1,308.768818,9,75.0
ALRE2209,train,inv,fs,posfs_id17_im9.bmp_posfs_id4_im7.bmp,['Im_DanielRadcliffe.png', 'Im_GeorgeClooney.png', 'Im_KeanuReeves.png', 'Im_RobertPattinson.png', 'Im_RyanGosling.png', 'Im_PatrickDempsey.png', 'Im_BenStiller.png', 'Im_OrlandoBloom.png', 'Im_LeonardoDiCaprio.png', 'Im_DanielCraig.png'],diff,1,312.15912660000004,10,75.0
ALRE2209,train,inv,fs,posfs_id5_im10.bmp_posfs_id5_im20.bmp,['Im_DanielRadcliffe.png', 'Im_GeorgeClooney.png', 'Im_KeanuReeves.png', 'Im_RobertPattinson.png', 'Im_RyanGosling.png', 'Im_PatrickDempsey.png', 'Im_BenStiller.png', 'Im_OrlandoBloom.png', 'Im_LeonardoDiCaprio.png', 'Im_DanielCraig.png'],same,1,316.15935030000037,11,75.0
ALRE2209,train,neg,fs,negfs_id20_im12.bmp_negfs_id20_im30.bmp,['Im_DanielRadcliffe.png', 'Im_GeorgeClooney.png', 'Im_KeanuReeves.png', 'Im_RobertPattinson.png', 'Im_RyanGosling.png', 'Im_PatrickDempsey.png', 'Im_BenStiller.png', 'Im_OrlandoBloom.png', 'Im_LeonardoDiCaprio.png', 'Im_DanielCraig.png'],same,1,320.15099499999997,12,75.0
ALRE2209,train,inv,fs,posfs_id16_im3.bmp_posfs_id7_im14.bmp,['Im_DanielRadcliffe.png', 'Im_GeorgeClooney.png', 'Im_KeanuReeves.png', 'Im_RobertPattinson.png', 'Im_RyanGosling.png', 'Im_PatrickDempsey.png', 'Im_BenStiller.png', 'Im_OrlandoBloom.png', 'Im_LeonardoDiCaprio.png', 'Im_DanielCraig.png'],diff,1,324.36748650000027,13,75.0
ALRE2209,train,inv,fs,posfs_id17_im9.bmp_posfs_id17_im14.bmp,['Im_DanielRadcliffe.png', 'Im_GeorgeClooney.png', 'Im_KeanuReeves.png', 'Im_RobertPattinson.png', 'Im_RyanGosling.png', 'Im_PatrickDempsey.png', 'Im_BenStiller.png', 'Im_OrlandoBloom.png', 'Im_LeonardoDiCaprio.png', 'Im_DanielCraig.png'],diff,0,328.9176878000003,13,75.0
ALRE2209,train,inv,fs,posfs_id17_im8.bmp_posfs_id4_im7.bmp,['Im_DanielRadcliffe.png', 'Im_GeorgeClooney.png', 'Im_KeanuReeves.png', 'Im_RobertPattinson.png', 'Im_RyanGosling.png', 'Im_PatrickDempsey.png', 'Im_BenStiller.png', 'Im_OrlandoBloom.png', 'Im_LeonardoDiCaprio.png', 'Im_DanielCraig.png'],diff,1,332.5923484,14,75.0
ALRE2209,train,neg,fs,negfs_id4_im20.bmp_negfs_id4_im7.bmp,['Im_DanielRadcliffe.png', 'Im_GeorgeClooney.png', 'Im_KeanuReeves.png', 'Im_RobertPattinson.png', 'Im_RyanGosling.png', 'Im_PatrickDempsey.png', 'Im_BenStiller.png', 'Im_OrlandoBloom.png', 'Im_LeonardoDiCaprio.png', 'Im_DanielCraig.png'],same,1,336.1260476000002,15,75.0
ALRE2209,train,inv,fs,posfs_id19_im27.bmp_posfs_id4_im15.bmp,['Im_DanielRadcliffe.png', 'Im_GeorgeClooney.png', 'Im_KeanuReeves.png', 'Im_RobertPattinson.png', 'Im_RyanGosling.png', 'Im_PatrickDempsey.png', 'Im_BenStiller.png', 'Im_OrlandoBloom.png', 'Im_LeonardoDiCaprio.png', 'Im_DanielCraig.png'],diff,1,340.0507045000004,16,75.0
ALRE2209,train,inv,fs,posfs_id2_im2.bmp_posfs_id2_im16.bmp,['Im_DanielRadcliffe.png', 'Im_GeorgeClooney.png', 'Im_KeanuReeves.png', 'Im_RobertPattinson.png', 'Im_RyanGosling.png', 'Im_PatrickDempsey.png', 'Im_BenStiller.png', 'Im_OrlandoBloom.png', 'Im_LeonardoDiCaprio.png', 'Im_DanielCraig.png'],same,1,343.6510168,17,75.0
ALRE2209,train,inv,fs,posfs_id11_im2.bmp_posfs_id20_im30.bmp,['Im_DanielRadcliffe.png', 'Im_GeorgeClooney.png', 'Im_KeanuReeves.png', 'Im_RobertPattinson.png', 'Im_RyanGosling.png', 'Im_PatrickDempsey.png', 'Im_BenStiller.png', 'Im_OrlandoBloom.png', 'Im_LeonardoDiCaprio.png', 'Im_DanielCraig.png'],diff,1,347.8506698000001,18,75.0
ALRE2209,train,neg,90,neg90_id2_im2.bmp_neg90_id2_im16.bmp,['Im_DanielRadcliffe.png', 'Im_GeorgeClooney.png', 'Im_KeanuReeves.png', 'Im_RobertPattinson.png', 'Im_RyanGosling.png', 'Im_PatrickDempsey.png', 'Im_BenStiller.png', 'Im_OrlandoBloom.png', 'Im_LeonardoDiCaprio.png', 'Im_DanielCraig.png'],same,1,360.75110140000015,1,0
ALRE2209,train,neg,90,neg90_id19_im27.bmp_neg90_id4_im15.bmp,['Im_DanielRadcliffe.png', 'Im_GeorgeClooney.png', 'Im_KeanuReeves.png', 'Im_RobertPattinson.png', 'Im_RyanGosling.png', 'Im_PatrickDempsey.png', 'Im_BenStiller.png', 'Im_OrlandoBloom.png', 'Im_LeonardoDiCaprio.png', 'Im_DanielCraig.png'],diff,1,365.27588779999996,2,0
ALRE2209,train,neg,120,neg120_id11_im1.bmp_neg120_id11_im10.bmp,['Im_DanielRadcliffe.png', 'Im_GeorgeClooney.png', 'Im_KeanuReeves.png', 'Im_RobertPattinson.png', 'Im_RyanGosling.png', 'Im_PatrickDempsey.png', 'Im_BenStiller.png', 'Im_OrlandoBloom.png', 'Im_LeonardoDiCaprio.png', 'Im_DanielCraig.png'],same,1,369.72587999999996,3,0
ALRE2209,train,neg,0,neg0_id2_im3.bmp_neg0_id17_im14.bmp,['Im_DanielRadcliffe.png', 'Im_GeorgeClooney.png', 'Im_KeanuReeves.png', 'Im_RobertPattinson.png', 'Im_RyanGosling.png', 'Im_PatrickDempsey.png', 'Im_BenStiller.png', 'Im_OrlandoBloom.png', 'Im_LeonardoDiCaprio.png', 'Im_DanielCraig.png'],same,0,376.12612160000026,3,0
ALRE2209,train,neg,30,neg30_id13_im10.bmp_neg30_id13_im29.bmp,['Im_DanielRadcliffe.png', 'Im_GeorgeClooney.png', 'Im_KeanuReeves.png', 'Im_RobertPattinson.png', 'Im_RyanGosling.png', 'Im_PatrickDempsey.png', 'Im_BenStiller.png', 'Im_OrlandoBloom.png', 'Im_LeonardoDiCaprio.png', 'Im_DanielCraig.png'],same,1,381.8509124000002,4,0
ALRE2209,train,neg,120,neg120_id16_im19.bmp_neg120_id20_im12.bmp,['Im_DanielRadcliffe.png', 'Im_GeorgeClooney.png', 'Im_KeanuReeves.png', 'Im_RobertPattinson.png', 'Im_RyanGosling.png', 'Im_PatrickDempsey.png', 'Im_BenStiller.png', 'Im_OrlandoBloom.png', 'Im_LeonardoDiCaprio.png', 'Im_DanielCraig.png'],diff,1,386.82575369999995,5,0
ALRE2209,train,neg,fs,negfs_id7_im14.bmp_negfs_id4_im20.bmp,['Im_DanielRadcliffe.png', 'Im_GeorgeClooney.png', 'Im_KeanuReeves.png', 'Im_RobertPattinson.png', 'Im_RyanGosling.png', 'Im_PatrickDempsey.png', 'Im_BenStiller.png', 'Im_OrlandoBloom.png', 'Im_LeonardoDiCaprio.png', 'Im_DanielCraig.png'],diff,1,390.82577630000014,6,0
ALRE2209,train,neg,0,neg0_id19_im27.bmp_neg0_id19_im8.bmp,['Im_DanielRadcliffe.png', 'Im_GeorgeClooney.png', 'Im_KeanuReeves.png', 'Im_RobertPattinson.png', 'Im_RyanGosling.png', 'Im_PatrickDempsey.png', 'Im_BenStiller.png', 'Im_OrlandoBloom.png', 'Im_LeonardoDiCaprio.png', 'Im_DanielCraig.png'],same,1,394.9592666000003,7,0
ALRE2209,train,neg,60,neg60_id5_im20.bmp_neg60_id5_im1.bmp,['Im_DanielRadcliffe.png', 'Im_GeorgeClooney.png', 'Im_KeanuReeves.png', 'Im_RobertPattinson.png', 'Im_RyanGosling.png', 'Im_PatrickDempsey.png', 'Im_BenStiller.png', 'Im_OrlandoBloom.png', 'Im_LeonardoDiCaprio.png', 'Im_DanielCraig.png'],same,1,398.7759294000002,8,0
ALRE2209,train,neg,fs,negfs_id16_im19.bmp_negfs_id16_im2.bmp,['Im_DanielRadcliffe.png', 'Im_GeorgeClooney.png', 'Im_KeanuReeves.png', 'Im_RobertPattinson.png', 'Im_RyanGosling.png', 'Im_PatrickDempsey.png', 'Im_BenStiller.png', 'Im_OrlandoBloom.png', 'Im_LeonardoDiCaprio.png', 'Im_DanielCraig.png'],same,1,402.8842787000003,9,0
ALRE2209,train,neg,60,neg60_id7_im15.bmp_neg60_id19_im4.bmp,['Im_DanielRadcliffe.png', 'Im_GeorgeClooney.png', 'Im_KeanuReeves.png', 'Im_RobertPattinson.png', 'Im_RyanGosling.png', 'Im_PatrickDempsey.png', 'Im_BenStiller.png', 'Im_OrlandoBloom.png', 'Im_LeonardoDiCaprio.png', 'Im_DanielCraig.png'],same,0,409.09278919999997,9,0
ALRE2209,train,neg,150,neg150_id4_im20.bmp_neg150_id20_im30.bmp,['Im_DanielRadcliffe.png', 'Im_GeorgeClooney.png', 'Im_KeanuReeves.png', 'Im_RobertPattinson.png', 'Im_RyanGosling.png', 'Im_PatrickDempsey.png', 'Im_BenStiller.png', 'Im_OrlandoBloom.png', 'Im_LeonardoDiCaprio.png', 'Im_DanielCraig.png'],diff,1,413.1509761000002,10,0
ALRE2209,train,neg,30,neg30_id11_im10.bmp_neg30_id2_im2.bmp,['Im_DanielRadcliffe.png', 'Im_GeorgeClooney.png', 'Im_KeanuReeves.png', 'Im_RobertPattinson.png', 'Im_RyanGosling.png', 'Im_PatrickDempsey.png', 'Im_BenStiller.png', 'Im_OrlandoBloom.png', 'Im_LeonardoDiCaprio.png', 'Im_DanielCraig.png'],same,0,416.8843127,10,0
ALRE2209,train,neg,150,neg150_id11_im10.bmp_neg150_id17_im8.bmp,['Im_DanielRadcliffe.png', 'Im_GeorgeClooney.png', 'Im_KeanuReeves.png', 'Im_RobertPattinson.png', 'Im_RyanGosling.png', 'Im_PatrickDempsey.png', 'Im_BenStiller.png', 'Im_OrlandoBloom.png', 'Im_LeonardoDiCaprio.png', 'Im_DanielCraig.png'],diff,1,420.96744560000025,11,0
ALRE2209,train,inv,90,pos90_id5_im20.bmp_pos90_id20_im3.bmp,['Im_DanielRadcliffe.png', 'Im_GeorgeClooney.png', 'Im_KeanuReeves.png', 'Im_RobertPattinson.png', 'Im_RyanGosling.png', 'Im_PatrickDempsey.png', 'Im_BenStiller.png', 'Im_OrlandoBloom.png', 'Im_LeonardoDiCaprio.png', 'Im_DanielCraig.png'],diff,1,425.11005300000033,12,0
ALRE2209,train,inv,30,pos30_id7_im14.bmp_pos30_id16_im3.bmp,['Im_DanielRadcliffe.png', 'Im_GeorgeClooney.png', 'Im_KeanuReeves.png', 'Im_RobertPattinson.png', 'Im_RyanGosling.png', 'Im_PatrickDempsey.png', 'Im_BenStiller.png', 'Im_OrlandoBloom.png', 'Im_LeonardoDiCaprio.png', 'Im_DanielCraig.png'],diff,1,428.70122310000033,13,0
ALRE2209,train,inv,60,pos60_id16_im2.bmp_pos60_id13_im10.bmp,['Im_DanielRadcliffe.png', 'Im_GeorgeClooney.png', 'Im_KeanuReeves.png', 'Im_RobertPattinson.png', 'Im_RyanGosling.png', 'Im_PatrickDempsey.png', 'Im_BenStiller.png', 'Im_OrlandoBloom.png', 'Im_LeonardoDiCaprio.png', 'Im_DanielCraig.png'],diff,1,433.0841432000002,14,0
ALRE2209,train,inv,0,pos0_id7_im26.bmp_pos0_id2_im3.bmp,['Im_DanielRadcliffe.png', 'Im_GeorgeClooney.png', 'Im_KeanuReeves.png', 'Im_RobertPattinson.png', 'Im_RyanGosling.png', 'Im_PatrickDempsey.png', 'Im_BenStiller.png', 'Im_OrlandoBloom.png', 'Im_LeonardoDiCaprio.png', 'Im_DanielCraig.png'],same,0,436.91783239999995,14,0
ALRE2209,train,inv,120,pos120_id13_im15.bmp_pos120_id19_im27.bmp,['Im_DanielRadcliffe.png', 'Im_GeorgeClooney.png', 'Im_KeanuReeves.png', 'Im_RobertPattinson.png', 'Im_RyanGosling.png', 'Im_PatrickDempsey.png', 'Im_BenStiller.png', 'Im_OrlandoBloom.png', 'Im_LeonardoDiCaprio.png', 'Im_DanielCraig.png'],same,0,442.0008455000002,14,0
ALRE2209,train,inv,150,pos150_id16_im19.bmp_pos150_id16_im3.bmp,['Im_DanielRadcliffe.png', 'Im_GeorgeClooney.png', 'Im_KeanuReeves.png', 'Im_RobertPattinson.png', 'Im_RyanGosling.png', 'Im_PatrickDempsey.png', 'Im_BenStiller.png', 'Im_OrlandoBloom.png', 'Im_LeonardoDiCaprio.png', 'Im_DanielCraig.png'],same,1,446.10937170000034,15,0
ALRE2209,train,inv,60,pos60_id4_im20.bmp_pos60_id7_im14.bmp,['Im_DanielRadcliffe.png', 'Im_GeorgeClooney.png', 'Im_KeanuReeves.png', 'Im_RobertPattinson.png', 'Im_RyanGosling.png', 'Im_PatrickDempsey.png', 'Im_BenStiller.png', 'Im_OrlandoBloom.png', 'Im_LeonardoDiCaprio.png', 'Im_DanielCraig.png'],diff,1,449.78458880000017,16,0
ALRE2209,train,inv,90,pos90_id5_im20.bmp_pos90_id5_im1.bmp,['Im_DanielRadcliffe.png', 'Im_GeorgeClooney.png', 'Im_KeanuReeves.png', 'Im_RobertPattinson.png', 'Im_RyanGosling.png', 'Im_PatrickDempsey.png', 'Im_BenStiller.png', 'Im_OrlandoBloom.png', 'Im_LeonardoDiCaprio.png', 'Im_DanielCraig.png'],same,1,453.4426698000002,17,0
ALRE2209,train,inv,30,pos30_id20_im3.bmp_pos30_id20_im30.bmp,['Im_DanielRadcliffe.png', 'Im_GeorgeClooney.png', 'Im_KeanuReeves.png', 'Im_RobertPattinson.png', 'Im_RyanGosling.png', 'Im_PatrickDempsey.png', 'Im_BenStiller.png', 'Im_OrlandoBloom.png', 'Im_LeonardoDiCaprio.png', 'Im_DanielCraig.png'],same,1,458.1679428000002,18,0
ALRE2209,train,inv,fs,posfs_id16_im2.bmp_posfs_id16_im19.bmp,['Im_DanielRadcliffe.png', 'Im_GeorgeClooney.png', 'Im_KeanuReeves.png', 'Im_RobertPattinson.png', 'Im_RyanGosling.png', 'Im_PatrickDempsey.png', 'Im_BenStiller.png', 'Im_OrlandoBloom.png', 'Im_LeonardoDiCaprio.png', 'Im_DanielCraig.png'],same,1,464.8758963,19,0
ALRE2209,train,inv,150,pos150_id11_im10.bmp_pos150_id11_im1.bmp,['Im_DanielRadcliffe.png', 'Im_GeorgeClooney.png', 'Im_KeanuReeves.png', 'Im_RobertPattinson.png', 'Im_RyanGosling.png', 'Im_PatrickDempsey.png', 'Im_BenStiller.png', 'Im_OrlandoBloom.png', 'Im_LeonardoDiCaprio.png', 'Im_DanielCraig.png'],diff,0,468.54253400000016,19,0
ALRE2209,train,inv,fs,posfs_id4_im7.bmp_posfs_id4_im20.bmp,['Im_DanielRadcliffe.png', 'Im_GeorgeClooney.png', 'Im_KeanuReeves.png', 'Im_RobertPattinson.png', 'Im_RyanGosling.png', 'Im_PatrickDempsey.png', 'Im_BenStiller.png', 'Im_OrlandoBloom.png', 'Im_LeonardoDiCaprio.png', 'Im_DanielCraig.png'],same,1,472.4010707000002,20,0
ALRE2209,train,inv,120,pos120_id5_im1.bmp_pos120_id5_im10.bmp,['Im_DanielRadcliffe.png', 'Im_GeorgeClooney.png', 'Im_KeanuReeves.png', 'Im_RobertPattinson.png', 'Im_RyanGosling.png', 'Im_PatrickDempsey.png', 'Im_BenStiller.png', 'Im_OrlandoBloom.png', 'Im_LeonardoDiCaprio.png', 'Im_DanielCraig.png'],same,1,476.4264626000004,21,0
ALRE2209,train,inv,0,pos0_id19_im27.bmp_pos0_id19_im4.bmp,['Im_DanielRadcliffe.png', 'Im_GeorgeClooney.png', 'Im_KeanuReeves.png', 'Im_RobertPattinson.png', 'Im_RyanGosling.png', 'Im_PatrickDempsey.png', 'Im_BenStiller.png', 'Im_OrlandoBloom.png', 'Im_LeonardoDiCaprio.png', 'Im_DanielCraig.png'],same,1,480.88449790000004,22,0
ALRE2209,train,neg,150,neg150_id5_im1.bmp_neg150_id4_im15.bmp,['Im_DanielRadcliffe.png', 'Im_GeorgeClooney.png', 'Im_KeanuReeves.png', 'Im_RobertPattinson.png', 'Im_RyanGosling.png', 'Im_PatrickDempsey.png', 'Im_BenStiller.png', 'Im_OrlandoBloom.png', 'Im_LeonardoDiCaprio.png', 'Im_DanielCraig.png'],diff,1,485.1512235,23,0
ALRE2209,train,neg,0,neg0_id7_im26.bmp_neg0_id7_im15.bmp,['Im_DanielRadcliffe.png', 'Im_GeorgeClooney.png', 'Im_KeanuReeves.png', 'Im_RobertPattinson.png', 'Im_RyanGosling.png', 'Im_PatrickDempsey.png', 'Im_BenStiller.png', 'Im_OrlandoBloom.png', 'Im_LeonardoDiCaprio.png', 'Im_DanielCraig.png'],same,1,489.5594065,24,0
ALRE2209,train,neg,60,neg60_id16_im2.bmp_neg60_id5_im10.bmp,['Im_DanielRadcliffe.png', 'Im_GeorgeClooney.png', 'Im_KeanuReeves.png', 'Im_RobertPattinson.png', 'Im_RyanGosling.png', 'Im_PatrickDempsey.png', 'Im_BenStiller.png', 'Im_OrlandoBloom.png', 'Im_LeonardoDiCaprio.png', 'Im_DanielCraig.png'],diff,1,493.6927619000003,25,0
ALRE2209,train,neg,120,neg120_id16_im19.bmp_neg120_id16_im2.bmp,['Im_DanielRadcliffe.png', 'Im_GeorgeClooney.png', 'Im_KeanuReeves.png', 'Im_RobertPattinson.png', 'Im_RyanGosling.png', 'Im_PatrickDempsey.png', 'Im_BenStiller.png', 'Im_OrlandoBloom.png', 'Im_LeonardoDiCaprio.png', 'Im_DanielCraig.png'],same,1,497.4676749,26,0
ALRE2209,train,neg,60,neg60_id13_im15.bmp_neg60_id19_im27.bmp,['Im_DanielRadcliffe.png', 'Im_GeorgeClooney.png', 'Im_KeanuReeves.png', 'Im_RobertPattinson.png', 'Im_RyanGosling.png', 'Im_PatrickDempsey.png', 'Im_BenStiller.png', 'Im_OrlandoBloom.png', 'Im_LeonardoDiCaprio.png', 'Im_DanielCraig.png'],same,0,502.3844514000002,26,0
ALRE2209,train,neg,fs,negfs_id5_im20.bmp_negfs_id5_im1.bmp,['Im_DanielRadcliffe.png', 'Im_GeorgeClooney.png', 'Im_KeanuReeves.png', 'Im_RobertPattinson.png', 'Im_RyanGosling.png', 'Im_PatrickDempsey.png', 'Im_BenStiller.png', 'Im_OrlandoBloom.png', 'Im_LeonardoDiCaprio.png', 'Im_DanielCraig.png'],same,1,506.14264550000007,27,0
ALRE2209,train,neg,0,neg0_id4_im20.bmp_neg0_id4_im7.bmp,['Im_DanielRadcliffe.png', 'Im_GeorgeClooney.png', 'Im_KeanuReeves.png', 'Im_RobertPattinson.png', 'Im_RyanGosling.png', 'Im_PatrickDempsey.png', 'Im_BenStiller.png', 'Im_OrlandoBloom.png', 'Im_LeonardoDiCaprio.png', 'Im_DanielCraig.png'],same,1,510.01784480000015,28,0
ALRE2209,train,neg,fs,negfs_id7_im26.bmp_negfs_id7_im15.bmp,['Im_DanielRadcliffe.png', 'Im_GeorgeClooney.png', 'Im_KeanuReeves.png', 'Im_RobertPattinson.png', 'Im_RyanGosling.png', 'Im_PatrickDempsey.png', 'Im_BenStiller.png', 'Im_OrlandoBloom.png', 'Im_LeonardoDiCaprio.png', 'Im_DanielCraig.png'],same,1,513.7176762000004,29,0
ALRE2209,train,neg,150,neg150_id17_im14.bmp_neg150_id13_im15.bmp,['Im_DanielRadcliffe.png', 'Im_GeorgeClooney.png', 'Im_KeanuReeves.png', 'Im_RobertPattinson.png', 'Im_RyanGosling.png', 'Im_PatrickDempsey.png', 'Im_BenStiller.png', 'Im_OrlandoBloom.png', 'Im_LeonardoDiCaprio.png', 'Im_DanielCraig.png'],diff,1,517.7176057000001,30,0
ALRE2209,train,neg,90,neg90_id17_im14.bmp_neg90_id17_im8.bmp,['Im_DanielRadcliffe.png', 'Im_GeorgeClooney.png', 'Im_KeanuReeves.png', 'Im_RobertPattinson.png', 'Im_RyanGosling.png', 'Im_PatrickDempsey.png', 'Im_BenStiller.png', 'Im_OrlandoBloom.png', 'Im_LeonardoDiCaprio.png', 'Im_DanielCraig.png'],diff,0,521.6678812,30,0
ALRE2209,train,neg,30,neg30_id20_im30.bmp_neg30_id4_im20.bmp,['Im_DanielRadcliffe.png', 'Im_GeorgeClooney.png', 'Im_KeanuReeves.png', 'Im_RobertPattinson.png', 'Im_RyanGosling.png', 'Im_PatrickDempsey.png', 'Im_BenStiller.png', 'Im_OrlandoBloom.png', 'Im_LeonardoDiCaprio.png', 'Im_DanielCraig.png'],diff,1,526.2261680000001,31,0
ALRE2209,train,neg,90,neg90_id20_im30.bmp_neg90_id11_im2.bmp,['Im_DanielRadcliffe.png', 'Im_GeorgeClooney.png', 'Im_KeanuReeves.png', 'Im_RobertPattinson.png', 'Im_RyanGosling.png', 'Im_PatrickDempsey.png', 'Im_BenStiller.png', 'Im_OrlandoBloom.png', 'Im_LeonardoDiCaprio.png', 'Im_DanielCraig.png'],diff,1,530.5676914000001,32,0
ALRE2209,train,neg,30,neg30_id7_im26.bmp_neg30_id19_im4.bmp,['Im_DanielRadcliffe.png', 'Im_GeorgeClooney.png', 'Im_KeanuReeves.png', 'Im_RobertPattinson.png', 'Im_RyanGosling.png', 'Im_PatrickDempsey.png', 'Im_BenStiller.png', 'Im_OrlandoBloom.png', 'Im_LeonardoDiCaprio.png', 'Im_DanielCraig.png'],same,0,534.8510894000001,32,0
ALRE2209,train,neg,120,neg120_id5_im20.bmp_neg120_id20_im3.bmp,['Im_DanielRadcliffe.png', 'Im_GeorgeClooney.png', 'Im_KeanuReeves.png', 'Im_RobertPattinson.png', 'Im_RyanGosling.png', 'Im_PatrickDempsey.png', 'Im_BenStiller.png', 'Im_OrlandoBloom.png', 'Im_LeonardoDiCaprio.png', 'Im_DanielCraig.png'],diff,1,538.8595833000004,33,0
ALRE2209,train,pos,90,pos90_id4_im7.bmp_pos90_id17_im9.bmp,['Im_DanielRadcliffe.png', 'Im_GeorgeClooney.png', 'Im_KeanuReeves.png', 'Im_RobertPattinson.png', 'Im_RyanGosling.png', 'Im_PatrickDempsey.png', 'Im_BenStiller.png', 'Im_OrlandoBloom.png', 'Im_LeonardoDiCaprio.png', 'Im_DanielCraig.png'],diff,1,546.3928438000003,1,78.57142857142857
ALRE2209,train,pos,30,pos30_id4_im20.bmp_pos30_id7_im14.bmp,['Im_DanielRadcliffe.png', 'Im_GeorgeClooney.png', 'Im_KeanuReeves.png', 'Im_RobertPattinson.png', 'Im_RyanGosling.png', 'Im_PatrickDempsey.png', 'Im_BenStiller.png', 'Im_OrlandoBloom.png', 'Im_LeonardoDiCaprio.png', 'Im_DanielCraig.png'],same,0,552.7013283000001,1,78.57142857142857
ALRE2209,train,pos,60,pos60_id17_im8.bmp_pos60_id11_im10.bmp,['Im_DanielRadcliffe.png', 'Im_GeorgeClooney.png', 'Im_KeanuReeves.png', 'Im_RobertPattinson.png', 'Im_RyanGosling.png', 'Im_PatrickDempsey.png', 'Im_BenStiller.png', 'Im_OrlandoBloom.png', 'Im_LeonardoDiCaprio.png', 'Im_DanielCraig.png'],diff,1,557.8682429,2,78.57142857142857
ALRE2209,train,pos,90,pos90_id20_im30.bmp_pos90_id20_im12.bmp,['Im_DanielRadcliffe.png', 'Im_GeorgeClooney.png', 'Im_KeanuReeves.png', 'Im_RobertPattinson.png', 'Im_RyanGosling.png', 'Im_PatrickDempsey.png', 'Im_BenStiller.png', 'Im_OrlandoBloom.png', 'Im_LeonardoDiCaprio.png', 'Im_DanielCraig.png'],same,1,561.9095322000003,3,78.57142857142857
ALRE2209,train,pos,fs,posfs_id17_im14.bmp_posfs_id17_im8.bmp,['Im_DanielRadcliffe.png', 'Im_GeorgeClooney.png', 'Im_KeanuReeves.png', 'Im_RobertPattinson.png', 'Im_RyanGosling.png', 'Im_PatrickDempsey.png', 'Im_BenStiller.png', 'Im_OrlandoBloom.png', 'Im_LeonardoDiCaprio.png', 'Im_DanielCraig.png'],same,1,566.0345568000002,4,78.57142857142857
ALRE2209,train,pos,120,pos120_id13_im10.bmp_pos120_id13_im29.bmp,['Im_DanielRadcliffe.png', 'Im_GeorgeClooney.png', 'Im_KeanuReeves.png', 'Im_RobertPattinson.png', 'Im_RyanGosling.png', 'Im_PatrickDempsey.png', 'Im_BenStiller.png', 'Im_OrlandoBloom.png', 'Im_LeonardoDiCaprio.png', 'Im_DanielCraig.png'],same,1,570.0845423000001,5,78.57142857142857
ALRE2209,train,pos,60,pos60_id5_im20.bmp_pos60_id5_im10.bmp,['Im_DanielRadcliffe.png', 'Im_GeorgeClooney.png', 'Im_KeanuReeves.png', 'Im_RobertPattinson.png', 'Im_RyanGosling.png', 'Im_PatrickDempsey.png', 'Im_BenStiller.png', 'Im_OrlandoBloom.png', 'Im_LeonardoDiCaprio.png', 'Im_DanielCraig.png'],same,1,574.1514121,6,78.57142857142857
ALRE2209,train,pos,150,pos150_id5_im20.bmp_pos150_id16_im19.bmp,['Im_DanielRadcliffe.png', 'Im_GeorgeClooney.png', 'Im_KeanuReeves.png', 'Im_RobertPattinson.png', 'Im_RyanGosling.png', 'Im_PatrickDempsey.png', 'Im_BenStiller.png', 'Im_OrlandoBloom.png', 'Im_LeonardoDiCaprio.png', 'Im_DanielCraig.png'],diff,1,578.5511945000003,7,78.57142857142857
ALRE2209,train,pos,0,pos0_id16_im19.bmp_pos0_id16_im2.bmp,['Im_DanielRadcliffe.png', 'Im_GeorgeClooney.png', 'Im_KeanuReeves.png', 'Im_RobertPattinson.png', 'Im_RyanGosling.png', 'Im_PatrickDempsey.png', 'Im_BenStiller.png', 'Im_OrlandoBloom.png', 'Im_LeonardoDiCaprio.png', 'Im_DanielCraig.png'],diff,0,584.1431848000002,7,78.57142857142857
ALRE2209,train,pos,30,pos30_id4_im20.bmp_pos30_id20_im30.bmp,['Im_DanielRadcliffe.png', 'Im_GeorgeClooney.png', 'Im_KeanuReeves.png', 'Im_RobertPattinson.png', 'Im_RyanGosling.png', 'Im_PatrickDempsey.png', 'Im_BenStiller.png', 'Im_OrlandoBloom.png', 'Im_LeonardoDiCaprio.png', 'Im_DanielCraig.png'],diff,1,588.4596110000002,8,78.57142857142857
ALRE2209,train,pos,120,pos120_id2_im2.bmp_pos120_id17_im9.bmp,['Im_DanielRadcliffe.png', 'Im_GeorgeClooney.png', 'Im_KeanuReeves.png', 'Im_RobertPattinson.png', 'Im_RyanGosling.png', 'Im_PatrickDempsey.png', 'Im_BenStiller.png', 'Im_OrlandoBloom.png', 'Im_LeonardoDiCaprio.png', 'Im_DanielCraig.png'],diff,1,592.6760941000002,9,78.57142857142857
ALRE2209,train,pos,fs,posfs_id7_im14.bmp_posfs_id4_im20.bmp,['Im_DanielRadcliffe.png', 'Im_GeorgeClooney.png', 'Im_KeanuReeves.png', 'Im_RobertPattinson.png', 'Im_RyanGosling.png', 'Im_PatrickDempsey.png', 'Im_BenStiller.png', 'Im_OrlandoBloom.png', 'Im_LeonardoDiCaprio.png', 'Im_DanielCraig.png'],diff,1,596.9512328000001,10,78.57142857142857
ALRE2209,train,pos,0,pos0_id16_im19.bmp_pos0_id5_im20.bmp,['Im_DanielRadcliffe.png', 'Im_GeorgeClooney.png', 'Im_KeanuReeves.png', 'Im_RobertPattinson.png', 'Im_RyanGosling.png', 'Im_PatrickDempsey.png', 'Im_BenStiller.png', 'Im_OrlandoBloom.png', 'Im_LeonardoDiCaprio.png', 'Im_DanielCraig.png'],diff,1,601.109598,11,78.57142857142857
ALRE2209,train,pos,150,pos150_id4_im20.bmp_pos150_id7_im14.bmp,['Im_DanielRadcliffe.png', 'Im_GeorgeClooney.png', 'Im_KeanuReeves.png', 'Im_RobertPattinson.png', 'Im_RyanGosling.png', 'Im_PatrickDempsey.png', 'Im_BenStiller.png', 'Im_OrlandoBloom.png', 'Im_LeonardoDiCaprio.png', 'Im_DanielCraig.png'],diff,1,606.1514725000002,12,78.57142857142857
ALRE2209,train,pos,150,pos150_id2_im16.bmp_pos150_id2_im3.bmp,['Im_DanielRadcliffe.png', 'Im_GeorgeClooney.png', 'Im_KeanuReeves.png', 'Im_RobertPattinson.png', 'Im_RyanGosling.png', 'Im_PatrickDempsey.png', 'Im_BenStiller.png', 'Im_OrlandoBloom.png', 'Im_LeonardoDiCaprio.png', 'Im_DanielCraig.png'],same,1,610.3098048000002,13,78.57142857142857
ALRE2209,train,pos,0,pos0_id20_im30.bmp_pos0_id11_im2.bmp,['Im_DanielRadcliffe.png', 'Im_GeorgeClooney.png', 'Im_KeanuReeves.png', 'Im_RobertPattinson.png', 'Im_RyanGosling.png', 'Im_PatrickDempsey.png', 'Im_BenStiller.png', 'Im_OrlandoBloom.png', 'Im_LeonardoDiCaprio.png', 'Im_DanielCraig.png'],same,0,614.6679109000002,13,78.57142857142857
ALRE2209,train,pos,150,pos150_id13_im15.bmp_pos150_id13_im10.bmp,['Im_DanielRadcliffe.png', 'Im_GeorgeClooney.png', 'Im_KeanuReeves.png', 'Im_RobertPattinson.png', 'Im_RyanGosling.png', 'Im_PatrickDempsey.png', 'Im_BenStiller.png', 'Im_OrlandoBloom.png', 'Im_LeonardoDiCaprio.png', 'Im_DanielCraig.png'],same,1,618.5179666000004,14,78.57142857142857
ALRE2209,train,pos,60,pos60_id5_im1.bmp_pos60_id4_im15.bmp,['Im_DanielRadcliffe.png', 'Im_GeorgeClooney.png', 'Im_KeanuReeves.png', 'Im_RobertPattinson.png', 'Im_RyanGosling.png', 'Im_PatrickDempsey.png', 'Im_BenStiller.png', 'Im_OrlandoBloom.png', 'Im_LeonardoDiCaprio.png', 'Im_DanielCraig.png'],diff,1,622.3263459,15,78.57142857142857
ALRE2209,train,pos,30,pos30_id19_im8.bmp_pos30_id19_im27.bmp,['Im_DanielRadcliffe.png', 'Im_GeorgeClooney.png', 'Im_KeanuReeves.png', 'Im_RobertPattinson.png', 'Im_RyanGosling.png', 'Im_PatrickDempsey.png', 'Im_BenStiller.png', 'Im_OrlandoBloom.png', 'Im_LeonardoDiCaprio.png', 'Im_DanielCraig.png'],same,1,626.4931462,16,78.57142857142857
ALRE2209,train,pos,30,pos30_id13_im29.bmp_pos30_id13_im15.bmp,['Im_DanielRadcliffe.png', 'Im_GeorgeClooney.png', 'Im_KeanuReeves.png', 'Im_RobertPattinson.png', 'Im_RyanGosling.png', 'Im_PatrickDempsey.png', 'Im_BenStiller.png', 'Im_OrlandoBloom.png', 'Im_LeonardoDiCaprio.png', 'Im_DanielCraig.png'],same,1,631.4097392000003,17,78.57142857142857
ALRE2209,train,pos,60,pos60_id7_im14.bmp_pos60_id7_im26.bmp,['Im_DanielRadcliffe.png', 'Im_GeorgeClooney.png', 'Im_KeanuReeves.png', 'Im_RobertPattinson.png', 'Im_RyanGosling.png', 'Im_PatrickDempsey.png', 'Im_BenStiller.png', 'Im_OrlandoBloom.png', 'Im_LeonardoDiCaprio.png', 'Im_DanielCraig.png'],same,1,635.8346272000003,18,78.57142857142857
ALRE2209,train,pos,90,pos90_id11_im1.bmp_pos90_id5_im1.bmp,['Im_DanielRadcliffe.png', 'Im_GeorgeClooney.png', 'Im_KeanuReeves.png', 'Im_RobertPattinson.png', 'Im_RyanGosling.png', 'Im_PatrickDempsey.png', 'Im_BenStiller.png', 'Im_OrlandoBloom.png', 'Im_LeonardoDiCaprio.png', 'Im_DanielCraig.png'],diff,1,639.8015321000003,19,78.57142857142857
ALRE2209,train,pos,90,pos90_id16_im2.bmp_pos90_id13_im10.bmp,['Im_DanielRadcliffe.png', 'Im_GeorgeClooney.png', 'Im_KeanuReeves.png', 'Im_RobertPattinson.png', 'Im_RyanGosling.png', 'Im_PatrickDempsey.png', 'Im_BenStiller.png', 'Im_OrlandoBloom.png', 'Im_LeonardoDiCaprio.png', 'Im_DanielCraig.png'],diff,1,643.7180296000001,20,78.57142857142857
ALRE2209,train,pos,120,pos120_id19_im8.bmp_pos120_id16_im3.bmp,['Im_DanielRadcliffe.png', 'Im_GeorgeClooney.png', 'Im_KeanuReeves.png', 'Im_RobertPattinson.png', 'Im_RyanGosling.png', 'Im_PatrickDempsey.png', 'Im_BenStiller.png', 'Im_OrlandoBloom.png', 'Im_LeonardoDiCaprio.png', 'Im_DanielCraig.png'],diff,1,648.0346836000003,21,78.57142857142857
ALRE2209,train,pos,fs,posfs_id4_im15.bmp_posfs_id19_im27.bmp,['Im_DanielRadcliffe.png', 'Im_GeorgeClooney.png', 'Im_KeanuReeves.png', 'Im_RobertPattinson.png', 'Im_RyanGosling.png', 'Im_PatrickDempsey.png', 'Im_BenStiller.png', 'Im_OrlandoBloom.png', 'Im_LeonardoDiCaprio.png', 'Im_DanielCraig.png'],diff,1,652.4595156,22,78.57142857142857
ALRE2209,train,pos,fs,posfs_id4_im7.bmp_posfs_id17_im9.bmp,['Im_DanielRadcliffe.png', 'Im_GeorgeClooney.png', 'Im_KeanuReeves.png', 'Im_RobertPattinson.png', 'Im_RyanGosling.png', 'Im_PatrickDempsey.png', 'Im_BenStiller.png', 'Im_OrlandoBloom.png', 'Im_LeonardoDiCaprio.png', 'Im_DanielCraig.png'],diff,1,656.7349143000001,23,78.57142857142857
ALRE2209,train,pos,0,pos0_id5_im10.bmp_pos0_id5_im1.bmp,['Im_DanielRadcliffe.png', 'Im_GeorgeClooney.png', 'Im_KeanuReeves.png', 'Im_RobertPattinson.png', 'Im_RyanGosling.png', 'Im_PatrickDempsey.png', 'Im_BenStiller.png', 'Im_OrlandoBloom.png', 'Im_LeonardoDiCaprio.png', 'Im_DanielCraig.png'],same,1,660.9928803000003,24,78.57142857142857
ALRE2209,train,pos,120,pos120_id7_im15.bmp_pos120_id19_im4.bmp,['Im_DanielRadcliffe.png', 'Im_GeorgeClooney.png', 'Im_KeanuReeves.png', 'Im_RobertPattinson.png', 'Im_RyanGosling.png', 'Im_PatrickDempsey.png', 'Im_BenStiller.png', 'Im_OrlandoBloom.png', 'Im_LeonardoDiCaprio.png', 'Im_DanielCraig.png'],diff,1,665.2015703000002,25,78.57142857142857
ALRE2209,train,inv,fs,posfs_id4_im7.bmp_posfs_id17_im9.bmp,['Im_DanielRadcliffe.png', 'Im_GeorgeClooney.png', 'Im_KeanuReeves.png', 'Im_RobertPattinson.png', 'Im_RyanGosling.png', 'Im_PatrickDempsey.png', 'Im_BenStiller.png', 'Im_OrlandoBloom.png', 'Im_LeonardoDiCaprio.png', 'Im_DanielCraig.png'],diff,1,669.4096874000002,26,78.57142857142857
ALRE2209,train,inv,0,pos0_id20_im30.bmp_pos0_id11_im2.bmp,['Im_DanielRadcliffe.png', 'Im_GeorgeClooney.png', 'Im_KeanuReeves.png', 'Im_RobertPattinson.png', 'Im_RyanGosling.png', 'Im_PatrickDempsey.png', 'Im_BenStiller.png', 'Im_OrlandoBloom.png', 'Im_LeonardoDiCaprio.png', 'Im_DanielCraig.png'],same,0,673.2515973,26,78.57142857142857
ALRE2209,train,inv,60,pos60_id7_im26.bmp_pos60_id19_im4.bmp,['Im_DanielRadcliffe.png', 'Im_GeorgeClooney.png', 'Im_KeanuReeves.png', 'Im_RobertPattinson.png', 'Im_RyanGosling.png', 'Im_PatrickDempsey.png', 'Im_BenStiller.png', 'Im_OrlandoBloom.png', 'Im_LeonardoDiCaprio.png', 'Im_DanielCraig.png'],diff,1,677.1264046000001,27,78.57142857142857
ALRE2209,train,inv,60,pos60_id7_im14.bmp_pos60_id7_im26.bmp,['Im_DanielRadcliffe.png', 'Im_GeorgeClooney.png', 'Im_KeanuReeves.png', 'Im_RobertPattinson.png', 'Im_RyanGosling.png', 'Im_PatrickDempsey.png', 'Im_BenStiller.png', 'Im_OrlandoBloom.png', 'Im_LeonardoDiCaprio.png', 'Im_DanielCraig.png'],same,1,681.3182824,28,78.57142857142857
ALRE2209,train,inv,fs,posfs_id20_im30.bmp_posfs_id20_im12.bmp,['Im_DanielRadcliffe.png', 'Im_GeorgeClooney.png', 'Im_KeanuReeves.png', 'Im_RobertPattinson.png', 'Im_RyanGosling.png', 'Im_PatrickDempsey.png', 'Im_BenStiller.png', 'Im_OrlandoBloom.png', 'Im_LeonardoDiCaprio.png', 'Im_DanielCraig.png'],same,1,685.3516204000002,29,78.57142857142857
ALRE2209,train,inv,0,pos0_id19_im27.bmp_pos0_id19_im8.bmp,['Im_DanielRadcliffe.png', 'Im_GeorgeClooney.png', 'Im_KeanuReeves.png', 'Im_RobertPattinson.png', 'Im_RyanGosling.png', 'Im_PatrickDempsey.png', 'Im_BenStiller.png', 'Im_OrlandoBloom.png', 'Im_LeonardoDiCaprio.png', 'Im_DanielCraig.png'],same,1,689.459605,30,78.57142857142857
ALRE2209,train,inv,120,pos120_id11_im2.bmp_pos120_id13_im29.bmp,['Im_DanielRadcliffe.png', 'Im_GeorgeClooney.png', 'Im_KeanuReeves.png', 'Im_RobertPattinson.png', 'Im_RyanGosling.png', 'Im_PatrickDempsey.png', 'Im_BenStiller.png', 'Im_OrlandoBloom.png', 'Im_LeonardoDiCaprio.png', 'Im_DanielCraig.png'],diff,1,693.5682944,31,78.57142857142857
ALRE2209,train,inv,120,pos120_id7_im14.bmp_pos120_id4_im20.bmp,['Im_DanielRadcliffe.png', 'Im_GeorgeClooney.png', 'Im_KeanuReeves.png', 'Im_RobertPattinson.png', 'Im_RyanGosling.png', 'Im_PatrickDempsey.png', 'Im_BenStiller.png', 'Im_OrlandoBloom.png', 'Im_LeonardoDiCaprio.png', 'Im_DanielCraig.png'],diff,1,697.4595925000003,32,78.57142857142857
ALRE2209,train,inv,90,pos90_id2_im3.bmp_pos90_id7_im26.bmp,['Im_DanielRadcliffe.png', 'Im_GeorgeClooney.png', 'Im_KeanuReeves.png', 'Im_RobertPattinson.png', 'Im_RyanGosling.png', 'Im_PatrickDempsey.png', 'Im_BenStiller.png', 'Im_OrlandoBloom.png', 'Im_LeonardoDiCaprio.png', 'Im_DanielCraig.png'],same,0,701.6017099000001,32,78.57142857142857
ALRE2209,train,inv,90,pos90_id19_im27.bmp_pos90_id4_im15.bmp,['Im_DanielRadcliffe.png', 'Im_GeorgeClooney.png', 'Im_KeanuReeves.png', 'Im_RobertPattinson.png', 'Im_RyanGosling.png', 'Im_PatrickDempsey.png', 'Im_BenStiller.png', 'Im_OrlandoBloom.png', 'Im_LeonardoDiCaprio.png', 'Im_DanielCraig.png'],diff,1,705.7847671,33,78.57142857142857
ALRE2209,train,inv,30,pos30_id5_im10.bmp_pos30_id16_im2.bmp,['Im_DanielRadcliffe.png', 'Im_GeorgeClooney.png', 'Im_KeanuReeves.png', 'Im_RobertPattinson.png', 'Im_RyanGosling.png', 'Im_PatrickDempsey.png', 'Im_BenStiller.png', 'Im_OrlandoBloom.png', 'Im_LeonardoDiCaprio.png', 'Im_DanielCraig.png'],diff,1,709.6433855,34,78.57142857142857
ALRE2209,train,inv,150,pos150_id20_im12.bmp_pos150_id20_im30.bmp,['Im_DanielRadcliffe.png', 'Im_GeorgeClooney.png', 'Im_KeanuReeves.png', 'Im_RobertPattinson.png', 'Im_RyanGosling.png', 'Im_PatrickDempsey.png', 'Im_BenStiller.png', 'Im_OrlandoBloom.png', 'Im_LeonardoDiCaprio.png', 'Im_DanielCraig.png'],same,1,713.6597339,35,78.57142857142857
ALRE2209,train,inv,30,pos30_id19_im8.bmp_pos30_id13_im10.bmp,['Im_DanielRadcliffe.png', 'Im_GeorgeClooney.png', 'Im_KeanuReeves.png', 'Im_RobertPattinson.png', 'Im_RyanGosling.png', 'Im_PatrickDempsey.png', 'Im_BenStiller.png', 'Im_OrlandoBloom.png', 'Im_LeonardoDiCaprio.png', 'Im_DanielCraig.png'],same,0,719.6598856,35,78.57142857142857
ALRE2209,train,inv,150,pos150_id5_im20.bmp_pos150_id5_im1.bmp,['Im_DanielRadcliffe.png', 'Im_GeorgeClooney.png', 'Im_KeanuReeves.png', 'Im_RobertPattinson.png', 'Im_RyanGosling.png', 'Im_PatrickDempsey.png', 'Im_BenStiller.png', 'Im_OrlandoBloom.png', 'Im_LeonardoDiCaprio.png', 'Im_DanielCraig.png'],diff,0,723.5765656000003,35,78.57142857142857
ALRE2209,0,neg,30,neg30_id7_im26.bmp_neg30_id7_im15.bmp,['Im_DanielRadcliffe.png', 'Im_GeorgeClooney.png', 'Im_KeanuReeves.png', 'Im_RobertPattinson.png', 'Im_RyanGosling.png', 'Im_PatrickDempsey.png', 'Im_BenStiller.png', 'Im_OrlandoBloom.png', 'Im_LeonardoDiCaprio.png', 'Im_DanielCraig.png'],same,1,776.1348990000001,1,0
ALRE2209,0,neg,90,neg90_id19_im4.bmp_neg90_id19_im8.bmp,['Im_DanielRadcliffe.png', 'Im_GeorgeClooney.png', 'Im_KeanuReeves.png', 'Im_RobertPattinson.png', 'Im_RyanGosling.png', 'Im_PatrickDempsey.png', 'Im_BenStiller.png', 'Im_OrlandoBloom.png', 'Im_LeonardoDiCaprio.png', 'Im_DanielCraig.png'],diff,0,781.3016364,1,0
ALRE2209,0,neg,fs,negfs_id19_im8.bmp_negfs_id16_im3.bmp,['Im_DanielRadcliffe.png', 'Im_GeorgeClooney.png', 'Im_KeanuReeves.png', 'Im_RobertPattinson.png', 'Im_RyanGosling.png', 'Im_PatrickDempsey.png', 'Im_BenStiller.png', 'Im_OrlandoBloom.png', 'Im_LeonardoDiCaprio.png', 'Im_DanielCraig.png'],same,0,786.1347075000003,1,0
ALRE2209,0,neg,120,neg120_id4_im20.bmp_neg120_id4_im7.bmp,['Im_DanielRadcliffe.png', 'Im_GeorgeClooney.png', 'Im_KeanuReeves.png', 'Im_RobertPattinson.png', 'Im_RyanGosling.png', 'Im_PatrickDempsey.png', 'Im_BenStiller.png', 'Im_OrlandoBloom.png', 'Im_LeonardoDiCaprio.png', 'Im_DanielCraig.png'],diff,0,791.1182572000002,1,0
ALRE2209,0,neg,60,neg60_id11_im10.bmp_neg60_id2_im2.bmp,['Im_DanielRadcliffe.png', 'Im_GeorgeClooney.png', 'Im_KeanuReeves.png', 'Im_RobertPattinson.png', 'Im_RyanGosling.png', 'Im_PatrickDempsey.png', 'Im_BenStiller.png', 'Im_OrlandoBloom.png', 'Im_LeonardoDiCaprio.png', 'Im_DanielCraig.png'],diff,1,795.5015625000001,2,0
ALRE2209,0,neg,0,neg0_id4_im15.bmp_neg0_id19_im27.bmp,['Im_DanielRadcliffe.png', 'Im_GeorgeClooney.png', 'Im_KeanuReeves.png', 'Im_RobertPattinson.png', 'Im_RyanGosling.png', 'Im_PatrickDempsey.png', 'Im_BenStiller.png', 'Im_OrlandoBloom.png', 'Im_LeonardoDiCaprio.png', 'Im_DanielCraig.png'],diff,1,800.8681129000001,3,0
ALRE2209,0,neg,0,neg0_id16_im19.bmp_neg0_id16_im3.bmp,['Im_DanielRadcliffe.png', 'Im_GeorgeClooney.png', 'Im_KeanuReeves.png', 'Im_RobertPattinson.png', 'Im_RyanGosling.png', 'Im_PatrickDempsey.png', 'Im_BenStiller.png', 'Im_OrlandoBloom.png', 'Im_LeonardoDiCaprio.png', 'Im_DanielCraig.png'],same,1,805.9768415000003,4,0
ALRE2209,0,neg,90,neg90_id17_im8.bmp_neg90_id11_im10.bmp,['Im_DanielRadcliffe.png', 'Im_GeorgeClooney.png', 'Im_KeanuReeves.png', 'Im_RobertPattinson.png', 'Im_RyanGosling.png', 'Im_PatrickDempsey.png', 'Im_BenStiller.png', 'Im_OrlandoBloom.png', 'Im_LeonardoDiCaprio.png', 'Im_DanielCraig.png'],same,0,812.0518118,4,0
ALRE2209,0,neg,150,neg150_id2_im2.bmp_neg150_id11_im10.bmp,['Im_DanielRadcliffe.png', 'Im_GeorgeClooney.png', 'Im_KeanuReeves.png', 'Im_RobertPattinson.png', 'Im_RyanGosling.png', 'Im_PatrickDempsey.png', 'Im_BenStiller.png', 'Im_OrlandoBloom.png', 'Im_LeonardoDiCaprio.png', 'Im_DanielCraig.png'],same,0,816.3350016000004,4,0
ALRE2209,0,neg,150,neg150_id2_im3.bmp_neg150_id2_im2.bmp,['Im_DanielRadcliffe.png', 'Im_GeorgeClooney.png', 'Im_KeanuReeves.png', 'Im_RobertPattinson.png', 'Im_RyanGosling.png', 'Im_PatrickDempsey.png', 'Im_BenStiller.png', 'Im_OrlandoBloom.png', 'Im_LeonardoDiCaprio.png', 'Im_DanielCraig.png'],same,1,821.2349524000001,5,0
ALRE2209,0,neg,60,neg60_id11_im1.bmp_neg60_id11_im2.bmp,['Im_DanielRadcliffe.png', 'Im_GeorgeClooney.png', 'Im_KeanuReeves.png', 'Im_RobertPattinson.png', 'Im_RyanGosling.png', 'Im_PatrickDempsey.png', 'Im_BenStiller.png', 'Im_OrlandoBloom.png', 'Im_LeonardoDiCaprio.png', 'Im_DanielCraig.png'],diff,0,827.2350268,5,0
ALRE2209,0,neg,120,neg120_id17_im8.bmp_neg120_id11_im10.bmp,['Im_DanielRadcliffe.png', 'Im_GeorgeClooney.png', 'Im_KeanuReeves.png', 'Im_RobertPattinson.png', 'Im_RyanGosling.png', 'Im_PatrickDempsey.png', 'Im_BenStiller.png', 'Im_OrlandoBloom.png', 'Im_LeonardoDiCaprio.png', 'Im_DanielCraig.png'],diff,1,833.5351416000003,6,0
ALRE2209,0,neg,fs,negfs_id13_im10.bmp_negfs_id19_im8.bmp,['Im_DanielRadcliffe.png', 'Im_GeorgeClooney.png', 'Im_KeanuReeves.png', 'Im_RobertPattinson.png', 'Im_RyanGosling.png', 'Im_PatrickDempsey.png', 'Im_BenStiller.png', 'Im_OrlandoBloom.png', 'Im_LeonardoDiCaprio.png', 'Im_DanielCraig.png'],diff,1,838.4931253,7,0
ALRE2209,0,neg,30,neg30_id17_im8.bmp_neg30_id17_im14.bmp,['Im_DanielRadcliffe.png', 'Im_GeorgeClooney.png', 'Im_KeanuReeves.png', 'Im_RobertPattinson.png', 'Im_RyanGosling.png', 'Im_PatrickDempsey.png', 'Im_BenStiller.png', 'Im_OrlandoBloom.png', 'Im_LeonardoDiCaprio.png', 'Im_DanielCraig.png'],same,1,843.0181967000003,8,0
ALRE2209,1,inv,30,pos30_id7_im15.bmp_pos30_id20_im12.bmp,['Im_DanielRadcliffe.png', 'Im_GeorgeClooney.png', 'Im_KeanuReeves.png', 'Im_RobertPattinson.png', 'Im_RyanGosling.png', 'Im_PatrickDempsey.png', 'Im_BenStiller.png', 'Im_OrlandoBloom.png', 'Im_LeonardoDiCaprio.png', 'Im_DanielCraig.png'],diff,1,851.4683600000003,9,0
ALRE2209,1,inv,60,pos60_id16_im3.bmp_pos60_id16_im19.bmp,['Im_DanielRadcliffe.png', 'Im_GeorgeClooney.png', 'Im_KeanuReeves.png', 'Im_RobertPattinson.png', 'Im_RyanGosling.png', 'Im_PatrickDempsey.png', 'Im_BenStiller.png', 'Im_OrlandoBloom.png', 'Im_LeonardoDiCaprio.png', 'Im_DanielCraig.png'],same,1,856.0351530000003,10,0
ALRE2209,1,inv,0,pos0_id13_im15.bmp_pos0_id13_im10.bmp,['Im_DanielRadcliffe.png', 'Im_GeorgeClooney.png', 'Im_KeanuReeves.png', 'Im_RobertPattinson.png', 'Im_RyanGosling.png', 'Im_PatrickDempsey.png', 'Im_BenStiller.png', 'Im_OrlandoBloom.png', 'Im_LeonardoDiCaprio.png', 'Im_DanielCraig.png'],same,1,860.3271742000002,11,0
ALRE2209,1,inv,120,pos120_id11_im2.bmp_pos120_id11_im10.bmp,['Im_DanielRadcliffe.png', 'Im_GeorgeClooney.png', 'Im_KeanuReeves.png', 'Im_RobertPattinson.png', 'Im_RyanGosling.png', 'Im_PatrickDempsey.png', 'Im_BenStiller.png', 'Im_OrlandoBloom.png', 'Im_LeonardoDiCaprio.png', 'Im_DanielCraig.png'],diff,0,864.7932229000003,11,0
ALRE2209,1,inv,90,pos90_id20_im30.bmp_pos90_id4_im20.bmp,['Im_DanielRadcliffe.png', 'Im_GeorgeClooney.png', 'Im_KeanuReeves.png', 'Im_RobertPattinson.png', 'Im_RyanGosling.png', 'Im_PatrickDempsey.png', 'Im_BenStiller.png', 'Im_OrlandoBloom.png', 'Im_LeonardoDiCaprio.png', 'Im_DanielCraig.png'],same,0,871.6768909000002,11,0
ALRE2209,1,inv,fs,posfs_id5_im10.bmp_posfs_id5_im20.bmp,['Im_DanielRadcliffe.png', 'Im_GeorgeClooney.png', 'Im_KeanuReeves.png', 'Im_RobertPattinson.png', 'Im_RyanGosling.png', 'Im_PatrickDempsey.png', 'Im_BenStiller.png', 'Im_OrlandoBloom.png', 'Im_LeonardoDiCaprio.png', 'Im_DanielCraig.png'],same,1,876.7016925000003,12,0
ALRE2209,1,inv,90,pos90_id13_im10.bmp_pos90_id13_im29.bmp,['Im_DanielRadcliffe.png', 'Im_GeorgeClooney.png', 'Im_KeanuReeves.png', 'Im_RobertPattinson.png', 'Im_RyanGosling.png', 'Im_PatrickDempsey.png', 'Im_BenStiller.png', 'Im_OrlandoBloom.png', 'Im_LeonardoDiCaprio.png', 'Im_DanielCraig.png'],same,1,881.0266082000003,13,0
ALRE2209,1,inv,0,pos0_id4_im7.bmp_pos0_id17_im8.bmp,['Im_DanielRadcliffe.png', 'Im_GeorgeClooney.png', 'Im_KeanuReeves.png', 'Im_RobertPattinson.png', 'Im_RyanGosling.png', 'Im_PatrickDempsey.png', 'Im_BenStiller.png', 'Im_OrlandoBloom.png', 'Im_LeonardoDiCaprio.png', 'Im_DanielCraig.png'],same,0,885.5766270000004,13,0
ALRE2209,1,inv,150,pos150_id20_im3.bmp_pos150_id5_im10.bmp,['Im_DanielRadcliffe.png', 'Im_GeorgeClooney.png', 'Im_KeanuReeves.png', 'Im_RobertPattinson.png', 'Im_RyanGosling.png', 'Im_PatrickDempsey.png', 'Im_BenStiller.png', 'Im_OrlandoBloom.png', 'Im_LeonardoDiCaprio.png', 'Im_DanielCraig.png'],diff,1,890.0433887000004,14,0
ALRE2209,1,inv,120,pos120_id11_im10.bmp_pos120_id17_im8.bmp,['Im_DanielRadcliffe.png', 'Im_GeorgeClooney.png', 'Im_KeanuReeves.png', 'Im_RobertPattinson.png', 'Im_RyanGosling.png', 'Im_PatrickDempsey.png', 'Im_BenStiller.png', 'Im_OrlandoBloom.png', 'Im_LeonardoDiCaprio.png', 'Im_DanielCraig.png'],diff,1,894.5602896,15,0
ALRE2209,1,inv,60,pos60_id2_im2.bmp_pos60_id11_im10.bmp,['Im_DanielRadcliffe.png', 'Im_GeorgeClooney.png', 'Im_KeanuReeves.png', 'Im_RobertPattinson.png', 'Im_RyanGosling.png', 'Im_PatrickDempsey.png', 'Im_BenStiller.png', 'Im_OrlandoBloom.png', 'Im_LeonardoDiCaprio.png', 'Im_DanielCraig.png'],diff,1,899.1353525000004,16,0
ALRE2209,1,inv,fs,posfs_id4_im20.bmp_posfs_id7_im14.bmp,['Im_DanielRadcliffe.png', 'Im_GeorgeClooney.png', 'Im_KeanuReeves.png', 'Im_RobertPattinson.png', 'Im_RyanGosling.png', 'Im_PatrickDempsey.png', 'Im_BenStiller.png', 'Im_OrlandoBloom.png', 'Im_LeonardoDiCaprio.png', 'Im_DanielCraig.png'],diff,1,903.4519715000006,17,0
ALRE2209,1,inv,150,pos150_id7_im15.bmp_pos150_id7_im26.bmp,['Im_DanielRadcliffe.png', 'Im_GeorgeClooney.png', 'Im_KeanuReeves.png', 'Im_RobertPattinson.png', 'Im_RyanGosling.png', 'Im_PatrickDempsey.png', 'Im_BenStiller.png', 'Im_OrlandoBloom.png', 'Im_LeonardoDiCaprio.png', 'Im_DanielCraig.png'],same,1,908.0850970000001,18,0
ALRE2209,1,inv,30,pos30_id20_im3.bmp_pos30_id20_im12.bmp,['Im_DanielRadcliffe.png', 'Im_GeorgeClooney.png', 'Im_KeanuReeves.png', 'Im_RobertPattinson.png', 'Im_RyanGosling.png', 'Im_PatrickDempsey.png', 'Im_BenStiller.png', 'Im_OrlandoBloom.png', 'Im_LeonardoDiCaprio.png', 'Im_DanielCraig.png'],same,1,912.4101215999999,19,0
ALRE2209,2,pos,120,pos120_id16_im3.bmp_pos120_id16_im2.bmp,['Im_DanielRadcliffe.png', 'Im_GeorgeClooney.png', 'Im_KeanuReeves.png', 'Im_RobertPattinson.png', 'Im_RyanGosling.png', 'Im_PatrickDempsey.png', 'Im_BenStiller.png', 'Im_OrlandoBloom.png', 'Im_LeonardoDiCaprio.png', 'Im_DanielCraig.png'],same,1,920.2684018,20,0
ALRE2209,2,pos,fs,posfs_id19_im4.bmp_posfs_id19_im27.bmp,['Im_DanielRadcliffe.png', 'Im_GeorgeClooney.png', 'Im_KeanuReeves.png', 'Im_RobertPattinson.png', 'Im_RyanGosling.png', 'Im_PatrickDempsey.png', 'Im_BenStiller.png', 'Im_OrlandoBloom.png', 'Im_LeonardoDiCaprio.png', 'Im_DanielCraig.png'],same,1,924.6767051000006,21,0
ALRE2209,2,pos,60,pos60_id2_im3.bmp_pos60_id2_im16.bmp,['Im_DanielRadcliffe.png', 'Im_GeorgeClooney.png', 'Im_KeanuReeves.png', 'Im_RobertPattinson.png', 'Im_RyanGosling.png', 'Im_PatrickDempsey.png', 'Im_BenStiller.png', 'Im_OrlandoBloom.png', 'Im_LeonardoDiCaprio.png', 'Im_DanielCraig.png'],same,1,928.9934614000003,22,0
ALRE2209,2,pos,60,pos60_id17_im9.bmp_pos60_id2_im2.bmp,['Im_DanielRadcliffe.png', 'Im_GeorgeClooney.png', 'Im_KeanuReeves.png', 'Im_RobertPattinson.png', 'Im_RyanGosling.png', 'Im_PatrickDempsey.png', 'Im_BenStiller.png', 'Im_OrlandoBloom.png', 'Im_LeonardoDiCaprio.png', 'Im_DanielCraig.png'],diff,1,933.7017003999999,23,0
ALRE2209,2,pos,30,pos30_id13_im29.bmp_pos30_id2_im16.bmp,['Im_DanielRadcliffe.png', 'Im_GeorgeClooney.png', 'Im_KeanuReeves.png', 'Im_RobertPattinson.png', 'Im_RyanGosling.png', 'Im_PatrickDempsey.png', 'Im_BenStiller.png', 'Im_OrlandoBloom.png', 'Im_LeonardoDiCaprio.png', 'Im_DanielCraig.png'],diff,1,937.9101249000005,24,0
ALRE2209,2,pos,30,pos30_id20_im12.bmp_pos30_id16_im19.bmp,['Im_DanielRadcliffe.png', 'Im_GeorgeClooney.png', 'Im_KeanuReeves.png', 'Im_RobertPattinson.png', 'Im_RyanGosling.png', 'Im_PatrickDempsey.png', 'Im_BenStiller.png', 'Im_OrlandoBloom.png', 'Im_LeonardoDiCaprio.png', 'Im_DanielCraig.png'],diff,1,942.0934469000003,25,0
ALRE2209,2,pos,fs,posfs_id2_im2.bmp_posfs_id2_im16.bmp,['Im_DanielRadcliffe.png', 'Im_GeorgeClooney.png', 'Im_KeanuReeves.png', 'Im_RobertPattinson.png', 'Im_RyanGosling.png', 'Im_PatrickDempsey.png', 'Im_BenStiller.png', 'Im_OrlandoBloom.png', 'Im_LeonardoDiCaprio.png', 'Im_DanielCraig.png'],same,1,946.2851301000001,26,0
ALRE2209,2,pos,90,pos90_id4_im15.bmp_pos90_id4_im7.bmp,['Im_DanielRadcliffe.png', 'Im_GeorgeClooney.png', 'Im_KeanuReeves.png', 'Im_RobertPattinson.png', 'Im_RyanGosling.png', 'Im_PatrickDempsey.png', 'Im_BenStiller.png', 'Im_OrlandoBloom.png', 'Im_LeonardoDiCaprio.png', 'Im_DanielCraig.png'],same,1,950.7350897000006,27,0
ALRE2209,2,pos,150,pos150_id2_im3.bmp_pos150_id17_im14.bmp,['Im_DanielRadcliffe.png', 'Im_GeorgeClooney.png', 'Im_KeanuReeves.png', 'Im_RobertPattinson.png', 'Im_RyanGosling.png', 'Im_PatrickDempsey.png', 'Im_BenStiller.png', 'Im_OrlandoBloom.png', 'Im_LeonardoDiCaprio.png', 'Im_DanielCraig.png'],diff,1,955.1851564999997,28,0
ALRE2209,2,pos,90,pos90_id13_im29.bmp_pos90_id13_im10.bmp,['Im_DanielRadcliffe.png', 'Im_GeorgeClooney.png', 'Im_KeanuReeves.png', 'Im_RobertPattinson.png', 'Im_RyanGosling.png', 'Im_PatrickDempsey.png', 'Im_BenStiller.png', 'Im_OrlandoBloom.png', 'Im_LeonardoDiCaprio.png', 'Im_DanielCraig.png'],same,1,959.6934847000002,29,0
ALRE2209,2,pos,120,pos120_id11_im10.bmp_pos120_id11_im1.bmp,['Im_DanielRadcliffe.png', 'Im_GeorgeClooney.png', 'Im_KeanuReeves.png', 'Im_RobertPattinson.png', 'Im_RyanGosling.png', 'Im_PatrickDempsey.png', 'Im_BenStiller.png', 'Im_OrlandoBloom.png', 'Im_LeonardoDiCaprio.png', 'Im_DanielCraig.png'],same,1,964.8352499000002,30,0
ALRE2209,2,pos,0,pos0_id2_im16.bmp_pos0_id13_im29.bmp,['Im_DanielRadcliffe.png', 'Im_GeorgeClooney.png', 'Im_KeanuReeves.png', 'Im_RobertPattinson.png', 'Im_RyanGosling.png', 'Im_PatrickDempsey.png', 'Im_BenStiller.png', 'Im_OrlandoBloom.png', 'Im_LeonardoDiCaprio.png', 'Im_DanielCraig.png'],diff,1,969.3683614000001,31,0
ALRE2209,2,pos,150,pos150_id13_im15.bmp_pos150_id17_im14.bmp,['Im_DanielRadcliffe.png', 'Im_GeorgeClooney.png', 'Im_KeanuReeves.png', 'Im_RobertPattinson.png', 'Im_RyanGosling.png', 'Im_PatrickDempsey.png', 'Im_BenStiller.png', 'Im_OrlandoBloom.png', 'Im_LeonardoDiCaprio.png', 'Im_DanielCraig.png'],diff,1,973.5438316,32,0
ALRE2209,2,pos,0,pos0_id4_im7.bmp_pos0_id17_im8.bmp,['Im_DanielRadcliffe.png', 'Im_GeorgeClooney.png', 'Im_KeanuReeves.png', 'Im_RobertPattinson.png', 'Im_RyanGosling.png', 'Im_PatrickDempsey.png', 'Im_BenStiller.png', 'Im_OrlandoBloom.png', 'Im_LeonardoDiCaprio.png', 'Im_DanielCraig.png'],diff,1,978.2019025999998,33,0
ALRE2209,3,pos,90,pos90_id20_im3.bmp_pos90_id5_im20.bmp,['Im_DanielRadcliffe.png', 'Im_GeorgeClooney.png', 'Im_KeanuReeves.png', 'Im_RobertPattinson.png', 'Im_RyanGosling.png', 'Im_PatrickDempsey.png', 'Im_BenStiller.png', 'Im_OrlandoBloom.png', 'Im_LeonardoDiCaprio.png', 'Im_DanielCraig.png'],diff,1,994.5772643999999,1,78.57142857142857
ALRE2209,3,pos,150,pos150_id13_im10.bmp_pos150_id19_im8.bmp,['Im_DanielRadcliffe.png', 'Im_GeorgeClooney.png', 'Im_KeanuReeves.png', 'Im_RobertPattinson.png', 'Im_RyanGosling.png', 'Im_PatrickDempsey.png', 'Im_BenStiller.png', 'Im_OrlandoBloom.png', 'Im_LeonardoDiCaprio.png', 'Im_DanielCraig.png'],diff,1,998.7686881999998,2,78.57142857142857
ALRE2209,3,pos,60,pos60_id17_im14.bmp_pos60_id2_im3.bmp,['Im_DanielRadcliffe.png', 'Im_GeorgeClooney.png', 'Im_KeanuReeves.png', 'Im_RobertPattinson.png', 'Im_RyanGosling.png', 'Im_PatrickDempsey.png', 'Im_BenStiller.png', 'Im_OrlandoBloom.png', 'Im_LeonardoDiCaprio.png', 'Im_DanielCraig.png'],diff,1,1003.4270407000004,3,78.57142857142857
ALRE2209,3,pos,0,pos0_id4_im20.bmp_pos0_id4_im7.bmp,['Im_DanielRadcliffe.png', 'Im_GeorgeClooney.png', 'Im_KeanuReeves.png', 'Im_RobertPattinson.png', 'Im_RyanGosling.png', 'Im_PatrickDempsey.png', 'Im_BenStiller.png', 'Im_OrlandoBloom.png', 'Im_LeonardoDiCaprio.png', 'Im_DanielCraig.png'],same,1,1008.1600722000003,4,78.57142857142857
ALRE2209,3,pos,0,pos0_id11_im1.bmp_pos0_id11_im10.bmp,['Im_DanielRadcliffe.png', 'Im_GeorgeClooney.png', 'Im_KeanuReeves.png', 'Im_RobertPattinson.png', 'Im_RyanGosling.png', 'Im_PatrickDempsey.png', 'Im_BenStiller.png', 'Im_OrlandoBloom.png', 'Im_LeonardoDiCaprio.png', 'Im_DanielCraig.png'],same,1,1012.5183846,5,78.57142857142857
ALRE2209,3,pos,150,pos150_id7_im15.bmp_pos150_id7_im26.bmp,['Im_DanielRadcliffe.png', 'Im_GeorgeClooney.png', 'Im_KeanuReeves.png', 'Im_RobertPattinson.png', 'Im_RyanGosling.png', 'Im_PatrickDempsey.png', 'Im_BenStiller.png', 'Im_OrlandoBloom.png', 'Im_LeonardoDiCaprio.png', 'Im_DanielCraig.png'],same,1,1017.0435926999999,6,78.57142857142857
ALRE2209,3,pos,120,pos120_id19_im8.bmp_pos120_id19_im4.bmp,['Im_DanielRadcliffe.png', 'Im_GeorgeClooney.png', 'Im_KeanuReeves.png', 'Im_RobertPattinson.png', 'Im_RyanGosling.png', 'Im_PatrickDempsey.png', 'Im_BenStiller.png', 'Im_OrlandoBloom.png', 'Im_LeonardoDiCaprio.png', 'Im_DanielCraig.png'],same,1,1021.6100682000006,7,78.57142857142857
ALRE2209,3,pos,fs,posfs_id16_im2.bmp_posfs_id13_im10.bmp,['Im_DanielRadcliffe.png', 'Im_GeorgeClooney.png', 'Im_KeanuReeves.png', 'Im_RobertPattinson.png', 'Im_RyanGosling.png', 'Im_PatrickDempsey.png', 'Im_BenStiller.png', 'Im_OrlandoBloom.png', 'Im_LeonardoDiCaprio.png', 'Im_DanielCraig.png'],diff,1,1026.1769309000001,8,78.57142857142857
ALRE2209,3,pos,30,pos30_id2_im16.bmp_pos30_id11_im1.bmp,['Im_DanielRadcliffe.png', 'Im_GeorgeClooney.png', 'Im_KeanuReeves.png', 'Im_RobertPattinson.png', 'Im_RyanGosling.png', 'Im_PatrickDempsey.png', 'Im_BenStiller.png', 'Im_OrlandoBloom.png', 'Im_LeonardoDiCaprio.png', 'Im_DanielCraig.png'],diff,1,1030.5018678000006,9,78.57142857142857
ALRE2209,3,pos,90,pos90_id20_im12.bmp_pos90_id16_im19.bmp,['Im_DanielRadcliffe.png', 'Im_GeorgeClooney.png', 'Im_KeanuReeves.png', 'Im_RobertPattinson.png', 'Im_RyanGosling.png', 'Im_PatrickDempsey.png', 'Im_BenStiller.png', 'Im_OrlandoBloom.png', 'Im_LeonardoDiCaprio.png', 'Im_DanielCraig.png'],diff,1,1035.0602802000003,10,78.57142857142857
ALRE2209,3,pos,120,pos120_id5_im1.bmp_pos120_id11_im1.bmp,['Im_DanielRadcliffe.png', 'Im_GeorgeClooney.png', 'Im_KeanuReeves.png', 'Im_RobertPattinson.png', 'Im_RyanGosling.png', 'Im_PatrickDempsey.png', 'Im_BenStiller.png', 'Im_OrlandoBloom.png', 'Im_LeonardoDiCaprio.png', 'Im_DanielCraig.png'],diff,1,1039.7934272000002,11,78.57142857142857
ALRE2209,3,pos,30,pos30_id11_im2.bmp_pos30_id11_im1.bmp,['Im_DanielRadcliffe.png', 'Im_GeorgeClooney.png', 'Im_KeanuReeves.png', 'Im_RobertPattinson.png', 'Im_RyanGosling.png', 'Im_PatrickDempsey.png', 'Im_BenStiller.png', 'Im_OrlandoBloom.png', 'Im_LeonardoDiCaprio.png', 'Im_DanielCraig.png'],same,1,1044.1855348999998,12,78.57142857142857
ALRE2209,3,pos,60,pos60_id16_im2.bmp_pos60_id13_im10.bmp,['Im_DanielRadcliffe.png', 'Im_GeorgeClooney.png', 'Im_KeanuReeves.png', 'Im_RobertPattinson.png', 'Im_RyanGosling.png', 'Im_PatrickDempsey.png', 'Im_BenStiller.png', 'Im_OrlandoBloom.png', 'Im_LeonardoDiCaprio.png', 'Im_DanielCraig.png'],diff,1,1048.2937790000005,13,78.57142857142857
ALRE2209,3,pos,fs,posfs_id17_im8.bmp_posfs_id4_im7.bmp,['Im_DanielRadcliffe.png', 'Im_GeorgeClooney.png', 'Im_KeanuReeves.png', 'Im_RobertPattinson.png', 'Im_RyanGosling.png', 'Im_PatrickDempsey.png', 'Im_BenStiller.png', 'Im_OrlandoBloom.png', 'Im_LeonardoDiCaprio.png', 'Im_DanielCraig.png'],diff,1,1052.5519064999999,14,78.57142857142857
ALRE2209,4,neg,150,neg150_id4_im7.bmp_neg150_id4_im15.bmp,['Im_DanielRadcliffe.png', 'Im_GeorgeClooney.png', 'Im_KeanuReeves.png', 'Im_RobertPattinson.png', 'Im_RyanGosling.png', 'Im_PatrickDempsey.png', 'Im_BenStiller.png', 'Im_OrlandoBloom.png', 'Im_LeonardoDiCaprio.png', 'Im_DanielCraig.png'],same,1,1060.7185713,15,78.57142857142857
ALRE2209,4,neg,fs,negfs_id19_im8.bmp_negfs_id19_im4.bmp,['Im_DanielRadcliffe.png', 'Im_GeorgeClooney.png', 'Im_KeanuReeves.png', 'Im_RobertPattinson.png', 'Im_RyanGosling.png', 'Im_PatrickDempsey.png', 'Im_BenStiller.png', 'Im_OrlandoBloom.png', 'Im_LeonardoDiCaprio.png', 'Im_DanielCraig.png'],diff,0,1065.7269557999998,15,78.57142857142857
ALRE2209,4,neg,60,neg60_id13_im29.bmp_neg60_id11_im2.bmp,['Im_DanielRadcliffe.png', 'Im_GeorgeClooney.png', 'Im_KeanuReeves.png', 'Im_RobertPattinson.png', 'Im_RyanGosling.png', 'Im_PatrickDempsey.png', 'Im_BenStiller.png', 'Im_OrlandoBloom.png', 'Im_LeonardoDiCaprio.png', 'Im_DanielCraig.png'],diff,1,1070.9856068999998,16,78.57142857142857
ALRE2209,4,neg,60,neg60_id11_im1.bmp_neg60_id2_im16.bmp,['Im_DanielRadcliffe.png', 'Im_GeorgeClooney.png', 'Im_KeanuReeves.png', 'Im_RobertPattinson.png', 'Im_RyanGosling.png', 'Im_PatrickDempsey.png', 'Im_BenStiller.png', 'Im_OrlandoBloom.png', 'Im_LeonardoDiCaprio.png', 'Im_DanielCraig.png'],diff,1,1075.6020321000005,17,78.57142857142857
ALRE2209,4,neg,fs,negfs_id2_im2.bmp_negfs_id2_im16.bmp,['Im_DanielRadcliffe.png', 'Im_GeorgeClooney.png', 'Im_KeanuReeves.png', 'Im_RobertPattinson.png', 'Im_RyanGosling.png', 'Im_PatrickDempsey.png', 'Im_BenStiller.png', 'Im_OrlandoBloom.png', 'Im_LeonardoDiCaprio.png', 'Im_DanielCraig.png'],same,1,1079.8436573999998,18,78.57142857142857
ALRE2209,4,neg,120,neg120_id19_im27.bmp_neg120_id19_im8.bmp,['Im_DanielRadcliffe.png', 'Im_GeorgeClooney.png', 'Im_KeanuReeves.png', 'Im_RobertPattinson.png', 'Im_RyanGosling.png', 'Im_PatrickDempsey.png', 'Im_BenStiller.png', 'Im_OrlandoBloom.png', 'Im_LeonardoDiCaprio.png', 'Im_DanielCraig.png'],same,1,1084.2271259999998,19,78.57142857142857
ALRE2209,4,neg,30,neg30_id11_im1.bmp_neg30_id11_im10.bmp,['Im_DanielRadcliffe.png', 'Im_GeorgeClooney.png', 'Im_KeanuReeves.png', 'Im_RobertPattinson.png', 'Im_RyanGosling.png', 'Im_PatrickDempsey.png', 'Im_BenStiller.png', 'Im_OrlandoBloom.png', 'Im_LeonardoDiCaprio.png', 'Im_DanielCraig.png'],same,1,1088.9103585000003,20,78.57142857142857
ALRE2209,4,neg,0,neg0_id2_im2.bmp_neg0_id2_im3.bmp,['Im_DanielRadcliffe.png', 'Im_GeorgeClooney.png', 'Im_KeanuReeves.png', 'Im_RobertPattinson.png', 'Im_RyanGosling.png', 'Im_PatrickDempsey.png', 'Im_BenStiller.png', 'Im_OrlandoBloom.png', 'Im_LeonardoDiCaprio.png', 'Im_DanielCraig.png'],same,1,1093.2271817,21,78.57142857142857
ALRE2209,4,neg,0,neg0_id13_im15.bmp_neg0_id13_im29.bmp,['Im_DanielRadcliffe.png', 'Im_GeorgeClooney.png', 'Im_KeanuReeves.png', 'Im_RobertPattinson.png', 'Im_RyanGosling.png', 'Im_PatrickDempsey.png', 'Im_BenStiller.png', 'Im_OrlandoBloom.png', 'Im_LeonardoDiCaprio.png', 'Im_DanielCraig.png'],diff,0,1098.0685204000001,21,78.57142857142857
ALRE2209,4,neg,120,neg120_id20_im12.bmp_neg120_id20_im3.bmp,['Im_DanielRadcliffe.png', 'Im_GeorgeClooney.png', 'Im_KeanuReeves.png', 'Im_RobertPattinson.png', 'Im_RyanGosling.png', 'Im_PatrickDempsey.png', 'Im_BenStiller.png', 'Im_OrlandoBloom.png', 'Im_LeonardoDiCaprio.png', 'Im_DanielCraig.png'],same,1,1102.5190317000006,22,78.57142857142857
ALRE2209,4,neg,30,neg30_id4_im20.bmp_neg30_id4_im15.bmp,['Im_DanielRadcliffe.png', 'Im_GeorgeClooney.png', 'Im_KeanuReeves.png', 'Im_RobertPattinson.png', 'Im_RyanGosling.png', 'Im_PatrickDempsey.png', 'Im_BenStiller.png', 'Im_OrlandoBloom.png', 'Im_LeonardoDiCaprio.png', 'Im_DanielCraig.png'],same,1,1106.9522256999999,23,78.57142857142857
ALRE2209,4,neg,150,neg150_id13_im29.bmp_neg150_id13_im15.bmp,['Im_DanielRadcliffe.png', 'Im_GeorgeClooney.png', 'Im_KeanuReeves.png', 'Im_RobertPattinson.png', 'Im_RyanGosling.png', 'Im_PatrickDempsey.png', 'Im_BenStiller.png', 'Im_OrlandoBloom.png', 'Im_LeonardoDiCaprio.png', 'Im_DanielCraig.png'],diff,0,1111.4853856,23,78.57142857142857
ALRE2209,4,neg,90,neg90_id16_im19.bmp_neg90_id20_im12.bmp,['Im_DanielRadcliffe.png', 'Im_GeorgeClooney.png', 'Im_KeanuReeves.png', 'Im_RobertPattinson.png', 'Im_RyanGosling.png', 'Im_PatrickDempsey.png', 'Im_BenStiller.png', 'Im_OrlandoBloom.png', 'Im_LeonardoDiCaprio.png', 'Im_DanielCraig.png'],diff,1,1115.8272146,24,78.57142857142857
ALRE2209,4,neg,90,neg90_id5_im1.bmp_neg90_id5_im20.bmp,['Im_DanielRadcliffe.png', 'Im_GeorgeClooney.png', 'Im_KeanuReeves.png', 'Im_RobertPattinson.png', 'Im_RyanGosling.png', 'Im_PatrickDempsey.png', 'Im_BenStiller.png', 'Im_OrlandoBloom.png', 'Im_LeonardoDiCaprio.png', 'Im_DanielCraig.png'],same,1,1120.8186243999999,25,78.57142857142857
ALRE2209,5,inv,60,pos60_id20_im3.bmp_pos60_id20_im12.bmp,['Im_DanielRadcliffe.png', 'Im_GeorgeClooney.png', 'Im_KeanuReeves.png', 'Im_RobertPattinson.png', 'Im_RyanGosling.png', 'Im_PatrickDempsey.png', 'Im_BenStiller.png', 'Im_OrlandoBloom.png', 'Im_LeonardoDiCaprio.png', 'Im_DanielCraig.png'],same,1,1128.8187036999998,26,78.57142857142857
ALRE2209,5,inv,90,pos90_id2_im16.bmp_pos90_id11_im1.bmp,['Im_DanielRadcliffe.png', 'Im_GeorgeClooney.png', 'Im_KeanuReeves.png', 'Im_RobertPattinson.png', 'Im_RyanGosling.png', 'Im_PatrickDempsey.png', 'Im_BenStiller.png', 'Im_OrlandoBloom.png', 'Im_LeonardoDiCaprio.png', 'Im_DanielCraig.png'],diff,1,1134.9935264000005,27,78.57142857142857
ALRE2209,5,inv,60,pos60_id20_im12.bmp_pos60_id16_im19.bmp,['Im_DanielRadcliffe.png', 'Im_GeorgeClooney.png', 'Im_KeanuReeves.png', 'Im_RobertPattinson.png', 'Im_RyanGosling.png', 'Im_PatrickDempsey.png', 'Im_BenStiller.png', 'Im_OrlandoBloom.png', 'Im_LeonardoDiCaprio.png', 'Im_DanielCraig.png'],diff,1,1139.4019924000004,28,78.57142857142857
ALRE2209,5,inv,30,pos30_id5_im10.bmp_pos30_id5_im20.bmp,['Im_DanielRadcliffe.png', 'Im_GeorgeClooney.png', 'Im_KeanuReeves.png', 'Im_RobertPattinson.png', 'Im_RyanGosling.png', 'Im_PatrickDempsey.png', 'Im_BenStiller.png', 'Im_OrlandoBloom.png', 'Im_LeonardoDiCaprio.png', 'Im_DanielCraig.png'],diff,0,1144.1353094000006,28,78.57142857142857
ALRE2209,5,inv,150,pos150_id5_im10.bmp_pos150_id5_im1.bmp,['Im_DanielRadcliffe.png', 'Im_GeorgeClooney.png', 'Im_KeanuReeves.png', 'Im_RobertPattinson.png', 'Im_RyanGosling.png', 'Im_PatrickDempsey.png', 'Im_BenStiller.png', 'Im_OrlandoBloom.png', 'Im_LeonardoDiCaprio.png', 'Im_DanielCraig.png'],same,1,1148.8354153,29,78.57142857142857
ALRE2209,5,inv,30,pos30_id13_im10.bmp_pos30_id13_im15.bmp,['Im_DanielRadcliffe.png', 'Im_GeorgeClooney.png', 'Im_KeanuReeves.png', 'Im_RobertPattinson.png', 'Im_RyanGosling.png', 'Im_PatrickDempsey.png', 'Im_BenStiller.png', 'Im_OrlandoBloom.png', 'Im_LeonardoDiCaprio.png', 'Im_DanielCraig.png'],same,1,1153.1271044000005,30,78.57142857142857
ALRE2209,5,inv,0,pos0_id13_im29.bmp_pos0_id11_im2.bmp,['Im_DanielRadcliffe.png', 'Im_GeorgeClooney.png', 'Im_KeanuReeves.png', 'Im_RobertPattinson.png', 'Im_RyanGosling.png', 'Im_PatrickDempsey.png', 'Im_BenStiller.png', 'Im_OrlandoBloom.png', 'Im_LeonardoDiCaprio.png', 'Im_DanielCraig.png'],same,0,1157.9104521999998,30,78.57142857142857
ALRE2209,5,inv,90,pos90_id4_im15.bmp_pos90_id4_im7.bmp,['Im_DanielRadcliffe.png', 'Im_GeorgeClooney.png', 'Im_KeanuReeves.png', 'Im_RobertPattinson.png', 'Im_RyanGosling.png', 'Im_PatrickDempsey.png', 'Im_BenStiller.png', 'Im_OrlandoBloom.png', 'Im_LeonardoDiCaprio.png', 'Im_DanielCraig.png'],same,1,1162.5852526999997,31,78.57142857142857
ALRE2209,5,inv,0,pos0_id17_im9.bmp_pos0_id17_im8.bmp,['Im_DanielRadcliffe.png', 'Im_GeorgeClooney.png', 'Im_KeanuReeves.png', 'Im_RobertPattinson.png', 'Im_RyanGosling.png', 'Im_PatrickDempsey.png', 'Im_BenStiller.png', 'Im_OrlandoBloom.png', 'Im_LeonardoDiCaprio.png', 'Im_DanielCraig.png'],same,1,1167.0938049000006,32,78.57142857142857
ALRE2209,5,inv,150,pos150_id17_im14.bmp_pos150_id13_im15.bmp,['Im_DanielRadcliffe.png', 'Im_GeorgeClooney.png', 'Im_KeanuReeves.png', 'Im_RobertPattinson.png', 'Im_RyanGosling.png', 'Im_PatrickDempsey.png', 'Im_BenStiller.png', 'Im_OrlandoBloom.png', 'Im_LeonardoDiCaprio.png', 'Im_DanielCraig.png'],diff,1,1171.8356119999999,33,78.57142857142857
ALRE2209,5,inv,fs,posfs_id4_im15.bmp_posfs_id19_im27.bmp,['Im_DanielRadcliffe.png', 'Im_GeorgeClooney.png', 'Im_KeanuReeves.png', 'Im_RobertPattinson.png', 'Im_RyanGosling.png', 'Im_PatrickDempsey.png', 'Im_BenStiller.png', 'Im_OrlandoBloom.png', 'Im_LeonardoDiCaprio.png', 'Im_DanielCraig.png'],diff,1,1176.2104742000001,34,78.57142857142857
ALRE2209,5,inv,120,pos120_id11_im1.bmp_pos120_id5_im1.bmp,['Im_DanielRadcliffe.png', 'Im_GeorgeClooney.png', 'Im_KeanuReeves.png', 'Im_RobertPattinson.png', 'Im_RyanGosling.png', 'Im_PatrickDempsey.png', 'Im_BenStiller.png', 'Im_OrlandoBloom.png', 'Im_LeonardoDiCaprio.png', 'Im_DanielCraig.png'],same,0,1181.1354799,34,78.57142857142857
ALRE2209,5,inv,120,pos120_id2_im16.bmp_pos120_id2_im2.bmp,['Im_DanielRadcliffe.png', 'Im_GeorgeClooney.png', 'Im_KeanuReeves.png', 'Im_RobertPattinson.png', 'Im_RyanGosling.png', 'Im_PatrickDempsey.png', 'Im_BenStiller.png', 'Im_OrlandoBloom.png', 'Im_LeonardoDiCaprio.png', 'Im_DanielCraig.png'],diff,0,1185.5106747999998,34,78.57142857142857
ALRE2209,5,inv,fs,posfs_id19_im27.bmp_posfs_id13_im15.bmp,['Im_DanielRadcliffe.png', 'Im_GeorgeClooney.png', 'Im_KeanuReeves.png', 'Im_RobertPattinson.png', 'Im_RyanGosling.png', 'Im_PatrickDempsey.png', 'Im_BenStiller.png', 'Im_OrlandoBloom.png', 'Im_LeonardoDiCaprio.png', 'Im_DanielCraig.png'],diff,1,1189.7440255000001,35,78.57142857142857
ALRE2209,6,pos,150,pos150_id17_im9.bmp_pos150_id2_im2.bmp,['Im_DanielRadcliffe.png', 'Im_GeorgeClooney.png', 'Im_KeanuReeves.png', 'Im_RobertPattinson.png', 'Im_RyanGosling.png', 'Im_PatrickDempsey.png', 'Im_BenStiller.png', 'Im_OrlandoBloom.png', 'Im_LeonardoDiCaprio.png', 'Im_DanielCraig.png'],diff,1,1208.0940440000004,1,83.33333333333333
ALRE2209,6,pos,90,pos90_id20_im30.bmp_pos90_id11_im2.bmp,['Im_DanielRadcliffe.png', 'Im_GeorgeClooney.png', 'Im_KeanuReeves.png', 'Im_RobertPattinson.png', 'Im_RyanGosling.png', 'Im_PatrickDempsey.png', 'Im_BenStiller.png', 'Im_OrlandoBloom.png', 'Im_LeonardoDiCaprio.png', 'Im_DanielCraig.png'],diff,1,1212.6687674000004,2,83.33333333333333
ALRE2209,6,pos,30,pos30_id2_im3.bmp_pos30_id7_im26.bmp,['Im_DanielRadcliffe.png', 'Im_GeorgeClooney.png', 'Im_KeanuReeves.png', 'Im_RobertPattinson.png', 'Im_RyanGosling.png', 'Im_PatrickDempsey.png', 'Im_BenStiller.png', 'Im_OrlandoBloom.png', 'Im_LeonardoDiCaprio.png', 'Im_DanielCraig.png'],diff,1,1217.2271533000003,3,83.33333333333333
ALRE2209,6,pos,30,pos30_id13_im15.bmp_pos30_id13_im10.bmp,['Im_DanielRadcliffe.png', 'Im_GeorgeClooney.png', 'Im_KeanuReeves.png', 'Im_RobertPattinson.png', 'Im_RyanGosling.png', 'Im_PatrickDempsey.png', 'Im_BenStiller.png', 'Im_OrlandoBloom.png', 'Im_LeonardoDiCaprio.png', 'Im_DanielCraig.png'],same,1,1221.8770441000006,4,83.33333333333333
ALRE2209,6,pos,fs,posfs_id20_im3.bmp_posfs_id5_im20.bmp,['Im_DanielRadcliffe.png', 'Im_GeorgeClooney.png', 'Im_KeanuReeves.png', 'Im_RobertPattinson.png', 'Im_RyanGosling.png', 'Im_PatrickDempsey.png', 'Im_BenStiller.png', 'Im_OrlandoBloom.png', 'Im_LeonardoDiCaprio.png', 'Im_DanielCraig.png'],diff,1,1226.3022090000004,5,83.33333333333333
ALRE2209,6,pos,120,pos120_id5_im10.bmp_pos120_id16_im2.bmp,['Im_DanielRadcliffe.png', 'Im_GeorgeClooney.png', 'Im_KeanuReeves.png', 'Im_RobertPattinson.png', 'Im_RyanGosling.png', 'Im_PatrickDempsey.png', 'Im_BenStiller.png', 'Im_OrlandoBloom.png', 'Im_LeonardoDiCaprio.png', 'Im_DanielCraig.png'],diff,1,1231.0191571000005,6,83.33333333333333
ALRE2209,6,pos,120,pos120_id2_im3.bmp_pos120_id7_im26.bmp,['Im_DanielRadcliffe.png', 'Im_GeorgeClooney.png', 'Im_KeanuReeves.png', 'Im_RobertPattinson.png', 'Im_RyanGosling.png', 'Im_PatrickDempsey.png', 'Im_BenStiller.png', 'Im_OrlandoBloom.png', 'Im_LeonardoDiCaprio.png', 'Im_DanielCraig.png'],diff,1,1235.8605349,7,83.33333333333333
ALRE2209,6,pos,60,pos60_id13_im15.bmp_pos60_id13_im10.bmp,['Im_DanielRadcliffe.png', 'Im_GeorgeClooney.png', 'Im_KeanuReeves.png', 'Im_RobertPattinson.png', 'Im_RyanGosling.png', 'Im_PatrickDempsey.png', 'Im_BenStiller.png', 'Im_OrlandoBloom.png', 'Im_LeonardoDiCaprio.png', 'Im_DanielCraig.png'],same,1,1240.6439080999999,8,83.33333333333333
ALRE2209,6,pos,150,pos150_id2_im3.bmp_pos150_id2_im2.bmp,['Im_DanielRadcliffe.png', 'Im_GeorgeClooney.png', 'Im_KeanuReeves.png', 'Im_RobertPattinson.png', 'Im_RyanGosling.png', 'Im_PatrickDempsey.png', 'Im_BenStiller.png', 'Im_OrlandoBloom.png', 'Im_LeonardoDiCaprio.png', 'Im_DanielCraig.png'],same,1,1246.3692468,9,83.33333333333333
ALRE2209,6,pos,0,pos0_id2_im2.bmp_pos0_id2_im3.bmp,['Im_DanielRadcliffe.png', 'Im_GeorgeClooney.png', 'Im_KeanuReeves.png', 'Im_RobertPattinson.png', 'Im_RyanGosling.png', 'Im_PatrickDempsey.png', 'Im_BenStiller.png', 'Im_OrlandoBloom.png', 'Im_LeonardoDiCaprio.png', 'Im_DanielCraig.png'],same,1,1251.2772049000005,10,83.33333333333333
ALRE2209,6,pos,60,pos60_id20_im12.bmp_pos60_id20_im3.bmp,['Im_DanielRadcliffe.png', 'Im_GeorgeClooney.png', 'Im_KeanuReeves.png', 'Im_RobertPattinson.png', 'Im_RyanGosling.png', 'Im_PatrickDempsey.png', 'Im_BenStiller.png', 'Im_OrlandoBloom.png', 'Im_LeonardoDiCaprio.png', 'Im_DanielCraig.png'],same,1,1256.4773061000005,11,83.33333333333333
ALRE2209,6,pos,fs,posfs_id2_im3.bmp_posfs_id17_im14.bmp,['Im_DanielRadcliffe.png', 'Im_GeorgeClooney.png', 'Im_KeanuReeves.png', 'Im_RobertPattinson.png', 'Im_RyanGosling.png', 'Im_PatrickDempsey.png', 'Im_BenStiller.png', 'Im_OrlandoBloom.png', 'Im_LeonardoDiCaprio.png', 'Im_DanielCraig.png'],diff,1,1261.0938320000005,12,83.33333333333333
ALRE2209,6,pos,0,pos0_id13_im15.bmp_pos0_id13_im29.bmp,['Im_DanielRadcliffe.png', 'Im_GeorgeClooney.png', 'Im_KeanuReeves.png', 'Im_RobertPattinson.png', 'Im_RyanGosling.png', 'Im_PatrickDempsey.png', 'Im_BenStiller.png', 'Im_OrlandoBloom.png', 'Im_LeonardoDiCaprio.png', 'Im_DanielCraig.png'],same,1,1265.6689142000005,13,83.33333333333333
ALRE2209,6,pos,90,pos90_id7_im15.bmp_pos90_id7_im26.bmp,['Im_DanielRadcliffe.png', 'Im_GeorgeClooney.png', 'Im_KeanuReeves.png', 'Im_RobertPattinson.png', 'Im_RyanGosling.png', 'Im_PatrickDempsey.png', 'Im_BenStiller.png', 'Im_OrlandoBloom.png', 'Im_LeonardoDiCaprio.png', 'Im_DanielCraig.png'],same,1,1270.4439094,14,83.33333333333333
ALRE2209,7,inv,120,pos120_id4_im20.bmp_pos120_id20_im30.bmp,['Im_DanielRadcliffe.png', 'Im_GeorgeClooney.png', 'Im_KeanuReeves.png', 'Im_RobertPattinson.png', 'Im_RyanGosling.png', 'Im_PatrickDempsey.png', 'Im_BenStiller.png', 'Im_OrlandoBloom.png', 'Im_LeonardoDiCaprio.png', 'Im_DanielCraig.png'],diff,1,1278.9356008000004,15,83.33333333333333
ALRE2209,7,inv,60,pos60_id16_im19.bmp_pos60_id16_im2.bmp,['Im_DanielRadcliffe.png', 'Im_GeorgeClooney.png', 'Im_KeanuReeves.png', 'Im_RobertPattinson.png', 'Im_RyanGosling.png', 'Im_PatrickDempsey.png', 'Im_BenStiller.png', 'Im_OrlandoBloom.png', 'Im_LeonardoDiCaprio.png', 'Im_DanielCraig.png'],same,1,1283.4441741,16,83.33333333333333
ALRE2209,7,inv,120,pos120_id16_im19.bmp_pos120_id16_im2.bmp,['Im_DanielRadcliffe.png', 'Im_GeorgeClooney.png', 'Im_KeanuReeves.png', 'Im_RobertPattinson.png', 'Im_RyanGosling.png', 'Im_PatrickDempsey.png', 'Im_BenStiller.png', 'Im_OrlandoBloom.png', 'Im_LeonardoDiCaprio.png', 'Im_DanielCraig.png'],same,1,1288.2106510000003,17,83.33333333333333
ALRE2209,7,inv,90,pos90_id4_im20.bmp_pos90_id4_im7.bmp,['Im_DanielRadcliffe.png', 'Im_GeorgeClooney.png', 'Im_KeanuReeves.png', 'Im_RobertPattinson.png', 'Im_RyanGosling.png', 'Im_PatrickDempsey.png', 'Im_BenStiller.png', 'Im_OrlandoBloom.png', 'Im_LeonardoDiCaprio.png', 'Im_DanielCraig.png'],same,1,1292.7523024000002,18,83.33333333333333
ALRE2209,7,inv,30,pos30_id11_im10.bmp_pos30_id11_im1.bmp,['Im_DanielRadcliffe.png', 'Im_GeorgeClooney.png', 'Im_KeanuReeves.png', 'Im_RobertPattinson.png', 'Im_RyanGosling.png', 'Im_PatrickDempsey.png', 'Im_BenStiller.png', 'Im_OrlandoBloom.png', 'Im_LeonardoDiCaprio.png', 'Im_DanielCraig.png'],same,1,1297.2940998000004,19,83.33333333333333
ALRE2209,7,inv,0,pos0_id13_im10.bmp_pos0_id16_im2.bmp,['Im_DanielRadcliffe.png', 'Im_GeorgeClooney.png', 'Im_KeanuReeves.png', 'Im_RobertPattinson.png', 'Im_RyanGosling.png', 'Im_PatrickDempsey.png', 'Im_BenStiller.png', 'Im_OrlandoBloom.png', 'Im_LeonardoDiCaprio.png', 'Im_DanielCraig.png'],diff,1,1302.7941701,20,83.33333333333333
ALRE2209,7,inv,fs,posfs_id7_im15.bmp_posfs_id19_im4.bmp,['Im_DanielRadcliffe.png', 'Im_GeorgeClooney.png', 'Im_KeanuReeves.png', 'Im_RobertPattinson.png', 'Im_RyanGosling.png', 'Im_PatrickDempsey.png', 'Im_BenStiller.png', 'Im_OrlandoBloom.png', 'Im_LeonardoDiCaprio.png', 'Im_DanielCraig.png'],diff,1,1307.2025388000002,21,83.33333333333333
ALRE2209,7,inv,150,pos150_id20_im30.bmp_pos150_id4_im20.bmp,['Im_DanielRadcliffe.png', 'Im_GeorgeClooney.png', 'Im_KeanuReeves.png', 'Im_RobertPattinson.png', 'Im_RyanGosling.png', 'Im_PatrickDempsey.png', 'Im_BenStiller.png', 'Im_OrlandoBloom.png', 'Im_LeonardoDiCaprio.png', 'Im_DanielCraig.png'],diff,1,1312.1606831,22,83.33333333333333
ALRE2209,7,inv,0,pos0_id16_im19.bmp_pos0_id16_im3.bmp,['Im_DanielRadcliffe.png', 'Im_GeorgeClooney.png', 'Im_KeanuReeves.png', 'Im_RobertPattinson.png', 'Im_RyanGosling.png', 'Im_PatrickDempsey.png', 'Im_BenStiller.png', 'Im_OrlandoBloom.png', 'Im_LeonardoDiCaprio.png', 'Im_DanielCraig.png'],same,1,1316.8773129,23,83.33333333333333
ALRE2209,7,inv,30,pos30_id17_im14.bmp_pos30_id17_im8.bmp,['Im_DanielRadcliffe.png', 'Im_GeorgeClooney.png', 'Im_KeanuReeves.png', 'Im_RobertPattinson.png', 'Im_RyanGosling.png', 'Im_PatrickDempsey.png', 'Im_BenStiller.png', 'Im_OrlandoBloom.png', 'Im_LeonardoDiCaprio.png', 'Im_DanielCraig.png'],same,1,1321.5526508000003,24,83.33333333333333
ALRE2209,7,inv,60,pos60_id13_im15.bmp_pos60_id19_im27.bmp,['Im_DanielRadcliffe.png', 'Im_GeorgeClooney.png', 'Im_KeanuReeves.png', 'Im_RobertPattinson.png', 'Im_RyanGosling.png', 'Im_PatrickDempsey.png', 'Im_BenStiller.png', 'Im_OrlandoBloom.png', 'Im_LeonardoDiCaprio.png', 'Im_DanielCraig.png'],diff,1,1326.1440381000002,25,83.33333333333333
ALRE2209,7,inv,90,pos90_id17_im9.bmp_pos90_id2_im2.bmp,['Im_DanielRadcliffe.png', 'Im_GeorgeClooney.png', 'Im_KeanuReeves.png', 'Im_RobertPattinson.png', 'Im_RyanGosling.png', 'Im_PatrickDempsey.png', 'Im_BenStiller.png', 'Im_OrlandoBloom.png', 'Im_LeonardoDiCaprio.png', 'Im_DanielCraig.png'],diff,1,1331.6275841000006,26,83.33333333333333
ALRE2209,7,inv,150,pos150_id4_im15.bmp_pos150_id19_im27.bmp,['Im_DanielRadcliffe.png', 'Im_GeorgeClooney.png', 'Im_KeanuReeves.png', 'Im_RobertPattinson.png', 'Im_RyanGosling.png', 'Im_PatrickDempsey.png', 'Im_BenStiller.png', 'Im_OrlandoBloom.png', 'Im_LeonardoDiCaprio.png', 'Im_DanielCraig.png'],same,0,1335.9523215,26,83.33333333333333
ALRE2209,7,inv,fs,posfs_id13_im29.bmp_posfs_id13_im10.bmp,['Im_DanielRadcliffe.png', 'Im_GeorgeClooney.png', 'Im_KeanuReeves.png', 'Im_RobertPattinson.png', 'Im_RyanGosling.png', 'Im_PatrickDempsey.png', 'Im_BenStiller.png', 'Im_OrlandoBloom.png', 'Im_LeonardoDiCaprio.png', 'Im_DanielCraig.png'],same,1,1340.0356805000001,27,83.33333333333333
ALRE2209,8,neg,90,neg90_id2_im16.bmp_neg90_id2_im3.bmp,['Im_DanielRadcliffe.png', 'Im_GeorgeClooney.png', 'Im_KeanuReeves.png', 'Im_RobertPattinson.png', 'Im_RyanGosling.png', 'Im_PatrickDempsey.png', 'Im_BenStiller.png', 'Im_OrlandoBloom.png', 'Im_LeonardoDiCaprio.png', 'Im_DanielCraig.png'],same,1,1347.9023875000003,28,83.33333333333333
ALRE2209,8,neg,120,neg120_id20_im30.bmp_neg120_id11_im2.bmp,['Im_DanielRadcliffe.png', 'Im_GeorgeClooney.png', 'Im_KeanuReeves.png', 'Im_RobertPattinson.png', 'Im_RyanGosling.png', 'Im_PatrickDempsey.png', 'Im_BenStiller.png', 'Im_OrlandoBloom.png', 'Im_LeonardoDiCaprio.png', 'Im_DanielCraig.png'],diff,1,1353.0607213000003,29,83.33333333333333
ALRE2209,8,neg,30,neg30_id17_im9.bmp_neg30_id2_im2.bmp,['Im_DanielRadcliffe.png', 'Im_GeorgeClooney.png', 'Im_KeanuReeves.png', 'Im_RobertPattinson.png', 'Im_RyanGosling.png', 'Im_PatrickDempsey.png', 'Im_BenStiller.png', 'Im_OrlandoBloom.png', 'Im_LeonardoDiCaprio.png', 'Im_DanielCraig.png'],same,0,1357.7109478000002,29,83.33333333333333
ALRE2209,8,neg,60,neg60_id4_im20.bmp_neg60_id4_im7.bmp,['Im_DanielRadcliffe.png', 'Im_GeorgeClooney.png', 'Im_KeanuReeves.png', 'Im_RobertPattinson.png', 'Im_RyanGosling.png', 'Im_PatrickDempsey.png', 'Im_BenStiller.png', 'Im_OrlandoBloom.png', 'Im_LeonardoDiCaprio.png', 'Im_DanielCraig.png'],same,1,1362.4524235999997,30,83.33333333333333
ALRE2209,8,neg,90,neg90_id11_im1.bmp_neg90_id11_im10.bmp,['Im_DanielRadcliffe.png', 'Im_GeorgeClooney.png', 'Im_KeanuReeves.png', 'Im_RobertPattinson.png', 'Im_RyanGosling.png', 'Im_PatrickDempsey.png', 'Im_BenStiller.png', 'Im_OrlandoBloom.png', 'Im_LeonardoDiCaprio.png', 'Im_DanielCraig.png'],same,1,1366.9359605,31,83.33333333333333
ALRE2209,8,neg,120,neg120_id11_im2.bmp_neg120_id11_im1.bmp,['Im_DanielRadcliffe.png', 'Im_GeorgeClooney.png', 'Im_KeanuReeves.png', 'Im_RobertPattinson.png', 'Im_RyanGosling.png', 'Im_PatrickDempsey.png', 'Im_BenStiller.png', 'Im_OrlandoBloom.png', 'Im_LeonardoDiCaprio.png', 'Im_DanielCraig.png'],diff,0,1371.2442492999999,31,83.33333333333333
ALRE2209,8,neg,0,neg0_id20_im3.bmp_neg0_id20_im12.bmp,['Im_DanielRadcliffe.png', 'Im_GeorgeClooney.png', 'Im_KeanuReeves.png', 'Im_RobertPattinson.png', 'Im_RyanGosling.png', 'Im_PatrickDempsey.png', 'Im_BenStiller.png', 'Im_OrlandoBloom.png', 'Im_LeonardoDiCaprio.png', 'Im_DanielCraig.png'],same,1,1375.8863765000006,32,83.33333333333333
ALRE2209,8,neg,0,neg0_id4_im20.bmp_neg0_id7_im14.bmp,['Im_DanielRadcliffe.png', 'Im_GeorgeClooney.png', 'Im_KeanuReeves.png', 'Im_RobertPattinson.png', 'Im_RyanGosling.png', 'Im_PatrickDempsey.png', 'Im_BenStiller.png', 'Im_OrlandoBloom.png', 'Im_LeonardoDiCaprio.png', 'Im_DanielCraig.png'],diff,1,1380.2024096000005,33,83.33333333333333
ALRE2209,8,neg,30,neg30_id2_im16.bmp_neg30_id13_im29.bmp,['Im_DanielRadcliffe.png', 'Im_GeorgeClooney.png', 'Im_KeanuReeves.png', 'Im_RobertPattinson.png', 'Im_RyanGosling.png', 'Im_PatrickDempsey.png', 'Im_BenStiller.png', 'Im_OrlandoBloom.png', 'Im_LeonardoDiCaprio.png', 'Im_DanielCraig.png'],diff,1,1385.2692919,34,83.33333333333333
ALRE2209,8,neg,60,neg60_id2_im3.bmp_neg60_id17_im14.bmp,['Im_DanielRadcliffe.png', 'Im_GeorgeClooney.png', 'Im_KeanuReeves.png', 'Im_RobertPattinson.png', 'Im_RyanGosling.png', 'Im_PatrickDempsey.png', 'Im_BenStiller.png', 'Im_OrlandoBloom.png', 'Im_LeonardoDiCaprio.png', 'Im_DanielCraig.png'],diff,1,1392.0857698999998,35,83.33333333333333
ALRE2209,8,neg,150,neg150_id2_im3.bmp_neg150_id2_im16.bmp,['Im_DanielRadcliffe.png', 'Im_GeorgeClooney.png', 'Im_KeanuReeves.png', 'Im_RobertPattinson.png', 'Im_RyanGosling.png', 'Im_PatrickDempsey.png', 'Im_BenStiller.png', 'Im_OrlandoBloom.png', 'Im_LeonardoDiCaprio.png', 'Im_DanielCraig.png'],same,1,1397.0941598,36,83.33333333333333
ALRE2209,8,neg,fs,negfs_id17_im14.bmp_negfs_id17_im8.bmp,['Im_DanielRadcliffe.png', 'Im_GeorgeClooney.png', 'Im_KeanuReeves.png', 'Im_RobertPattinson.png', 'Im_RyanGosling.png', 'Im_PatrickDempsey.png', 'Im_BenStiller.png', 'Im_OrlandoBloom.png', 'Im_LeonardoDiCaprio.png', 'Im_DanielCraig.png'],same,1,1401.4439452000006,37,83.33333333333333
ALRE2209,8,neg,fs,negfs_id7_im14.bmp_negfs_id7_im15.bmp,['Im_DanielRadcliffe.png', 'Im_GeorgeClooney.png', 'Im_KeanuReeves.png', 'Im_RobertPattinson.png', 'Im_RyanGosling.png', 'Im_PatrickDempsey.png', 'Im_BenStiller.png', 'Im_OrlandoBloom.png', 'Im_LeonardoDiCaprio.png', 'Im_DanielCraig.png'],same,1,1405.7107489,38,83.33333333333333
ALRE2209,8,neg,150,neg150_id17_im14.bmp_neg150_id17_im8.bmp,['Im_DanielRadcliffe.png', 'Im_GeorgeClooney.png', 'Im_KeanuReeves.png', 'Im_RobertPattinson.png', 'Im_RyanGosling.png', 'Im_PatrickDempsey.png', 'Im_BenStiller.png', 'Im_OrlandoBloom.png', 'Im_LeonardoDiCaprio.png', 'Im_DanielCraig.png'],same,1,1410.2693082000005,39,83.33333333333333
ALRE2209,9,pos,120,pos120_id16_im19.bmp_pos120_id16_im2.bmp,['Im_DanielRadcliffe.png', 'Im_GeorgeClooney.png', 'Im_KeanuReeves.png', 'Im_RobertPattinson.png', 'Im_RyanGosling.png', 'Im_PatrickDempsey.png', 'Im_BenStiller.png', 'Im_OrlandoBloom.png', 'Im_LeonardoDiCaprio.png', 'Im_DanielCraig.png'],same,1,1425.7951954999999,1,92.85714285714286
ALRE2209,9,pos,150,pos150_id13_im29.bmp_pos150_id13_im10.bmp,['Im_DanielRadcliffe.png', 'Im_GeorgeClooney.png', 'Im_KeanuReeves.png', 'Im_RobertPattinson.png', 'Im_RyanGosling.png', 'Im_PatrickDempsey.png', 'Im_BenStiller.png', 'Im_OrlandoBloom.png', 'Im_LeonardoDiCaprio.png', 'Im_DanielCraig.png'],same,1,1430.5024818000002,2,92.85714285714286
ALRE2209,9,pos,fs,posfs_id13_im10.bmp_posfs_id13_im15.bmp,['Im_DanielRadcliffe.png', 'Im_GeorgeClooney.png', 'Im_KeanuReeves.png', 'Im_RobertPattinson.png', 'Im_RyanGosling.png', 'Im_PatrickDempsey.png', 'Im_BenStiller.png', 'Im_OrlandoBloom.png', 'Im_LeonardoDiCaprio.png', 'Im_DanielCraig.png'],same,1,1435.1858321,3,92.85714285714286
ALRE2209,9,pos,0,pos0_id2_im16.bmp_pos0_id2_im3.bmp,['Im_DanielRadcliffe.png', 'Im_GeorgeClooney.png', 'Im_KeanuReeves.png', 'Im_RobertPattinson.png', 'Im_RyanGosling.png', 'Im_PatrickDempsey.png', 'Im_BenStiller.png', 'Im_OrlandoBloom.png', 'Im_LeonardoDiCaprio.png', 'Im_DanielCraig.png'],same,1,1439.5691156000003,4,92.85714285714286
ALRE2209,9,pos,0,pos0_id16_im3.bmp_pos0_id19_im8.bmp,['Im_DanielRadcliffe.png', 'Im_GeorgeClooney.png', 'Im_KeanuReeves.png', 'Im_RobertPattinson.png', 'Im_RyanGosling.png', 'Im_PatrickDempsey.png', 'Im_BenStiller.png', 'Im_OrlandoBloom.png', 'Im_LeonardoDiCaprio.png', 'Im_DanielCraig.png'],same,0,1444.2777065999999,4,92.85714285714286
ALRE2209,9,pos,90,pos90_id17_im8.bmp_pos90_id11_im10.bmp,['Im_DanielRadcliffe.png', 'Im_GeorgeClooney.png', 'Im_KeanuReeves.png', 'Im_RobertPattinson.png', 'Im_RyanGosling.png', 'Im_PatrickDempsey.png', 'Im_BenStiller.png', 'Im_OrlandoBloom.png', 'Im_LeonardoDiCaprio.png', 'Im_DanielCraig.png'],diff,1,1449.7860220000002,5,92.85714285714286
ALRE2209,9,pos,30,pos30_id13_im29.bmp_pos30_id13_im10.bmp,['Im_DanielRadcliffe.png', 'Im_GeorgeClooney.png', 'Im_KeanuReeves.png', 'Im_RobertPattinson.png', 'Im_RyanGosling.png', 'Im_PatrickDempsey.png', 'Im_BenStiller.png', 'Im_OrlandoBloom.png', 'Im_LeonardoDiCaprio.png', 'Im_DanielCraig.png'],same,1,1454.4691750000002,6,92.85714285714286
ALRE2209,9,pos,120,pos120_id17_im9.bmp_pos120_id17_im8.bmp,['Im_DanielRadcliffe.png', 'Im_GeorgeClooney.png', 'Im_KeanuReeves.png', 'Im_RobertPattinson.png', 'Im_RyanGosling.png', 'Im_PatrickDempsey.png', 'Im_BenStiller.png', 'Im_OrlandoBloom.png', 'Im_LeonardoDiCaprio.png', 'Im_DanielCraig.png'],same,1,1459.6107890000003,7,92.85714285714286
ALRE2209,9,pos,30,pos30_id11_im2.bmp_pos30_id11_im10.bmp,['Im_DanielRadcliffe.png', 'Im_GeorgeClooney.png', 'Im_KeanuReeves.png', 'Im_RobertPattinson.png', 'Im_RyanGosling.png', 'Im_PatrickDempsey.png', 'Im_BenStiller.png', 'Im_OrlandoBloom.png', 'Im_LeonardoDiCaprio.png', 'Im_DanielCraig.png'],same,1,1464.5356739999997,8,92.85714285714286
ALRE2209,9,pos,60,pos60_id20_im3.bmp_pos60_id5_im20.bmp,['Im_DanielRadcliffe.png', 'Im_GeorgeClooney.png', 'Im_KeanuReeves.png', 'Im_RobertPattinson.png', 'Im_RyanGosling.png', 'Im_PatrickDempsey.png', 'Im_BenStiller.png', 'Im_OrlandoBloom.png', 'Im_LeonardoDiCaprio.png', 'Im_DanielCraig.png'],diff,1,1469.1690164000001,9,92.85714285714286
ALRE2209,9,pos,150,pos150_id5_im1.bmp_pos150_id5_im10.bmp,['Im_DanielRadcliffe.png', 'Im_GeorgeClooney.png', 'Im_KeanuReeves.png', 'Im_RobertPattinson.png', 'Im_RyanGosling.png', 'Im_PatrickDempsey.png', 'Im_BenStiller.png', 'Im_OrlandoBloom.png', 'Im_LeonardoDiCaprio.png', 'Im_DanielCraig.png'],same,1,1473.7858562000001,10,92.85714285714286
ALRE2209,9,pos,fs,posfs_id4_im20.bmp_posfs_id4_im15.bmp,['Im_DanielRadcliffe.png', 'Im_GeorgeClooney.png', 'Im_KeanuReeves.png', 'Im_RobertPattinson.png', 'Im_RyanGosling.png', 'Im_PatrickDempsey.png', 'Im_BenStiller.png', 'Im_OrlandoBloom.png', 'Im_LeonardoDiCaprio.png', 'Im_DanielCraig.png'],same,1,1478.4361344,11,92.85714285714286
ALRE2209,9,pos,60,pos60_id16_im3.bmp_pos60_id19_im8.bmp,['Im_DanielRadcliffe.png', 'Im_GeorgeClooney.png', 'Im_KeanuReeves.png', 'Im_RobertPattinson.png', 'Im_RyanGosling.png', 'Im_PatrickDempsey.png', 'Im_BenStiller.png', 'Im_OrlandoBloom.png', 'Im_LeonardoDiCaprio.png', 'Im_DanielCraig.png'],diff,1,1483.1444100999997,12,92.85714285714286
ALRE2209,9,pos,90,pos90_id4_im20.bmp_pos90_id20_im30.bmp,['Im_DanielRadcliffe.png', 'Im_GeorgeClooney.png', 'Im_KeanuReeves.png', 'Im_RobertPattinson.png', 'Im_RyanGosling.png', 'Im_PatrickDempsey.png', 'Im_BenStiller.png', 'Im_OrlandoBloom.png', 'Im_LeonardoDiCaprio.png', 'Im_DanielCraig.png'],diff,1,1487.3773982000002,13,92.85714285714286
ALRE2209,10,inv,0,pos0_id2_im3.bmp_pos0_id2_im16.bmp,['Im_DanielRadcliffe.png', 'Im_GeorgeClooney.png', 'Im_KeanuReeves.png', 'Im_RobertPattinson.png', 'Im_RyanGosling.png', 'Im_PatrickDempsey.png', 'Im_BenStiller.png', 'Im_OrlandoBloom.png', 'Im_LeonardoDiCaprio.png', 'Im_DanielCraig.png'],same,1,1495.4109982999998,14,92.85714285714286
ALRE2209,10,inv,30,pos30_id11_im1.bmp_pos30_id11_im2.bmp,['Im_DanielRadcliffe.png', 'Im_GeorgeClooney.png', 'Im_KeanuReeves.png', 'Im_RobertPattinson.png', 'Im_RyanGosling.png', 'Im_PatrickDempsey.png', 'Im_BenStiller.png', 'Im_OrlandoBloom.png', 'Im_LeonardoDiCaprio.png', 'Im_DanielCraig.png'],same,1,1500.4776332000001,15,92.85714285714286
ALRE2209,10,inv,90,pos90_id4_im15.bmp_pos90_id5_im1.bmp,['Im_DanielRadcliffe.png', 'Im_GeorgeClooney.png', 'Im_KeanuReeves.png', 'Im_RobertPattinson.png', 'Im_RyanGosling.png', 'Im_PatrickDempsey.png', 'Im_BenStiller.png', 'Im_OrlandoBloom.png', 'Im_LeonardoDiCaprio.png', 'Im_DanielCraig.png'],diff,1,1504.7192274999998,16,92.85714285714286
ALRE2209,10,inv,150,pos150_id2_im16.bmp_pos150_id13_im29.bmp,['Im_DanielRadcliffe.png', 'Im_GeorgeClooney.png', 'Im_KeanuReeves.png', 'Im_RobertPattinson.png', 'Im_RyanGosling.png', 'Im_PatrickDempsey.png', 'Im_BenStiller.png', 'Im_OrlandoBloom.png', 'Im_LeonardoDiCaprio.png', 'Im_DanielCraig.png'],same,0,1509.7442688,16,92.85714285714286
ALRE2209,10,inv,120,pos120_id4_im7.bmp_pos120_id17_im9.bmp,['Im_DanielRadcliffe.png', 'Im_GeorgeClooney.png', 'Im_KeanuReeves.png', 'Im_RobertPattinson.png', 'Im_RyanGosling.png', 'Im_PatrickDempsey.png', 'Im_BenStiller.png', 'Im_OrlandoBloom.png', 'Im_LeonardoDiCaprio.png', 'Im_DanielCraig.png'],diff,1,1514.2200063999999,17,92.85714285714286
ALRE2209,10,inv,fs,posfs_id5_im20.bmp_posfs_id20_im3.bmp,['Im_DanielRadcliffe.png', 'Im_GeorgeClooney.png', 'Im_KeanuReeves.png', 'Im_RobertPattinson.png', 'Im_RyanGosling.png', 'Im_PatrickDempsey.png', 'Im_BenStiller.png', 'Im_OrlandoBloom.png', 'Im_LeonardoDiCaprio.png', 'Im_DanielCraig.png'],diff,1,1518.3692939000002,18,92.85714285714286
ALRE2209,10,inv,60,pos60_id7_im15.bmp_pos60_id7_im14.bmp,['Im_DanielRadcliffe.png', 'Im_GeorgeClooney.png', 'Im_KeanuReeves.png', 'Im_RobertPattinson.png', 'Im_RyanGosling.png', 'Im_PatrickDempsey.png', 'Im_BenStiller.png', 'Im_OrlandoBloom.png', 'Im_LeonardoDiCaprio.png', 'Im_DanielCraig.png'],diff,0,1522.9025231000005,18,92.85714285714286
ALRE2209,10,inv,90,pos90_id17_im14.bmp_pos90_id17_im8.bmp,['Im_DanielRadcliffe.png', 'Im_GeorgeClooney.png', 'Im_KeanuReeves.png', 'Im_RobertPattinson.png', 'Im_RyanGosling.png', 'Im_PatrickDempsey.png', 'Im_BenStiller.png', 'Im_OrlandoBloom.png', 'Im_LeonardoDiCaprio.png', 'Im_DanielCraig.png'],diff,0,1527.7274634000005,18,92.85714285714286
ALRE2209,10,inv,60,pos60_id17_im14.bmp_pos60_id13_im15.bmp,['Im_DanielRadcliffe.png', 'Im_GeorgeClooney.png', 'Im_KeanuReeves.png', 'Im_RobertPattinson.png', 'Im_RyanGosling.png', 'Im_PatrickDempsey.png', 'Im_BenStiller.png', 'Im_OrlandoBloom.png', 'Im_LeonardoDiCaprio.png', 'Im_DanielCraig.png'],diff,1,1532.3025298000002,19,92.85714285714286
ALRE2209,10,inv,0,pos0_id17_im14.bmp_pos0_id17_im9.bmp,['Im_DanielRadcliffe.png', 'Im_GeorgeClooney.png', 'Im_KeanuReeves.png', 'Im_RobertPattinson.png', 'Im_RyanGosling.png', 'Im_PatrickDempsey.png', 'Im_BenStiller.png', 'Im_OrlandoBloom.png', 'Im_LeonardoDiCaprio.png', 'Im_DanielCraig.png'],same,1,1536.7691630999998,20,92.85714285714286
ALRE2209,10,inv,fs,posfs_id16_im3.bmp_posfs_id19_im8.bmp,['Im_DanielRadcliffe.png', 'Im_GeorgeClooney.png', 'Im_KeanuReeves.png', 'Im_RobertPattinson.png', 'Im_RyanGosling.png', 'Im_PatrickDempsey.png', 'Im_BenStiller.png', 'Im_OrlandoBloom.png', 'Im_LeonardoDiCaprio.png', 'Im_DanielCraig.png'],same,0,1541.3194412000003,20,92.85714285714286
ALRE2209,10,inv,120,pos120_id4_im15.bmp_pos120_id5_im1.bmp,['Im_DanielRadcliffe.png', 'Im_GeorgeClooney.png', 'Im_KeanuReeves.png', 'Im_RobertPattinson.png', 'Im_RyanGosling.png', 'Im_PatrickDempsey.png', 'Im_BenStiller.png', 'Im_OrlandoBloom.png', 'Im_LeonardoDiCaprio.png', 'Im_DanielCraig.png'],diff,1,1545.6608805000005,21,92.85714285714286
