Sujet,Trial,Condition,Filter,Imname,Actor0,Actor1,Actor2,Actor3,Actor4,Actor5,Actor6,Actor7,Actor8,Actor9,Answer,Accu,RT,Score,Scoreperc, 
ALRE2209,train,inv,150,pos150_id13_im10.bmp_pos150_id13_im15.bmp,['Im_RyanGosling.png', 'Im_PatrickDempsey.png', 'Im_BenStiller.png', 'Im_DanielCraig.png', 'Im_DanielRadcliffe.png', 'Im_KeanuReeves.png', 'Im_OrlandoBloom.png', 'Im_LeonardoDiCaprio.png', 'Im_GeorgeClooney.png', 'Im_RobertPattinson.png'],same,1,108.30000729999999,1,0,
ALRE2209,train,inv,0,pos0_id5_im10.bmp_pos0_id20_im3.bmp,['Im_RyanGosling.png', 'Im_PatrickDempsey.png', 'Im_BenStiller.png', 'Im_DanielCraig.png', 'Im_DanielRadcliffe.png', 'Im_KeanuReeves.png', 'Im_OrlandoBloom.png', 'Im_LeonardoDiCaprio.png', 'Im_GeorgeClooney.png', 'Im_RobertPattinson.png'],diff,1,112.10832040000001,2,0,
ALRE2209,train,inv,30,pos30_id2_im2.bmp_pos30_id2_im16.bmp,['Im_RyanGosling.png', 'Im_PatrickDempsey.png', 'Im_BenStiller.png', 'Im_DanielCraig.png', 'Im_DanielRadcliffe.png', 'Im_KeanuReeves.png', 'Im_OrlandoBloom.png', 'Im_LeonardoDiCaprio.png', 'Im_GeorgeClooney.png', 'Im_RobertPattinson.png'],diff,0,116.3581756,2,0,
ALRE2209,train,inv,30,pos30_id11_im2.bmp_pos30_id20_im30.bmp,['Im_RyanGosling.png', 'Im_PatrickDempsey.png', 'Im_BenStiller.png', 'Im_DanielCraig.png', 'Im_DanielRadcliffe.png', 'Im_KeanuReeves.png', 'Im_OrlandoBloom.png', 'Im_LeonardoDiCaprio.png', 'Im_GeorgeClooney.png', 'Im_RobertPattinson.png'],same,0,120.3583417,2,0,
ALRE2209,train,inv,90,pos90_id7_im26.bmp_pos90_id19_im4.bmp,['Im_RyanGosling.png', 'Im_PatrickDempsey.png', 'Im_BenStiller.png', 'Im_DanielCraig.png', 'Im_DanielRadcliffe.png', 'Im_KeanuReeves.png', 'Im_OrlandoBloom.png', 'Im_LeonardoDiCaprio.png', 'Im_GeorgeClooney.png', 'Im_RobertPattinson.png'],diff,1,124.58320049999999,3,0,
ALRE2209,train,inv,120,pos120_id20_im30.bmp_pos120_id20_im3.bmp,['Im_RyanGosling.png', 'Im_PatrickDempsey.png', 'Im_BenStiller.png', 'Im_DanielCraig.png', 'Im_DanielRadcliffe.png', 'Im_KeanuReeves.png', 'Im_OrlandoBloom.png', 'Im_LeonardoDiCaprio.png', 'Im_GeorgeClooney.png', 'Im_RobertPattinson.png'],same,1,129.3332352,4,0,
ALRE2209,train,inv,fs,posfs_id16_im19.bmp_posfs_id5_im20.bmp,['Im_RyanGosling.png', 'Im_PatrickDempsey.png', 'Im_BenStiller.png', 'Im_DanielCraig.png', 'Im_DanielRadcliffe.png', 'Im_KeanuReeves.png', 'Im_OrlandoBloom.png', 'Im_LeonardoDiCaprio.png', 'Im_GeorgeClooney.png', 'Im_RobertPattinson.png'],diff,1,133.4997975,5,0,
ALRE2209,train,inv,120,pos120_id17_im9.bmp_pos120_id17_im8.bmp,['Im_RyanGosling.png', 'Im_PatrickDempsey.png', 'Im_BenStiller.png', 'Im_DanielCraig.png', 'Im_DanielRadcliffe.png', 'Im_KeanuReeves.png', 'Im_OrlandoBloom.png', 'Im_LeonardoDiCaprio.png', 'Im_GeorgeClooney.png', 'Im_RobertPattinson.png'],diff,0,138.2247258,5,0,
ALRE2209,train,inv,90,pos90_id11_im10.bmp_pos90_id2_im2.bmp,['Im_RyanGosling.png', 'Im_PatrickDempsey.png', 'Im_BenStiller.png', 'Im_DanielCraig.png', 'Im_DanielRadcliffe.png', 'Im_KeanuReeves.png', 'Im_OrlandoBloom.png', 'Im_LeonardoDiCaprio.png', 'Im_GeorgeClooney.png', 'Im_RobertPattinson.png'],diff,1,142.1165851,6,0,
ALRE2209,train,inv,0,pos0_id2_im16.bmp_pos0_id2_im2.bmp,['Im_RyanGosling.png', 'Im_PatrickDempsey.png', 'Im_BenStiller.png', 'Im_DanielCraig.png', 'Im_DanielRadcliffe.png', 'Im_KeanuReeves.png', 'Im_OrlandoBloom.png', 'Im_LeonardoDiCaprio.png', 'Im_GeorgeClooney.png', 'Im_RobertPattinson.png'],same,1,146.2747569,7,0,
ALRE2209,train,inv,60,pos60_id4_im15.bmp_pos60_id5_im1.bmp,['Im_RyanGosling.png', 'Im_PatrickDempsey.png', 'Im_BenStiller.png', 'Im_DanielCraig.png', 'Im_DanielRadcliffe.png', 'Im_KeanuReeves.png', 'Im_OrlandoBloom.png', 'Im_LeonardoDiCaprio.png', 'Im_GeorgeClooney.png', 'Im_RobertPattinson.png'],diff,1,150.3667704,8,0,
ALRE2209,train,inv,fs,posfs_id11_im2.bmp_posfs_id11_im10.bmp,['Im_RyanGosling.png', 'Im_PatrickDempsey.png', 'Im_BenStiller.png', 'Im_DanielCraig.png', 'Im_DanielRadcliffe.png', 'Im_KeanuReeves.png', 'Im_OrlandoBloom.png', 'Im_LeonardoDiCaprio.png', 'Im_GeorgeClooney.png', 'Im_RobertPattinson.png'],same,1,154.44969549999996,9,0,
ALRE2209,train,inv,150,pos150_id2_im2.bmp_pos150_id2_im3.bmp,['Im_RyanGosling.png', 'Im_PatrickDempsey.png', 'Im_BenStiller.png', 'Im_DanielCraig.png', 'Im_DanielRadcliffe.png', 'Im_KeanuReeves.png', 'Im_OrlandoBloom.png', 'Im_LeonardoDiCaprio.png', 'Im_GeorgeClooney.png', 'Im_RobertPattinson.png'],same,1,158.82473339999996,10,0,
ALRE2209,train,inv,60,pos60_id11_im2.bmp_pos60_id13_im29.bmp,['Im_RyanGosling.png', 'Im_PatrickDempsey.png', 'Im_BenStiller.png', 'Im_DanielCraig.png', 'Im_DanielRadcliffe.png', 'Im_KeanuReeves.png', 'Im_OrlandoBloom.png', 'Im_LeonardoDiCaprio.png', 'Im_GeorgeClooney.png', 'Im_RobertPattinson.png'],same,0,163.533257,10,0,
ALRE2209,train,inv,fs,posfs_id2_im16.bmp_posfs_id2_im2.bmp,['Im_RyanGosling.png', 'Im_PatrickDempsey.png', 'Im_BenStiller.png', 'Im_DanielCraig.png', 'Im_DanielRadcliffe.png', 'Im_KeanuReeves.png', 'Im_OrlandoBloom.png', 'Im_LeonardoDiCaprio.png', 'Im_GeorgeClooney.png', 'Im_RobertPattinson.png'],same,1,167.79161999999997,11,0,
ALRE2209,train,inv,60,pos60_id5_im20.bmp_pos60_id16_im19.bmp,['Im_RyanGosling.png', 'Im_PatrickDempsey.png', 'Im_BenStiller.png', 'Im_DanielCraig.png', 'Im_DanielRadcliffe.png', 'Im_KeanuReeves.png', 'Im_OrlandoBloom.png', 'Im_LeonardoDiCaprio.png', 'Im_GeorgeClooney.png', 'Im_RobertPattinson.png'],diff,1,171.7175375,12,0,
ALRE2209,train,inv,0,pos0_id11_im1.bmp_pos0_id11_im2.bmp,['Im_RyanGosling.png', 'Im_PatrickDempsey.png', 'Im_BenStiller.png', 'Im_DanielCraig.png', 'Im_DanielRadcliffe.png', 'Im_KeanuReeves.png', 'Im_OrlandoBloom.png', 'Im_LeonardoDiCaprio.png', 'Im_GeorgeClooney.png', 'Im_RobertPattinson.png'],same,1,176.47499399999998,13,0,
ALRE2209,train,inv,120,pos120_id4_im20.bmp_pos120_id4_im7.bmp,['Im_RyanGosling.png', 'Im_PatrickDempsey.png', 'Im_BenStiller.png', 'Im_DanielCraig.png', 'Im_DanielRadcliffe.png', 'Im_KeanuReeves.png', 'Im_OrlandoBloom.png', 'Im_LeonardoDiCaprio.png', 'Im_GeorgeClooney.png', 'Im_RobertPattinson.png'],same,1,180.59981519999997,14,0,
ALRE2209,train,inv,fs,posfs_id5_im1.bmp_posfs_id5_im20.bmp,['Im_RyanGosling.png', 'Im_PatrickDempsey.png', 'Im_BenStiller.png', 'Im_DanielCraig.png', 'Im_DanielRadcliffe.png', 'Im_KeanuReeves.png', 'Im_OrlandoBloom.png', 'Im_LeonardoDiCaprio.png', 'Im_GeorgeClooney.png', 'Im_RobertPattinson.png'],same,1,184.81642819999996,15,0,
ALRE2209,train,inv,30,pos30_id5_im20.bmp_pos30_id16_im19.bmp,['Im_RyanGosling.png', 'Im_PatrickDempsey.png', 'Im_BenStiller.png', 'Im_DanielCraig.png', 'Im_DanielRadcliffe.png', 'Im_KeanuReeves.png', 'Im_OrlandoBloom.png', 'Im_LeonardoDiCaprio.png', 'Im_GeorgeClooney.png', 'Im_RobertPattinson.png'],diff,1,189.29147589999997,16,0,
ALRE2209,train,inv,150,pos150_id19_im8.bmp_pos150_id16_im3.bmp,['Im_RyanGosling.png', 'Im_PatrickDempsey.png', 'Im_BenStiller.png', 'Im_DanielCraig.png', 'Im_DanielRadcliffe.png', 'Im_KeanuReeves.png', 'Im_OrlandoBloom.png', 'Im_LeonardoDiCaprio.png', 'Im_GeorgeClooney.png', 'Im_RobertPattinson.png'],same,0,193.599915,16,0,
ALRE2209,train,inv,90,pos90_id2_im3.bmp_pos90_id2_im16.bmp,['Im_RyanGosling.png', 'Im_PatrickDempsey.png', 'Im_BenStiller.png', 'Im_DanielCraig.png', 'Im_DanielRadcliffe.png', 'Im_KeanuReeves.png', 'Im_OrlandoBloom.png', 'Im_LeonardoDiCaprio.png', 'Im_GeorgeClooney.png', 'Im_RobertPattinson.png'],same,1,198.09136919999997,17,0,
ALRE2209,train,inv,30,pos30_id16_im2.bmp_pos30_id13_im10.bmp,['Im_RyanGosling.png', 'Im_PatrickDempsey.png', 'Im_BenStiller.png', 'Im_DanielCraig.png', 'Im_DanielRadcliffe.png', 'Im_KeanuReeves.png', 'Im_OrlandoBloom.png', 'Im_LeonardoDiCaprio.png', 'Im_GeorgeClooney.png', 'Im_RobertPattinson.png'],diff,1,202.35806029999998,18,0,
ALRE2209,train,inv,60,pos60_id4_im7.bmp_pos60_id17_im9.bmp,['Im_RyanGosling.png', 'Im_PatrickDempsey.png', 'Im_BenStiller.png', 'Im_DanielCraig.png', 'Im_DanielRadcliffe.png', 'Im_KeanuReeves.png', 'Im_OrlandoBloom.png', 'Im_LeonardoDiCaprio.png', 'Im_GeorgeClooney.png', 'Im_RobertPattinson.png'],diff,1,206.3331465,19,0,
ALRE2209,train,inv,150,pos150_id13_im10.bmp_pos150_id16_im2.bmp,['Im_RyanGosling.png', 'Im_PatrickDempsey.png', 'Im_BenStiller.png', 'Im_DanielCraig.png', 'Im_DanielRadcliffe.png', 'Im_KeanuReeves.png', 'Im_OrlandoBloom.png', 'Im_LeonardoDiCaprio.png', 'Im_GeorgeClooney.png', 'Im_RobertPattinson.png'],diff,1,210.52485489999998,20,0,
ALRE2209,train,inv,0,pos0_id11_im2.bmp_pos0_id11_im10.bmp,['Im_RyanGosling.png', 'Im_PatrickDempsey.png', 'Im_BenStiller.png', 'Im_DanielCraig.png', 'Im_DanielRadcliffe.png', 'Im_KeanuReeves.png', 'Im_OrlandoBloom.png', 'Im_LeonardoDiCaprio.png', 'Im_GeorgeClooney.png', 'Im_RobertPattinson.png'],same,1,214.49124189999998,21,0,
ALRE2209,train,inv,90,pos90_id7_im15.bmp_pos90_id7_im26.bmp,['Im_RyanGosling.png', 'Im_PatrickDempsey.png', 'Im_BenStiller.png', 'Im_DanielCraig.png', 'Im_DanielRadcliffe.png', 'Im_KeanuReeves.png', 'Im_OrlandoBloom.png', 'Im_LeonardoDiCaprio.png', 'Im_GeorgeClooney.png', 'Im_RobertPattinson.png'],same,1,218.6496879,22,0,
ALRE2209,train,inv,120,pos120_id4_im7.bmp_pos120_id4_im15.bmp,['Im_RyanGosling.png', 'Im_PatrickDempsey.png', 'Im_BenStiller.png', 'Im_DanielCraig.png', 'Im_DanielRadcliffe.png', 'Im_KeanuReeves.png', 'Im_OrlandoBloom.png', 'Im_LeonardoDiCaprio.png', 'Im_GeorgeClooney.png', 'Im_RobertPattinson.png'],same,1,223.36629219999998,23,0,
ALRE2209,train,pos,0,pos0_id5_im10.bmp_pos0_id5_im20.bmp,['Im_RyanGosling.png', 'Im_PatrickDempsey.png', 'Im_BenStiller.png', 'Im_DanielCraig.png', 'Im_DanielRadcliffe.png', 'Im_KeanuReeves.png', 'Im_OrlandoBloom.png', 'Im_LeonardoDiCaprio.png', 'Im_GeorgeClooney.png', 'Im_RobertPattinson.png'],same,1,227.57457039999997,24,0,
ALRE2209,train,pos,120,pos120_id20_im30.bmp_pos120_id4_im20.bmp,['Im_RyanGosling.png', 'Im_PatrickDempsey.png', 'Im_BenStiller.png', 'Im_DanielCraig.png', 'Im_DanielRadcliffe.png', 'Im_KeanuReeves.png', 'Im_OrlandoBloom.png', 'Im_LeonardoDiCaprio.png', 'Im_GeorgeClooney.png', 'Im_RobertPattinson.png'],diff,1,233.3162575,25,0,
ALRE2209,train,pos,fs,posfs_id17_im8.bmp_posfs_id17_im9.bmp,['Im_RyanGosling.png', 'Im_PatrickDempsey.png', 'Im_BenStiller.png', 'Im_DanielCraig.png', 'Im_DanielRadcliffe.png', 'Im_KeanuReeves.png', 'Im_OrlandoBloom.png', 'Im_LeonardoDiCaprio.png', 'Im_GeorgeClooney.png', 'Im_RobertPattinson.png'],same,1,237.17471089999998,26,0,
ALRE2209,train,pos,60,pos60_id16_im19.bmp_pos60_id5_im20.bmp,['Im_RyanGosling.png', 'Im_PatrickDempsey.png', 'Im_BenStiller.png', 'Im_DanielCraig.png', 'Im_DanielRadcliffe.png', 'Im_KeanuReeves.png', 'Im_OrlandoBloom.png', 'Im_LeonardoDiCaprio.png', 'Im_GeorgeClooney.png', 'Im_RobertPattinson.png'],diff,1,241.4747837,27,0,
ALRE2209,train,pos,150,pos150_id19_im4.bmp_pos150_id7_im26.bmp,['Im_RyanGosling.png', 'Im_PatrickDempsey.png', 'Im_BenStiller.png', 'Im_DanielCraig.png', 'Im_DanielRadcliffe.png', 'Im_KeanuReeves.png', 'Im_OrlandoBloom.png', 'Im_LeonardoDiCaprio.png', 'Im_GeorgeClooney.png', 'Im_RobertPattinson.png'],diff,1,246.69164869999997,28,0,
ALRE2209,train,pos,90,pos90_id7_im26.bmp_pos90_id19_im4.bmp,['Im_RyanGosling.png', 'Im_PatrickDempsey.png', 'Im_BenStiller.png', 'Im_DanielCraig.png', 'Im_DanielRadcliffe.png', 'Im_KeanuReeves.png', 'Im_OrlandoBloom.png', 'Im_LeonardoDiCaprio.png', 'Im_GeorgeClooney.png', 'Im_RobertPattinson.png'],diff,1,251.1245899,29,0,
ALRE2209,train,pos,30,pos30_id19_im27.bmp_pos30_id13_im15.bmp,['Im_RyanGosling.png', 'Im_PatrickDempsey.png', 'Im_BenStiller.png', 'Im_DanielCraig.png', 'Im_DanielRadcliffe.png', 'Im_KeanuReeves.png', 'Im_OrlandoBloom.png', 'Im_LeonardoDiCaprio.png', 'Im_GeorgeClooney.png', 'Im_RobertPattinson.png'],diff,1,254.8080584,30,0,
ALRE2209,train,pos,150,pos150_id7_im26.bmp_pos150_id2_im3.bmp,['Im_RyanGosling.png', 'Im_PatrickDempsey.png', 'Im_BenStiller.png', 'Im_DanielCraig.png', 'Im_DanielRadcliffe.png', 'Im_KeanuReeves.png', 'Im_OrlandoBloom.png', 'Im_LeonardoDiCaprio.png', 'Im_GeorgeClooney.png', 'Im_RobertPattinson.png'],diff,1,258.6410087,31,0,
ALRE2209,train,pos,60,pos60_id16_im2.bmp_pos60_id5_im10.bmp,['Im_RyanGosling.png', 'Im_PatrickDempsey.png', 'Im_BenStiller.png', 'Im_DanielCraig.png', 'Im_DanielRadcliffe.png', 'Im_KeanuReeves.png', 'Im_OrlandoBloom.png', 'Im_LeonardoDiCaprio.png', 'Im_GeorgeClooney.png', 'Im_RobertPattinson.png'],diff,1,262.5329956,32,0,
ALRE2209,train,pos,120,pos120_id5_im20.bmp_pos120_id20_im3.bmp,['Im_RyanGosling.png', 'Im_PatrickDempsey.png', 'Im_BenStiller.png', 'Im_DanielCraig.png', 'Im_DanielRadcliffe.png', 'Im_KeanuReeves.png', 'Im_OrlandoBloom.png', 'Im_LeonardoDiCaprio.png', 'Im_GeorgeClooney.png', 'Im_RobertPattinson.png'],diff,1,266.7745083,33,0,
ALRE2209,train,pos,fs,posfs_id2_im2.bmp_posfs_id2_im3.bmp,['Im_RyanGosling.png', 'Im_PatrickDempsey.png', 'Im_BenStiller.png', 'Im_DanielCraig.png', 'Im_DanielRadcliffe.png', 'Im_KeanuReeves.png', 'Im_OrlandoBloom.png', 'Im_LeonardoDiCaprio.png', 'Im_GeorgeClooney.png', 'Im_RobertPattinson.png'],same,1,271.0829223,34,0,
ALRE2209,train,pos,0,pos0_id17_im14.bmp_pos0_id13_im15.bmp,['Im_RyanGosling.png', 'Im_PatrickDempsey.png', 'Im_BenStiller.png', 'Im_DanielCraig.png', 'Im_DanielRadcliffe.png', 'Im_KeanuReeves.png', 'Im_OrlandoBloom.png', 'Im_LeonardoDiCaprio.png', 'Im_GeorgeClooney.png', 'Im_RobertPattinson.png'],diff,1,275.3497772,35,0,
ALRE2209,train,pos,30,pos30_id7_im14.bmp_pos30_id16_im3.bmp,['Im_RyanGosling.png', 'Im_PatrickDempsey.png', 'Im_BenStiller.png', 'Im_DanielCraig.png', 'Im_DanielRadcliffe.png', 'Im_KeanuReeves.png', 'Im_OrlandoBloom.png', 'Im_LeonardoDiCaprio.png', 'Im_GeorgeClooney.png', 'Im_RobertPattinson.png'],diff,1,279.51637569999997,36,0,
ALRE2209,train,pos,90,pos90_id20_im3.bmp_pos90_id20_im12.bmp,['Im_RyanGosling.png', 'Im_PatrickDempsey.png', 'Im_BenStiller.png', 'Im_DanielCraig.png', 'Im_DanielRadcliffe.png', 'Im_KeanuReeves.png', 'Im_OrlandoBloom.png', 'Im_LeonardoDiCaprio.png', 'Im_GeorgeClooney.png', 'Im_RobertPattinson.png'],same,1,284.50781259999997,37,0,
ALRE2209,train,neg,150,neg150_id4_im20.bmp_neg150_id4_im15.bmp,['Im_RyanGosling.png', 'Im_PatrickDempsey.png', 'Im_BenStiller.png', 'Im_DanielCraig.png', 'Im_DanielRadcliffe.png', 'Im_KeanuReeves.png', 'Im_OrlandoBloom.png', 'Im_LeonardoDiCaprio.png', 'Im_GeorgeClooney.png', 'Im_RobertPattinson.png'],same,1,291.4411192,1,88.0952380952381,
ALRE2209,train,neg,fs,negfs_id7_im26.bmp_negfs_id2_im3.bmp,['Im_RyanGosling.png', 'Im_PatrickDempsey.png', 'Im_BenStiller.png', 'Im_DanielCraig.png', 'Im_DanielRadcliffe.png', 'Im_KeanuReeves.png', 'Im_OrlandoBloom.png', 'Im_LeonardoDiCaprio.png', 'Im_GeorgeClooney.png', 'Im_RobertPattinson.png'],diff,1,295.5411558,2,88.0952380952381,
ALRE2209,train,neg,30,neg30_id19_im4.bmp_neg30_id19_im8.bmp,['Im_RyanGosling.png', 'Im_PatrickDempsey.png', 'Im_BenStiller.png', 'Im_DanielCraig.png', 'Im_DanielRadcliffe.png', 'Im_KeanuReeves.png', 'Im_OrlandoBloom.png', 'Im_LeonardoDiCaprio.png', 'Im_GeorgeClooney.png', 'Im_RobertPattinson.png'],diff,0,299.67448429999996,2,88.0952380952381,
ALRE2209,train,neg,120,neg120_id16_im19.bmp_neg120_id5_im20.bmp,['Im_RyanGosling.png', 'Im_PatrickDempsey.png', 'Im_BenStiller.png', 'Im_DanielCraig.png', 'Im_DanielRadcliffe.png', 'Im_KeanuReeves.png', 'Im_OrlandoBloom.png', 'Im_LeonardoDiCaprio.png', 'Im_GeorgeClooney.png', 'Im_RobertPattinson.png'],diff,1,303.6661295,3,88.0952380952381,
ALRE2209,train,neg,fs,negfs_id13_im10.bmp_negfs_id13_im29.bmp,['Im_RyanGosling.png', 'Im_PatrickDempsey.png', 'Im_BenStiller.png', 'Im_DanielCraig.png', 'Im_DanielRadcliffe.png', 'Im_KeanuReeves.png', 'Im_OrlandoBloom.png', 'Im_LeonardoDiCaprio.png', 'Im_GeorgeClooney.png', 'Im_RobertPattinson.png'],same,1,308.0080935,4,88.0952380952381,
ALRE2209,train,neg,0,neg0_id7_im15.bmp_neg0_id20_im12.bmp,['Im_RyanGosling.png', 'Im_PatrickDempsey.png', 'Im_BenStiller.png', 'Im_DanielCraig.png', 'Im_DanielRadcliffe.png', 'Im_KeanuReeves.png', 'Im_OrlandoBloom.png', 'Im_LeonardoDiCaprio.png', 'Im_GeorgeClooney.png', 'Im_RobertPattinson.png'],diff,1,313.1247156,5,88.0952380952381,
ALRE2209,train,neg,150,neg150_id13_im29.bmp_neg150_id13_im10.bmp,['Im_RyanGosling.png', 'Im_PatrickDempsey.png', 'Im_BenStiller.png', 'Im_DanielCraig.png', 'Im_DanielRadcliffe.png', 'Im_KeanuReeves.png', 'Im_OrlandoBloom.png', 'Im_LeonardoDiCaprio.png', 'Im_GeorgeClooney.png', 'Im_RobertPattinson.png'],same,1,316.93260749999996,6,88.0952380952381,
ALRE2209,train,neg,60,neg60_id4_im7.bmp_neg60_id4_im15.bmp,['Im_RyanGosling.png', 'Im_PatrickDempsey.png', 'Im_BenStiller.png', 'Im_DanielCraig.png', 'Im_DanielRadcliffe.png', 'Im_KeanuReeves.png', 'Im_OrlandoBloom.png', 'Im_LeonardoDiCaprio.png', 'Im_GeorgeClooney.png', 'Im_RobertPattinson.png'],same,1,320.6665409,7,88.0952380952381,
ALRE2209,train,neg,0,neg0_id11_im2.bmp_neg0_id13_im29.bmp,['Im_RyanGosling.png', 'Im_PatrickDempsey.png', 'Im_BenStiller.png', 'Im_DanielCraig.png', 'Im_DanielRadcliffe.png', 'Im_KeanuReeves.png', 'Im_OrlandoBloom.png', 'Im_LeonardoDiCaprio.png', 'Im_GeorgeClooney.png', 'Im_RobertPattinson.png'],diff,1,324.7494109,8,88.0952380952381,
ALRE2209,train,neg,90,neg90_id7_im15.bmp_neg90_id7_im14.bmp,['Im_RyanGosling.png', 'Im_PatrickDempsey.png', 'Im_BenStiller.png', 'Im_DanielCraig.png', 'Im_DanielRadcliffe.png', 'Im_KeanuReeves.png', 'Im_OrlandoBloom.png', 'Im_LeonardoDiCaprio.png', 'Im_GeorgeClooney.png', 'Im_RobertPattinson.png'],same,1,329.0744967,9,88.0952380952381,
ALRE2209,train,neg,120,neg120_id17_im9.bmp_neg120_id4_im7.bmp,['Im_RyanGosling.png', 'Im_PatrickDempsey.png', 'Im_BenStiller.png', 'Im_DanielCraig.png', 'Im_DanielRadcliffe.png', 'Im_KeanuReeves.png', 'Im_OrlandoBloom.png', 'Im_LeonardoDiCaprio.png', 'Im_GeorgeClooney.png', 'Im_RobertPattinson.png'],same,0,334.2160071,9,88.0952380952381,
ALRE2209,train,neg,30,neg30_id7_im14.bmp_neg30_id7_im15.bmp,['Im_RyanGosling.png', 'Im_PatrickDempsey.png', 'Im_BenStiller.png', 'Im_DanielCraig.png', 'Im_DanielRadcliffe.png', 'Im_KeanuReeves.png', 'Im_OrlandoBloom.png', 'Im_LeonardoDiCaprio.png', 'Im_GeorgeClooney.png', 'Im_RobertPattinson.png'],same,1,339.1330814,10,88.0952380952381,
ALRE2209,train,neg,90,neg90_id7_im14.bmp_neg90_id7_im26.bmp,['Im_RyanGosling.png', 'Im_PatrickDempsey.png', 'Im_BenStiller.png', 'Im_DanielCraig.png', 'Im_DanielRadcliffe.png', 'Im_KeanuReeves.png', 'Im_OrlandoBloom.png', 'Im_LeonardoDiCaprio.png', 'Im_GeorgeClooney.png', 'Im_RobertPattinson.png'],same,1,343.2163754,11,88.0952380952381,
ALRE2209,train,neg,60,neg60_id2_im3.bmp_neg60_id2_im2.bmp,['Im_RyanGosling.png', 'Im_PatrickDempsey.png', 'Im_BenStiller.png', 'Im_DanielCraig.png', 'Im_DanielRadcliffe.png', 'Im_KeanuReeves.png', 'Im_OrlandoBloom.png', 'Im_LeonardoDiCaprio.png', 'Im_GeorgeClooney.png', 'Im_RobertPattinson.png'],diff,0,347.52441139999996,11,88.0952380952381,
ALRE2209,train,pos,90,pos90_id13_im10.bmp_pos90_id19_im8.bmp,['Im_RyanGosling.png', 'Im_PatrickDempsey.png', 'Im_BenStiller.png', 'Im_DanielCraig.png', 'Im_DanielRadcliffe.png', 'Im_KeanuReeves.png', 'Im_OrlandoBloom.png', 'Im_LeonardoDiCaprio.png', 'Im_GeorgeClooney.png', 'Im_RobertPattinson.png'],diff,1,351.40806319999996,12,88.0952380952381,
ALRE2209,train,pos,0,pos0_id7_im15.bmp_pos0_id19_im4.bmp,['Im_RyanGosling.png', 'Im_PatrickDempsey.png', 'Im_BenStiller.png', 'Im_DanielCraig.png', 'Im_DanielRadcliffe.png', 'Im_KeanuReeves.png', 'Im_OrlandoBloom.png', 'Im_LeonardoDiCaprio.png', 'Im_GeorgeClooney.png', 'Im_RobertPattinson.png'],diff,1,355.2993791,13,88.0952380952381,
ALRE2209,train,pos,90,pos90_id4_im7.bmp_pos90_id4_im20.bmp,['Im_RyanGosling.png', 'Im_PatrickDempsey.png', 'Im_BenStiller.png', 'Im_DanielCraig.png', 'Im_DanielRadcliffe.png', 'Im_KeanuReeves.png', 'Im_OrlandoBloom.png', 'Im_LeonardoDiCaprio.png', 'Im_GeorgeClooney.png', 'Im_RobertPattinson.png'],same,1,360.307637,14,88.0952380952381,
ALRE2209,train,pos,120,pos120_id4_im7.bmp_pos120_id17_im9.bmp,['Im_RyanGosling.png', 'Im_PatrickDempsey.png', 'Im_BenStiller.png', 'Im_DanielCraig.png', 'Im_DanielRadcliffe.png', 'Im_KeanuReeves.png', 'Im_OrlandoBloom.png', 'Im_LeonardoDiCaprio.png', 'Im_GeorgeClooney.png', 'Im_RobertPattinson.png'],diff,1,364.2660332,15,88.0952380952381,
ALRE2209,train,pos,30,pos30_id5_im10.bmp_pos30_id5_im20.bmp,['Im_RyanGosling.png', 'Im_PatrickDempsey.png', 'Im_BenStiller.png', 'Im_DanielCraig.png', 'Im_DanielRadcliffe.png', 'Im_KeanuReeves.png', 'Im_OrlandoBloom.png', 'Im_LeonardoDiCaprio.png', 'Im_GeorgeClooney.png', 'Im_RobertPattinson.png'],same,1,368.47417509999997,16,88.0952380952381,
ALRE2209,train,pos,fs,posfs_id13_im15.bmp_posfs_id19_im27.bmp,['Im_RyanGosling.png', 'Im_PatrickDempsey.png', 'Im_BenStiller.png', 'Im_DanielCraig.png', 'Im_DanielRadcliffe.png', 'Im_KeanuReeves.png', 'Im_OrlandoBloom.png', 'Im_LeonardoDiCaprio.png', 'Im_GeorgeClooney.png', 'Im_RobertPattinson.png'],diff,1,372.2997454,17,88.0952380952381,
ALRE2209,train,pos,150,pos150_id4_im7.bmp_pos150_id17_im9.bmp,['Im_RyanGosling.png', 'Im_PatrickDempsey.png', 'Im_BenStiller.png', 'Im_DanielCraig.png', 'Im_DanielRadcliffe.png', 'Im_KeanuReeves.png', 'Im_OrlandoBloom.png', 'Im_LeonardoDiCaprio.png', 'Im_GeorgeClooney.png', 'Im_RobertPattinson.png'],diff,1,376.3330489,18,88.0952380952381,
ALRE2209,train,pos,fs,posfs_id2_im2.bmp_posfs_id11_im10.bmp,['Im_RyanGosling.png', 'Im_PatrickDempsey.png', 'Im_BenStiller.png', 'Im_DanielCraig.png', 'Im_DanielRadcliffe.png', 'Im_KeanuReeves.png', 'Im_OrlandoBloom.png', 'Im_LeonardoDiCaprio.png', 'Im_GeorgeClooney.png', 'Im_RobertPattinson.png'],diff,1,380.3326894,19,88.0952380952381,
ALRE2209,train,pos,150,pos150_id7_im15.bmp_pos150_id20_im12.bmp,['Im_RyanGosling.png', 'Im_PatrickDempsey.png', 'Im_BenStiller.png', 'Im_DanielCraig.png', 'Im_DanielRadcliffe.png', 'Im_KeanuReeves.png', 'Im_OrlandoBloom.png', 'Im_LeonardoDiCaprio.png', 'Im_GeorgeClooney.png', 'Im_RobertPattinson.png'],diff,1,384.1912054,20,88.0952380952381,
ALRE2209,train,pos,30,pos30_id4_im15.bmp_pos30_id4_im20.bmp,['Im_RyanGosling.png', 'Im_PatrickDempsey.png', 'Im_BenStiller.png', 'Im_DanielCraig.png', 'Im_DanielRadcliffe.png', 'Im_KeanuReeves.png', 'Im_OrlandoBloom.png', 'Im_LeonardoDiCaprio.png', 'Im_GeorgeClooney.png', 'Im_RobertPattinson.png'],same,1,388.12450559999996,21,88.0952380952381,
ALRE2209,train,pos,0,pos0_id5_im10.bmp_pos0_id20_im3.bmp,['Im_RyanGosling.png', 'Im_PatrickDempsey.png', 'Im_BenStiller.png', 'Im_DanielCraig.png', 'Im_DanielRadcliffe.png', 'Im_KeanuReeves.png', 'Im_OrlandoBloom.png', 'Im_LeonardoDiCaprio.png', 'Im_GeorgeClooney.png', 'Im_RobertPattinson.png'],diff,1,392.30805979999997,22,88.0952380952381,
ALRE2209,train,pos,60,pos60_id11_im2.bmp_pos60_id13_im29.bmp,['Im_RyanGosling.png', 'Im_PatrickDempsey.png', 'Im_BenStiller.png', 'Im_DanielCraig.png', 'Im_DanielRadcliffe.png', 'Im_KeanuReeves.png', 'Im_OrlandoBloom.png', 'Im_LeonardoDiCaprio.png', 'Im_GeorgeClooney.png', 'Im_RobertPattinson.png'],diff,1,396.3908485,23,88.0952380952381,
ALRE2209,train,pos,120,pos120_id7_im14.bmp_pos120_id7_im15.bmp,['Im_RyanGosling.png', 'Im_PatrickDempsey.png', 'Im_BenStiller.png', 'Im_DanielCraig.png', 'Im_DanielRadcliffe.png', 'Im_KeanuReeves.png', 'Im_OrlandoBloom.png', 'Im_LeonardoDiCaprio.png', 'Im_GeorgeClooney.png', 'Im_RobertPattinson.png'],same,1,400.5159263,24,88.0952380952381,
ALRE2209,train,pos,60,pos60_id5_im20.bmp_pos60_id5_im1.bmp,['Im_RyanGosling.png', 'Im_PatrickDempsey.png', 'Im_BenStiller.png', 'Im_DanielCraig.png', 'Im_DanielRadcliffe.png', 'Im_KeanuReeves.png', 'Im_OrlandoBloom.png', 'Im_LeonardoDiCaprio.png', 'Im_GeorgeClooney.png', 'Im_RobertPattinson.png'],same,1,404.3329955,25,88.0952380952381,
ALRE2209,train,inv,0,pos0_id13_im15.bmp_pos0_id17_im14.bmp,['Im_RyanGosling.png', 'Im_PatrickDempsey.png', 'Im_BenStiller.png', 'Im_DanielCraig.png', 'Im_DanielRadcliffe.png', 'Im_KeanuReeves.png', 'Im_OrlandoBloom.png', 'Im_LeonardoDiCaprio.png', 'Im_GeorgeClooney.png', 'Im_RobertPattinson.png'],same,0,408.5909376,25,88.0952380952381,
ALRE2209,train,inv,90,pos90_id19_im8.bmp_pos90_id13_im10.bmp,['Im_RyanGosling.png', 'Im_PatrickDempsey.png', 'Im_BenStiller.png', 'Im_DanielCraig.png', 'Im_DanielRadcliffe.png', 'Im_KeanuReeves.png', 'Im_OrlandoBloom.png', 'Im_LeonardoDiCaprio.png', 'Im_GeorgeClooney.png', 'Im_RobertPattinson.png'],diff,1,413.68299529999996,26,88.0952380952381,
ALRE2209,train,inv,60,pos60_id2_im3.bmp_pos60_id17_im14.bmp,['Im_RyanGosling.png', 'Im_PatrickDempsey.png', 'Im_BenStiller.png', 'Im_DanielCraig.png', 'Im_DanielRadcliffe.png', 'Im_KeanuReeves.png', 'Im_OrlandoBloom.png', 'Im_LeonardoDiCaprio.png', 'Im_GeorgeClooney.png', 'Im_RobertPattinson.png'],diff,1,417.7744598,27,88.0952380952381,
ALRE2209,train,inv,fs,posfs_id20_im12.bmp_posfs_id7_im15.bmp,['Im_RyanGosling.png', 'Im_PatrickDempsey.png', 'Im_BenStiller.png', 'Im_DanielCraig.png', 'Im_DanielRadcliffe.png', 'Im_KeanuReeves.png', 'Im_OrlandoBloom.png', 'Im_LeonardoDiCaprio.png', 'Im_GeorgeClooney.png', 'Im_RobertPattinson.png'],diff,1,421.8496346,28,88.0952380952381,
ALRE2209,train,inv,30,pos30_id2_im3.bmp_pos30_id2_im16.bmp,['Im_RyanGosling.png', 'Im_PatrickDempsey.png', 'Im_BenStiller.png', 'Im_DanielCraig.png', 'Im_DanielRadcliffe.png', 'Im_KeanuReeves.png', 'Im_OrlandoBloom.png', 'Im_LeonardoDiCaprio.png', 'Im_GeorgeClooney.png', 'Im_RobertPattinson.png'],diff,0,428.3745002,28,88.0952380952381,
ALRE2209,train,inv,150,pos150_id13_im29.bmp_pos150_id11_im2.bmp,['Im_RyanGosling.png', 'Im_PatrickDempsey.png', 'Im_BenStiller.png', 'Im_DanielCraig.png', 'Im_DanielRadcliffe.png', 'Im_KeanuReeves.png', 'Im_OrlandoBloom.png', 'Im_LeonardoDiCaprio.png', 'Im_GeorgeClooney.png', 'Im_RobertPattinson.png'],diff,1,432.965751,29,88.0952380952381,
ALRE2209,train,inv,30,pos30_id2_im3.bmp_pos30_id17_im14.bmp,['Im_RyanGosling.png', 'Im_PatrickDempsey.png', 'Im_BenStiller.png', 'Im_DanielCraig.png', 'Im_DanielRadcliffe.png', 'Im_KeanuReeves.png', 'Im_OrlandoBloom.png', 'Im_LeonardoDiCaprio.png', 'Im_GeorgeClooney.png', 'Im_RobertPattinson.png'],diff,1,436.9080201,30,88.0952380952381,
ALRE2209,train,inv,120,pos120_id19_im27.bmp_pos120_id19_im4.bmp,['Im_RyanGosling.png', 'Im_PatrickDempsey.png', 'Im_BenStiller.png', 'Im_DanielCraig.png', 'Im_DanielRadcliffe.png', 'Im_KeanuReeves.png', 'Im_OrlandoBloom.png', 'Im_LeonardoDiCaprio.png', 'Im_GeorgeClooney.png', 'Im_RobertPattinson.png'],same,1,440.90802059999993,31,88.0952380952381,
ALRE2209,train,inv,60,pos60_id20_im3.bmp_pos60_id5_im20.bmp,['Im_RyanGosling.png', 'Im_PatrickDempsey.png', 'Im_BenStiller.png', 'Im_DanielCraig.png', 'Im_DanielRadcliffe.png', 'Im_KeanuReeves.png', 'Im_OrlandoBloom.png', 'Im_LeonardoDiCaprio.png', 'Im_GeorgeClooney.png', 'Im_RobertPattinson.png'],diff,1,444.9745427,32,88.0952380952381,
ALRE2209,train,inv,fs,posfs_id13_im10.bmp_posfs_id19_im8.bmp,['Im_RyanGosling.png', 'Im_PatrickDempsey.png', 'Im_BenStiller.png', 'Im_DanielCraig.png', 'Im_DanielRadcliffe.png', 'Im_KeanuReeves.png', 'Im_OrlandoBloom.png', 'Im_LeonardoDiCaprio.png', 'Im_GeorgeClooney.png', 'Im_RobertPattinson.png'],diff,1,450.49088539999997,33,88.0952380952381,
ALRE2209,train,inv,0,pos0_id4_im20.bmp_pos0_id20_im30.bmp,['Im_RyanGosling.png', 'Im_PatrickDempsey.png', 'Im_BenStiller.png', 'Im_DanielCraig.png', 'Im_DanielRadcliffe.png', 'Im_KeanuReeves.png', 'Im_OrlandoBloom.png', 'Im_LeonardoDiCaprio.png', 'Im_GeorgeClooney.png', 'Im_RobertPattinson.png'],same,0,454.64959200000004,33,88.0952380952381,
ALRE2209,train,inv,150,pos150_id20_im3.bmp_pos150_id5_im20.bmp,['Im_RyanGosling.png', 'Im_PatrickDempsey.png', 'Im_BenStiller.png', 'Im_DanielCraig.png', 'Im_DanielRadcliffe.png', 'Im_KeanuReeves.png', 'Im_OrlandoBloom.png', 'Im_LeonardoDiCaprio.png', 'Im_GeorgeClooney.png', 'Im_RobertPattinson.png'],diff,1,458.6494634,34,88.0952380952381,
ALRE2209,train,inv,90,pos90_id20_im30.bmp_pos90_id20_im3.bmp,['Im_RyanGosling.png', 'Im_PatrickDempsey.png', 'Im_BenStiller.png', 'Im_DanielCraig.png', 'Im_DanielRadcliffe.png', 'Im_KeanuReeves.png', 'Im_OrlandoBloom.png', 'Im_LeonardoDiCaprio.png', 'Im_GeorgeClooney.png', 'Im_RobertPattinson.png'],same,1,464.44113899999996,35,88.0952380952381,
ALRE2209,train,inv,120,pos120_id20_im30.bmp_pos120_id11_im2.bmp,['Im_RyanGosling.png', 'Im_PatrickDempsey.png', 'Im_BenStiller.png', 'Im_DanielCraig.png', 'Im_DanielRadcliffe.png', 'Im_KeanuReeves.png', 'Im_OrlandoBloom.png', 'Im_LeonardoDiCaprio.png', 'Im_GeorgeClooney.png', 'Im_RobertPattinson.png'],diff,1,468.89921509999994,36,88.0952380952381,
ALRE2209,0,inv,90,pos90_id17_im8.bmp_pos90_id4_im7.bmp,['Im_RyanGosling.png', 'Im_PatrickDempsey.png', 'Im_BenStiller.png', 'Im_DanielCraig.png', 'Im_DanielRadcliffe.png', 'Im_KeanuReeves.png', 'Im_OrlandoBloom.png', 'Im_LeonardoDiCaprio.png', 'Im_GeorgeClooney.png', 'Im_RobertPattinson.png'],diff,1,496.5911659,1,0,
ALRE2209,0,inv,30,pos30_id13_im29.bmp_pos30_id2_im16.bmp,['Im_RyanGosling.png', 'Im_PatrickDempsey.png', 'Im_BenStiller.png', 'Im_DanielCraig.png', 'Im_DanielRadcliffe.png', 'Im_KeanuReeves.png', 'Im_OrlandoBloom.png', 'Im_LeonardoDiCaprio.png', 'Im_GeorgeClooney.png', 'Im_RobertPattinson.png'],diff,1,500.81608209999996,2,0,
ALRE2209,0,inv,120,pos120_id19_im8.bmp_pos120_id19_im27.bmp,['Im_RyanGosling.png', 'Im_PatrickDempsey.png', 'Im_BenStiller.png', 'Im_DanielCraig.png', 'Im_DanielRadcliffe.png', 'Im_KeanuReeves.png', 'Im_OrlandoBloom.png', 'Im_LeonardoDiCaprio.png', 'Im_GeorgeClooney.png', 'Im_RobertPattinson.png'],same,1,505.26582690000004,3,0,
ALRE2209,0,inv,fs,posfs_id17_im8.bmp_posfs_id17_im14.bmp,['Im_RyanGosling.png', 'Im_PatrickDempsey.png', 'Im_BenStiller.png', 'Im_DanielCraig.png', 'Im_DanielRadcliffe.png', 'Im_KeanuReeves.png', 'Im_OrlandoBloom.png', 'Im_LeonardoDiCaprio.png', 'Im_GeorgeClooney.png', 'Im_RobertPattinson.png'],diff,0,510.08236859999994,3,0,
ALRE2209,0,inv,90,pos90_id20_im3.bmp_pos90_id5_im10.bmp,['Im_RyanGosling.png', 'Im_PatrickDempsey.png', 'Im_BenStiller.png', 'Im_DanielCraig.png', 'Im_DanielRadcliffe.png', 'Im_KeanuReeves.png', 'Im_OrlandoBloom.png', 'Im_LeonardoDiCaprio.png', 'Im_GeorgeClooney.png', 'Im_RobertPattinson.png'],diff,1,514.3075517000001,4,0,
ALRE2209,0,inv,150,pos150_id19_im8.bmp_pos150_id19_im4.bmp,['Im_RyanGosling.png', 'Im_PatrickDempsey.png', 'Im_BenStiller.png', 'Im_DanielCraig.png', 'Im_DanielRadcliffe.png', 'Im_KeanuReeves.png', 'Im_OrlandoBloom.png', 'Im_LeonardoDiCaprio.png', 'Im_GeorgeClooney.png', 'Im_RobertPattinson.png'],same,1,518.9828283,5,0,
ALRE2209,0,inv,0,pos0_id7_im26.bmp_pos0_id19_im4.bmp,['Im_RyanGosling.png', 'Im_PatrickDempsey.png', 'Im_BenStiller.png', 'Im_DanielCraig.png', 'Im_DanielRadcliffe.png', 'Im_KeanuReeves.png', 'Im_OrlandoBloom.png', 'Im_LeonardoDiCaprio.png', 'Im_GeorgeClooney.png', 'Im_RobertPattinson.png'],diff,1,523.891292,6,0,
ALRE2209,0,inv,30,pos30_id13_im29.bmp_pos30_id13_im15.bmp,['Im_RyanGosling.png', 'Im_PatrickDempsey.png', 'Im_BenStiller.png', 'Im_DanielCraig.png', 'Im_DanielRadcliffe.png', 'Im_KeanuReeves.png', 'Im_OrlandoBloom.png', 'Im_LeonardoDiCaprio.png', 'Im_GeorgeClooney.png', 'Im_RobertPattinson.png'],same,1,528.0991392000001,7,0,
ALRE2209,0,inv,fs,posfs_id7_im26.bmp_posfs_id7_im15.bmp,['Im_RyanGosling.png', 'Im_PatrickDempsey.png', 'Im_BenStiller.png', 'Im_DanielCraig.png', 'Im_DanielRadcliffe.png', 'Im_KeanuReeves.png', 'Im_OrlandoBloom.png', 'Im_LeonardoDiCaprio.png', 'Im_GeorgeClooney.png', 'Im_RobertPattinson.png'],same,1,532.2824281000001,8,0,
ALRE2209,0,inv,60,pos60_id4_im7.bmp_pos60_id17_im8.bmp,['Im_RyanGosling.png', 'Im_PatrickDempsey.png', 'Im_BenStiller.png', 'Im_DanielCraig.png', 'Im_DanielRadcliffe.png', 'Im_KeanuReeves.png', 'Im_OrlandoBloom.png', 'Im_LeonardoDiCaprio.png', 'Im_GeorgeClooney.png', 'Im_RobertPattinson.png'],same,0,536.9074753,8,0,
ALRE2209,0,inv,150,pos150_id16_im3.bmp_pos150_id7_im14.bmp,['Im_RyanGosling.png', 'Im_PatrickDempsey.png', 'Im_BenStiller.png', 'Im_DanielCraig.png', 'Im_DanielRadcliffe.png', 'Im_KeanuReeves.png', 'Im_OrlandoBloom.png', 'Im_LeonardoDiCaprio.png', 'Im_GeorgeClooney.png', 'Im_RobertPattinson.png'],diff,1,541.8074442000001,9,0,
ALRE2209,0,inv,60,pos60_id2_im3.bmp_pos60_id2_im2.bmp,['Im_RyanGosling.png', 'Im_PatrickDempsey.png', 'Im_BenStiller.png', 'Im_DanielCraig.png', 'Im_DanielRadcliffe.png', 'Im_KeanuReeves.png', 'Im_OrlandoBloom.png', 'Im_LeonardoDiCaprio.png', 'Im_GeorgeClooney.png', 'Im_RobertPattinson.png'],same,1,546.8741349000001,10,0,
ALRE2209,0,inv,0,pos0_id4_im20.bmp_pos0_id7_im14.bmp,['Im_RyanGosling.png', 'Im_PatrickDempsey.png', 'Im_BenStiller.png', 'Im_DanielCraig.png', 'Im_DanielRadcliffe.png', 'Im_KeanuReeves.png', 'Im_OrlandoBloom.png', 'Im_LeonardoDiCaprio.png', 'Im_GeorgeClooney.png', 'Im_RobertPattinson.png'],same,0,551.5739429,10,0,
ALRE2209,0,inv,120,pos120_id13_im29.bmp_pos120_id2_im16.bmp,['Im_RyanGosling.png', 'Im_PatrickDempsey.png', 'Im_BenStiller.png', 'Im_DanielCraig.png', 'Im_DanielRadcliffe.png', 'Im_KeanuReeves.png', 'Im_OrlandoBloom.png', 'Im_LeonardoDiCaprio.png', 'Im_GeorgeClooney.png', 'Im_RobertPattinson.png'],diff,1,556.2406510000001,11,0,
ALRE2209,1,neg,0,neg0_id5_im10.bmp_neg0_id5_im1.bmp,['Im_RyanGosling.png', 'Im_PatrickDempsey.png', 'Im_BenStiller.png', 'Im_DanielCraig.png', 'Im_DanielRadcliffe.png', 'Im_KeanuReeves.png', 'Im_OrlandoBloom.png', 'Im_LeonardoDiCaprio.png', 'Im_GeorgeClooney.png', 'Im_RobertPattinson.png'],same,1,565.1161416,12,0,
ALRE2209,1,neg,60,neg60_id11_im10.bmp_neg60_id11_im2.bmp,['Im_RyanGosling.png', 'Im_PatrickDempsey.png', 'Im_BenStiller.png', 'Im_DanielCraig.png', 'Im_DanielRadcliffe.png', 'Im_KeanuReeves.png', 'Im_OrlandoBloom.png', 'Im_LeonardoDiCaprio.png', 'Im_GeorgeClooney.png', 'Im_RobertPattinson.png'],diff,0,570.5074602000001,12,0,
ALRE2209,1,neg,150,neg150_id11_im10.bmp_neg150_id11_im2.bmp,['Im_RyanGosling.png', 'Im_PatrickDempsey.png', 'Im_BenStiller.png', 'Im_DanielCraig.png', 'Im_DanielRadcliffe.png', 'Im_KeanuReeves.png', 'Im_OrlandoBloom.png', 'Im_LeonardoDiCaprio.png', 'Im_GeorgeClooney.png', 'Im_RobertPattinson.png'],same,1,574.7906185,13,0,
ALRE2209,1,neg,fs,negfs_id4_im20.bmp_negfs_id4_im7.bmp,['Im_RyanGosling.png', 'Im_PatrickDempsey.png', 'Im_BenStiller.png', 'Im_DanielCraig.png', 'Im_DanielRadcliffe.png', 'Im_KeanuReeves.png', 'Im_OrlandoBloom.png', 'Im_LeonardoDiCaprio.png', 'Im_GeorgeClooney.png', 'Im_RobertPattinson.png'],same,1,579.15746,14,0,
ALRE2209,1,neg,30,neg30_id20_im3.bmp_neg30_id5_im20.bmp,['Im_RyanGosling.png', 'Im_PatrickDempsey.png', 'Im_BenStiller.png', 'Im_DanielCraig.png', 'Im_DanielRadcliffe.png', 'Im_KeanuReeves.png', 'Im_OrlandoBloom.png', 'Im_LeonardoDiCaprio.png', 'Im_GeorgeClooney.png', 'Im_RobertPattinson.png'],diff,1,583.5910623000001,15,0,
ALRE2209,1,neg,90,neg90_id20_im12.bmp_neg90_id7_im15.bmp,['Im_RyanGosling.png', 'Im_PatrickDempsey.png', 'Im_BenStiller.png', 'Im_DanielCraig.png', 'Im_DanielRadcliffe.png', 'Im_KeanuReeves.png', 'Im_OrlandoBloom.png', 'Im_LeonardoDiCaprio.png', 'Im_GeorgeClooney.png', 'Im_RobertPattinson.png'],diff,1,588.3576234000001,16,0,
ALRE2209,1,neg,120,neg120_id19_im8.bmp_neg120_id16_im3.bmp,['Im_RyanGosling.png', 'Im_PatrickDempsey.png', 'Im_BenStiller.png', 'Im_DanielCraig.png', 'Im_DanielRadcliffe.png', 'Im_KeanuReeves.png', 'Im_OrlandoBloom.png', 'Im_LeonardoDiCaprio.png', 'Im_GeorgeClooney.png', 'Im_RobertPattinson.png'],diff,1,594.0993833,17,0,
ALRE2209,1,neg,90,neg90_id13_im29.bmp_neg90_id11_im2.bmp,['Im_RyanGosling.png', 'Im_PatrickDempsey.png', 'Im_BenStiller.png', 'Im_DanielCraig.png', 'Im_DanielRadcliffe.png', 'Im_KeanuReeves.png', 'Im_OrlandoBloom.png', 'Im_LeonardoDiCaprio.png', 'Im_GeorgeClooney.png', 'Im_RobertPattinson.png'],diff,1,598.8323757000001,18,0,
ALRE2209,1,neg,fs,negfs_id5_im20.bmp_negfs_id20_im3.bmp,['Im_RyanGosling.png', 'Im_PatrickDempsey.png', 'Im_BenStiller.png', 'Im_DanielCraig.png', 'Im_DanielRadcliffe.png', 'Im_KeanuReeves.png', 'Im_OrlandoBloom.png', 'Im_LeonardoDiCaprio.png', 'Im_GeorgeClooney.png', 'Im_RobertPattinson.png'],diff,1,603.2244105000001,19,0,
ALRE2209,1,neg,150,neg150_id7_im26.bmp_neg150_id7_im14.bmp,['Im_RyanGosling.png', 'Im_PatrickDempsey.png', 'Im_BenStiller.png', 'Im_DanielCraig.png', 'Im_DanielRadcliffe.png', 'Im_KeanuReeves.png', 'Im_OrlandoBloom.png', 'Im_LeonardoDiCaprio.png', 'Im_GeorgeClooney.png', 'Im_RobertPattinson.png'],same,1,607.7159817,20,0,
ALRE2209,1,neg,30,neg30_id19_im27.bmp_neg30_id19_im8.bmp,['Im_RyanGosling.png', 'Im_PatrickDempsey.png', 'Im_BenStiller.png', 'Im_DanielCraig.png', 'Im_DanielRadcliffe.png', 'Im_KeanuReeves.png', 'Im_OrlandoBloom.png', 'Im_LeonardoDiCaprio.png', 'Im_GeorgeClooney.png', 'Im_RobertPattinson.png'],same,1,612.2991352,21,0,
ALRE2209,1,neg,0,neg0_id17_im9.bmp_neg0_id17_im8.bmp,['Im_RyanGosling.png', 'Im_PatrickDempsey.png', 'Im_BenStiller.png', 'Im_DanielCraig.png', 'Im_DanielRadcliffe.png', 'Im_KeanuReeves.png', 'Im_OrlandoBloom.png', 'Im_LeonardoDiCaprio.png', 'Im_GeorgeClooney.png', 'Im_RobertPattinson.png'],same,1,616.6494667000001,22,0,
ALRE2209,1,neg,120,neg120_id13_im29.bmp_neg120_id13_im15.bmp,['Im_RyanGosling.png', 'Im_PatrickDempsey.png', 'Im_BenStiller.png', 'Im_DanielCraig.png', 'Im_DanielRadcliffe.png', 'Im_KeanuReeves.png', 'Im_OrlandoBloom.png', 'Im_LeonardoDiCaprio.png', 'Im_GeorgeClooney.png', 'Im_RobertPattinson.png'],same,1,621.2657052000001,23,0,
ALRE2209,1,neg,60,neg60_id5_im20.bmp_neg60_id5_im10.bmp,['Im_RyanGosling.png', 'Im_PatrickDempsey.png', 'Im_BenStiller.png', 'Im_DanielCraig.png', 'Im_DanielRadcliffe.png', 'Im_KeanuReeves.png', 'Im_OrlandoBloom.png', 'Im_LeonardoDiCaprio.png', 'Im_GeorgeClooney.png', 'Im_RobertPattinson.png'],same,1,625.7905784000001,24,0,
ALRE2209,2,inv,150,pos150_id2_im2.bmp_pos150_id17_im9.bmp,['Im_RyanGosling.png', 'Im_PatrickDempsey.png', 'Im_BenStiller.png', 'Im_DanielCraig.png', 'Im_DanielRadcliffe.png', 'Im_KeanuReeves.png', 'Im_OrlandoBloom.png', 'Im_LeonardoDiCaprio.png', 'Im_GeorgeClooney.png', 'Im_RobertPattinson.png'],diff,1,634.0239905000001,25,0,
ALRE2209,2,inv,fs,posfs_id5_im1.bmp_posfs_id5_im10.bmp,['Im_RyanGosling.png', 'Im_PatrickDempsey.png', 'Im_BenStiller.png', 'Im_DanielCraig.png', 'Im_DanielRadcliffe.png', 'Im_KeanuReeves.png', 'Im_OrlandoBloom.png', 'Im_LeonardoDiCaprio.png', 'Im_GeorgeClooney.png', 'Im_RobertPattinson.png'],same,1,638.5157484,26,0,
ALRE2209,2,inv,60,pos60_id17_im9.bmp_pos60_id2_im2.bmp,['Im_RyanGosling.png', 'Im_PatrickDempsey.png', 'Im_BenStiller.png', 'Im_DanielCraig.png', 'Im_DanielRadcliffe.png', 'Im_KeanuReeves.png', 'Im_OrlandoBloom.png', 'Im_LeonardoDiCaprio.png', 'Im_GeorgeClooney.png', 'Im_RobertPattinson.png'],diff,1,642.9825895,27,0,
ALRE2209,2,inv,30,pos30_id17_im14.bmp_pos30_id17_im9.bmp,['Im_RyanGosling.png', 'Im_PatrickDempsey.png', 'Im_BenStiller.png', 'Im_DanielCraig.png', 'Im_DanielRadcliffe.png', 'Im_KeanuReeves.png', 'Im_OrlandoBloom.png', 'Im_LeonardoDiCaprio.png', 'Im_GeorgeClooney.png', 'Im_RobertPattinson.png'],same,1,647.7242462,28,0,
ALRE2209,2,inv,150,pos150_id16_im2.bmp_pos150_id5_im10.bmp,['Im_RyanGosling.png', 'Im_PatrickDempsey.png', 'Im_BenStiller.png', 'Im_DanielCraig.png', 'Im_DanielRadcliffe.png', 'Im_KeanuReeves.png', 'Im_OrlandoBloom.png', 'Im_LeonardoDiCaprio.png', 'Im_GeorgeClooney.png', 'Im_RobertPattinson.png'],diff,1,652.5405943000001,29,0,
ALRE2209,2,inv,0,pos0_id17_im8.bmp_pos0_id17_im14.bmp,['Im_RyanGosling.png', 'Im_PatrickDempsey.png', 'Im_BenStiller.png', 'Im_DanielCraig.png', 'Im_DanielRadcliffe.png', 'Im_KeanuReeves.png', 'Im_OrlandoBloom.png', 'Im_LeonardoDiCaprio.png', 'Im_GeorgeClooney.png', 'Im_RobertPattinson.png'],same,1,656.7489908,30,0,
ALRE2209,2,inv,120,pos120_id17_im9.bmp_pos120_id2_im2.bmp,['Im_RyanGosling.png', 'Im_PatrickDempsey.png', 'Im_BenStiller.png', 'Im_DanielCraig.png', 'Im_DanielRadcliffe.png', 'Im_KeanuReeves.png', 'Im_OrlandoBloom.png', 'Im_LeonardoDiCaprio.png', 'Im_GeorgeClooney.png', 'Im_RobertPattinson.png'],diff,1,661.0743233000001,31,0,
ALRE2209,2,inv,60,pos60_id16_im2.bmp_pos60_id16_im3.bmp,['Im_RyanGosling.png', 'Im_PatrickDempsey.png', 'Im_BenStiller.png', 'Im_DanielCraig.png', 'Im_DanielRadcliffe.png', 'Im_KeanuReeves.png', 'Im_OrlandoBloom.png', 'Im_LeonardoDiCaprio.png', 'Im_GeorgeClooney.png', 'Im_RobertPattinson.png'],diff,0,665.7238616000001,31,0,
ALRE2209,2,inv,90,pos90_id13_im29.bmp_pos90_id13_im15.bmp,['Im_RyanGosling.png', 'Im_PatrickDempsey.png', 'Im_BenStiller.png', 'Im_DanielCraig.png', 'Im_DanielRadcliffe.png', 'Im_KeanuReeves.png', 'Im_OrlandoBloom.png', 'Im_LeonardoDiCaprio.png', 'Im_GeorgeClooney.png', 'Im_RobertPattinson.png'],same,1,670.4157214,32,0,
ALRE2209,2,inv,90,pos90_id4_im15.bmp_pos90_id4_im20.bmp,['Im_RyanGosling.png', 'Im_PatrickDempsey.png', 'Im_BenStiller.png', 'Im_DanielCraig.png', 'Im_DanielRadcliffe.png', 'Im_KeanuReeves.png', 'Im_OrlandoBloom.png', 'Im_LeonardoDiCaprio.png', 'Im_GeorgeClooney.png', 'Im_RobertPattinson.png'],same,1,674.8409766000001,33,0,
ALRE2209,2,inv,0,pos0_id4_im7.bmp_pos0_id4_im20.bmp,['Im_RyanGosling.png', 'Im_PatrickDempsey.png', 'Im_BenStiller.png', 'Im_DanielCraig.png', 'Im_DanielRadcliffe.png', 'Im_KeanuReeves.png', 'Im_OrlandoBloom.png', 'Im_LeonardoDiCaprio.png', 'Im_GeorgeClooney.png', 'Im_RobertPattinson.png'],same,1,679.2990076000001,34,0,
ALRE2209,2,inv,fs,posfs_id2_im2.bmp_posfs_id11_im10.bmp,['Im_RyanGosling.png', 'Im_PatrickDempsey.png', 'Im_BenStiller.png', 'Im_DanielCraig.png', 'Im_DanielRadcliffe.png', 'Im_KeanuReeves.png', 'Im_OrlandoBloom.png', 'Im_LeonardoDiCaprio.png', 'Im_GeorgeClooney.png', 'Im_RobertPattinson.png'],diff,1,683.5572779,35,0,
ALRE2209,2,inv,120,pos120_id16_im3.bmp_pos120_id7_im14.bmp,['Im_RyanGosling.png', 'Im_PatrickDempsey.png', 'Im_BenStiller.png', 'Im_DanielCraig.png', 'Im_DanielRadcliffe.png', 'Im_KeanuReeves.png', 'Im_OrlandoBloom.png', 'Im_LeonardoDiCaprio.png', 'Im_GeorgeClooney.png', 'Im_RobertPattinson.png'],diff,1,687.9743178,36,0,
ALRE2209,2,inv,30,pos30_id7_im26.bmp_pos30_id2_im3.bmp,['Im_RyanGosling.png', 'Im_PatrickDempsey.png', 'Im_BenStiller.png', 'Im_DanielCraig.png', 'Im_DanielRadcliffe.png', 'Im_KeanuReeves.png', 'Im_OrlandoBloom.png', 'Im_LeonardoDiCaprio.png', 'Im_GeorgeClooney.png', 'Im_RobertPattinson.png'],diff,1,692.2156336,37,0,
ALRE2209,3,pos,fs,posfs_id7_im15.bmp_posfs_id20_im12.bmp,['Im_RyanGosling.png', 'Im_PatrickDempsey.png', 'Im_BenStiller.png', 'Im_DanielCraig.png', 'Im_DanielRadcliffe.png', 'Im_KeanuReeves.png', 'Im_OrlandoBloom.png', 'Im_LeonardoDiCaprio.png', 'Im_GeorgeClooney.png', 'Im_RobertPattinson.png'],diff,1,706.3655917000001,1,88.0952380952381,
ALRE2209,3,pos,30,pos30_id16_im2.bmp_pos30_id5_im10.bmp,['Im_RyanGosling.png', 'Im_PatrickDempsey.png', 'Im_BenStiller.png', 'Im_DanielCraig.png', 'Im_DanielRadcliffe.png', 'Im_KeanuReeves.png', 'Im_OrlandoBloom.png', 'Im_LeonardoDiCaprio.png', 'Im_GeorgeClooney.png', 'Im_RobertPattinson.png'],diff,1,710.6739366,2,88.0952380952381,
ALRE2209,3,pos,0,pos0_id16_im2.bmp_pos0_id13_im10.bmp,['Im_RyanGosling.png', 'Im_PatrickDempsey.png', 'Im_BenStiller.png', 'Im_DanielCraig.png', 'Im_DanielRadcliffe.png', 'Im_KeanuReeves.png', 'Im_OrlandoBloom.png', 'Im_LeonardoDiCaprio.png', 'Im_GeorgeClooney.png', 'Im_RobertPattinson.png'],diff,1,714.9576774000001,3,88.0952380952381,
ALRE2209,3,pos,fs,posfs_id17_im14.bmp_posfs_id17_im9.bmp,['Im_RyanGosling.png', 'Im_PatrickDempsey.png', 'Im_BenStiller.png', 'Im_DanielCraig.png', 'Im_DanielRadcliffe.png', 'Im_KeanuReeves.png', 'Im_OrlandoBloom.png', 'Im_LeonardoDiCaprio.png', 'Im_GeorgeClooney.png', 'Im_RobertPattinson.png'],same,1,719.1322995,4,88.0952380952381,
ALRE2209,3,pos,150,pos150_id4_im15.bmp_pos150_id19_im27.bmp,['Im_RyanGosling.png', 'Im_PatrickDempsey.png', 'Im_BenStiller.png', 'Im_DanielCraig.png', 'Im_DanielRadcliffe.png', 'Im_KeanuReeves.png', 'Im_OrlandoBloom.png', 'Im_LeonardoDiCaprio.png', 'Im_GeorgeClooney.png', 'Im_RobertPattinson.png'],diff,1,723.3072806,5,88.0952380952381,
ALRE2209,3,pos,150,pos150_id5_im1.bmp_pos150_id4_im15.bmp,['Im_RyanGosling.png', 'Im_PatrickDempsey.png', 'Im_BenStiller.png', 'Im_DanielCraig.png', 'Im_DanielRadcliffe.png', 'Im_KeanuReeves.png', 'Im_OrlandoBloom.png', 'Im_LeonardoDiCaprio.png', 'Im_GeorgeClooney.png', 'Im_RobertPattinson.png'],diff,1,727.6155835000001,6,88.0952380952381,
ALRE2209,3,pos,60,pos60_id13_im10.bmp_pos60_id19_im8.bmp,['Im_RyanGosling.png', 'Im_PatrickDempsey.png', 'Im_BenStiller.png', 'Im_DanielCraig.png', 'Im_DanielRadcliffe.png', 'Im_KeanuReeves.png', 'Im_OrlandoBloom.png', 'Im_LeonardoDiCaprio.png', 'Im_GeorgeClooney.png', 'Im_RobertPattinson.png'],diff,1,732.2905966000001,7,88.0952380952381,
ALRE2209,3,pos,0,pos0_id11_im2.bmp_pos0_id11_im10.bmp,['Im_RyanGosling.png', 'Im_PatrickDempsey.png', 'Im_BenStiller.png', 'Im_DanielCraig.png', 'Im_DanielRadcliffe.png', 'Im_KeanuReeves.png', 'Im_OrlandoBloom.png', 'Im_LeonardoDiCaprio.png', 'Im_GeorgeClooney.png', 'Im_RobertPattinson.png'],same,1,736.4989046000001,8,88.0952380952381,
ALRE2209,3,pos,60,pos60_id20_im30.bmp_pos60_id20_im12.bmp,['Im_RyanGosling.png', 'Im_PatrickDempsey.png', 'Im_BenStiller.png', 'Im_DanielCraig.png', 'Im_DanielRadcliffe.png', 'Im_KeanuReeves.png', 'Im_OrlandoBloom.png', 'Im_LeonardoDiCaprio.png', 'Im_GeorgeClooney.png', 'Im_RobertPattinson.png'],same,1,741.2071779,9,88.0952380952381,
ALRE2209,3,pos,90,pos90_id11_im10.bmp_pos90_id2_im2.bmp,['Im_RyanGosling.png', 'Im_PatrickDempsey.png', 'Im_BenStiller.png', 'Im_DanielCraig.png', 'Im_DanielRadcliffe.png', 'Im_KeanuReeves.png', 'Im_OrlandoBloom.png', 'Im_LeonardoDiCaprio.png', 'Im_GeorgeClooney.png', 'Im_RobertPattinson.png'],diff,1,745.6991549,10,88.0952380952381,
ALRE2209,3,pos,90,pos90_id16_im2.bmp_pos90_id16_im3.bmp,['Im_RyanGosling.png', 'Im_PatrickDempsey.png', 'Im_BenStiller.png', 'Im_DanielCraig.png', 'Im_DanielRadcliffe.png', 'Im_KeanuReeves.png', 'Im_OrlandoBloom.png', 'Im_LeonardoDiCaprio.png', 'Im_GeorgeClooney.png', 'Im_RobertPattinson.png'],same,1,750.0904608000001,11,88.0952380952381,
ALRE2209,3,pos,30,pos30_id4_im7.bmp_pos30_id17_im9.bmp,['Im_RyanGosling.png', 'Im_PatrickDempsey.png', 'Im_BenStiller.png', 'Im_DanielCraig.png', 'Im_DanielRadcliffe.png', 'Im_KeanuReeves.png', 'Im_OrlandoBloom.png', 'Im_LeonardoDiCaprio.png', 'Im_GeorgeClooney.png', 'Im_RobertPattinson.png'],diff,1,754.5905748,12,88.0952380952381,
ALRE2209,3,pos,120,pos120_id19_im8.bmp_pos120_id13_im10.bmp,['Im_RyanGosling.png', 'Im_PatrickDempsey.png', 'Im_BenStiller.png', 'Im_DanielCraig.png', 'Im_DanielRadcliffe.png', 'Im_KeanuReeves.png', 'Im_OrlandoBloom.png', 'Im_LeonardoDiCaprio.png', 'Im_GeorgeClooney.png', 'Im_RobertPattinson.png'],diff,1,759.1322321,13,88.0952380952381,
ALRE2209,3,pos,120,pos120_id20_im3.bmp_pos120_id20_im30.bmp,['Im_RyanGosling.png', 'Im_PatrickDempsey.png', 'Im_BenStiller.png', 'Im_DanielCraig.png', 'Im_DanielRadcliffe.png', 'Im_KeanuReeves.png', 'Im_OrlandoBloom.png', 'Im_LeonardoDiCaprio.png', 'Im_GeorgeClooney.png', 'Im_RobertPattinson.png'],same,1,763.5158878000001,14,88.0952380952381,
ALRE2209,4,neg,0,neg0_id17_im9.bmp_neg0_id2_im2.bmp,['Im_RyanGosling.png', 'Im_PatrickDempsey.png', 'Im_BenStiller.png', 'Im_DanielCraig.png', 'Im_DanielRadcliffe.png', 'Im_KeanuReeves.png', 'Im_OrlandoBloom.png', 'Im_LeonardoDiCaprio.png', 'Im_GeorgeClooney.png', 'Im_RobertPattinson.png'],same,0,771.6653885000001,14,88.0952380952381,
ALRE2209,4,neg,fs,negfs_id5_im10.bmp_negfs_id5_im20.bmp,['Im_RyanGosling.png', 'Im_PatrickDempsey.png', 'Im_BenStiller.png', 'Im_DanielCraig.png', 'Im_DanielRadcliffe.png', 'Im_KeanuReeves.png', 'Im_OrlandoBloom.png', 'Im_LeonardoDiCaprio.png', 'Im_GeorgeClooney.png', 'Im_RobertPattinson.png'],same,1,776.1405387000001,15,88.0952380952381,
ALRE2209,4,neg,120,neg120_id7_im15.bmp_neg120_id7_im14.bmp,['Im_RyanGosling.png', 'Im_PatrickDempsey.png', 'Im_BenStiller.png', 'Im_DanielCraig.png', 'Im_DanielRadcliffe.png', 'Im_KeanuReeves.png', 'Im_OrlandoBloom.png', 'Im_LeonardoDiCaprio.png', 'Im_GeorgeClooney.png', 'Im_RobertPattinson.png'],same,1,780.3572976,16,88.0952380952381,
ALRE2209,4,neg,60,neg60_id20_im30.bmp_neg60_id20_im12.bmp,['Im_RyanGosling.png', 'Im_PatrickDempsey.png', 'Im_BenStiller.png', 'Im_DanielCraig.png', 'Im_DanielRadcliffe.png', 'Im_KeanuReeves.png', 'Im_OrlandoBloom.png', 'Im_LeonardoDiCaprio.png', 'Im_GeorgeClooney.png', 'Im_RobertPattinson.png'],same,1,785.0655325,17,88.0952380952381,
ALRE2209,4,neg,60,neg60_id11_im1.bmp_neg60_id11_im10.bmp,['Im_RyanGosling.png', 'Im_PatrickDempsey.png', 'Im_BenStiller.png', 'Im_DanielCraig.png', 'Im_DanielRadcliffe.png', 'Im_KeanuReeves.png', 'Im_OrlandoBloom.png', 'Im_LeonardoDiCaprio.png', 'Im_GeorgeClooney.png', 'Im_RobertPattinson.png'],diff,0,791.1158694000001,17,88.0952380952381,
ALRE2209,4,neg,90,neg90_id19_im4.bmp_neg90_id7_im26.bmp,['Im_RyanGosling.png', 'Im_PatrickDempsey.png', 'Im_BenStiller.png', 'Im_DanielCraig.png', 'Im_DanielRadcliffe.png', 'Im_KeanuReeves.png', 'Im_OrlandoBloom.png', 'Im_LeonardoDiCaprio.png', 'Im_GeorgeClooney.png', 'Im_RobertPattinson.png'],same,0,796.0239995000001,17,88.0952380952381,
ALRE2209,4,neg,90,neg90_id19_im4.bmp_neg90_id19_im27.bmp,['Im_RyanGosling.png', 'Im_PatrickDempsey.png', 'Im_BenStiller.png', 'Im_DanielCraig.png', 'Im_DanielRadcliffe.png', 'Im_KeanuReeves.png', 'Im_OrlandoBloom.png', 'Im_LeonardoDiCaprio.png', 'Im_GeorgeClooney.png', 'Im_RobertPattinson.png'],same,1,800.4238394,18,88.0952380952381,
ALRE2209,4,neg,0,neg0_id2_im3.bmp_neg0_id2_im16.bmp,['Im_RyanGosling.png', 'Im_PatrickDempsey.png', 'Im_BenStiller.png', 'Im_DanielCraig.png', 'Im_DanielRadcliffe.png', 'Im_KeanuReeves.png', 'Im_OrlandoBloom.png', 'Im_LeonardoDiCaprio.png', 'Im_GeorgeClooney.png', 'Im_RobertPattinson.png'],same,1,805.1074801000001,19,88.0952380952381,
ALRE2209,4,neg,150,neg150_id19_im4.bmp_neg150_id19_im27.bmp,['Im_RyanGosling.png', 'Im_PatrickDempsey.png', 'Im_BenStiller.png', 'Im_DanielCraig.png', 'Im_DanielRadcliffe.png', 'Im_KeanuReeves.png', 'Im_OrlandoBloom.png', 'Im_LeonardoDiCaprio.png', 'Im_GeorgeClooney.png', 'Im_RobertPattinson.png'],same,1,809.7237441000001,20,88.0952380952381,
ALRE2209,4,neg,30,neg30_id17_im14.bmp_neg30_id17_im9.bmp,['Im_RyanGosling.png', 'Im_PatrickDempsey.png', 'Im_BenStiller.png', 'Im_DanielCraig.png', 'Im_DanielRadcliffe.png', 'Im_KeanuReeves.png', 'Im_OrlandoBloom.png', 'Im_LeonardoDiCaprio.png', 'Im_GeorgeClooney.png', 'Im_RobertPattinson.png'],same,1,814.0404965,21,88.0952380952381,
ALRE2209,4,neg,150,neg150_id11_im10.bmp_neg150_id11_im1.bmp,['Im_RyanGosling.png', 'Im_PatrickDempsey.png', 'Im_BenStiller.png', 'Im_DanielCraig.png', 'Im_DanielRadcliffe.png', 'Im_KeanuReeves.png', 'Im_OrlandoBloom.png', 'Im_LeonardoDiCaprio.png', 'Im_GeorgeClooney.png', 'Im_RobertPattinson.png'],diff,0,818.3988454,21,88.0952380952381,
ALRE2209,4,neg,120,neg120_id20_im30.bmp_neg120_id20_im12.bmp,['Im_RyanGosling.png', 'Im_PatrickDempsey.png', 'Im_BenStiller.png', 'Im_DanielCraig.png', 'Im_DanielRadcliffe.png', 'Im_KeanuReeves.png', 'Im_OrlandoBloom.png', 'Im_LeonardoDiCaprio.png', 'Im_GeorgeClooney.png', 'Im_RobertPattinson.png'],same,1,823.0324475,22,88.0952380952381,
ALRE2209,4,neg,30,neg30_id7_im15.bmp_neg30_id20_im12.bmp,['Im_RyanGosling.png', 'Im_PatrickDempsey.png', 'Im_BenStiller.png', 'Im_DanielCraig.png', 'Im_DanielRadcliffe.png', 'Im_KeanuReeves.png', 'Im_OrlandoBloom.png', 'Im_LeonardoDiCaprio.png', 'Im_GeorgeClooney.png', 'Im_RobertPattinson.png'],diff,1,827.1574636,23,88.0952380952381,
ALRE2209,4,neg,fs,negfs_id2_im2.bmp_negfs_id11_im10.bmp,['Im_RyanGosling.png', 'Im_PatrickDempsey.png', 'Im_BenStiller.png', 'Im_DanielCraig.png', 'Im_DanielRadcliffe.png', 'Im_KeanuReeves.png', 'Im_OrlandoBloom.png', 'Im_LeonardoDiCaprio.png', 'Im_GeorgeClooney.png', 'Im_RobertPattinson.png'],diff,1,831.4407482,24,88.0952380952381,
ALRE2209,5,pos,150,pos150_id17_im8.bmp_pos150_id11_im10.bmp,['Im_RyanGosling.png', 'Im_PatrickDempsey.png', 'Im_BenStiller.png', 'Im_DanielCraig.png', 'Im_DanielRadcliffe.png', 'Im_KeanuReeves.png', 'Im_OrlandoBloom.png', 'Im_LeonardoDiCaprio.png', 'Im_GeorgeClooney.png', 'Im_RobertPattinson.png'],diff,1,839.3154971,25,88.0952380952381,
ALRE2209,5,pos,90,pos90_id19_im8.bmp_pos90_id16_im3.bmp,['Im_RyanGosling.png', 'Im_PatrickDempsey.png', 'Im_BenStiller.png', 'Im_DanielCraig.png', 'Im_DanielRadcliffe.png', 'Im_KeanuReeves.png', 'Im_OrlandoBloom.png', 'Im_LeonardoDiCaprio.png', 'Im_GeorgeClooney.png', 'Im_RobertPattinson.png'],diff,1,843.607478,26,88.0952380952381,
ALRE2209,5,pos,30,pos30_id5_im10.bmp_pos30_id20_im3.bmp,['Im_RyanGosling.png', 'Im_PatrickDempsey.png', 'Im_BenStiller.png', 'Im_DanielCraig.png', 'Im_DanielRadcliffe.png', 'Im_KeanuReeves.png', 'Im_OrlandoBloom.png', 'Im_LeonardoDiCaprio.png', 'Im_GeorgeClooney.png', 'Im_RobertPattinson.png'],diff,1,848.2408278,27,88.0952380952381,
ALRE2209,5,pos,120,pos120_id7_im14.bmp_pos120_id4_im20.bmp,['Im_RyanGosling.png', 'Im_PatrickDempsey.png', 'Im_BenStiller.png', 'Im_DanielCraig.png', 'Im_DanielRadcliffe.png', 'Im_KeanuReeves.png', 'Im_OrlandoBloom.png', 'Im_LeonardoDiCaprio.png', 'Im_GeorgeClooney.png', 'Im_RobertPattinson.png'],diff,1,852.3741955,28,88.0952380952381,
ALRE2209,5,pos,60,pos60_id2_im16.bmp_pos60_id13_im29.bmp,['Im_RyanGosling.png', 'Im_PatrickDempsey.png', 'Im_BenStiller.png', 'Im_DanielCraig.png', 'Im_DanielRadcliffe.png', 'Im_KeanuReeves.png', 'Im_OrlandoBloom.png', 'Im_LeonardoDiCaprio.png', 'Im_GeorgeClooney.png', 'Im_RobertPattinson.png'],diff,1,856.5736641000001,29,88.0952380952381,
ALRE2209,5,pos,120,pos120_id4_im20.bmp_pos120_id4_im7.bmp,['Im_RyanGosling.png', 'Im_PatrickDempsey.png', 'Im_BenStiller.png', 'Im_DanielCraig.png', 'Im_DanielRadcliffe.png', 'Im_KeanuReeves.png', 'Im_OrlandoBloom.png', 'Im_LeonardoDiCaprio.png', 'Im_GeorgeClooney.png', 'Im_RobertPattinson.png'],same,1,860.7653125,30,88.0952380952381,
ALRE2209,5,pos,60,pos60_id13_im10.bmp_pos60_id13_im29.bmp,['Im_RyanGosling.png', 'Im_PatrickDempsey.png', 'Im_BenStiller.png', 'Im_DanielCraig.png', 'Im_DanielRadcliffe.png', 'Im_KeanuReeves.png', 'Im_OrlandoBloom.png', 'Im_LeonardoDiCaprio.png', 'Im_GeorgeClooney.png', 'Im_RobertPattinson.png'],same,1,864.8737513000001,31,88.0952380952381,
ALRE2209,5,pos,90,pos90_id7_im14.bmp_pos90_id7_im15.bmp,['Im_RyanGosling.png', 'Im_PatrickDempsey.png', 'Im_BenStiller.png', 'Im_DanielCraig.png', 'Im_DanielRadcliffe.png', 'Im_KeanuReeves.png', 'Im_OrlandoBloom.png', 'Im_LeonardoDiCaprio.png', 'Im_GeorgeClooney.png', 'Im_RobertPattinson.png'],same,1,869.0654622000001,32,88.0952380952381,
ALRE2209,5,pos,150,pos150_id13_im10.bmp_pos150_id16_im2.bmp,['Im_RyanGosling.png', 'Im_PatrickDempsey.png', 'Im_BenStiller.png', 'Im_DanielCraig.png', 'Im_DanielRadcliffe.png', 'Im_KeanuReeves.png', 'Im_OrlandoBloom.png', 'Im_LeonardoDiCaprio.png', 'Im_GeorgeClooney.png', 'Im_RobertPattinson.png'],diff,1,873.7568598,33,88.0952380952381,
ALRE2209,5,pos,0,pos0_id11_im1.bmp_pos0_id5_im1.bmp,['Im_RyanGosling.png', 'Im_PatrickDempsey.png', 'Im_BenStiller.png', 'Im_DanielCraig.png', 'Im_DanielRadcliffe.png', 'Im_KeanuReeves.png', 'Im_OrlandoBloom.png', 'Im_LeonardoDiCaprio.png', 'Im_GeorgeClooney.png', 'Im_RobertPattinson.png'],diff,1,878.1236297,34,88.0952380952381,
ALRE2209,5,pos,30,pos30_id5_im20.bmp_pos30_id16_im19.bmp,['Im_RyanGosling.png', 'Im_PatrickDempsey.png', 'Im_BenStiller.png', 'Im_DanielCraig.png', 'Im_DanielRadcliffe.png', 'Im_KeanuReeves.png', 'Im_OrlandoBloom.png', 'Im_LeonardoDiCaprio.png', 'Im_GeorgeClooney.png', 'Im_RobertPattinson.png'],diff,1,882.6152091,35,88.0952380952381,
ALRE2209,5,pos,fs,posfs_id11_im2.bmp_posfs_id13_im29.bmp,['Im_RyanGosling.png', 'Im_PatrickDempsey.png', 'Im_BenStiller.png', 'Im_DanielCraig.png', 'Im_DanielRadcliffe.png', 'Im_KeanuReeves.png', 'Im_OrlandoBloom.png', 'Im_LeonardoDiCaprio.png', 'Im_GeorgeClooney.png', 'Im_RobertPattinson.png'],diff,1,887.3402899,36,88.0952380952381,
ALRE2209,5,pos,0,pos0_id19_im27.bmp_pos0_id19_im8.bmp,['Im_RyanGosling.png', 'Im_PatrickDempsey.png', 'Im_BenStiller.png', 'Im_DanielCraig.png', 'Im_DanielRadcliffe.png', 'Im_KeanuReeves.png', 'Im_OrlandoBloom.png', 'Im_LeonardoDiCaprio.png', 'Im_GeorgeClooney.png', 'Im_RobertPattinson.png'],same,1,891.7071784000001,37,88.0952380952381,
ALRE2209,5,pos,fs,posfs_id13_im15.bmp_posfs_id13_im29.bmp,['Im_RyanGosling.png', 'Im_PatrickDempsey.png', 'Im_BenStiller.png', 'Im_DanielCraig.png', 'Im_DanielRadcliffe.png', 'Im_KeanuReeves.png', 'Im_OrlandoBloom.png', 'Im_LeonardoDiCaprio.png', 'Im_GeorgeClooney.png', 'Im_RobertPattinson.png'],same,1,895.8735666,38,88.0952380952381,
ALRE2209,6,inv,150,pos150_id7_im15.bmp_pos150_id20_im12.bmp,['Im_RyanGosling.png', 'Im_PatrickDempsey.png', 'Im_BenStiller.png', 'Im_DanielCraig.png', 'Im_DanielRadcliffe.png', 'Im_KeanuReeves.png', 'Im_OrlandoBloom.png', 'Im_LeonardoDiCaprio.png', 'Im_GeorgeClooney.png', 'Im_RobertPattinson.png'],diff,1,910.1735867,1,90.47619047619048,
ALRE2209,6,inv,0,pos0_id19_im4.bmp_pos0_id7_im15.bmp,['Im_RyanGosling.png', 'Im_PatrickDempsey.png', 'Im_BenStiller.png', 'Im_DanielCraig.png', 'Im_DanielRadcliffe.png', 'Im_KeanuReeves.png', 'Im_OrlandoBloom.png', 'Im_LeonardoDiCaprio.png', 'Im_GeorgeClooney.png', 'Im_RobertPattinson.png'],same,0,914.3986323,1,90.47619047619048,
ALRE2209,6,inv,120,pos120_id4_im20.bmp_pos120_id4_im15.bmp,['Im_RyanGosling.png', 'Im_PatrickDempsey.png', 'Im_BenStiller.png', 'Im_DanielCraig.png', 'Im_DanielRadcliffe.png', 'Im_KeanuReeves.png', 'Im_OrlandoBloom.png', 'Im_LeonardoDiCaprio.png', 'Im_GeorgeClooney.png', 'Im_RobertPattinson.png'],same,1,918.9485733,2,90.47619047619048,
ALRE2209,6,inv,30,pos30_id13_im10.bmp_pos30_id13_im29.bmp,['Im_RyanGosling.png', 'Im_PatrickDempsey.png', 'Im_BenStiller.png', 'Im_DanielCraig.png', 'Im_DanielRadcliffe.png', 'Im_KeanuReeves.png', 'Im_OrlandoBloom.png', 'Im_LeonardoDiCaprio.png', 'Im_GeorgeClooney.png', 'Im_RobertPattinson.png'],same,1,923.2485935999999,3,90.47619047619048,
ALRE2209,6,inv,0,pos0_id5_im10.bmp_pos0_id16_im2.bmp,['Im_RyanGosling.png', 'Im_PatrickDempsey.png', 'Im_BenStiller.png', 'Im_DanielCraig.png', 'Im_DanielRadcliffe.png', 'Im_KeanuReeves.png', 'Im_OrlandoBloom.png', 'Im_LeonardoDiCaprio.png', 'Im_GeorgeClooney.png', 'Im_RobertPattinson.png'],diff,1,927.6153915000001,4,90.47619047619048,
ALRE2209,6,inv,60,pos60_id11_im1.bmp_pos60_id11_im10.bmp,['Im_RyanGosling.png', 'Im_PatrickDempsey.png', 'Im_BenStiller.png', 'Im_DanielCraig.png', 'Im_DanielRadcliffe.png', 'Im_KeanuReeves.png', 'Im_OrlandoBloom.png', 'Im_LeonardoDiCaprio.png', 'Im_GeorgeClooney.png', 'Im_RobertPattinson.png'],same,1,931.7907769,5,90.47619047619048,
ALRE2209,6,inv,fs,posfs_id17_im8.bmp_posfs_id17_im9.bmp,['Im_RyanGosling.png', 'Im_PatrickDempsey.png', 'Im_BenStiller.png', 'Im_DanielCraig.png', 'Im_DanielRadcliffe.png', 'Im_KeanuReeves.png', 'Im_OrlandoBloom.png', 'Im_LeonardoDiCaprio.png', 'Im_GeorgeClooney.png', 'Im_RobertPattinson.png'],same,1,936.0070798,6,90.47619047619048,
ALRE2209,6,inv,90,pos90_id16_im3.bmp_pos90_id19_im8.bmp,['Im_RyanGosling.png', 'Im_PatrickDempsey.png', 'Im_BenStiller.png', 'Im_DanielCraig.png', 'Im_DanielRadcliffe.png', 'Im_KeanuReeves.png', 'Im_OrlandoBloom.png', 'Im_LeonardoDiCaprio.png', 'Im_GeorgeClooney.png', 'Im_RobertPattinson.png'],same,0,940.5070313,6,90.47619047619048,
ALRE2209,6,inv,90,pos90_id13_im10.bmp_pos90_id16_im2.bmp,['Im_RyanGosling.png', 'Im_PatrickDempsey.png', 'Im_BenStiller.png', 'Im_DanielCraig.png', 'Im_DanielRadcliffe.png', 'Im_KeanuReeves.png', 'Im_OrlandoBloom.png', 'Im_LeonardoDiCaprio.png', 'Im_GeorgeClooney.png', 'Im_RobertPattinson.png'],same,0,946.4069982,6,90.47619047619048,
ALRE2209,6,inv,60,pos60_id16_im3.bmp_pos60_id19_im8.bmp,['Im_RyanGosling.png', 'Im_PatrickDempsey.png', 'Im_BenStiller.png', 'Im_DanielCraig.png', 'Im_DanielRadcliffe.png', 'Im_KeanuReeves.png', 'Im_OrlandoBloom.png', 'Im_LeonardoDiCaprio.png', 'Im_GeorgeClooney.png', 'Im_RobertPattinson.png'],same,0,950.6235173000001,6,90.47619047619048,
ALRE2209,6,inv,30,pos30_id7_im15.bmp_pos30_id7_im14.bmp,['Im_RyanGosling.png', 'Im_PatrickDempsey.png', 'Im_BenStiller.png', 'Im_DanielCraig.png', 'Im_DanielRadcliffe.png', 'Im_KeanuReeves.png', 'Im_OrlandoBloom.png', 'Im_LeonardoDiCaprio.png', 'Im_GeorgeClooney.png', 'Im_RobertPattinson.png'],same,1,954.9403364000001,7,90.47619047619048,
ALRE2209,6,inv,120,pos120_id20_im3.bmp_pos120_id5_im20.bmp,['Im_RyanGosling.png', 'Im_PatrickDempsey.png', 'Im_BenStiller.png', 'Im_DanielCraig.png', 'Im_DanielRadcliffe.png', 'Im_KeanuReeves.png', 'Im_OrlandoBloom.png', 'Im_LeonardoDiCaprio.png', 'Im_GeorgeClooney.png', 'Im_RobertPattinson.png'],diff,1,959.0901898000001,8,90.47619047619048,
ALRE2209,6,inv,fs,posfs_id19_im4.bmp_posfs_id19_im8.bmp,['Im_RyanGosling.png', 'Im_PatrickDempsey.png', 'Im_BenStiller.png', 'Im_DanielCraig.png', 'Im_DanielRadcliffe.png', 'Im_KeanuReeves.png', 'Im_OrlandoBloom.png', 'Im_LeonardoDiCaprio.png', 'Im_GeorgeClooney.png', 'Im_RobertPattinson.png'],same,1,963.4653623,9,90.47619047619048,
ALRE2209,6,inv,150,pos150_id7_im14.bmp_pos150_id7_im15.bmp,['Im_RyanGosling.png', 'Im_PatrickDempsey.png', 'Im_BenStiller.png', 'Im_DanielCraig.png', 'Im_DanielRadcliffe.png', 'Im_KeanuReeves.png', 'Im_OrlandoBloom.png', 'Im_LeonardoDiCaprio.png', 'Im_GeorgeClooney.png', 'Im_RobertPattinson.png'],same,1,967.7486577999999,10,90.47619047619048,
ALRE2209,7,neg,60,neg60_id19_im4.bmp_neg60_id19_im8.bmp,['Im_RyanGosling.png', 'Im_PatrickDempsey.png', 'Im_BenStiller.png', 'Im_DanielCraig.png', 'Im_DanielRadcliffe.png', 'Im_KeanuReeves.png', 'Im_OrlandoBloom.png', 'Im_LeonardoDiCaprio.png', 'Im_GeorgeClooney.png', 'Im_RobertPattinson.png'],diff,0,977.7237251,10,90.47619047619048,
ALRE2209,7,neg,120,neg120_id17_im9.bmp_neg120_id17_im14.bmp,['Im_RyanGosling.png', 'Im_PatrickDempsey.png', 'Im_BenStiller.png', 'Im_DanielCraig.png', 'Im_DanielRadcliffe.png', 'Im_KeanuReeves.png', 'Im_OrlandoBloom.png', 'Im_LeonardoDiCaprio.png', 'Im_GeorgeClooney.png', 'Im_RobertPattinson.png'],same,1,982.6236447,11,90.47619047619048,
ALRE2209,7,neg,150,neg150_id13_im29.bmp_neg150_id11_im2.bmp,['Im_RyanGosling.png', 'Im_PatrickDempsey.png', 'Im_BenStiller.png', 'Im_DanielCraig.png', 'Im_DanielRadcliffe.png', 'Im_KeanuReeves.png', 'Im_OrlandoBloom.png', 'Im_LeonardoDiCaprio.png', 'Im_GeorgeClooney.png', 'Im_RobertPattinson.png'],diff,1,987.0404132,12,90.47619047619048,
ALRE2209,7,neg,30,neg30_id2_im16.bmp_neg30_id2_im2.bmp,['Im_RyanGosling.png', 'Im_PatrickDempsey.png', 'Im_BenStiller.png', 'Im_DanielCraig.png', 'Im_DanielRadcliffe.png', 'Im_KeanuReeves.png', 'Im_OrlandoBloom.png', 'Im_LeonardoDiCaprio.png', 'Im_GeorgeClooney.png', 'Im_RobertPattinson.png'],same,1,991.7655470000001,13,90.47619047619048,
ALRE2209,7,neg,30,neg30_id5_im10.bmp_neg30_id5_im1.bmp,['Im_RyanGosling.png', 'Im_PatrickDempsey.png', 'Im_BenStiller.png', 'Im_DanielCraig.png', 'Im_DanielRadcliffe.png', 'Im_KeanuReeves.png', 'Im_OrlandoBloom.png', 'Im_LeonardoDiCaprio.png', 'Im_GeorgeClooney.png', 'Im_RobertPattinson.png'],same,1,995.9992947,14,90.47619047619048,
ALRE2209,7,neg,90,neg90_id2_im3.bmp_neg90_id7_im26.bmp,['Im_RyanGosling.png', 'Im_PatrickDempsey.png', 'Im_BenStiller.png', 'Im_DanielCraig.png', 'Im_DanielRadcliffe.png', 'Im_KeanuReeves.png', 'Im_OrlandoBloom.png', 'Im_LeonardoDiCaprio.png', 'Im_GeorgeClooney.png', 'Im_RobertPattinson.png'],diff,1,1000.9405838000001,15,90.47619047619048,
ALRE2209,7,neg,60,neg60_id17_im9.bmp_neg60_id4_im7.bmp,['Im_RyanGosling.png', 'Im_PatrickDempsey.png', 'Im_BenStiller.png', 'Im_DanielCraig.png', 'Im_DanielRadcliffe.png', 'Im_KeanuReeves.png', 'Im_OrlandoBloom.png', 'Im_LeonardoDiCaprio.png', 'Im_GeorgeClooney.png', 'Im_RobertPattinson.png'],diff,1,1005.598826,16,90.47619047619048,
ALRE2209,7,neg,fs,negfs_id2_im3.bmp_negfs_id17_im14.bmp,['Im_RyanGosling.png', 'Im_PatrickDempsey.png', 'Im_BenStiller.png', 'Im_DanielCraig.png', 'Im_DanielRadcliffe.png', 'Im_KeanuReeves.png', 'Im_OrlandoBloom.png', 'Im_LeonardoDiCaprio.png', 'Im_GeorgeClooney.png', 'Im_RobertPattinson.png'],diff,1,1010.2819607,17,90.47619047619048,
ALRE2209,7,neg,0,neg0_id5_im1.bmp_neg0_id4_im15.bmp,['Im_RyanGosling.png', 'Im_PatrickDempsey.png', 'Im_BenStiller.png', 'Im_DanielCraig.png', 'Im_DanielRadcliffe.png', 'Im_KeanuReeves.png', 'Im_OrlandoBloom.png', 'Im_LeonardoDiCaprio.png', 'Im_GeorgeClooney.png', 'Im_RobertPattinson.png'],diff,1,1015.0154986000001,18,90.47619047619048,
ALRE2209,7,neg,120,neg120_id16_im19.bmp_neg120_id16_im3.bmp,['Im_RyanGosling.png', 'Im_PatrickDempsey.png', 'Im_BenStiller.png', 'Im_DanielCraig.png', 'Im_DanielRadcliffe.png', 'Im_KeanuReeves.png', 'Im_OrlandoBloom.png', 'Im_LeonardoDiCaprio.png', 'Im_GeorgeClooney.png', 'Im_RobertPattinson.png'],same,1,1019.5236450000001,19,90.47619047619048,
ALRE2209,7,neg,90,neg90_id7_im15.bmp_neg90_id7_im26.bmp,['Im_RyanGosling.png', 'Im_PatrickDempsey.png', 'Im_BenStiller.png', 'Im_DanielCraig.png', 'Im_DanielRadcliffe.png', 'Im_KeanuReeves.png', 'Im_OrlandoBloom.png', 'Im_LeonardoDiCaprio.png', 'Im_GeorgeClooney.png', 'Im_RobertPattinson.png'],same,1,1024.1987784,20,90.47619047619048,
ALRE2209,7,neg,150,neg150_id11_im2.bmp_neg150_id11_im1.bmp,['Im_RyanGosling.png', 'Im_PatrickDempsey.png', 'Im_BenStiller.png', 'Im_DanielCraig.png', 'Im_DanielRadcliffe.png', 'Im_KeanuReeves.png', 'Im_OrlandoBloom.png', 'Im_LeonardoDiCaprio.png', 'Im_GeorgeClooney.png', 'Im_RobertPattinson.png'],diff,0,1029.4818705,20,90.47619047619048,
ALRE2209,7,neg,0,neg0_id17_im9.bmp_neg0_id4_im7.bmp,['Im_RyanGosling.png', 'Im_PatrickDempsey.png', 'Im_BenStiller.png', 'Im_DanielCraig.png', 'Im_DanielRadcliffe.png', 'Im_KeanuReeves.png', 'Im_OrlandoBloom.png', 'Im_LeonardoDiCaprio.png', 'Im_GeorgeClooney.png', 'Im_RobertPattinson.png'],diff,1,1034.1652296999998,21,90.47619047619048,
ALRE2209,7,neg,fs,negfs_id20_im3.bmp_negfs_id5_im10.bmp,['Im_RyanGosling.png', 'Im_PatrickDempsey.png', 'Im_BenStiller.png', 'Im_DanielCraig.png', 'Im_DanielRadcliffe.png', 'Im_KeanuReeves.png', 'Im_OrlandoBloom.png', 'Im_LeonardoDiCaprio.png', 'Im_GeorgeClooney.png', 'Im_RobertPattinson.png'],diff,1,1038.6736200999999,22,90.47619047619048,
ALRE2209,8,inv,150,pos150_id11_im10.bmp_pos150_id17_im8.bmp,['Im_RyanGosling.png', 'Im_PatrickDempsey.png', 'Im_BenStiller.png', 'Im_DanielCraig.png', 'Im_DanielRadcliffe.png', 'Im_KeanuReeves.png', 'Im_OrlandoBloom.png', 'Im_LeonardoDiCaprio.png', 'Im_GeorgeClooney.png', 'Im_RobertPattinson.png'],diff,1,1046.8987700999999,23,90.47619047619048,
ALRE2209,8,inv,60,pos60_id4_im20.bmp_pos60_id20_im30.bmp,['Im_RyanGosling.png', 'Im_PatrickDempsey.png', 'Im_BenStiller.png', 'Im_DanielCraig.png', 'Im_DanielRadcliffe.png', 'Im_KeanuReeves.png', 'Im_OrlandoBloom.png', 'Im_LeonardoDiCaprio.png', 'Im_GeorgeClooney.png', 'Im_RobertPattinson.png'],diff,1,1051.2320298999998,24,90.47619047619048,
ALRE2209,8,inv,120,pos120_id5_im10.bmp_pos120_id16_im2.bmp,['Im_RyanGosling.png', 'Im_PatrickDempsey.png', 'Im_BenStiller.png', 'Im_DanielCraig.png', 'Im_DanielRadcliffe.png', 'Im_KeanuReeves.png', 'Im_OrlandoBloom.png', 'Im_LeonardoDiCaprio.png', 'Im_GeorgeClooney.png', 'Im_RobertPattinson.png'],diff,1,1055.4823846,25,90.47619047619048,
ALRE2209,8,inv,150,pos150_id20_im30.bmp_pos150_id11_im2.bmp,['Im_RyanGosling.png', 'Im_PatrickDempsey.png', 'Im_BenStiller.png', 'Im_DanielCraig.png', 'Im_DanielRadcliffe.png', 'Im_KeanuReeves.png', 'Im_OrlandoBloom.png', 'Im_LeonardoDiCaprio.png', 'Im_GeorgeClooney.png', 'Im_RobertPattinson.png'],diff,1,1060.1070616,26,90.47619047619048,
ALRE2209,8,inv,30,pos30_id11_im10.bmp_pos30_id17_im8.bmp,['Im_RyanGosling.png', 'Im_PatrickDempsey.png', 'Im_BenStiller.png', 'Im_DanielCraig.png', 'Im_DanielRadcliffe.png', 'Im_KeanuReeves.png', 'Im_OrlandoBloom.png', 'Im_LeonardoDiCaprio.png', 'Im_GeorgeClooney.png', 'Im_RobertPattinson.png'],diff,1,1064.8650225,27,90.47619047619048,
ALRE2209,8,inv,60,pos60_id7_im15.bmp_pos60_id7_im26.bmp,['Im_RyanGosling.png', 'Im_PatrickDempsey.png', 'Im_BenStiller.png', 'Im_DanielCraig.png', 'Im_DanielRadcliffe.png', 'Im_KeanuReeves.png', 'Im_OrlandoBloom.png', 'Im_LeonardoDiCaprio.png', 'Im_GeorgeClooney.png', 'Im_RobertPattinson.png'],same,1,1069.5485606,28,90.47619047619048,
ALRE2209,8,inv,90,pos90_id7_im26.bmp_pos90_id7_im14.bmp,['Im_RyanGosling.png', 'Im_PatrickDempsey.png', 'Im_BenStiller.png', 'Im_DanielCraig.png', 'Im_DanielRadcliffe.png', 'Im_KeanuReeves.png', 'Im_OrlandoBloom.png', 'Im_LeonardoDiCaprio.png', 'Im_GeorgeClooney.png', 'Im_RobertPattinson.png'],same,1,1074.1403983,29,90.47619047619048,
ALRE2209,8,inv,30,pos30_id5_im1.bmp_pos30_id4_im15.bmp,['Im_RyanGosling.png', 'Im_PatrickDempsey.png', 'Im_BenStiller.png', 'Im_DanielCraig.png', 'Im_DanielRadcliffe.png', 'Im_KeanuReeves.png', 'Im_OrlandoBloom.png', 'Im_LeonardoDiCaprio.png', 'Im_GeorgeClooney.png', 'Im_RobertPattinson.png'],diff,1,1078.6735743,30,90.47619047619048,
ALRE2209,8,inv,0,pos0_id13_im10.bmp_pos0_id13_im29.bmp,['Im_RyanGosling.png', 'Im_PatrickDempsey.png', 'Im_BenStiller.png', 'Im_DanielCraig.png', 'Im_DanielRadcliffe.png', 'Im_KeanuReeves.png', 'Im_OrlandoBloom.png', 'Im_LeonardoDiCaprio.png', 'Im_GeorgeClooney.png', 'Im_RobertPattinson.png'],same,1,1083.7401479,31,90.47619047619048,
ALRE2209,8,inv,120,pos120_id13_im29.bmp_pos120_id13_im15.bmp,['Im_RyanGosling.png', 'Im_PatrickDempsey.png', 'Im_BenStiller.png', 'Im_DanielCraig.png', 'Im_DanielRadcliffe.png', 'Im_KeanuReeves.png', 'Im_OrlandoBloom.png', 'Im_LeonardoDiCaprio.png', 'Im_GeorgeClooney.png', 'Im_RobertPattinson.png'],same,1,1088.1487541,32,90.47619047619048,
ALRE2209,8,inv,fs,posfs_id7_im26.bmp_posfs_id7_im14.bmp,['Im_RyanGosling.png', 'Im_PatrickDempsey.png', 'Im_BenStiller.png', 'Im_DanielCraig.png', 'Im_DanielRadcliffe.png', 'Im_KeanuReeves.png', 'Im_OrlandoBloom.png', 'Im_LeonardoDiCaprio.png', 'Im_GeorgeClooney.png', 'Im_RobertPattinson.png'],same,1,1092.4151522999998,33,90.47619047619048,
ALRE2209,8,inv,fs,posfs_id13_im15.bmp_posfs_id17_im14.bmp,['Im_RyanGosling.png', 'Im_PatrickDempsey.png', 'Im_BenStiller.png', 'Im_DanielCraig.png', 'Im_DanielRadcliffe.png', 'Im_KeanuReeves.png', 'Im_OrlandoBloom.png', 'Im_LeonardoDiCaprio.png', 'Im_GeorgeClooney.png', 'Im_RobertPattinson.png'],diff,1,1096.9240631,34,90.47619047619048,
ALRE2209,8,inv,90,pos90_id19_im8.bmp_pos90_id19_im27.bmp,['Im_RyanGosling.png', 'Im_PatrickDempsey.png', 'Im_BenStiller.png', 'Im_DanielCraig.png', 'Im_DanielRadcliffe.png', 'Im_KeanuReeves.png', 'Im_OrlandoBloom.png', 'Im_LeonardoDiCaprio.png', 'Im_GeorgeClooney.png', 'Im_RobertPattinson.png'],same,1,1101.2237205,35,90.47619047619048,
ALRE2209,8,inv,0,pos0_id20_im3.bmp_pos0_id5_im20.bmp,['Im_RyanGosling.png', 'Im_PatrickDempsey.png', 'Im_BenStiller.png', 'Im_DanielCraig.png', 'Im_DanielRadcliffe.png', 'Im_KeanuReeves.png', 'Im_OrlandoBloom.png', 'Im_LeonardoDiCaprio.png', 'Im_GeorgeClooney.png', 'Im_RobertPattinson.png'],same,0,1105.3900864,35,90.47619047619048,
ALRE2209,9,pos,90,pos90_id11_im2.bmp_pos90_id13_im29.bmp,['Im_RyanGosling.png', 'Im_PatrickDempsey.png', 'Im_BenStiller.png', 'Im_DanielCraig.png', 'Im_DanielRadcliffe.png', 'Im_KeanuReeves.png', 'Im_OrlandoBloom.png', 'Im_LeonardoDiCaprio.png', 'Im_GeorgeClooney.png', 'Im_RobertPattinson.png'],diff,1,1128.0735117,1,83.33333333333333,
ALRE2209,9,pos,0,pos0_id2_im2.bmp_pos0_id11_im10.bmp,['Im_RyanGosling.png', 'Im_PatrickDempsey.png', 'Im_BenStiller.png', 'Im_DanielCraig.png', 'Im_DanielRadcliffe.png', 'Im_KeanuReeves.png', 'Im_OrlandoBloom.png', 'Im_LeonardoDiCaprio.png', 'Im_GeorgeClooney.png', 'Im_RobertPattinson.png'],diff,1,1132.9484501,2,83.33333333333333,
ALRE2209,9,pos,fs,posfs_id19_im8.bmp_posfs_id19_im27.bmp,['Im_RyanGosling.png', 'Im_PatrickDempsey.png', 'Im_BenStiller.png', 'Im_DanielCraig.png', 'Im_DanielRadcliffe.png', 'Im_KeanuReeves.png', 'Im_OrlandoBloom.png', 'Im_LeonardoDiCaprio.png', 'Im_GeorgeClooney.png', 'Im_RobertPattinson.png'],same,1,1137.0901706999998,3,83.33333333333333,
ALRE2209,9,pos,60,pos60_id2_im2.bmp_pos60_id2_im16.bmp,['Im_RyanGosling.png', 'Im_PatrickDempsey.png', 'Im_BenStiller.png', 'Im_DanielCraig.png', 'Im_DanielRadcliffe.png', 'Im_KeanuReeves.png', 'Im_OrlandoBloom.png', 'Im_LeonardoDiCaprio.png', 'Im_GeorgeClooney.png', 'Im_RobertPattinson.png'],same,1,1141.3401697,4,83.33333333333333,
ALRE2209,9,pos,120,pos120_id20_im12.bmp_pos120_id7_im15.bmp,['Im_RyanGosling.png', 'Im_PatrickDempsey.png', 'Im_BenStiller.png', 'Im_DanielCraig.png', 'Im_DanielRadcliffe.png', 'Im_KeanuReeves.png', 'Im_OrlandoBloom.png', 'Im_LeonardoDiCaprio.png', 'Im_GeorgeClooney.png', 'Im_RobertPattinson.png'],diff,1,1145.7735097999998,5,83.33333333333333,
ALRE2209,9,pos,30,pos30_id4_im20.bmp_pos30_id4_im7.bmp,['Im_RyanGosling.png', 'Im_PatrickDempsey.png', 'Im_BenStiller.png', 'Im_DanielCraig.png', 'Im_DanielRadcliffe.png', 'Im_KeanuReeves.png', 'Im_OrlandoBloom.png', 'Im_LeonardoDiCaprio.png', 'Im_GeorgeClooney.png', 'Im_RobertPattinson.png'],same,1,1150.5319562999998,6,83.33333333333333,
ALRE2209,9,pos,120,pos120_id13_im10.bmp_pos120_id13_im15.bmp,['Im_RyanGosling.png', 'Im_PatrickDempsey.png', 'Im_BenStiller.png', 'Im_DanielCraig.png', 'Im_DanielRadcliffe.png', 'Im_KeanuReeves.png', 'Im_OrlandoBloom.png', 'Im_LeonardoDiCaprio.png', 'Im_GeorgeClooney.png', 'Im_RobertPattinson.png'],same,1,1154.9901435,7,83.33333333333333,
ALRE2209,9,pos,0,pos0_id7_im14.bmp_pos0_id7_im15.bmp,['Im_RyanGosling.png', 'Im_PatrickDempsey.png', 'Im_BenStiller.png', 'Im_DanielCraig.png', 'Im_DanielRadcliffe.png', 'Im_KeanuReeves.png', 'Im_OrlandoBloom.png', 'Im_LeonardoDiCaprio.png', 'Im_GeorgeClooney.png', 'Im_RobertPattinson.png'],same,1,1159.1734600999998,8,83.33333333333333,
ALRE2209,9,pos,150,pos150_id20_im3.bmp_pos150_id5_im10.bmp,['Im_RyanGosling.png', 'Im_PatrickDempsey.png', 'Im_BenStiller.png', 'Im_DanielCraig.png', 'Im_DanielRadcliffe.png', 'Im_KeanuReeves.png', 'Im_OrlandoBloom.png', 'Im_LeonardoDiCaprio.png', 'Im_GeorgeClooney.png', 'Im_RobertPattinson.png'],diff,1,1163.7484573,9,83.33333333333333,
ALRE2209,9,pos,60,pos60_id20_im3.bmp_pos60_id5_im10.bmp,['Im_RyanGosling.png', 'Im_PatrickDempsey.png', 'Im_BenStiller.png', 'Im_DanielCraig.png', 'Im_DanielRadcliffe.png', 'Im_KeanuReeves.png', 'Im_OrlandoBloom.png', 'Im_LeonardoDiCaprio.png', 'Im_GeorgeClooney.png', 'Im_RobertPattinson.png'],diff,1,1168.2734616999999,10,83.33333333333333,
ALRE2209,9,pos,30,pos30_id5_im1.bmp_pos30_id4_im15.bmp,['Im_RyanGosling.png', 'Im_PatrickDempsey.png', 'Im_BenStiller.png', 'Im_DanielCraig.png', 'Im_DanielRadcliffe.png', 'Im_KeanuReeves.png', 'Im_OrlandoBloom.png', 'Im_LeonardoDiCaprio.png', 'Im_GeorgeClooney.png', 'Im_RobertPattinson.png'],diff,1,1172.5651392999998,11,83.33333333333333,
ALRE2209,9,pos,fs,posfs_id7_im14.bmp_posfs_id7_im26.bmp,['Im_RyanGosling.png', 'Im_PatrickDempsey.png', 'Im_BenStiller.png', 'Im_DanielCraig.png', 'Im_DanielRadcliffe.png', 'Im_KeanuReeves.png', 'Im_OrlandoBloom.png', 'Im_LeonardoDiCaprio.png', 'Im_GeorgeClooney.png', 'Im_RobertPattinson.png'],same,1,1176.9901424999998,12,83.33333333333333,
ALRE2209,9,pos,150,pos150_id20_im30.bmp_pos150_id4_im20.bmp,['Im_RyanGosling.png', 'Im_PatrickDempsey.png', 'Im_BenStiller.png', 'Im_DanielCraig.png', 'Im_DanielRadcliffe.png', 'Im_KeanuReeves.png', 'Im_OrlandoBloom.png', 'Im_LeonardoDiCaprio.png', 'Im_GeorgeClooney.png', 'Im_RobertPattinson.png'],diff,1,1181.148447,13,83.33333333333333,
ALRE2209,9,pos,90,pos90_id7_im14.bmp_pos90_id4_im20.bmp,['Im_RyanGosling.png', 'Im_PatrickDempsey.png', 'Im_BenStiller.png', 'Im_DanielCraig.png', 'Im_DanielRadcliffe.png', 'Im_KeanuReeves.png', 'Im_OrlandoBloom.png', 'Im_LeonardoDiCaprio.png', 'Im_GeorgeClooney.png', 'Im_RobertPattinson.png'],diff,1,1185.2401026999999,14,83.33333333333333,
ALRE2209,10,inv,60,pos60_id17_im9.bmp_pos60_id17_im14.bmp,['Im_RyanGosling.png', 'Im_PatrickDempsey.png', 'Im_BenStiller.png', 'Im_DanielCraig.png', 'Im_DanielRadcliffe.png', 'Im_KeanuReeves.png', 'Im_OrlandoBloom.png', 'Im_LeonardoDiCaprio.png', 'Im_GeorgeClooney.png', 'Im_RobertPattinson.png'],diff,0,1193.0236873,14,83.33333333333333,
ALRE2209,10,inv,90,pos90_id7_im15.bmp_pos90_id20_im12.bmp,['Im_RyanGosling.png', 'Im_PatrickDempsey.png', 'Im_BenStiller.png', 'Im_DanielCraig.png', 'Im_DanielRadcliffe.png', 'Im_KeanuReeves.png', 'Im_OrlandoBloom.png', 'Im_LeonardoDiCaprio.png', 'Im_GeorgeClooney.png', 'Im_RobertPattinson.png'],diff,1,1197.6901191,15,83.33333333333333,
ALRE2209,10,inv,150,pos150_id19_im4.bmp_pos150_id7_im26.bmp,['Im_RyanGosling.png', 'Im_PatrickDempsey.png', 'Im_BenStiller.png', 'Im_DanielCraig.png', 'Im_DanielRadcliffe.png', 'Im_KeanuReeves.png', 'Im_OrlandoBloom.png', 'Im_LeonardoDiCaprio.png', 'Im_GeorgeClooney.png', 'Im_RobertPattinson.png'],diff,1,1202.7486053999999,16,83.33333333333333,
ALRE2209,10,inv,120,pos120_id16_im3.bmp_pos120_id16_im2.bmp,['Im_RyanGosling.png', 'Im_PatrickDempsey.png', 'Im_BenStiller.png', 'Im_DanielCraig.png', 'Im_DanielRadcliffe.png', 'Im_KeanuReeves.png', 'Im_OrlandoBloom.png', 'Im_LeonardoDiCaprio.png', 'Im_GeorgeClooney.png', 'Im_RobertPattinson.png'],same,1,1207.0234592,17,83.33333333333333,
ALRE2209,10,inv,90,pos90_id7_im15.bmp_pos90_id19_im4.bmp,['Im_RyanGosling.png', 'Im_PatrickDempsey.png', 'Im_BenStiller.png', 'Im_DanielCraig.png', 'Im_DanielRadcliffe.png', 'Im_KeanuReeves.png', 'Im_OrlandoBloom.png', 'Im_LeonardoDiCaprio.png', 'Im_GeorgeClooney.png', 'Im_RobertPattinson.png'],diff,1,1211.3401724999999,18,83.33333333333333,
ALRE2209,10,inv,0,pos0_id19_im4.bmp_pos0_id19_im8.bmp,['Im_RyanGosling.png', 'Im_PatrickDempsey.png', 'Im_BenStiller.png', 'Im_DanielCraig.png', 'Im_DanielRadcliffe.png', 'Im_KeanuReeves.png', 'Im_OrlandoBloom.png', 'Im_LeonardoDiCaprio.png', 'Im_GeorgeClooney.png', 'Im_RobertPattinson.png'],same,1,1215.7234128999999,19,83.33333333333333,
ALRE2209,10,inv,fs,posfs_id17_im9.bmp_posfs_id2_im2.bmp,['Im_RyanGosling.png', 'Im_PatrickDempsey.png', 'Im_BenStiller.png', 'Im_DanielCraig.png', 'Im_DanielRadcliffe.png', 'Im_KeanuReeves.png', 'Im_OrlandoBloom.png', 'Im_LeonardoDiCaprio.png', 'Im_GeorgeClooney.png', 'Im_RobertPattinson.png'],diff,1,1220.3401308999998,20,83.33333333333333,
ALRE2209,10,inv,150,pos150_id2_im3.bmp_pos150_id7_im26.bmp,['Im_RyanGosling.png', 'Im_PatrickDempsey.png', 'Im_BenStiller.png', 'Im_DanielCraig.png', 'Im_DanielRadcliffe.png', 'Im_KeanuReeves.png', 'Im_OrlandoBloom.png', 'Im_LeonardoDiCaprio.png', 'Im_GeorgeClooney.png', 'Im_RobertPattinson.png'],diff,1,1225.3399474,21,83.33333333333333,
ALRE2209,10,inv,30,pos30_id17_im14.bmp_pos30_id13_im15.bmp,['Im_RyanGosling.png', 'Im_PatrickDempsey.png', 'Im_BenStiller.png', 'Im_DanielCraig.png', 'Im_DanielRadcliffe.png', 'Im_KeanuReeves.png', 'Im_OrlandoBloom.png', 'Im_LeonardoDiCaprio.png', 'Im_GeorgeClooney.png', 'Im_RobertPattinson.png'],diff,1,1230.2069327,22,83.33333333333333,
ALRE2209,10,inv,fs,posfs_id13_im15.bmp_posfs_id13_im10.bmp,['Im_RyanGosling.png', 'Im_PatrickDempsey.png', 'Im_BenStiller.png', 'Im_DanielCraig.png', 'Im_DanielRadcliffe.png', 'Im_KeanuReeves.png', 'Im_OrlandoBloom.png', 'Im_LeonardoDiCaprio.png', 'Im_GeorgeClooney.png', 'Im_RobertPattinson.png'],same,1,1234.9567961999999,23,83.33333333333333,
ALRE2209,10,inv,0,pos0_id7_im26.bmp_pos0_id7_im15.bmp,['Im_RyanGosling.png', 'Im_PatrickDempsey.png', 'Im_BenStiller.png', 'Im_DanielCraig.png', 'Im_DanielRadcliffe.png', 'Im_KeanuReeves.png', 'Im_OrlandoBloom.png', 'Im_LeonardoDiCaprio.png', 'Im_GeorgeClooney.png', 'Im_RobertPattinson.png'],same,1,1239.6236474999998,24,83.33333333333333,
ALRE2209,10,inv,60,pos60_id5_im1.bmp_pos60_id5_im20.bmp,['Im_RyanGosling.png', 'Im_PatrickDempsey.png', 'Im_BenStiller.png', 'Im_DanielCraig.png', 'Im_DanielRadcliffe.png', 'Im_KeanuReeves.png', 'Im_OrlandoBloom.png', 'Im_LeonardoDiCaprio.png', 'Im_GeorgeClooney.png', 'Im_RobertPattinson.png'],same,1,1244.331882,25,83.33333333333333,
ALRE2209,10,inv,30,pos30_id19_im27.bmp_pos30_id19_im8.bmp,['Im_RyanGosling.png', 'Im_PatrickDempsey.png', 'Im_BenStiller.png', 'Im_DanielCraig.png', 'Im_DanielRadcliffe.png', 'Im_KeanuReeves.png', 'Im_OrlandoBloom.png', 'Im_LeonardoDiCaprio.png', 'Im_GeorgeClooney.png', 'Im_RobertPattinson.png'],same,1,1248.4566851,26,83.33333333333333,
ALRE2209,10,inv,120,pos120_id7_im15.bmp_pos120_id20_im12.bmp,['Im_RyanGosling.png', 'Im_PatrickDempsey.png', 'Im_BenStiller.png', 'Im_DanielCraig.png', 'Im_DanielRadcliffe.png', 'Im_KeanuReeves.png', 'Im_OrlandoBloom.png', 'Im_LeonardoDiCaprio.png', 'Im_GeorgeClooney.png', 'Im_RobertPattinson.png'],diff,1,1253.10675,27,83.33333333333333,
ALRE2209,11,neg,30,neg30_id13_im29.bmp_neg30_id13_im15.bmp,['Im_RyanGosling.png', 'Im_PatrickDempsey.png', 'Im_BenStiller.png', 'Im_DanielCraig.png', 'Im_DanielRadcliffe.png', 'Im_KeanuReeves.png', 'Im_OrlandoBloom.png', 'Im_LeonardoDiCaprio.png', 'Im_GeorgeClooney.png', 'Im_RobertPattinson.png'],same,1,1260.8900604,28,83.33333333333333,
ALRE2209,11,neg,0,neg0_id11_im2.bmp_neg0_id20_im30.bmp,['Im_RyanGosling.png', 'Im_PatrickDempsey.png', 'Im_BenStiller.png', 'Im_DanielCraig.png', 'Im_DanielRadcliffe.png', 'Im_KeanuReeves.png', 'Im_OrlandoBloom.png', 'Im_LeonardoDiCaprio.png', 'Im_GeorgeClooney.png', 'Im_RobertPattinson.png'],same,0,1265.3402687999999,28,83.33333333333333,
ALRE2209,11,neg,fs,negfs_id16_im19.bmp_negfs_id20_im12.bmp,['Im_RyanGosling.png', 'Im_PatrickDempsey.png', 'Im_BenStiller.png', 'Im_DanielCraig.png', 'Im_DanielRadcliffe.png', 'Im_KeanuReeves.png', 'Im_OrlandoBloom.png', 'Im_LeonardoDiCaprio.png', 'Im_GeorgeClooney.png', 'Im_RobertPattinson.png'],diff,1,1269.9399744,29,83.33333333333333,
ALRE2209,11,neg,90,neg90_id17_im8.bmp_neg90_id17_im9.bmp,['Im_RyanGosling.png', 'Im_PatrickDempsey.png', 'Im_BenStiller.png', 'Im_DanielCraig.png', 'Im_DanielRadcliffe.png', 'Im_KeanuReeves.png', 'Im_OrlandoBloom.png', 'Im_LeonardoDiCaprio.png', 'Im_GeorgeClooney.png', 'Im_RobertPattinson.png'],same,1,1274.5901007,30,83.33333333333333,
ALRE2209,11,neg,60,neg60_id13_im29.bmp_neg60_id2_im16.bmp,['Im_RyanGosling.png', 'Im_PatrickDempsey.png', 'Im_BenStiller.png', 'Im_DanielCraig.png', 'Im_DanielRadcliffe.png', 'Im_KeanuReeves.png', 'Im_OrlandoBloom.png', 'Im_LeonardoDiCaprio.png', 'Im_GeorgeClooney.png', 'Im_RobertPattinson.png'],diff,1,1278.9648676,31,83.33333333333333,
ALRE2209,11,neg,120,neg120_id5_im1.bmp_neg120_id5_im20.bmp,['Im_RyanGosling.png', 'Im_PatrickDempsey.png', 'Im_BenStiller.png', 'Im_DanielCraig.png', 'Im_DanielRadcliffe.png', 'Im_KeanuReeves.png', 'Im_OrlandoBloom.png', 'Im_LeonardoDiCaprio.png', 'Im_GeorgeClooney.png', 'Im_RobertPattinson.png'],same,1,1283.1821555,32,83.33333333333333,
ALRE2209,11,neg,150,neg150_id19_im27.bmp_neg150_id19_im8.bmp,['Im_RyanGosling.png', 'Im_PatrickDempsey.png', 'Im_BenStiller.png', 'Im_DanielCraig.png', 'Im_DanielRadcliffe.png', 'Im_KeanuReeves.png', 'Im_OrlandoBloom.png', 'Im_LeonardoDiCaprio.png', 'Im_GeorgeClooney.png', 'Im_RobertPattinson.png'],same,1,1287.8650146,33,83.33333333333333,
ALRE2209,11,neg,150,neg150_id4_im7.bmp_neg150_id17_im8.bmp,['Im_RyanGosling.png', 'Im_PatrickDempsey.png', 'Im_BenStiller.png', 'Im_DanielCraig.png', 'Im_DanielRadcliffe.png', 'Im_KeanuReeves.png', 'Im_OrlandoBloom.png', 'Im_LeonardoDiCaprio.png', 'Im_GeorgeClooney.png', 'Im_RobertPattinson.png'],diff,1,1292.2399908999998,34,83.33333333333333,
ALRE2209,11,neg,0,neg0_id2_im3.bmp_neg0_id7_im26.bmp,['Im_RyanGosling.png', 'Im_PatrickDempsey.png', 'Im_BenStiller.png', 'Im_DanielCraig.png', 'Im_DanielRadcliffe.png', 'Im_KeanuReeves.png', 'Im_OrlandoBloom.png', 'Im_LeonardoDiCaprio.png', 'Im_GeorgeClooney.png', 'Im_RobertPattinson.png'],diff,1,1297.0068254999999,35,83.33333333333333,
ALRE2209,11,neg,60,neg60_id5_im1.bmp_neg60_id11_im1.bmp,['Im_RyanGosling.png', 'Im_PatrickDempsey.png', 'Im_BenStiller.png', 'Im_DanielCraig.png', 'Im_DanielRadcliffe.png', 'Im_KeanuReeves.png', 'Im_OrlandoBloom.png', 'Im_LeonardoDiCaprio.png', 'Im_GeorgeClooney.png', 'Im_RobertPattinson.png'],diff,1,1301.4649097,36,83.33333333333333,
ALRE2209,11,neg,90,neg90_id20_im12.bmp_neg90_id20_im30.bmp,['Im_RyanGosling.png', 'Im_PatrickDempsey.png', 'Im_BenStiller.png', 'Im_DanielCraig.png', 'Im_DanielRadcliffe.png', 'Im_KeanuReeves.png', 'Im_OrlandoBloom.png', 'Im_LeonardoDiCaprio.png', 'Im_GeorgeClooney.png', 'Im_RobertPattinson.png'],same,1,1305.9232482,37,83.33333333333333,
ALRE2209,11,neg,30,neg30_id5_im10.bmp_neg30_id20_im3.bmp,['Im_RyanGosling.png', 'Im_PatrickDempsey.png', 'Im_BenStiller.png', 'Im_DanielCraig.png', 'Im_DanielRadcliffe.png', 'Im_KeanuReeves.png', 'Im_OrlandoBloom.png', 'Im_LeonardoDiCaprio.png', 'Im_GeorgeClooney.png', 'Im_RobertPattinson.png'],diff,1,1312.0984637,38,83.33333333333333,
ALRE2209,11,neg,120,neg120_id19_im27.bmp_neg120_id4_im15.bmp,['Im_RyanGosling.png', 'Im_PatrickDempsey.png', 'Im_BenStiller.png', 'Im_DanielCraig.png', 'Im_DanielRadcliffe.png', 'Im_KeanuReeves.png', 'Im_OrlandoBloom.png', 'Im_LeonardoDiCaprio.png', 'Im_GeorgeClooney.png', 'Im_RobertPattinson.png'],diff,1,1316.7818155999998,39,83.33333333333333,
ALRE2209,11,neg,fs,negfs_id16_im2.bmp_negfs_id5_im10.bmp,['Im_RyanGosling.png', 'Im_PatrickDempsey.png', 'Im_BenStiller.png', 'Im_DanielCraig.png', 'Im_DanielRadcliffe.png', 'Im_KeanuReeves.png', 'Im_OrlandoBloom.png', 'Im_LeonardoDiCaprio.png', 'Im_GeorgeClooney.png', 'Im_RobertPattinson.png'],diff,1,1321.3066357999999,40,83.33333333333333,
ALRE2209,12,pos,60,pos60_id16_im3.bmp_pos60_id16_im19.bmp,['Im_RyanGosling.png', 'Im_PatrickDempsey.png', 'Im_BenStiller.png', 'Im_DanielCraig.png', 'Im_DanielRadcliffe.png', 'Im_KeanuReeves.png', 'Im_OrlandoBloom.png', 'Im_LeonardoDiCaprio.png', 'Im_GeorgeClooney.png', 'Im_RobertPattinson.png'],same,1,1336.848346,1,95.23809523809524,
ALRE2209,12,pos,150,pos150_id5_im20.bmp_pos150_id5_im10.bmp,['Im_RyanGosling.png', 'Im_PatrickDempsey.png', 'Im_BenStiller.png', 'Im_DanielCraig.png', 'Im_DanielRadcliffe.png', 'Im_KeanuReeves.png', 'Im_OrlandoBloom.png', 'Im_LeonardoDiCaprio.png', 'Im_GeorgeClooney.png', 'Im_RobertPattinson.png'],same,1,1341.5817425,2,95.23809523809524,
ALRE2209,12,pos,150,pos150_id5_im1.bmp_pos150_id5_im20.bmp,['Im_RyanGosling.png', 'Im_PatrickDempsey.png', 'Im_BenStiller.png', 'Im_DanielCraig.png', 'Im_DanielRadcliffe.png', 'Im_KeanuReeves.png', 'Im_OrlandoBloom.png', 'Im_LeonardoDiCaprio.png', 'Im_GeorgeClooney.png', 'Im_RobertPattinson.png'],same,1,1346.2484305,3,95.23809523809524,
ALRE2209,12,pos,fs,posfs_id11_im1.bmp_posfs_id11_im10.bmp,['Im_RyanGosling.png', 'Im_PatrickDempsey.png', 'Im_BenStiller.png', 'Im_DanielCraig.png', 'Im_DanielRadcliffe.png', 'Im_KeanuReeves.png', 'Im_OrlandoBloom.png', 'Im_LeonardoDiCaprio.png', 'Im_GeorgeClooney.png', 'Im_RobertPattinson.png'],same,1,1350.9898233,4,95.23809523809524,
ALRE2209,12,pos,fs,posfs_id20_im12.bmp_posfs_id20_im3.bmp,['Im_RyanGosling.png', 'Im_PatrickDempsey.png', 'Im_BenStiller.png', 'Im_DanielCraig.png', 'Im_DanielRadcliffe.png', 'Im_KeanuReeves.png', 'Im_OrlandoBloom.png', 'Im_LeonardoDiCaprio.png', 'Im_GeorgeClooney.png', 'Im_RobertPattinson.png'],same,1,1355.7399619,5,95.23809523809524,
ALRE2209,12,pos,120,pos120_id16_im19.bmp_pos120_id16_im3.bmp,['Im_RyanGosling.png', 'Im_PatrickDempsey.png', 'Im_BenStiller.png', 'Im_DanielCraig.png', 'Im_DanielRadcliffe.png', 'Im_KeanuReeves.png', 'Im_OrlandoBloom.png', 'Im_LeonardoDiCaprio.png', 'Im_GeorgeClooney.png', 'Im_RobertPattinson.png'],same,1,1360.5899671,6,95.23809523809524,
ALRE2209,12,pos,0,pos0_id11_im2.bmp_pos0_id13_im29.bmp,['Im_RyanGosling.png', 'Im_PatrickDempsey.png', 'Im_BenStiller.png', 'Im_DanielCraig.png', 'Im_DanielRadcliffe.png', 'Im_KeanuReeves.png', 'Im_OrlandoBloom.png', 'Im_LeonardoDiCaprio.png', 'Im_GeorgeClooney.png', 'Im_RobertPattinson.png'],diff,1,1365.7566061999999,7,95.23809523809524,
ALRE2209,12,pos,60,pos60_id4_im15.bmp_pos60_id4_im7.bmp,['Im_RyanGosling.png', 'Im_PatrickDempsey.png', 'Im_BenStiller.png', 'Im_DanielCraig.png', 'Im_DanielRadcliffe.png', 'Im_KeanuReeves.png', 'Im_OrlandoBloom.png', 'Im_LeonardoDiCaprio.png', 'Im_GeorgeClooney.png', 'Im_RobertPattinson.png'],same,1,1370.5064513999998,8,95.23809523809524,
ALRE2209,12,pos,90,pos90_id5_im10.bmp_pos90_id5_im1.bmp,['Im_RyanGosling.png', 'Im_PatrickDempsey.png', 'Im_BenStiller.png', 'Im_DanielCraig.png', 'Im_DanielRadcliffe.png', 'Im_KeanuReeves.png', 'Im_OrlandoBloom.png', 'Im_LeonardoDiCaprio.png', 'Im_GeorgeClooney.png', 'Im_RobertPattinson.png'],same,1,1375.123314,9,95.23809523809524,
ALRE2209,12,pos,30,pos30_id20_im30.bmp_pos30_id20_im12.bmp,['Im_RyanGosling.png', 'Im_PatrickDempsey.png', 'Im_BenStiller.png', 'Im_DanielCraig.png', 'Im_DanielRadcliffe.png', 'Im_KeanuReeves.png', 'Im_OrlandoBloom.png', 'Im_LeonardoDiCaprio.png', 'Im_GeorgeClooney.png', 'Im_RobertPattinson.png'],same,1,1379.4401312,10,95.23809523809524,
ALRE2209,12,pos,30,pos30_id19_im8.bmp_pos30_id13_im10.bmp,['Im_RyanGosling.png', 'Im_PatrickDempsey.png', 'Im_BenStiller.png', 'Im_DanielCraig.png', 'Im_DanielRadcliffe.png', 'Im_KeanuReeves.png', 'Im_OrlandoBloom.png', 'Im_LeonardoDiCaprio.png', 'Im_GeorgeClooney.png', 'Im_RobertPattinson.png'],diff,1,1383.8732375,11,95.23809523809524,
ALRE2209,12,pos,120,pos120_id17_im8.bmp_pos120_id17_im14.bmp,['Im_RyanGosling.png', 'Im_PatrickDempsey.png', 'Im_BenStiller.png', 'Im_DanielCraig.png', 'Im_DanielRadcliffe.png', 'Im_KeanuReeves.png', 'Im_OrlandoBloom.png', 'Im_LeonardoDiCaprio.png', 'Im_GeorgeClooney.png', 'Im_RobertPattinson.png'],same,1,1388.1649579,12,95.23809523809524,
ALRE2209,12,pos,90,pos90_id19_im8.bmp_pos90_id19_im27.bmp,['Im_RyanGosling.png', 'Im_PatrickDempsey.png', 'Im_BenStiller.png', 'Im_DanielCraig.png', 'Im_DanielRadcliffe.png', 'Im_KeanuReeves.png', 'Im_OrlandoBloom.png', 'Im_LeonardoDiCaprio.png', 'Im_GeorgeClooney.png', 'Im_RobertPattinson.png'],same,1,1393.0065711,13,95.23809523809524,
ALRE2209,12,pos,0,pos0_id2_im3.bmp_pos0_id17_im14.bmp,['Im_RyanGosling.png', 'Im_PatrickDempsey.png', 'Im_BenStiller.png', 'Im_DanielCraig.png', 'Im_DanielRadcliffe.png', 'Im_KeanuReeves.png', 'Im_OrlandoBloom.png', 'Im_LeonardoDiCaprio.png', 'Im_GeorgeClooney.png', 'Im_RobertPattinson.png'],diff,1,1397.5482393999998,14,95.23809523809524,
ALRE2209,13,inv,30,pos30_id4_im7.bmp_pos30_id4_im15.bmp,['Im_RyanGosling.png', 'Im_PatrickDempsey.png', 'Im_BenStiller.png', 'Im_DanielCraig.png', 'Im_DanielRadcliffe.png', 'Im_KeanuReeves.png', 'Im_OrlandoBloom.png', 'Im_LeonardoDiCaprio.png', 'Im_GeorgeClooney.png', 'Im_RobertPattinson.png'],same,1,1405.8148393,15,95.23809523809524,
ALRE2209,13,inv,fs,posfs_id17_im14.bmp_posfs_id17_im9.bmp,['Im_RyanGosling.png', 'Im_PatrickDempsey.png', 'Im_BenStiller.png', 'Im_DanielCraig.png', 'Im_DanielRadcliffe.png', 'Im_KeanuReeves.png', 'Im_OrlandoBloom.png', 'Im_LeonardoDiCaprio.png', 'Im_GeorgeClooney.png', 'Im_RobertPattinson.png'],same,1,1410.6397236,16,95.23809523809524,
ALRE2209,13,inv,60,pos60_id20_im12.bmp_pos60_id20_im30.bmp,['Im_RyanGosling.png', 'Im_PatrickDempsey.png', 'Im_BenStiller.png', 'Im_DanielCraig.png', 'Im_DanielRadcliffe.png', 'Im_KeanuReeves.png', 'Im_OrlandoBloom.png', 'Im_LeonardoDiCaprio.png', 'Im_GeorgeClooney.png', 'Im_RobertPattinson.png'],same,1,1415.064744,17,95.23809523809524,
ALRE2209,13,inv,30,pos30_id4_im20.bmp_pos30_id4_im7.bmp,['Im_RyanGosling.png', 'Im_PatrickDempsey.png', 'Im_BenStiller.png', 'Im_DanielCraig.png', 'Im_DanielRadcliffe.png', 'Im_KeanuReeves.png', 'Im_OrlandoBloom.png', 'Im_LeonardoDiCaprio.png', 'Im_GeorgeClooney.png', 'Im_RobertPattinson.png'],diff,0,1420.2234793999999,17,95.23809523809524,
ALRE2209,13,inv,0,pos0_id19_im8.bmp_pos0_id13_im10.bmp,['Im_RyanGosling.png', 'Im_PatrickDempsey.png', 'Im_BenStiller.png', 'Im_DanielCraig.png', 'Im_DanielRadcliffe.png', 'Im_KeanuReeves.png', 'Im_OrlandoBloom.png', 'Im_LeonardoDiCaprio.png', 'Im_GeorgeClooney.png', 'Im_RobertPattinson.png'],same,0,1424.5149761,17,95.23809523809524,
ALRE2209,13,inv,150,pos150_id16_im2.bmp_pos150_id16_im19.bmp,['Im_RyanGosling.png', 'Im_PatrickDempsey.png', 'Im_BenStiller.png', 'Im_DanielCraig.png', 'Im_DanielRadcliffe.png', 'Im_KeanuReeves.png', 'Im_OrlandoBloom.png', 'Im_LeonardoDiCaprio.png', 'Im_GeorgeClooney.png', 'Im_RobertPattinson.png'],same,1,1428.8482167999998,18,95.23809523809524,
ALRE2209,13,inv,120,pos120_id7_im26.bmp_pos120_id7_im15.bmp,['Im_RyanGosling.png', 'Im_PatrickDempsey.png', 'Im_BenStiller.png', 'Im_DanielCraig.png', 'Im_DanielRadcliffe.png', 'Im_KeanuReeves.png', 'Im_OrlandoBloom.png', 'Im_LeonardoDiCaprio.png', 'Im_GeorgeClooney.png', 'Im_RobertPattinson.png'],same,1,1433.1063910999999,19,95.23809523809524,
ALRE2209,13,inv,90,pos90_id19_im27.bmp_pos90_id19_im4.bmp,['Im_RyanGosling.png', 'Im_PatrickDempsey.png', 'Im_BenStiller.png', 'Im_DanielCraig.png', 'Im_DanielRadcliffe.png', 'Im_KeanuReeves.png', 'Im_OrlandoBloom.png', 'Im_LeonardoDiCaprio.png', 'Im_GeorgeClooney.png', 'Im_RobertPattinson.png'],same,1,1437.8900277999999,20,95.23809523809524,
ALRE2209,13,inv,fs,posfs_id11_im2.bmp_posfs_id13_im29.bmp,['Im_RyanGosling.png', 'Im_PatrickDempsey.png', 'Im_BenStiller.png', 'Im_DanielCraig.png', 'Im_DanielRadcliffe.png', 'Im_KeanuReeves.png', 'Im_OrlandoBloom.png', 'Im_LeonardoDiCaprio.png', 'Im_GeorgeClooney.png', 'Im_RobertPattinson.png'],diff,1,1442.7900267,21,95.23809523809524,
ALRE2209,13,inv,150,pos150_id4_im7.bmp_pos150_id4_im20.bmp,['Im_RyanGosling.png', 'Im_PatrickDempsey.png', 'Im_BenStiller.png', 'Im_DanielCraig.png', 'Im_DanielRadcliffe.png', 'Im_KeanuReeves.png', 'Im_OrlandoBloom.png', 'Im_LeonardoDiCaprio.png', 'Im_GeorgeClooney.png', 'Im_RobertPattinson.png'],same,1,1447.806508,22,95.23809523809524,
ALRE2209,13,inv,90,pos90_id11_im1.bmp_pos90_id5_im1.bmp,['Im_RyanGosling.png', 'Im_PatrickDempsey.png', 'Im_BenStiller.png', 'Im_DanielCraig.png', 'Im_DanielRadcliffe.png', 'Im_KeanuReeves.png', 'Im_OrlandoBloom.png', 'Im_LeonardoDiCaprio.png', 'Im_GeorgeClooney.png', 'Im_RobertPattinson.png'],diff,1,1452.256477,23,95.23809523809524,
ALRE2209,13,inv,120,pos120_id17_im14.bmp_pos120_id17_im9.bmp,['Im_RyanGosling.png', 'Im_PatrickDempsey.png', 'Im_BenStiller.png', 'Im_DanielCraig.png', 'Im_DanielRadcliffe.png', 'Im_KeanuReeves.png', 'Im_OrlandoBloom.png', 'Im_LeonardoDiCaprio.png', 'Im_GeorgeClooney.png', 'Im_RobertPattinson.png'],diff,0,1457.6734122,23,95.23809523809524,
ALRE2209,13,inv,0,pos0_id5_im10.bmp_pos0_id5_im1.bmp,['Im_RyanGosling.png', 'Im_PatrickDempsey.png', 'Im_BenStiller.png', 'Im_DanielCraig.png', 'Im_DanielRadcliffe.png', 'Im_KeanuReeves.png', 'Im_OrlandoBloom.png', 'Im_LeonardoDiCaprio.png', 'Im_GeorgeClooney.png', 'Im_RobertPattinson.png'],same,1,1461.8648177,24,95.23809523809524,
ALRE2209,13,inv,60,pos60_id2_im16.bmp_pos60_id2_im3.bmp,['Im_RyanGosling.png', 'Im_PatrickDempsey.png', 'Im_BenStiller.png', 'Im_DanielCraig.png', 'Im_DanielRadcliffe.png', 'Im_KeanuReeves.png', 'Im_OrlandoBloom.png', 'Im_LeonardoDiCaprio.png', 'Im_GeorgeClooney.png', 'Im_RobertPattinson.png'],same,1,1467.3899293,25,95.23809523809524,
ALRE2209,14,neg,0,neg0_id20_im12.bmp_neg0_id16_im19.bmp,['Im_RyanGosling.png', 'Im_PatrickDempsey.png', 'Im_BenStiller.png', 'Im_DanielCraig.png', 'Im_DanielRadcliffe.png', 'Im_KeanuReeves.png', 'Im_OrlandoBloom.png', 'Im_LeonardoDiCaprio.png', 'Im_GeorgeClooney.png', 'Im_RobertPattinson.png'],diff,1,1475.5901142,26,95.23809523809524,
ALRE2209,14,neg,60,neg60_id20_im3.bmp_neg60_id5_im20.bmp,['Im_RyanGosling.png', 'Im_PatrickDempsey.png', 'Im_BenStiller.png', 'Im_DanielCraig.png', 'Im_DanielRadcliffe.png', 'Im_KeanuReeves.png', 'Im_OrlandoBloom.png', 'Im_LeonardoDiCaprio.png', 'Im_GeorgeClooney.png', 'Im_RobertPattinson.png'],diff,1,1480.2315225999998,27,95.23809523809524,
ALRE2209,14,neg,90,neg90_id16_im3.bmp_neg90_id7_im14.bmp,['Im_RyanGosling.png', 'Im_PatrickDempsey.png', 'Im_BenStiller.png', 'Im_DanielCraig.png', 'Im_DanielRadcliffe.png', 'Im_KeanuReeves.png', 'Im_OrlandoBloom.png', 'Im_LeonardoDiCaprio.png', 'Im_GeorgeClooney.png', 'Im_RobertPattinson.png'],diff,1,1484.8897997,28,95.23809523809524,
ALRE2209,14,neg,90,neg90_id11_im10.bmp_neg90_id11_im2.bmp,['Im_RyanGosling.png', 'Im_PatrickDempsey.png', 'Im_BenStiller.png', 'Im_DanielCraig.png', 'Im_DanielRadcliffe.png', 'Im_KeanuReeves.png', 'Im_OrlandoBloom.png', 'Im_LeonardoDiCaprio.png', 'Im_GeorgeClooney.png', 'Im_RobertPattinson.png'],diff,0,1489.2317899999998,28,95.23809523809524,
ALRE2209,14,neg,120,neg120_id16_im3.bmp_neg120_id16_im2.bmp,['Im_RyanGosling.png', 'Im_PatrickDempsey.png', 'Im_BenStiller.png', 'Im_DanielCraig.png', 'Im_DanielRadcliffe.png', 'Im_KeanuReeves.png', 'Im_OrlandoBloom.png', 'Im_LeonardoDiCaprio.png', 'Im_GeorgeClooney.png', 'Im_RobertPattinson.png'],same,1,1493.4563168,29,95.23809523809524,
ALRE2209,14,neg,60,neg60_id2_im16.bmp_neg60_id2_im3.bmp,['Im_RyanGosling.png', 'Im_PatrickDempsey.png', 'Im_BenStiller.png', 'Im_DanielCraig.png', 'Im_DanielRadcliffe.png', 'Im_KeanuReeves.png', 'Im_OrlandoBloom.png', 'Im_LeonardoDiCaprio.png', 'Im_GeorgeClooney.png', 'Im_RobertPattinson.png'],same,1,1497.6818309,30,95.23809523809524,
ALRE2209,14,neg,150,neg150_id13_im10.bmp_neg150_id13_im15.bmp,['Im_RyanGosling.png', 'Im_PatrickDempsey.png', 'Im_BenStiller.png', 'Im_DanielCraig.png', 'Im_DanielRadcliffe.png', 'Im_KeanuReeves.png', 'Im_OrlandoBloom.png', 'Im_LeonardoDiCaprio.png', 'Im_GeorgeClooney.png', 'Im_RobertPattinson.png'],same,1,1501.8982334999998,31,95.23809523809524,
ALRE2209,14,neg,30,neg30_id4_im7.bmp_neg30_id17_im8.bmp,['Im_RyanGosling.png', 'Im_PatrickDempsey.png', 'Im_BenStiller.png', 'Im_DanielCraig.png', 'Im_DanielRadcliffe.png', 'Im_KeanuReeves.png', 'Im_OrlandoBloom.png', 'Im_LeonardoDiCaprio.png', 'Im_GeorgeClooney.png', 'Im_RobertPattinson.png'],diff,1,1506.4314978,32,95.23809523809524,
ALRE2209,14,neg,0,neg0_id11_im1.bmp_neg0_id11_im10.bmp,['Im_RyanGosling.png', 'Im_PatrickDempsey.png', 'Im_BenStiller.png', 'Im_DanielCraig.png', 'Im_DanielRadcliffe.png', 'Im_KeanuReeves.png', 'Im_OrlandoBloom.png', 'Im_LeonardoDiCaprio.png', 'Im_GeorgeClooney.png', 'Im_RobertPattinson.png'],same,1,1511.6399298,33,95.23809523809524,
ALRE2209,14,neg,120,neg120_id2_im3.bmp_neg120_id2_im16.bmp,['Im_RyanGosling.png', 'Im_PatrickDempsey.png', 'Im_BenStiller.png', 'Im_DanielCraig.png', 'Im_DanielRadcliffe.png', 'Im_KeanuReeves.png', 'Im_OrlandoBloom.png', 'Im_LeonardoDiCaprio.png', 'Im_GeorgeClooney.png', 'Im_RobertPattinson.png'],same,1,1516.0397686,34,95.23809523809524,
ALRE2209,14,neg,fs,negfs_id7_im14.bmp_negfs_id7_im26.bmp,['Im_RyanGosling.png', 'Im_PatrickDempsey.png', 'Im_BenStiller.png', 'Im_DanielCraig.png', 'Im_DanielRadcliffe.png', 'Im_KeanuReeves.png', 'Im_OrlandoBloom.png', 'Im_LeonardoDiCaprio.png', 'Im_GeorgeClooney.png', 'Im_RobertPattinson.png'],same,1,1520.1480281,35,95.23809523809524,
ALRE2209,14,neg,fs,negfs_id17_im8.bmp_negfs_id17_im9.bmp,['Im_RyanGosling.png', 'Im_PatrickDempsey.png', 'Im_BenStiller.png', 'Im_DanielCraig.png', 'Im_DanielRadcliffe.png', 'Im_KeanuReeves.png', 'Im_OrlandoBloom.png', 'Im_LeonardoDiCaprio.png', 'Im_GeorgeClooney.png', 'Im_RobertPattinson.png'],same,1,1524.3148750999999,36,95.23809523809524,
ALRE2209,14,neg,30,neg30_id16_im3.bmp_neg30_id16_im19.bmp,['Im_RyanGosling.png', 'Im_PatrickDempsey.png', 'Im_BenStiller.png', 'Im_DanielCraig.png', 'Im_DanielRadcliffe.png', 'Im_KeanuReeves.png', 'Im_OrlandoBloom.png', 'Im_LeonardoDiCaprio.png', 'Im_GeorgeClooney.png', 'Im_RobertPattinson.png'],same,1,1528.5814225,37,95.23809523809524,
ALRE2209,14,neg,150,neg150_id5_im20.bmp_neg150_id20_im3.bmp,['Im_RyanGosling.png', 'Im_PatrickDempsey.png', 'Im_BenStiller.png', 'Im_DanielCraig.png', 'Im_DanielRadcliffe.png', 'Im_KeanuReeves.png', 'Im_OrlandoBloom.png', 'Im_LeonardoDiCaprio.png', 'Im_GeorgeClooney.png', 'Im_RobertPattinson.png'],diff,1,1533.0482614,38,95.23809523809524,
ALRE2209,15,pos,150,pos150_id2_im2.bmp_pos150_id11_im10.bmp,['Im_RyanGosling.png', 'Im_PatrickDempsey.png', 'Im_BenStiller.png', 'Im_DanielCraig.png', 'Im_DanielRadcliffe.png', 'Im_KeanuReeves.png', 'Im_OrlandoBloom.png', 'Im_LeonardoDiCaprio.png', 'Im_GeorgeClooney.png', 'Im_RobertPattinson.png'],diff,1,1549.5565411999999,1,90.47619047619048,
ALRE2209,15,pos,60,pos60_id17_im14.bmp_pos60_id17_im8.bmp,['Im_RyanGosling.png', 'Im_PatrickDempsey.png', 'Im_BenStiller.png', 'Im_DanielCraig.png', 'Im_DanielRadcliffe.png', 'Im_KeanuReeves.png', 'Im_OrlandoBloom.png', 'Im_LeonardoDiCaprio.png', 'Im_GeorgeClooney.png', 'Im_RobertPattinson.png'],same,1,1554.0481020999998,2,90.47619047619048,
