Sujet,Trial,Condition,Filter,Imname,Actor0,Actor1,Actor2,Actor3,Actor4,Actor5,Actor6,Actor7,Actor8,Actor9,Answer,Accu,RT,Score,Scoreperc
ALRE2209,train,inv,fs,posfs_id2_im3.bmp_posfs_id7_im26.bmp,['Im_RobertPattinson.png', 'Im_DanielRadcliffe.png', 'Im_OrlandoBloom.png', 'Im_KeanuReeves.png', 'Im_BenStiller.png', 'Im_PatrickDempsey.png', 'Im_GeorgeClooney.png', 'Im_LeonardoDiCaprio.png', 'Im_DanielCraig.png', 'Im_RyanGosling.png'],diff,1,110.36349129999871,1,0
ALRE2209,train,inv,60,pos60_id17_im9.bmp_pos60_id17_im8.bmp,['Im_RobertPattinson.png', 'Im_DanielRadcliffe.png', 'Im_OrlandoBloom.png', 'Im_KeanuReeves.png', 'Im_BenStiller.png', 'Im_PatrickDempsey.png', 'Im_GeorgeClooney.png', 'Im_LeonardoDiCaprio.png', 'Im_DanielCraig.png', 'Im_RyanGosling.png'],diff,0,114.34681890000138,1,0
ALRE2209,train,inv,90,pos90_id4_im7.bmp_pos90_id17_im9.bmp,['Im_RobertPattinson.png', 'Im_DanielRadcliffe.png', 'Im_OrlandoBloom.png', 'Im_KeanuReeves.png', 'Im_BenStiller.png', 'Im_PatrickDempsey.png', 'Im_GeorgeClooney.png', 'Im_LeonardoDiCaprio.png', 'Im_DanielCraig.png', 'Im_RyanGosling.png'],diff,1,118.14693800000168,2,0
ALRE2209,train,inv,120,pos120_id17_im14.bmp_pos120_id2_im3.bmp,['Im_RobertPattinson.png', 'Im_DanielRadcliffe.png', 'Im_OrlandoBloom.png', 'Im_KeanuReeves.png', 'Im_BenStiller.png', 'Im_PatrickDempsey.png', 'Im_GeorgeClooney.png', 'Im_LeonardoDiCaprio.png', 'Im_DanielCraig.png', 'Im_RyanGosling.png'],same,0,125.72201150000183,2,0
ALRE2209,train,inv,0,pos0_id20_im30.bmp_pos0_id20_im12.bmp,['Im_RobertPattinson.png', 'Im_DanielRadcliffe.png', 'Im_OrlandoBloom.png', 'Im_KeanuReeves.png', 'Im_BenStiller.png', 'Im_PatrickDempsey.png', 'Im_GeorgeClooney.png', 'Im_LeonardoDiCaprio.png', 'Im_DanielCraig.png', 'Im_RyanGosling.png'],same,1,129.46381029999975,3,0
ALRE2209,train,inv,60,pos60_id2_im2.bmp_pos60_id2_im16.bmp,['Im_RobertPattinson.png', 'Im_DanielRadcliffe.png', 'Im_OrlandoBloom.png', 'Im_KeanuReeves.png', 'Im_BenStiller.png', 'Im_PatrickDempsey.png', 'Im_GeorgeClooney.png', 'Im_LeonardoDiCaprio.png', 'Im_DanielCraig.png', 'Im_RyanGosling.png'],diff,0,133.51371149999977,3,0
ALRE2209,train,inv,30,pos30_id5_im1.bmp_pos30_id5_im20.bmp,['Im_RobertPattinson.png', 'Im_DanielRadcliffe.png', 'Im_OrlandoBloom.png', 'Im_KeanuReeves.png', 'Im_BenStiller.png', 'Im_PatrickDempsey.png', 'Im_GeorgeClooney.png', 'Im_LeonardoDiCaprio.png', 'Im_DanielCraig.png', 'Im_RyanGosling.png'],diff,0,137.10515260000102,3,0
ALRE2209,train,inv,fs,posfs_id16_im3.bmp_posfs_id16_im19.bmp,['Im_RobertPattinson.png', 'Im_DanielRadcliffe.png', 'Im_OrlandoBloom.png', 'Im_KeanuReeves.png', 'Im_BenStiller.png', 'Im_PatrickDempsey.png', 'Im_GeorgeClooney.png', 'Im_LeonardoDiCaprio.png', 'Im_DanielCraig.png', 'Im_RyanGosling.png'],diff,0,142.08846320000157,3,0
ALRE2209,train,inv,150,pos150_id11_im1.bmp_pos150_id5_im1.bmp,['Im_RobertPattinson.png', 'Im_DanielRadcliffe.png', 'Im_OrlandoBloom.png', 'Im_KeanuReeves.png', 'Im_BenStiller.png', 'Im_PatrickDempsey.png', 'Im_GeorgeClooney.png', 'Im_LeonardoDiCaprio.png', 'Im_DanielCraig.png', 'Im_RyanGosling.png'],diff,1,147.10519629999908,4,0
ALRE2209,train,inv,30,pos30_id11_im2.bmp_pos30_id11_im10.bmp,['Im_RobertPattinson.png', 'Im_DanielRadcliffe.png', 'Im_OrlandoBloom.png', 'Im_KeanuReeves.png', 'Im_BenStiller.png', 'Im_PatrickDempsey.png', 'Im_GeorgeClooney.png', 'Im_LeonardoDiCaprio.png', 'Im_DanielCraig.png', 'Im_RyanGosling.png'],same,1,151.50514889999977,5,0
ALRE2209,train,inv,120,pos120_id2_im2.bmp_pos120_id11_im10.bmp,['Im_RobertPattinson.png', 'Im_DanielRadcliffe.png', 'Im_OrlandoBloom.png', 'Im_KeanuReeves.png', 'Im_BenStiller.png', 'Im_PatrickDempsey.png', 'Im_GeorgeClooney.png', 'Im_LeonardoDiCaprio.png', 'Im_DanielCraig.png', 'Im_RyanGosling.png'],diff,1,155.6803007999988,6,0
ALRE2209,train,inv,90,pos90_id5_im10.bmp_pos90_id5_im20.bmp,['Im_RobertPattinson.png', 'Im_DanielRadcliffe.png', 'Im_OrlandoBloom.png', 'Im_KeanuReeves.png', 'Im_BenStiller.png', 'Im_PatrickDempsey.png', 'Im_GeorgeClooney.png', 'Im_LeonardoDiCaprio.png', 'Im_DanielCraig.png', 'Im_RyanGosling.png'],same,1,162.52195840000059,7,0
ALRE2209,train,inv,150,pos150_id7_im14.bmp_pos150_id4_im20.bmp,['Im_RobertPattinson.png', 'Im_DanielRadcliffe.png', 'Im_OrlandoBloom.png', 'Im_KeanuReeves.png', 'Im_BenStiller.png', 'Im_PatrickDempsey.png', 'Im_GeorgeClooney.png', 'Im_LeonardoDiCaprio.png', 'Im_DanielCraig.png', 'Im_RyanGosling.png'],diff,1,166.57215189999988,8,0
ALRE2209,train,inv,0,pos0_id13_im29.bmp_pos0_id13_im15.bmp,['Im_RobertPattinson.png', 'Im_DanielRadcliffe.png', 'Im_OrlandoBloom.png', 'Im_KeanuReeves.png', 'Im_BenStiller.png', 'Im_PatrickDempsey.png', 'Im_GeorgeClooney.png', 'Im_LeonardoDiCaprio.png', 'Im_DanielCraig.png', 'Im_RyanGosling.png'],diff,0,172.4804452999997,8,0
ALRE2209,train,pos,0,pos0_id17_im8.bmp_pos0_id11_im10.bmp,['Im_RobertPattinson.png', 'Im_DanielRadcliffe.png', 'Im_OrlandoBloom.png', 'Im_KeanuReeves.png', 'Im_BenStiller.png', 'Im_PatrickDempsey.png', 'Im_GeorgeClooney.png', 'Im_LeonardoDiCaprio.png', 'Im_DanielCraig.png', 'Im_RyanGosling.png'],same,0,176.56367500000124,8,0
ALRE2209,train,pos,90,pos90_id5_im20.bmp_pos90_id5_im10.bmp,['Im_RobertPattinson.png', 'Im_DanielRadcliffe.png', 'Im_OrlandoBloom.png', 'Im_KeanuReeves.png', 'Im_BenStiller.png', 'Im_PatrickDempsey.png', 'Im_GeorgeClooney.png', 'Im_LeonardoDiCaprio.png', 'Im_DanielCraig.png', 'Im_RyanGosling.png'],same,1,180.61352249999982,9,0
ALRE2209,train,pos,fs,posfs_id19_im4.bmp_posfs_id19_im8.bmp,['Im_RobertPattinson.png', 'Im_DanielRadcliffe.png', 'Im_OrlandoBloom.png', 'Im_KeanuReeves.png', 'Im_BenStiller.png', 'Im_PatrickDempsey.png', 'Im_GeorgeClooney.png', 'Im_LeonardoDiCaprio.png', 'Im_DanielCraig.png', 'Im_RyanGosling.png'],same,1,188.78833440000017,10,0
ALRE2209,train,pos,60,pos60_id4_im20.bmp_pos60_id20_im30.bmp,['Im_RobertPattinson.png', 'Im_DanielRadcliffe.png', 'Im_OrlandoBloom.png', 'Im_KeanuReeves.png', 'Im_BenStiller.png', 'Im_PatrickDempsey.png', 'Im_GeorgeClooney.png', 'Im_LeonardoDiCaprio.png', 'Im_DanielCraig.png', 'Im_RyanGosling.png'],diff,1,193.65521349999835,11,0
ALRE2209,train,pos,30,pos30_id11_im2.bmp_pos30_id13_im29.bmp,['Im_RobertPattinson.png', 'Im_DanielRadcliffe.png', 'Im_OrlandoBloom.png', 'Im_KeanuReeves.png', 'Im_BenStiller.png', 'Im_PatrickDempsey.png', 'Im_GeorgeClooney.png', 'Im_LeonardoDiCaprio.png', 'Im_DanielCraig.png', 'Im_RyanGosling.png'],diff,1,197.40520630000174,12,0
ALRE2209,train,pos,90,pos90_id17_im14.bmp_pos90_id13_im15.bmp,['Im_RobertPattinson.png', 'Im_DanielRadcliffe.png', 'Im_OrlandoBloom.png', 'Im_KeanuReeves.png', 'Im_BenStiller.png', 'Im_PatrickDempsey.png', 'Im_GeorgeClooney.png', 'Im_LeonardoDiCaprio.png', 'Im_DanielCraig.png', 'Im_RyanGosling.png'],diff,1,201.83823009999833,13,0
ALRE2209,train,pos,30,pos30_id16_im3.bmp_pos30_id16_im2.bmp,['Im_RobertPattinson.png', 'Im_DanielRadcliffe.png', 'Im_OrlandoBloom.png', 'Im_KeanuReeves.png', 'Im_BenStiller.png', 'Im_PatrickDempsey.png', 'Im_GeorgeClooney.png', 'Im_LeonardoDiCaprio.png', 'Im_DanielCraig.png', 'Im_RyanGosling.png'],same,1,206.33848760000183,14,0
ALRE2209,train,pos,fs,posfs_id2_im16.bmp_posfs_id13_im29.bmp,['Im_RobertPattinson.png', 'Im_DanielRadcliffe.png', 'Im_OrlandoBloom.png', 'Im_KeanuReeves.png', 'Im_BenStiller.png', 'Im_PatrickDempsey.png', 'Im_GeorgeClooney.png', 'Im_LeonardoDiCaprio.png', 'Im_DanielCraig.png', 'Im_RyanGosling.png'],diff,1,210.3967999000015,15,0
ALRE2209,train,pos,150,pos150_id16_im3.bmp_pos150_id16_im19.bmp,['Im_RobertPattinson.png', 'Im_DanielRadcliffe.png', 'Im_OrlandoBloom.png', 'Im_KeanuReeves.png', 'Im_BenStiller.png', 'Im_PatrickDempsey.png', 'Im_GeorgeClooney.png', 'Im_LeonardoDiCaprio.png', 'Im_DanielCraig.png', 'Im_RyanGosling.png'],same,1,214.57150909999837,16,0
ALRE2209,train,pos,60,pos60_id7_im15.bmp_pos60_id7_im26.bmp,['Im_RobertPattinson.png', 'Im_DanielRadcliffe.png', 'Im_OrlandoBloom.png', 'Im_KeanuReeves.png', 'Im_BenStiller.png', 'Im_PatrickDempsey.png', 'Im_GeorgeClooney.png', 'Im_LeonardoDiCaprio.png', 'Im_DanielCraig.png', 'Im_RyanGosling.png'],same,1,218.20488710000063,17,0
ALRE2209,train,pos,0,pos0_id19_im27.bmp_pos0_id19_im4.bmp,['Im_RobertPattinson.png', 'Im_DanielRadcliffe.png', 'Im_OrlandoBloom.png', 'Im_KeanuReeves.png', 'Im_BenStiller.png', 'Im_PatrickDempsey.png', 'Im_GeorgeClooney.png', 'Im_LeonardoDiCaprio.png', 'Im_DanielCraig.png', 'Im_RyanGosling.png'],same,1,221.93016989999887,18,0
ALRE2209,train,pos,150,pos150_id19_im8.bmp_pos150_id19_im4.bmp,['Im_RobertPattinson.png', 'Im_DanielRadcliffe.png', 'Im_OrlandoBloom.png', 'Im_KeanuReeves.png', 'Im_BenStiller.png', 'Im_PatrickDempsey.png', 'Im_GeorgeClooney.png', 'Im_LeonardoDiCaprio.png', 'Im_DanielCraig.png', 'Im_RyanGosling.png'],same,1,226.72994860000108,19,0
ALRE2209,train,pos,120,pos120_id11_im2.bmp_pos120_id13_im29.bmp,['Im_RobertPattinson.png', 'Im_DanielRadcliffe.png', 'Im_OrlandoBloom.png', 'Im_KeanuReeves.png', 'Im_BenStiller.png', 'Im_PatrickDempsey.png', 'Im_GeorgeClooney.png', 'Im_LeonardoDiCaprio.png', 'Im_DanielCraig.png', 'Im_RyanGosling.png'],diff,1,230.47161160000178,20,0
ALRE2209,train,pos,120,pos120_id5_im1.bmp_pos120_id5_im10.bmp,['Im_RobertPattinson.png', 'Im_DanielRadcliffe.png', 'Im_OrlandoBloom.png', 'Im_KeanuReeves.png', 'Im_BenStiller.png', 'Im_PatrickDempsey.png', 'Im_GeorgeClooney.png', 'Im_LeonardoDiCaprio.png', 'Im_DanielCraig.png', 'Im_RyanGosling.png'],same,1,236.2221243999993,21,0
ALRE2209,train,pos,fs,posfs_id20_im12.bmp_posfs_id16_im19.bmp,['Im_RobertPattinson.png', 'Im_DanielRadcliffe.png', 'Im_OrlandoBloom.png', 'Im_KeanuReeves.png', 'Im_BenStiller.png', 'Im_PatrickDempsey.png', 'Im_GeorgeClooney.png', 'Im_LeonardoDiCaprio.png', 'Im_DanielCraig.png', 'Im_RyanGosling.png'],diff,1,239.85541530000046,22,0
ALRE2209,train,pos,0,pos0_id13_im10.bmp_pos0_id13_im15.bmp,['Im_RobertPattinson.png', 'Im_DanielRadcliffe.png', 'Im_OrlandoBloom.png', 'Im_KeanuReeves.png', 'Im_BenStiller.png', 'Im_PatrickDempsey.png', 'Im_GeorgeClooney.png', 'Im_LeonardoDiCaprio.png', 'Im_DanielCraig.png', 'Im_RyanGosling.png'],same,1,243.65531610000107,23,0
ALRE2209,train,pos,120,pos120_id13_im15.bmp_pos120_id17_im14.bmp,['Im_RobertPattinson.png', 'Im_DanielRadcliffe.png', 'Im_OrlandoBloom.png', 'Im_KeanuReeves.png', 'Im_BenStiller.png', 'Im_PatrickDempsey.png', 'Im_GeorgeClooney.png', 'Im_LeonardoDiCaprio.png', 'Im_DanielCraig.png', 'Im_RyanGosling.png'],diff,1,247.53023100000064,24,0
ALRE2209,train,pos,0,pos0_id16_im3.bmp_pos0_id16_im19.bmp,['Im_RobertPattinson.png', 'Im_DanielRadcliffe.png', 'Im_OrlandoBloom.png', 'Im_KeanuReeves.png', 'Im_BenStiller.png', 'Im_PatrickDempsey.png', 'Im_GeorgeClooney.png', 'Im_LeonardoDiCaprio.png', 'Im_DanielCraig.png', 'Im_RyanGosling.png'],same,1,251.29655959999945,25,0
ALRE2209,train,pos,60,pos60_id4_im7.bmp_pos60_id4_im20.bmp,['Im_RobertPattinson.png', 'Im_DanielRadcliffe.png', 'Im_OrlandoBloom.png', 'Im_KeanuReeves.png', 'Im_BenStiller.png', 'Im_PatrickDempsey.png', 'Im_GeorgeClooney.png', 'Im_LeonardoDiCaprio.png', 'Im_DanielCraig.png', 'Im_RyanGosling.png'],same,1,255.53864650000105,26,0
ALRE2209,train,pos,120,pos120_id5_im20.bmp_pos120_id5_im10.bmp,['Im_RobertPattinson.png', 'Im_DanielRadcliffe.png', 'Im_OrlandoBloom.png', 'Im_KeanuReeves.png', 'Im_BenStiller.png', 'Im_PatrickDempsey.png', 'Im_GeorgeClooney.png', 'Im_LeonardoDiCaprio.png', 'Im_DanielCraig.png', 'Im_RyanGosling.png'],same,1,260.105288499999,27,0
ALRE2209,train,pos,150,pos150_id7_im26.bmp_pos150_id7_im14.bmp,['Im_RobertPattinson.png', 'Im_DanielRadcliffe.png', 'Im_OrlandoBloom.png', 'Im_KeanuReeves.png', 'Im_BenStiller.png', 'Im_PatrickDempsey.png', 'Im_GeorgeClooney.png', 'Im_LeonardoDiCaprio.png', 'Im_DanielCraig.png', 'Im_RyanGosling.png'],same,1,264.14664679999987,28,0
ALRE2209,train,pos,60,pos60_id2_im2.bmp_pos60_id11_im10.bmp,['Im_RobertPattinson.png', 'Im_DanielRadcliffe.png', 'Im_OrlandoBloom.png', 'Im_KeanuReeves.png', 'Im_BenStiller.png', 'Im_PatrickDempsey.png', 'Im_GeorgeClooney.png', 'Im_LeonardoDiCaprio.png', 'Im_DanielCraig.png', 'Im_RyanGosling.png'],diff,1,268.18012570000064,29,0
ALRE2209,train,pos,150,pos150_id11_im2.bmp_pos150_id20_im30.bmp,['Im_RobertPattinson.png', 'Im_DanielRadcliffe.png', 'Im_OrlandoBloom.png', 'Im_KeanuReeves.png', 'Im_BenStiller.png', 'Im_PatrickDempsey.png', 'Im_GeorgeClooney.png', 'Im_LeonardoDiCaprio.png', 'Im_DanielCraig.png', 'Im_RyanGosling.png'],diff,1,272.1469509999988,30,0
ALRE2209,train,pos,90,pos90_id17_im8.bmp_pos90_id17_im14.bmp,['Im_RobertPattinson.png', 'Im_DanielRadcliffe.png', 'Im_OrlandoBloom.png', 'Im_KeanuReeves.png', 'Im_BenStiller.png', 'Im_PatrickDempsey.png', 'Im_GeorgeClooney.png', 'Im_LeonardoDiCaprio.png', 'Im_DanielCraig.png', 'Im_RyanGosling.png'],diff,0,277.13000699999975,30,0
ALRE2209,train,pos,30,pos30_id16_im19.bmp_pos30_id16_im2.bmp,['Im_RobertPattinson.png', 'Im_DanielRadcliffe.png', 'Im_OrlandoBloom.png', 'Im_KeanuReeves.png', 'Im_BenStiller.png', 'Im_PatrickDempsey.png', 'Im_GeorgeClooney.png', 'Im_LeonardoDiCaprio.png', 'Im_DanielCraig.png', 'Im_RyanGosling.png'],same,1,280.96348370000123,31,0
ALRE2209,train,pos,90,pos90_id11_im2.bmp_pos90_id11_im1.bmp,['Im_RobertPattinson.png', 'Im_DanielRadcliffe.png', 'Im_OrlandoBloom.png', 'Im_KeanuReeves.png', 'Im_BenStiller.png', 'Im_PatrickDempsey.png', 'Im_GeorgeClooney.png', 'Im_LeonardoDiCaprio.png', 'Im_DanielCraig.png', 'Im_RyanGosling.png'],diff,0,284.7799168999991,31,0
ALRE2209,train,pos,30,pos30_id11_im10.bmp_pos30_id11_im1.bmp,['Im_RobertPattinson.png', 'Im_DanielRadcliffe.png', 'Im_OrlandoBloom.png', 'Im_KeanuReeves.png', 'Im_BenStiller.png', 'Im_PatrickDempsey.png', 'Im_GeorgeClooney.png', 'Im_LeonardoDiCaprio.png', 'Im_DanielCraig.png', 'Im_RyanGosling.png'],same,1,288.7636710000006,32,0
ALRE2209,train,pos,fs,posfs_id13_im10.bmp_posfs_id13_im29.bmp,['Im_RobertPattinson.png', 'Im_DanielRadcliffe.png', 'Im_OrlandoBloom.png', 'Im_KeanuReeves.png', 'Im_BenStiller.png', 'Im_PatrickDempsey.png', 'Im_GeorgeClooney.png', 'Im_LeonardoDiCaprio.png', 'Im_DanielCraig.png', 'Im_RyanGosling.png'],same,1,292.9719379999988,33,0
ALRE2209,train,neg,0,neg0_id20_im3.bmp_neg0_id20_im30.bmp,['Im_RobertPattinson.png', 'Im_DanielRadcliffe.png', 'Im_OrlandoBloom.png', 'Im_KeanuReeves.png', 'Im_BenStiller.png', 'Im_PatrickDempsey.png', 'Im_GeorgeClooney.png', 'Im_LeonardoDiCaprio.png', 'Im_DanielCraig.png', 'Im_RyanGosling.png'],same,1,302.2302144999994,1,78.57142857142857
ALRE2209,train,neg,90,neg90_id11_im1.bmp_neg90_id2_im16.bmp,['Im_RobertPattinson.png', 'Im_DanielRadcliffe.png', 'Im_OrlandoBloom.png', 'Im_KeanuReeves.png', 'Im_BenStiller.png', 'Im_PatrickDempsey.png', 'Im_GeorgeClooney.png', 'Im_LeonardoDiCaprio.png', 'Im_DanielCraig.png', 'Im_RyanGosling.png'],same,0,307.5885573000014,1,78.57142857142857
ALRE2209,train,neg,60,neg60_id17_im14.bmp_neg60_id13_im15.bmp,['Im_RobertPattinson.png', 'Im_DanielRadcliffe.png', 'Im_OrlandoBloom.png', 'Im_KeanuReeves.png', 'Im_BenStiller.png', 'Im_PatrickDempsey.png', 'Im_GeorgeClooney.png', 'Im_LeonardoDiCaprio.png', 'Im_DanielCraig.png', 'Im_RyanGosling.png'],diff,1,312.2384404000004,2,78.57142857142857
ALRE2209,train,neg,30,neg30_id20_im30.bmp_neg30_id11_im2.bmp,['Im_RobertPattinson.png', 'Im_DanielRadcliffe.png', 'Im_OrlandoBloom.png', 'Im_KeanuReeves.png', 'Im_BenStiller.png', 'Im_PatrickDempsey.png', 'Im_GeorgeClooney.png', 'Im_LeonardoDiCaprio.png', 'Im_DanielCraig.png', 'Im_RyanGosling.png'],same,0,316.39673680000124,2,78.57142857142857
ALRE2209,train,neg,60,neg60_id5_im1.bmp_neg60_id5_im10.bmp,['Im_RobertPattinson.png', 'Im_DanielRadcliffe.png', 'Im_OrlandoBloom.png', 'Im_KeanuReeves.png', 'Im_BenStiller.png', 'Im_PatrickDempsey.png', 'Im_GeorgeClooney.png', 'Im_LeonardoDiCaprio.png', 'Im_DanielCraig.png', 'Im_RyanGosling.png'],same,1,319.96327640000163,3,78.57142857142857
ALRE2209,train,neg,120,neg120_id11_im1.bmp_neg120_id5_im1.bmp,['Im_RobertPattinson.png', 'Im_DanielRadcliffe.png', 'Im_OrlandoBloom.png', 'Im_KeanuReeves.png', 'Im_BenStiller.png', 'Im_PatrickDempsey.png', 'Im_GeorgeClooney.png', 'Im_LeonardoDiCaprio.png', 'Im_DanielCraig.png', 'Im_RyanGosling.png'],same,0,323.9716637999991,3,78.57142857142857
ALRE2209,train,neg,120,neg120_id17_im8.bmp_neg120_id4_im7.bmp,['Im_RobertPattinson.png', 'Im_DanielRadcliffe.png', 'Im_OrlandoBloom.png', 'Im_KeanuReeves.png', 'Im_BenStiller.png', 'Im_PatrickDempsey.png', 'Im_GeorgeClooney.png', 'Im_LeonardoDiCaprio.png', 'Im_DanielCraig.png', 'Im_RyanGosling.png'],diff,1,329.73865490000026,4,78.57142857142857
ALRE2209,train,neg,fs,negfs_id5_im1.bmp_negfs_id11_im1.bmp,['Im_RobertPattinson.png', 'Im_DanielRadcliffe.png', 'Im_OrlandoBloom.png', 'Im_KeanuReeves.png', 'Im_BenStiller.png', 'Im_PatrickDempsey.png', 'Im_GeorgeClooney.png', 'Im_LeonardoDiCaprio.png', 'Im_DanielCraig.png', 'Im_RyanGosling.png'],diff,1,333.8053594999983,5,78.57142857142857
ALRE2209,train,neg,90,neg90_id16_im2.bmp_neg90_id16_im3.bmp,['Im_RobertPattinson.png', 'Im_DanielRadcliffe.png', 'Im_OrlandoBloom.png', 'Im_KeanuReeves.png', 'Im_BenStiller.png', 'Im_PatrickDempsey.png', 'Im_GeorgeClooney.png', 'Im_LeonardoDiCaprio.png', 'Im_DanielCraig.png', 'Im_RyanGosling.png'],diff,0,338.43051470000137,5,78.57142857142857
ALRE2209,train,neg,fs,negfs_id2_im2.bmp_negfs_id2_im3.bmp,['Im_RobertPattinson.png', 'Im_DanielRadcliffe.png', 'Im_OrlandoBloom.png', 'Im_KeanuReeves.png', 'Im_BenStiller.png', 'Im_PatrickDempsey.png', 'Im_GeorgeClooney.png', 'Im_LeonardoDiCaprio.png', 'Im_DanielCraig.png', 'Im_RyanGosling.png'],diff,0,342.58873569999923,5,78.57142857142857
ALRE2209,train,neg,30,neg30_id11_im2.bmp_neg30_id11_im10.bmp,['Im_RobertPattinson.png', 'Im_DanielRadcliffe.png', 'Im_OrlandoBloom.png', 'Im_KeanuReeves.png', 'Im_BenStiller.png', 'Im_PatrickDempsey.png', 'Im_GeorgeClooney.png', 'Im_LeonardoDiCaprio.png', 'Im_DanielCraig.png', 'Im_RyanGosling.png'],diff,0,346.85544899999877,5,78.57142857142857
ALRE2209,train,neg,150,neg150_id5_im20.bmp_neg150_id16_im19.bmp,['Im_RobertPattinson.png', 'Im_DanielRadcliffe.png', 'Im_OrlandoBloom.png', 'Im_KeanuReeves.png', 'Im_BenStiller.png', 'Im_PatrickDempsey.png', 'Im_GeorgeClooney.png', 'Im_LeonardoDiCaprio.png', 'Im_DanielCraig.png', 'Im_RyanGosling.png'],diff,1,351.87183780000123,6,78.57142857142857
ALRE2209,train,neg,150,neg150_id19_im8.bmp_neg150_id19_im4.bmp,['Im_RobertPattinson.png', 'Im_DanielRadcliffe.png', 'Im_OrlandoBloom.png', 'Im_KeanuReeves.png', 'Im_BenStiller.png', 'Im_PatrickDempsey.png', 'Im_GeorgeClooney.png', 'Im_LeonardoDiCaprio.png', 'Im_DanielCraig.png', 'Im_RyanGosling.png'],same,1,355.73865840000144,7,78.57142857142857
ALRE2209,train,neg,0,neg0_id11_im2.bmp_neg0_id11_im1.bmp,['Im_RobertPattinson.png', 'Im_DanielRadcliffe.png', 'Im_OrlandoBloom.png', 'Im_KeanuReeves.png', 'Im_BenStiller.png', 'Im_PatrickDempsey.png', 'Im_GeorgeClooney.png', 'Im_LeonardoDiCaprio.png', 'Im_DanielCraig.png', 'Im_RyanGosling.png'],same,1,359.8971547000001,8,78.57142857142857
ALRE2209,train,inv,90,pos90_id17_im8.bmp_pos90_id4_im7.bmp,['Im_RobertPattinson.png', 'Im_DanielRadcliffe.png', 'Im_OrlandoBloom.png', 'Im_KeanuReeves.png', 'Im_BenStiller.png', 'Im_PatrickDempsey.png', 'Im_GeorgeClooney.png', 'Im_LeonardoDiCaprio.png', 'Im_DanielCraig.png', 'Im_RyanGosling.png'],same,0,363.7886341000012,8,78.57142857142857
ALRE2209,train,inv,30,pos30_id2_im16.bmp_pos30_id13_im29.bmp,['Im_RobertPattinson.png', 'Im_DanielRadcliffe.png', 'Im_OrlandoBloom.png', 'Im_KeanuReeves.png', 'Im_BenStiller.png', 'Im_PatrickDempsey.png', 'Im_GeorgeClooney.png', 'Im_LeonardoDiCaprio.png', 'Im_DanielCraig.png', 'Im_RyanGosling.png'],diff,1,368.3718179999996,9,78.57142857142857
ALRE2209,train,inv,120,pos120_id19_im8.bmp_pos120_id19_im27.bmp,['Im_RobertPattinson.png', 'Im_DanielRadcliffe.png', 'Im_OrlandoBloom.png', 'Im_KeanuReeves.png', 'Im_BenStiller.png', 'Im_PatrickDempsey.png', 'Im_GeorgeClooney.png', 'Im_LeonardoDiCaprio.png', 'Im_DanielCraig.png', 'Im_RyanGosling.png'],same,1,372.45514130000083,10,78.57142857142857
ALRE2209,train,inv,fs,posfs_id17_im8.bmp_posfs_id17_im14.bmp,['Im_RobertPattinson.png', 'Im_DanielRadcliffe.png', 'Im_OrlandoBloom.png', 'Im_KeanuReeves.png', 'Im_BenStiller.png', 'Im_PatrickDempsey.png', 'Im_GeorgeClooney.png', 'Im_LeonardoDiCaprio.png', 'Im_DanielCraig.png', 'Im_RyanGosling.png'],same,1,377.1633796999995,11,78.57142857142857
ALRE2209,train,inv,90,pos90_id5_im10.bmp_pos90_id20_im3.bmp,['Im_RobertPattinson.png', 'Im_DanielRadcliffe.png', 'Im_OrlandoBloom.png', 'Im_KeanuReeves.png', 'Im_BenStiller.png', 'Im_PatrickDempsey.png', 'Im_GeorgeClooney.png', 'Im_LeonardoDiCaprio.png', 'Im_DanielCraig.png', 'Im_RyanGosling.png'],diff,1,381.28014130000156,12,78.57142857142857
ALRE2209,train,inv,150,pos150_id19_im4.bmp_pos150_id19_im8.bmp,['Im_RobertPattinson.png', 'Im_DanielRadcliffe.png', 'Im_OrlandoBloom.png', 'Im_KeanuReeves.png', 'Im_BenStiller.png', 'Im_PatrickDempsey.png', 'Im_GeorgeClooney.png', 'Im_LeonardoDiCaprio.png', 'Im_DanielCraig.png', 'Im_RyanGosling.png'],same,1,385.8137788999993,13,78.57142857142857
ALRE2209,train,inv,0,pos0_id7_im26.bmp_pos0_id19_im4.bmp,['Im_RobertPattinson.png', 'Im_DanielRadcliffe.png', 'Im_OrlandoBloom.png', 'Im_KeanuReeves.png', 'Im_BenStiller.png', 'Im_PatrickDempsey.png', 'Im_GeorgeClooney.png', 'Im_LeonardoDiCaprio.png', 'Im_DanielCraig.png', 'Im_RyanGosling.png'],same,0,390.1055440000018,13,78.57142857142857
ALRE2209,train,inv,30,pos30_id13_im15.bmp_pos30_id13_im29.bmp,['Im_RobertPattinson.png', 'Im_DanielRadcliffe.png', 'Im_OrlandoBloom.png', 'Im_KeanuReeves.png', 'Im_BenStiller.png', 'Im_PatrickDempsey.png', 'Im_GeorgeClooney.png', 'Im_LeonardoDiCaprio.png', 'Im_DanielCraig.png', 'Im_RyanGosling.png'],diff,0,394.21335629999885,13,78.57142857142857
ALRE2209,train,inv,fs,posfs_id7_im26.bmp_posfs_id7_im15.bmp,['Im_RobertPattinson.png', 'Im_DanielRadcliffe.png', 'Im_OrlandoBloom.png', 'Im_KeanuReeves.png', 'Im_BenStiller.png', 'Im_PatrickDempsey.png', 'Im_GeorgeClooney.png', 'Im_LeonardoDiCaprio.png', 'Im_DanielCraig.png', 'Im_RyanGosling.png'],same,1,398.15533399999913,14,78.57142857142857
ALRE2209,train,inv,60,pos60_id4_im7.bmp_pos60_id17_im8.bmp,['Im_RobertPattinson.png', 'Im_DanielRadcliffe.png', 'Im_OrlandoBloom.png', 'Im_KeanuReeves.png', 'Im_BenStiller.png', 'Im_PatrickDempsey.png', 'Im_GeorgeClooney.png', 'Im_LeonardoDiCaprio.png', 'Im_DanielCraig.png', 'Im_RyanGosling.png'],diff,1,402.85525829999824,15,78.57142857142857
ALRE2209,train,inv,150,pos150_id16_im3.bmp_pos150_id7_im14.bmp,['Im_RobertPattinson.png', 'Im_DanielRadcliffe.png', 'Im_OrlandoBloom.png', 'Im_KeanuReeves.png', 'Im_BenStiller.png', 'Im_PatrickDempsey.png', 'Im_GeorgeClooney.png', 'Im_LeonardoDiCaprio.png', 'Im_DanielCraig.png', 'Im_RyanGosling.png'],diff,1,406.85513020000144,16,78.57142857142857
ALRE2209,train,inv,60,pos60_id2_im2.bmp_pos60_id2_im3.bmp,['Im_RobertPattinson.png', 'Im_DanielRadcliffe.png', 'Im_OrlandoBloom.png', 'Im_KeanuReeves.png', 'Im_BenStiller.png', 'Im_PatrickDempsey.png', 'Im_GeorgeClooney.png', 'Im_LeonardoDiCaprio.png', 'Im_DanielCraig.png', 'Im_RyanGosling.png'],diff,0,411.2471065999998,16,78.57142857142857
ALRE2209,train,inv,0,pos0_id4_im20.bmp_pos0_id7_im14.bmp,['Im_RobertPattinson.png', 'Im_DanielRadcliffe.png', 'Im_OrlandoBloom.png', 'Im_KeanuReeves.png', 'Im_BenStiller.png', 'Im_PatrickDempsey.png', 'Im_GeorgeClooney.png', 'Im_LeonardoDiCaprio.png', 'Im_DanielCraig.png', 'Im_RyanGosling.png'],same,0,415.7720135999989,16,78.57142857142857
ALRE2209,train,inv,120,pos120_id13_im29.bmp_pos120_id2_im16.bmp,['Im_RobertPattinson.png', 'Im_DanielRadcliffe.png', 'Im_OrlandoBloom.png', 'Im_KeanuReeves.png', 'Im_BenStiller.png', 'Im_PatrickDempsey.png', 'Im_GeorgeClooney.png', 'Im_LeonardoDiCaprio.png', 'Im_DanielCraig.png', 'Im_RyanGosling.png'],same,0,420.8052935000014,16,78.57142857142857
ALRE2209,train,neg,0,neg0_id5_im1.bmp_neg0_id5_im10.bmp,['Im_RobertPattinson.png', 'Im_DanielRadcliffe.png', 'Im_OrlandoBloom.png', 'Im_KeanuReeves.png', 'Im_BenStiller.png', 'Im_PatrickDempsey.png', 'Im_GeorgeClooney.png', 'Im_LeonardoDiCaprio.png', 'Im_DanielCraig.png', 'Im_RyanGosling.png'],same,1,425.22189179999987,17,78.57142857142857
ALRE2209,train,neg,60,neg60_id11_im10.bmp_neg60_id11_im2.bmp,['Im_RobertPattinson.png', 'Im_DanielRadcliffe.png', 'Im_OrlandoBloom.png', 'Im_KeanuReeves.png', 'Im_BenStiller.png', 'Im_PatrickDempsey.png', 'Im_GeorgeClooney.png', 'Im_LeonardoDiCaprio.png', 'Im_DanielCraig.png', 'Im_RyanGosling.png'],same,1,429.5886157999994,18,78.57142857142857
ALRE2209,train,neg,150,neg150_id11_im2.bmp_neg150_id11_im10.bmp,['Im_RobertPattinson.png', 'Im_DanielRadcliffe.png', 'Im_OrlandoBloom.png', 'Im_KeanuReeves.png', 'Im_BenStiller.png', 'Im_PatrickDempsey.png', 'Im_GeorgeClooney.png', 'Im_LeonardoDiCaprio.png', 'Im_DanielCraig.png', 'Im_RyanGosling.png'],same,1,433.8552708999996,19,78.57142857142857
ALRE2209,train,neg,fs,negfs_id4_im20.bmp_negfs_id4_im7.bmp,['Im_RobertPattinson.png', 'Im_DanielRadcliffe.png', 'Im_OrlandoBloom.png', 'Im_KeanuReeves.png', 'Im_BenStiller.png', 'Im_PatrickDempsey.png', 'Im_GeorgeClooney.png', 'Im_LeonardoDiCaprio.png', 'Im_DanielCraig.png', 'Im_RyanGosling.png'],same,1,437.5886243999994,20,78.57142857142857
ALRE2209,train,neg,30,neg30_id20_im3.bmp_neg30_id5_im20.bmp,['Im_RobertPattinson.png', 'Im_DanielRadcliffe.png', 'Im_OrlandoBloom.png', 'Im_KeanuReeves.png', 'Im_BenStiller.png', 'Im_PatrickDempsey.png', 'Im_GeorgeClooney.png', 'Im_LeonardoDiCaprio.png', 'Im_DanielCraig.png', 'Im_RyanGosling.png'],diff,1,443.17221699999936,21,78.57142857142857
ALRE2209,train,neg,90,neg90_id20_im12.bmp_neg90_id7_im15.bmp,['Im_RobertPattinson.png', 'Im_DanielRadcliffe.png', 'Im_OrlandoBloom.png', 'Im_KeanuReeves.png', 'Im_BenStiller.png', 'Im_PatrickDempsey.png', 'Im_GeorgeClooney.png', 'Im_LeonardoDiCaprio.png', 'Im_DanielCraig.png', 'Im_RyanGosling.png'],diff,1,447.31385800000135,22,78.57142857142857
ALRE2209,train,neg,120,neg120_id19_im8.bmp_neg120_id16_im3.bmp,['Im_RobertPattinson.png', 'Im_DanielRadcliffe.png', 'Im_OrlandoBloom.png', 'Im_KeanuReeves.png', 'Im_BenStiller.png', 'Im_PatrickDempsey.png', 'Im_GeorgeClooney.png', 'Im_LeonardoDiCaprio.png', 'Im_DanielCraig.png', 'Im_RyanGosling.png'],same,0,451.3134725000018,22,78.57142857142857
ALRE2209,train,neg,90,neg90_id11_im2.bmp_neg90_id13_im29.bmp,['Im_RobertPattinson.png', 'Im_DanielRadcliffe.png', 'Im_OrlandoBloom.png', 'Im_KeanuReeves.png', 'Im_BenStiller.png', 'Im_PatrickDempsey.png', 'Im_GeorgeClooney.png', 'Im_LeonardoDiCaprio.png', 'Im_DanielCraig.png', 'Im_RyanGosling.png'],diff,1,455.69706700000097,23,78.57142857142857
ALRE2209,train,neg,fs,negfs_id5_im20.bmp_negfs_id20_im3.bmp,['Im_RobertPattinson.png', 'Im_DanielRadcliffe.png', 'Im_OrlandoBloom.png', 'Im_KeanuReeves.png', 'Im_BenStiller.png', 'Im_PatrickDempsey.png', 'Im_GeorgeClooney.png', 'Im_LeonardoDiCaprio.png', 'Im_DanielCraig.png', 'Im_RyanGosling.png'],diff,1,460.1384653999994,24,78.57142857142857
ALRE2209,train,neg,150,neg150_id7_im14.bmp_neg150_id7_im26.bmp,['Im_RobertPattinson.png', 'Im_DanielRadcliffe.png', 'Im_OrlandoBloom.png', 'Im_KeanuReeves.png', 'Im_BenStiller.png', 'Im_PatrickDempsey.png', 'Im_GeorgeClooney.png', 'Im_LeonardoDiCaprio.png', 'Im_DanielCraig.png', 'Im_RyanGosling.png'],diff,0,464.3140996000002,24,78.57142857142857
ALRE2209,train,neg,30,neg30_id19_im27.bmp_neg30_id19_im8.bmp,['Im_RobertPattinson.png', 'Im_DanielRadcliffe.png', 'Im_OrlandoBloom.png', 'Im_KeanuReeves.png', 'Im_BenStiller.png', 'Im_PatrickDempsey.png', 'Im_GeorgeClooney.png', 'Im_LeonardoDiCaprio.png', 'Im_DanielCraig.png', 'Im_RyanGosling.png'],same,1,468.73043830000097,25,78.57142857142857
ALRE2209,train,neg,0,neg0_id17_im9.bmp_neg0_id17_im8.bmp,['Im_RobertPattinson.png', 'Im_DanielRadcliffe.png', 'Im_OrlandoBloom.png', 'Im_KeanuReeves.png', 'Im_BenStiller.png', 'Im_PatrickDempsey.png', 'Im_GeorgeClooney.png', 'Im_LeonardoDiCaprio.png', 'Im_DanielCraig.png', 'Im_RyanGosling.png'],diff,0,473.18850849999944,25,78.57142857142857
ALRE2209,train,neg,120,neg120_id13_im29.bmp_neg120_id13_im15.bmp,['Im_RobertPattinson.png', 'Im_DanielRadcliffe.png', 'Im_OrlandoBloom.png', 'Im_KeanuReeves.png', 'Im_BenStiller.png', 'Im_PatrickDempsey.png', 'Im_GeorgeClooney.png', 'Im_LeonardoDiCaprio.png', 'Im_DanielCraig.png', 'Im_RyanGosling.png'],same,1,476.87205840000024,26,78.57142857142857
ALRE2209,train,neg,60,neg60_id5_im20.bmp_neg60_id5_im10.bmp,['Im_RobertPattinson.png', 'Im_DanielRadcliffe.png', 'Im_OrlandoBloom.png', 'Im_KeanuReeves.png', 'Im_BenStiller.png', 'Im_PatrickDempsey.png', 'Im_GeorgeClooney.png', 'Im_LeonardoDiCaprio.png', 'Im_DanielCraig.png', 'Im_RyanGosling.png'],same,1,480.8553299000014,27,78.57142857142857
ALRE2209,train,inv,150,pos150_id2_im2.bmp_pos150_id17_im9.bmp,['Im_RobertPattinson.png', 'Im_DanielRadcliffe.png', 'Im_OrlandoBloom.png', 'Im_KeanuReeves.png', 'Im_BenStiller.png', 'Im_PatrickDempsey.png', 'Im_GeorgeClooney.png', 'Im_LeonardoDiCaprio.png', 'Im_DanielCraig.png', 'Im_RyanGosling.png'],diff,1,488.76355010000043,1,64.28571428571429
ALRE2209,train,inv,fs,posfs_id5_im1.bmp_posfs_id5_im10.bmp,['Im_RobertPattinson.png', 'Im_DanielRadcliffe.png', 'Im_OrlandoBloom.png', 'Im_KeanuReeves.png', 'Im_BenStiller.png', 'Im_PatrickDempsey.png', 'Im_GeorgeClooney.png', 'Im_LeonardoDiCaprio.png', 'Im_DanielCraig.png', 'Im_RyanGosling.png'],same,1,492.63876660000096,2,64.28571428571429
ALRE2209,train,inv,60,pos60_id2_im2.bmp_pos60_id17_im9.bmp,['Im_RobertPattinson.png', 'Im_DanielRadcliffe.png', 'Im_OrlandoBloom.png', 'Im_KeanuReeves.png', 'Im_BenStiller.png', 'Im_PatrickDempsey.png', 'Im_GeorgeClooney.png', 'Im_LeonardoDiCaprio.png', 'Im_DanielCraig.png', 'Im_RyanGosling.png'],diff,1,496.7306949999984,3,64.28571428571429
ALRE2209,train,inv,30,pos30_id17_im9.bmp_pos30_id17_im14.bmp,['Im_RobertPattinson.png', 'Im_DanielRadcliffe.png', 'Im_OrlandoBloom.png', 'Im_KeanuReeves.png', 'Im_BenStiller.png', 'Im_PatrickDempsey.png', 'Im_GeorgeClooney.png', 'Im_LeonardoDiCaprio.png', 'Im_DanielCraig.png', 'Im_RyanGosling.png'],same,1,501.3304571000008,4,64.28571428571429
ALRE2209,train,inv,150,pos150_id5_im10.bmp_pos150_id16_im2.bmp,['Im_RobertPattinson.png', 'Im_DanielRadcliffe.png', 'Im_OrlandoBloom.png', 'Im_KeanuReeves.png', 'Im_BenStiller.png', 'Im_PatrickDempsey.png', 'Im_GeorgeClooney.png', 'Im_LeonardoDiCaprio.png', 'Im_DanielCraig.png', 'Im_RyanGosling.png'],diff,1,505.93870869999955,5,64.28571428571429
ALRE2209,train,inv,0,pos0_id17_im14.bmp_pos0_id17_im8.bmp,['Im_RobertPattinson.png', 'Im_DanielRadcliffe.png', 'Im_OrlandoBloom.png', 'Im_KeanuReeves.png', 'Im_BenStiller.png', 'Im_PatrickDempsey.png', 'Im_GeorgeClooney.png', 'Im_LeonardoDiCaprio.png', 'Im_DanielCraig.png', 'Im_RyanGosling.png'],same,1,510.3970216000016,6,64.28571428571429
ALRE2209,train,inv,120,pos120_id17_im9.bmp_pos120_id2_im2.bmp,['Im_RobertPattinson.png', 'Im_DanielRadcliffe.png', 'Im_OrlandoBloom.png', 'Im_KeanuReeves.png', 'Im_BenStiller.png', 'Im_PatrickDempsey.png', 'Im_GeorgeClooney.png', 'Im_LeonardoDiCaprio.png', 'Im_DanielCraig.png', 'Im_RyanGosling.png'],diff,1,514.6636810999989,7,64.28571428571429
ALRE2209,train,inv,60,pos60_id16_im3.bmp_pos60_id16_im2.bmp,['Im_RobertPattinson.png', 'Im_DanielRadcliffe.png', 'Im_OrlandoBloom.png', 'Im_KeanuReeves.png', 'Im_BenStiller.png', 'Im_PatrickDempsey.png', 'Im_GeorgeClooney.png', 'Im_LeonardoDiCaprio.png', 'Im_DanielCraig.png', 'Im_RyanGosling.png'],same,1,519.6137610000005,8,64.28571428571429
ALRE2209,train,inv,90,pos90_id13_im29.bmp_pos90_id13_im15.bmp,['Im_RobertPattinson.png', 'Im_DanielRadcliffe.png', 'Im_OrlandoBloom.png', 'Im_KeanuReeves.png', 'Im_BenStiller.png', 'Im_PatrickDempsey.png', 'Im_GeorgeClooney.png', 'Im_LeonardoDiCaprio.png', 'Im_DanielCraig.png', 'Im_RyanGosling.png'],same,1,524.455571800001,9,64.28571428571429
ALRE2209,train,inv,90,pos90_id4_im20.bmp_pos90_id4_im15.bmp,['Im_RobertPattinson.png', 'Im_DanielRadcliffe.png', 'Im_OrlandoBloom.png', 'Im_KeanuReeves.png', 'Im_BenStiller.png', 'Im_PatrickDempsey.png', 'Im_GeorgeClooney.png', 'Im_LeonardoDiCaprio.png', 'Im_DanielCraig.png', 'Im_RyanGosling.png'],same,1,528.4889269000014,10,64.28571428571429
ALRE2209,train,inv,0,pos0_id4_im7.bmp_pos0_id4_im20.bmp,['Im_RobertPattinson.png', 'Im_DanielRadcliffe.png', 'Im_OrlandoBloom.png', 'Im_KeanuReeves.png', 'Im_BenStiller.png', 'Im_PatrickDempsey.png', 'Im_GeorgeClooney.png', 'Im_LeonardoDiCaprio.png', 'Im_DanielCraig.png', 'Im_RyanGosling.png'],same,1,532.7470434999996,11,64.28571428571429
ALRE2209,train,inv,fs,posfs_id2_im2.bmp_posfs_id11_im10.bmp,['Im_RobertPattinson.png', 'Im_DanielRadcliffe.png', 'Im_OrlandoBloom.png', 'Im_KeanuReeves.png', 'Im_BenStiller.png', 'Im_PatrickDempsey.png', 'Im_GeorgeClooney.png', 'Im_LeonardoDiCaprio.png', 'Im_DanielCraig.png', 'Im_RyanGosling.png'],diff,1,537.6386907000015,12,64.28571428571429
ALRE2209,train,inv,120,pos120_id16_im3.bmp_pos120_id7_im14.bmp,['Im_RobertPattinson.png', 'Im_DanielRadcliffe.png', 'Im_OrlandoBloom.png', 'Im_KeanuReeves.png', 'Im_BenStiller.png', 'Im_PatrickDempsey.png', 'Im_GeorgeClooney.png', 'Im_LeonardoDiCaprio.png', 'Im_DanielCraig.png', 'Im_RyanGosling.png'],diff,1,541.7969506000009,13,64.28571428571429
ALRE2209,train,inv,30,pos30_id7_im26.bmp_pos30_id2_im3.bmp,['Im_RobertPattinson.png', 'Im_DanielRadcliffe.png', 'Im_OrlandoBloom.png', 'Im_KeanuReeves.png', 'Im_BenStiller.png', 'Im_PatrickDempsey.png', 'Im_GeorgeClooney.png', 'Im_LeonardoDiCaprio.png', 'Im_DanielCraig.png', 'Im_RyanGosling.png'],same,0,545.7637727000001,13,64.28571428571429
ALRE2209,train,pos,fs,posfs_id7_im15.bmp_posfs_id20_im12.bmp,['Im_RobertPattinson.png', 'Im_DanielRadcliffe.png', 'Im_OrlandoBloom.png', 'Im_KeanuReeves.png', 'Im_BenStiller.png', 'Im_PatrickDempsey.png', 'Im_GeorgeClooney.png', 'Im_LeonardoDiCaprio.png', 'Im_DanielCraig.png', 'Im_RyanGosling.png'],diff,1,549.5552590000007,14,64.28571428571429
ALRE2209,train,pos,30,pos30_id5_im10.bmp_pos30_id16_im2.bmp,['Im_RobertPattinson.png', 'Im_DanielRadcliffe.png', 'Im_OrlandoBloom.png', 'Im_KeanuReeves.png', 'Im_BenStiller.png', 'Im_PatrickDempsey.png', 'Im_GeorgeClooney.png', 'Im_LeonardoDiCaprio.png', 'Im_DanielCraig.png', 'Im_RyanGosling.png'],diff,1,553.2887440000013,15,64.28571428571429
ALRE2209,train,pos,0,pos0_id16_im2.bmp_pos0_id13_im10.bmp,['Im_RobertPattinson.png', 'Im_DanielRadcliffe.png', 'Im_OrlandoBloom.png', 'Im_KeanuReeves.png', 'Im_BenStiller.png', 'Im_PatrickDempsey.png', 'Im_GeorgeClooney.png', 'Im_LeonardoDiCaprio.png', 'Im_DanielCraig.png', 'Im_RyanGosling.png'],diff,1,557.5970808999991,16,64.28571428571429
ALRE2209,train,pos,fs,posfs_id17_im14.bmp_posfs_id17_im9.bmp,['Im_RobertPattinson.png', 'Im_DanielRadcliffe.png', 'Im_OrlandoBloom.png', 'Im_KeanuReeves.png', 'Im_BenStiller.png', 'Im_PatrickDempsey.png', 'Im_GeorgeClooney.png', 'Im_LeonardoDiCaprio.png', 'Im_DanielCraig.png', 'Im_RyanGosling.png'],same,1,561.8387868999998,17,64.28571428571429
ALRE2209,train,pos,150,pos150_id4_im15.bmp_pos150_id19_im27.bmp,['Im_RobertPattinson.png', 'Im_DanielRadcliffe.png', 'Im_OrlandoBloom.png', 'Im_KeanuReeves.png', 'Im_BenStiller.png', 'Im_PatrickDempsey.png', 'Im_GeorgeClooney.png', 'Im_LeonardoDiCaprio.png', 'Im_DanielCraig.png', 'Im_RyanGosling.png'],diff,1,566.0888006999994,18,64.28571428571429
ALRE2209,train,pos,150,pos150_id4_im15.bmp_pos150_id5_im1.bmp,['Im_RobertPattinson.png', 'Im_DanielRadcliffe.png', 'Im_OrlandoBloom.png', 'Im_KeanuReeves.png', 'Im_BenStiller.png', 'Im_PatrickDempsey.png', 'Im_GeorgeClooney.png', 'Im_LeonardoDiCaprio.png', 'Im_DanielCraig.png', 'Im_RyanGosling.png'],diff,1,569.9222697000005,19,64.28571428571429
ALRE2209,train,pos,60,pos60_id13_im10.bmp_pos60_id19_im8.bmp,['Im_RobertPattinson.png', 'Im_DanielRadcliffe.png', 'Im_OrlandoBloom.png', 'Im_KeanuReeves.png', 'Im_BenStiller.png', 'Im_PatrickDempsey.png', 'Im_GeorgeClooney.png', 'Im_LeonardoDiCaprio.png', 'Im_DanielCraig.png', 'Im_RyanGosling.png'],diff,1,574.1225169999998,20,64.28571428571429
ALRE2209,train,pos,0,pos0_id11_im10.bmp_pos0_id11_im2.bmp,['Im_RobertPattinson.png', 'Im_DanielRadcliffe.png', 'Im_OrlandoBloom.png', 'Im_KeanuReeves.png', 'Im_BenStiller.png', 'Im_PatrickDempsey.png', 'Im_GeorgeClooney.png', 'Im_LeonardoDiCaprio.png', 'Im_DanielCraig.png', 'Im_RyanGosling.png'],same,1,578.2471674000008,21,64.28571428571429
ALRE2209,train,pos,60,pos60_id20_im30.bmp_pos60_id20_im12.bmp,['Im_RobertPattinson.png', 'Im_DanielRadcliffe.png', 'Im_OrlandoBloom.png', 'Im_KeanuReeves.png', 'Im_BenStiller.png', 'Im_PatrickDempsey.png', 'Im_GeorgeClooney.png', 'Im_LeonardoDiCaprio.png', 'Im_DanielCraig.png', 'Im_RyanGosling.png'],same,1,582.2557180000003,22,64.28571428571429
ALRE2209,train,pos,90,pos90_id2_im2.bmp_pos90_id11_im10.bmp,['Im_RobertPattinson.png', 'Im_DanielRadcliffe.png', 'Im_OrlandoBloom.png', 'Im_KeanuReeves.png', 'Im_BenStiller.png', 'Im_PatrickDempsey.png', 'Im_GeorgeClooney.png', 'Im_LeonardoDiCaprio.png', 'Im_DanielCraig.png', 'Im_RyanGosling.png'],same,0,588.5803715000002,22,64.28571428571429
ALRE2209,train,pos,90,pos90_id16_im2.bmp_pos90_id16_im3.bmp,['Im_RobertPattinson.png', 'Im_DanielRadcliffe.png', 'Im_OrlandoBloom.png', 'Im_KeanuReeves.png', 'Im_BenStiller.png', 'Im_PatrickDempsey.png', 'Im_GeorgeClooney.png', 'Im_LeonardoDiCaprio.png', 'Im_DanielCraig.png', 'Im_RyanGosling.png'],same,1,592.2971604999984,23,64.28571428571429
ALRE2209,train,pos,30,pos30_id4_im7.bmp_pos30_id17_im9.bmp,['Im_RobertPattinson.png', 'Im_DanielRadcliffe.png', 'Im_OrlandoBloom.png', 'Im_KeanuReeves.png', 'Im_BenStiller.png', 'Im_PatrickDempsey.png', 'Im_GeorgeClooney.png', 'Im_LeonardoDiCaprio.png', 'Im_DanielCraig.png', 'Im_RyanGosling.png'],diff,1,596.7140657999989,24,64.28571428571429
ALRE2209,train,pos,120,pos120_id13_im10.bmp_pos120_id19_im8.bmp,['Im_RobertPattinson.png', 'Im_DanielRadcliffe.png', 'Im_OrlandoBloom.png', 'Im_KeanuReeves.png', 'Im_BenStiller.png', 'Im_PatrickDempsey.png', 'Im_GeorgeClooney.png', 'Im_LeonardoDiCaprio.png', 'Im_DanielCraig.png', 'Im_RyanGosling.png'],diff,1,600.8471444999996,25,64.28571428571429
ALRE2209,train,pos,120,pos120_id20_im30.bmp_pos120_id20_im3.bmp,['Im_RobertPattinson.png', 'Im_DanielRadcliffe.png', 'Im_OrlandoBloom.png', 'Im_KeanuReeves.png', 'Im_BenStiller.png', 'Im_PatrickDempsey.png', 'Im_GeorgeClooney.png', 'Im_LeonardoDiCaprio.png', 'Im_DanielCraig.png', 'Im_RyanGosling.png'],same,1,604.7473344999999,26,64.28571428571429
ALRE2209,train,neg,0,neg0_id2_im2.bmp_neg0_id17_im9.bmp,['Im_RobertPattinson.png', 'Im_DanielRadcliffe.png', 'Im_OrlandoBloom.png', 'Im_KeanuReeves.png', 'Im_BenStiller.png', 'Im_PatrickDempsey.png', 'Im_GeorgeClooney.png', 'Im_LeonardoDiCaprio.png', 'Im_DanielCraig.png', 'Im_RyanGosling.png'],diff,1,611.2640718000002,27,64.28571428571429
ALRE2209,train,neg,fs,negfs_id5_im10.bmp_negfs_id5_im20.bmp,['Im_RobertPattinson.png', 'Im_DanielRadcliffe.png', 'Im_OrlandoBloom.png', 'Im_KeanuReeves.png', 'Im_BenStiller.png', 'Im_PatrickDempsey.png', 'Im_GeorgeClooney.png', 'Im_LeonardoDiCaprio.png', 'Im_DanielCraig.png', 'Im_RyanGosling.png'],same,1,615.2470160000012,28,64.28571428571429
ALRE2209,train,neg,120,neg120_id7_im14.bmp_neg120_id7_im15.bmp,['Im_RobertPattinson.png', 'Im_DanielRadcliffe.png', 'Im_OrlandoBloom.png', 'Im_KeanuReeves.png', 'Im_BenStiller.png', 'Im_PatrickDempsey.png', 'Im_GeorgeClooney.png', 'Im_LeonardoDiCaprio.png', 'Im_DanielCraig.png', 'Im_RyanGosling.png'],same,1,619.5060497999984,29,64.28571428571429
ALRE2209,train,neg,60,neg60_id20_im12.bmp_neg60_id20_im30.bmp,['Im_RobertPattinson.png', 'Im_DanielRadcliffe.png', 'Im_OrlandoBloom.png', 'Im_KeanuReeves.png', 'Im_BenStiller.png', 'Im_PatrickDempsey.png', 'Im_GeorgeClooney.png', 'Im_LeonardoDiCaprio.png', 'Im_DanielCraig.png', 'Im_RyanGosling.png'],same,1,623.5889103000009,30,64.28571428571429
ALRE2209,train,neg,60,neg60_id11_im10.bmp_neg60_id11_im1.bmp,['Im_RobertPattinson.png', 'Im_DanielRadcliffe.png', 'Im_OrlandoBloom.png', 'Im_KeanuReeves.png', 'Im_BenStiller.png', 'Im_PatrickDempsey.png', 'Im_GeorgeClooney.png', 'Im_LeonardoDiCaprio.png', 'Im_DanielCraig.png', 'Im_RyanGosling.png'],same,1,627.6554840999997,31,64.28571428571429
ALRE2209,train,neg,90,neg90_id19_im4.bmp_neg90_id7_im26.bmp,['Im_RobertPattinson.png', 'Im_DanielRadcliffe.png', 'Im_OrlandoBloom.png', 'Im_KeanuReeves.png', 'Im_BenStiller.png', 'Im_PatrickDempsey.png', 'Im_GeorgeClooney.png', 'Im_LeonardoDiCaprio.png', 'Im_DanielCraig.png', 'Im_RyanGosling.png'],same,0,631.622439499999,31,64.28571428571429
ALRE2209,train,neg,90,neg90_id19_im27.bmp_neg90_id19_im4.bmp,['Im_RobertPattinson.png', 'Im_DanielRadcliffe.png', 'Im_OrlandoBloom.png', 'Im_KeanuReeves.png', 'Im_BenStiller.png', 'Im_PatrickDempsey.png', 'Im_GeorgeClooney.png', 'Im_LeonardoDiCaprio.png', 'Im_DanielCraig.png', 'Im_RyanGosling.png'],same,1,635.6303692000001,32,64.28571428571429
ALRE2209,train,neg,0,neg0_id2_im16.bmp_neg0_id2_im3.bmp,['Im_RobertPattinson.png', 'Im_DanielRadcliffe.png', 'Im_OrlandoBloom.png', 'Im_KeanuReeves.png', 'Im_BenStiller.png', 'Im_PatrickDempsey.png', 'Im_GeorgeClooney.png', 'Im_LeonardoDiCaprio.png', 'Im_DanielCraig.png', 'Im_RyanGosling.png'],same,1,639.3058786000001,33,64.28571428571429
ALRE2209,train,neg,150,neg150_id19_im27.bmp_neg150_id19_im4.bmp,['Im_RobertPattinson.png', 'Im_DanielRadcliffe.png', 'Im_OrlandoBloom.png', 'Im_KeanuReeves.png', 'Im_BenStiller.png', 'Im_PatrickDempsey.png', 'Im_GeorgeClooney.png', 'Im_LeonardoDiCaprio.png', 'Im_DanielCraig.png', 'Im_RyanGosling.png'],same,1,643.5056951000006,34,64.28571428571429
ALRE2209,train,neg,30,neg30_id17_im14.bmp_neg30_id17_im9.bmp,['Im_RobertPattinson.png', 'Im_DanielRadcliffe.png', 'Im_OrlandoBloom.png', 'Im_KeanuReeves.png', 'Im_BenStiller.png', 'Im_PatrickDempsey.png', 'Im_GeorgeClooney.png', 'Im_LeonardoDiCaprio.png', 'Im_DanielCraig.png', 'Im_RyanGosling.png'],same,1,647.9221791999989,35,64.28571428571429
ALRE2209,train,neg,150,neg150_id11_im10.bmp_neg150_id11_im1.bmp,['Im_RobertPattinson.png', 'Im_DanielRadcliffe.png', 'Im_OrlandoBloom.png', 'Im_KeanuReeves.png', 'Im_BenStiller.png', 'Im_PatrickDempsey.png', 'Im_GeorgeClooney.png', 'Im_LeonardoDiCaprio.png', 'Im_DanielCraig.png', 'Im_RyanGosling.png'],same,1,652.7226449000009,36,64.28571428571429
ALRE2209,train,neg,120,neg120_id20_im30.bmp_neg120_id20_im12.bmp,['Im_RobertPattinson.png', 'Im_DanielRadcliffe.png', 'Im_OrlandoBloom.png', 'Im_KeanuReeves.png', 'Im_BenStiller.png', 'Im_PatrickDempsey.png', 'Im_GeorgeClooney.png', 'Im_LeonardoDiCaprio.png', 'Im_DanielCraig.png', 'Im_RyanGosling.png'],same,1,656.422314200001,37,64.28571428571429
ALRE2209,train,neg,30,neg30_id7_im15.bmp_neg30_id20_im12.bmp,['Im_RobertPattinson.png', 'Im_DanielRadcliffe.png', 'Im_OrlandoBloom.png', 'Im_KeanuReeves.png', 'Im_BenStiller.png', 'Im_PatrickDempsey.png', 'Im_GeorgeClooney.png', 'Im_LeonardoDiCaprio.png', 'Im_DanielCraig.png', 'Im_RyanGosling.png'],diff,1,660.6724549999999,38,64.28571428571429
ALRE2209,train,neg,fs,negfs_id2_im2.bmp_negfs_id11_im10.bmp,['Im_RobertPattinson.png', 'Im_DanielRadcliffe.png', 'Im_OrlandoBloom.png', 'Im_KeanuReeves.png', 'Im_BenStiller.png', 'Im_PatrickDempsey.png', 'Im_GeorgeClooney.png', 'Im_LeonardoDiCaprio.png', 'Im_DanielCraig.png', 'Im_RyanGosling.png'],diff,1,664.6639538999989,39,64.28571428571429
ALRE2209,train,pos,150,pos150_id17_im8.bmp_pos150_id11_im10.bmp,['Im_RobertPattinson.png', 'Im_DanielRadcliffe.png', 'Im_OrlandoBloom.png', 'Im_KeanuReeves.png', 'Im_BenStiller.png', 'Im_PatrickDempsey.png', 'Im_GeorgeClooney.png', 'Im_LeonardoDiCaprio.png', 'Im_DanielCraig.png', 'Im_RyanGosling.png'],same,0,670.9475318000004,0,92.85714285714286
ALRE2209,train,pos,90,pos90_id19_im8.bmp_pos90_id16_im3.bmp,['Im_RobertPattinson.png', 'Im_DanielRadcliffe.png', 'Im_OrlandoBloom.png', 'Im_KeanuReeves.png', 'Im_BenStiller.png', 'Im_PatrickDempsey.png', 'Im_GeorgeClooney.png', 'Im_LeonardoDiCaprio.png', 'Im_DanielCraig.png', 'Im_RyanGosling.png'],diff,1,675.6221588000008,1,92.85714285714286
ALRE2209,train,pos,30,pos30_id20_im3.bmp_pos30_id5_im10.bmp,['Im_RobertPattinson.png', 'Im_DanielRadcliffe.png', 'Im_OrlandoBloom.png', 'Im_KeanuReeves.png', 'Im_BenStiller.png', 'Im_PatrickDempsey.png', 'Im_GeorgeClooney.png', 'Im_LeonardoDiCaprio.png', 'Im_DanielCraig.png', 'Im_RyanGosling.png'],diff,1,680.2808140999987,2,92.85714285714286
ALRE2209,train,pos,120,pos120_id4_im20.bmp_pos120_id7_im14.bmp,['Im_RobertPattinson.png', 'Im_DanielRadcliffe.png', 'Im_OrlandoBloom.png', 'Im_KeanuReeves.png', 'Im_BenStiller.png', 'Im_PatrickDempsey.png', 'Im_GeorgeClooney.png', 'Im_LeonardoDiCaprio.png', 'Im_DanielCraig.png', 'Im_RyanGosling.png'],diff,1,684.8806385999997,3,92.85714285714286
ALRE2209,train,pos,60,pos60_id2_im16.bmp_pos60_id13_im29.bmp,['Im_RobertPattinson.png', 'Im_DanielRadcliffe.png', 'Im_OrlandoBloom.png', 'Im_KeanuReeves.png', 'Im_BenStiller.png', 'Im_PatrickDempsey.png', 'Im_GeorgeClooney.png', 'Im_LeonardoDiCaprio.png', 'Im_DanielCraig.png', 'Im_RyanGosling.png'],diff,1,689.2972837999987,4,92.85714285714286
ALRE2209,train,pos,120,pos120_id4_im20.bmp_pos120_id4_im7.bmp,['Im_RobertPattinson.png', 'Im_DanielRadcliffe.png', 'Im_OrlandoBloom.png', 'Im_KeanuReeves.png', 'Im_BenStiller.png', 'Im_PatrickDempsey.png', 'Im_GeorgeClooney.png', 'Im_LeonardoDiCaprio.png', 'Im_DanielCraig.png', 'Im_RyanGosling.png'],same,1,693.0723266999994,5,92.85714285714286
ALRE2209,train,pos,60,pos60_id13_im29.bmp_pos60_id13_im10.bmp,['Im_RobertPattinson.png', 'Im_DanielRadcliffe.png', 'Im_OrlandoBloom.png', 'Im_KeanuReeves.png', 'Im_BenStiller.png', 'Im_PatrickDempsey.png', 'Im_GeorgeClooney.png', 'Im_LeonardoDiCaprio.png', 'Im_DanielCraig.png', 'Im_RyanGosling.png'],same,1,697.3223111000007,6,92.85714285714286
ALRE2209,train,pos,90,pos90_id7_im15.bmp_pos90_id7_im14.bmp,['Im_RobertPattinson.png', 'Im_DanielRadcliffe.png', 'Im_OrlandoBloom.png', 'Im_KeanuReeves.png', 'Im_BenStiller.png', 'Im_PatrickDempsey.png', 'Im_GeorgeClooney.png', 'Im_LeonardoDiCaprio.png', 'Im_DanielCraig.png', 'Im_RyanGosling.png'],same,1,701.8810587000007,7,92.85714285714286
ALRE2209,train,pos,150,pos150_id16_im2.bmp_pos150_id13_im10.bmp,['Im_RobertPattinson.png', 'Im_DanielRadcliffe.png', 'Im_OrlandoBloom.png', 'Im_KeanuReeves.png', 'Im_BenStiller.png', 'Im_PatrickDempsey.png', 'Im_GeorgeClooney.png', 'Im_LeonardoDiCaprio.png', 'Im_DanielCraig.png', 'Im_RyanGosling.png'],diff,1,707.1976547999984,8,92.85714285714286
ALRE2209,train,pos,0,pos0_id11_im1.bmp_pos0_id5_im1.bmp,['Im_RobertPattinson.png', 'Im_DanielRadcliffe.png', 'Im_OrlandoBloom.png', 'Im_KeanuReeves.png', 'Im_BenStiller.png', 'Im_PatrickDempsey.png', 'Im_GeorgeClooney.png', 'Im_LeonardoDiCaprio.png', 'Im_DanielCraig.png', 'Im_RyanGosling.png'],diff,1,711.1807264000017,9,92.85714285714286
ALRE2209,train,pos,30,pos30_id5_im20.bmp_pos30_id16_im19.bmp,['Im_RobertPattinson.png', 'Im_DanielRadcliffe.png', 'Im_OrlandoBloom.png', 'Im_KeanuReeves.png', 'Im_BenStiller.png', 'Im_PatrickDempsey.png', 'Im_GeorgeClooney.png', 'Im_LeonardoDiCaprio.png', 'Im_DanielCraig.png', 'Im_RyanGosling.png'],diff,1,715.1059658000013,10,92.85714285714286
ALRE2209,train,pos,fs,posfs_id11_im2.bmp_posfs_id13_im29.bmp,['Im_RobertPattinson.png', 'Im_DanielRadcliffe.png', 'Im_OrlandoBloom.png', 'Im_KeanuReeves.png', 'Im_BenStiller.png', 'Im_PatrickDempsey.png', 'Im_GeorgeClooney.png', 'Im_LeonardoDiCaprio.png', 'Im_DanielCraig.png', 'Im_RyanGosling.png'],diff,1,719.2643294000009,11,92.85714285714286
ALRE2209,train,pos,0,pos0_id19_im8.bmp_pos0_id19_im27.bmp,['Im_RobertPattinson.png', 'Im_DanielRadcliffe.png', 'Im_OrlandoBloom.png', 'Im_KeanuReeves.png', 'Im_BenStiller.png', 'Im_PatrickDempsey.png', 'Im_GeorgeClooney.png', 'Im_LeonardoDiCaprio.png', 'Im_DanielCraig.png', 'Im_RyanGosling.png'],same,1,723.6471829000002,12,92.85714285714286
ALRE2209,train,pos,fs,posfs_id13_im29.bmp_posfs_id13_im15.bmp,['Im_RobertPattinson.png', 'Im_DanielRadcliffe.png', 'Im_OrlandoBloom.png', 'Im_KeanuReeves.png', 'Im_BenStiller.png', 'Im_PatrickDempsey.png', 'Im_GeorgeClooney.png', 'Im_LeonardoDiCaprio.png', 'Im_DanielCraig.png', 'Im_RyanGosling.png'],same,1,727.5391952999998,13,92.85714285714286
ALRE2209,train,inv,150,pos150_id20_im12.bmp_pos150_id7_im15.bmp,['Im_RobertPattinson.png', 'Im_DanielRadcliffe.png', 'Im_OrlandoBloom.png', 'Im_KeanuReeves.png', 'Im_BenStiller.png', 'Im_PatrickDempsey.png', 'Im_GeorgeClooney.png', 'Im_LeonardoDiCaprio.png', 'Im_DanielCraig.png', 'Im_RyanGosling.png'],diff,1,731.7640433999986,14,92.85714285714286
ALRE2209,train,inv,0,pos0_id7_im15.bmp_pos0_id19_im4.bmp,['Im_RobertPattinson.png', 'Im_DanielRadcliffe.png', 'Im_OrlandoBloom.png', 'Im_KeanuReeves.png', 'Im_BenStiller.png', 'Im_PatrickDempsey.png', 'Im_GeorgeClooney.png', 'Im_LeonardoDiCaprio.png', 'Im_DanielCraig.png', 'Im_RyanGosling.png'],same,0,735.9140986999992,14,92.85714285714286
ALRE2209,train,inv,120,pos120_id4_im15.bmp_pos120_id4_im20.bmp,['Im_RobertPattinson.png', 'Im_DanielRadcliffe.png', 'Im_OrlandoBloom.png', 'Im_KeanuReeves.png', 'Im_BenStiller.png', 'Im_PatrickDempsey.png', 'Im_GeorgeClooney.png', 'Im_LeonardoDiCaprio.png', 'Im_DanielCraig.png', 'Im_RyanGosling.png'],same,1,740.1058731999983,15,92.85714285714286
ALRE2209,train,inv,30,pos30_id13_im29.bmp_pos30_id13_im10.bmp,['Im_RobertPattinson.png', 'Im_DanielRadcliffe.png', 'Im_OrlandoBloom.png', 'Im_KeanuReeves.png', 'Im_BenStiller.png', 'Im_PatrickDempsey.png', 'Im_GeorgeClooney.png', 'Im_LeonardoDiCaprio.png', 'Im_DanielCraig.png', 'Im_RyanGosling.png'],diff,0,744.1893047000012,15,92.85714285714286
ALRE2209,train,inv,0,pos0_id5_im10.bmp_pos0_id16_im2.bmp,['Im_RobertPattinson.png', 'Im_DanielRadcliffe.png', 'Im_OrlandoBloom.png', 'Im_KeanuReeves.png', 'Im_BenStiller.png', 'Im_PatrickDempsey.png', 'Im_GeorgeClooney.png', 'Im_LeonardoDiCaprio.png', 'Im_DanielCraig.png', 'Im_RyanGosling.png'],diff,1,748.364222799999,16,92.85714285714286
ALRE2209,train,inv,60,pos60_id11_im1.bmp_pos60_id11_im10.bmp,['Im_RobertPattinson.png', 'Im_DanielRadcliffe.png', 'Im_OrlandoBloom.png', 'Im_KeanuReeves.png', 'Im_BenStiller.png', 'Im_PatrickDempsey.png', 'Im_GeorgeClooney.png', 'Im_LeonardoDiCaprio.png', 'Im_DanielCraig.png', 'Im_RyanGosling.png'],diff,0,752.9890305000008,16,92.85714285714286
ALRE2209,train,inv,fs,posfs_id17_im8.bmp_posfs_id17_im9.bmp,['Im_RobertPattinson.png', 'Im_DanielRadcliffe.png', 'Im_OrlandoBloom.png', 'Im_KeanuReeves.png', 'Im_BenStiller.png', 'Im_PatrickDempsey.png', 'Im_GeorgeClooney.png', 'Im_LeonardoDiCaprio.png', 'Im_DanielCraig.png', 'Im_RyanGosling.png'],same,1,756.7724450999995,17,92.85714285714286
ALRE2209,train,inv,90,pos90_id19_im8.bmp_pos90_id16_im3.bmp,['Im_RobertPattinson.png', 'Im_DanielRadcliffe.png', 'Im_OrlandoBloom.png', 'Im_KeanuReeves.png', 'Im_BenStiller.png', 'Im_PatrickDempsey.png', 'Im_GeorgeClooney.png', 'Im_LeonardoDiCaprio.png', 'Im_DanielCraig.png', 'Im_RyanGosling.png'],diff,1,761.4390975999995,18,92.85714285714286
ALRE2209,train,inv,90,pos90_id16_im2.bmp_pos90_id13_im10.bmp,['Im_RobertPattinson.png', 'Im_DanielRadcliffe.png', 'Im_OrlandoBloom.png', 'Im_KeanuReeves.png', 'Im_BenStiller.png', 'Im_PatrickDempsey.png', 'Im_GeorgeClooney.png', 'Im_LeonardoDiCaprio.png', 'Im_DanielCraig.png', 'Im_RyanGosling.png'],diff,1,765.7560931000007,19,92.85714285714286
ALRE2209,train,inv,60,pos60_id19_im8.bmp_pos60_id16_im3.bmp,['Im_RobertPattinson.png', 'Im_DanielRadcliffe.png', 'Im_OrlandoBloom.png', 'Im_KeanuReeves.png', 'Im_BenStiller.png', 'Im_PatrickDempsey.png', 'Im_GeorgeClooney.png', 'Im_LeonardoDiCaprio.png', 'Im_DanielCraig.png', 'Im_RyanGosling.png'],diff,1,770.1724529999992,20,92.85714285714286
ALRE2209,train,inv,30,pos30_id7_im14.bmp_pos30_id7_im15.bmp,['Im_RobertPattinson.png', 'Im_DanielRadcliffe.png', 'Im_OrlandoBloom.png', 'Im_KeanuReeves.png', 'Im_BenStiller.png', 'Im_PatrickDempsey.png', 'Im_GeorgeClooney.png', 'Im_LeonardoDiCaprio.png', 'Im_DanielCraig.png', 'Im_RyanGosling.png'],same,1,776.188955900001,21,92.85714285714286
ALRE2209,train,inv,120,pos120_id5_im20.bmp_pos120_id20_im3.bmp,['Im_RobertPattinson.png', 'Im_DanielRadcliffe.png', 'Im_OrlandoBloom.png', 'Im_KeanuReeves.png', 'Im_BenStiller.png', 'Im_PatrickDempsey.png', 'Im_GeorgeClooney.png', 'Im_LeonardoDiCaprio.png', 'Im_DanielCraig.png', 'Im_RyanGosling.png'],diff,1,780.2808593000009,22,92.85714285714286
ALRE2209,train,inv,fs,posfs_id19_im8.bmp_posfs_id19_im4.bmp,['Im_RobertPattinson.png', 'Im_DanielRadcliffe.png', 'Im_OrlandoBloom.png', 'Im_KeanuReeves.png', 'Im_BenStiller.png', 'Im_PatrickDempsey.png', 'Im_GeorgeClooney.png', 'Im_LeonardoDiCaprio.png', 'Im_DanielCraig.png', 'Im_RyanGosling.png'],diff,0,785.2058327999985,22,92.85714285714286
ALRE2209,train,inv,150,pos150_id7_im15.bmp_pos150_id7_im14.bmp,['Im_RobertPattinson.png', 'Im_DanielRadcliffe.png', 'Im_OrlandoBloom.png', 'Im_KeanuReeves.png', 'Im_BenStiller.png', 'Im_PatrickDempsey.png', 'Im_GeorgeClooney.png', 'Im_LeonardoDiCaprio.png', 'Im_DanielCraig.png', 'Im_RyanGosling.png'],same,1,789.7390223000002,23,92.85714285714286
ALRE2209,train,neg,60,neg60_id19_im8.bmp_neg60_id19_im4.bmp,['Im_RobertPattinson.png', 'Im_DanielRadcliffe.png', 'Im_OrlandoBloom.png', 'Im_KeanuReeves.png', 'Im_BenStiller.png', 'Im_PatrickDempsey.png', 'Im_GeorgeClooney.png', 'Im_LeonardoDiCaprio.png', 'Im_DanielCraig.png', 'Im_RyanGosling.png'],same,1,793.5973445999989,24,92.85714285714286
ALRE2209,train,neg,120,neg120_id17_im14.bmp_neg120_id17_im9.bmp,['Im_RobertPattinson.png', 'Im_DanielRadcliffe.png', 'Im_OrlandoBloom.png', 'Im_KeanuReeves.png', 'Im_BenStiller.png', 'Im_PatrickDempsey.png', 'Im_GeorgeClooney.png', 'Im_LeonardoDiCaprio.png', 'Im_DanielCraig.png', 'Im_RyanGosling.png'],same,1,798.4640072000002,25,92.85714285714286
ALRE2209,train,neg,150,neg150_id11_im2.bmp_neg150_id13_im29.bmp,['Im_RobertPattinson.png', 'Im_DanielRadcliffe.png', 'Im_OrlandoBloom.png', 'Im_KeanuReeves.png', 'Im_BenStiller.png', 'Im_PatrickDempsey.png', 'Im_GeorgeClooney.png', 'Im_LeonardoDiCaprio.png', 'Im_DanielCraig.png', 'Im_RyanGosling.png'],diff,1,802.9311663000008,26,92.85714285714286
ALRE2209,train,neg,30,neg30_id2_im16.bmp_neg30_id2_im2.bmp,['Im_RobertPattinson.png', 'Im_DanielRadcliffe.png', 'Im_OrlandoBloom.png', 'Im_KeanuReeves.png', 'Im_BenStiller.png', 'Im_PatrickDempsey.png', 'Im_GeorgeClooney.png', 'Im_LeonardoDiCaprio.png', 'Im_DanielCraig.png', 'Im_RyanGosling.png'],same,1,807.0393311000007,27,92.85714285714286
ALRE2209,train,neg,30,neg30_id5_im10.bmp_neg30_id5_im1.bmp,['Im_RobertPattinson.png', 'Im_DanielRadcliffe.png', 'Im_OrlandoBloom.png', 'Im_KeanuReeves.png', 'Im_BenStiller.png', 'Im_PatrickDempsey.png', 'Im_GeorgeClooney.png', 'Im_LeonardoDiCaprio.png', 'Im_DanielCraig.png', 'Im_RyanGosling.png'],same,1,811.297447500001,28,92.85714285714286
ALRE2209,train,neg,90,neg90_id2_im3.bmp_neg90_id7_im26.bmp,['Im_RobertPattinson.png', 'Im_DanielRadcliffe.png', 'Im_OrlandoBloom.png', 'Im_KeanuReeves.png', 'Im_BenStiller.png', 'Im_PatrickDempsey.png', 'Im_GeorgeClooney.png', 'Im_LeonardoDiCaprio.png', 'Im_DanielCraig.png', 'Im_RyanGosling.png'],diff,1,815.7557129000015,29,92.85714285714286
ALRE2209,train,neg,60,neg60_id17_im9.bmp_neg60_id4_im7.bmp,['Im_RobertPattinson.png', 'Im_DanielRadcliffe.png', 'Im_OrlandoBloom.png', 'Im_KeanuReeves.png', 'Im_BenStiller.png', 'Im_PatrickDempsey.png', 'Im_GeorgeClooney.png', 'Im_LeonardoDiCaprio.png', 'Im_DanielCraig.png', 'Im_RyanGosling.png'],diff,1,819.7726002999989,30,92.85714285714286
ALRE2209,train,neg,fs,negfs_id17_im14.bmp_negfs_id2_im3.bmp,['Im_RobertPattinson.png', 'Im_DanielRadcliffe.png', 'Im_OrlandoBloom.png', 'Im_KeanuReeves.png', 'Im_BenStiller.png', 'Im_PatrickDempsey.png', 'Im_GeorgeClooney.png', 'Im_LeonardoDiCaprio.png', 'Im_DanielCraig.png', 'Im_RyanGosling.png'],same,0,824.3808800000006,30,92.85714285714286
ALRE2209,train,neg,0,neg0_id4_im15.bmp_neg0_id5_im1.bmp,['Im_RobertPattinson.png', 'Im_DanielRadcliffe.png', 'Im_OrlandoBloom.png', 'Im_KeanuReeves.png', 'Im_BenStiller.png', 'Im_PatrickDempsey.png', 'Im_GeorgeClooney.png', 'Im_LeonardoDiCaprio.png', 'Im_DanielCraig.png', 'Im_RyanGosling.png'],diff,1,828.7644854999999,31,92.85714285714286
ALRE2209,train,neg,120,neg120_id16_im3.bmp_neg120_id16_im19.bmp,['Im_RobertPattinson.png', 'Im_DanielRadcliffe.png', 'Im_OrlandoBloom.png', 'Im_KeanuReeves.png', 'Im_BenStiller.png', 'Im_PatrickDempsey.png', 'Im_GeorgeClooney.png', 'Im_LeonardoDiCaprio.png', 'Im_DanielCraig.png', 'Im_RyanGosling.png'],same,1,832.9309472999994,32,92.85714285714286
ALRE2209,train,neg,90,neg90_id7_im26.bmp_neg90_id7_im15.bmp,['Im_RobertPattinson.png', 'Im_DanielRadcliffe.png', 'Im_OrlandoBloom.png', 'Im_KeanuReeves.png', 'Im_BenStiller.png', 'Im_PatrickDempsey.png', 'Im_GeorgeClooney.png', 'Im_LeonardoDiCaprio.png', 'Im_DanielCraig.png', 'Im_RyanGosling.png'],same,1,837.5312076000009,33,92.85714285714286
ALRE2209,train,neg,150,neg150_id11_im1.bmp_neg150_id11_im2.bmp,['Im_RobertPattinson.png', 'Im_DanielRadcliffe.png', 'Im_OrlandoBloom.png', 'Im_KeanuReeves.png', 'Im_BenStiller.png', 'Im_PatrickDempsey.png', 'Im_GeorgeClooney.png', 'Im_LeonardoDiCaprio.png', 'Im_DanielCraig.png', 'Im_RyanGosling.png'],same,1,841.4059531999992,34,92.85714285714286
ALRE2209,train,neg,0,neg0_id4_im7.bmp_neg0_id17_im9.bmp,['Im_RobertPattinson.png', 'Im_DanielRadcliffe.png', 'Im_OrlandoBloom.png', 'Im_KeanuReeves.png', 'Im_BenStiller.png', 'Im_PatrickDempsey.png', 'Im_GeorgeClooney.png', 'Im_LeonardoDiCaprio.png', 'Im_DanielCraig.png', 'Im_RyanGosling.png'],diff,1,845.3393619999988,35,92.85714285714286
ALRE2209,train,neg,fs,negfs_id5_im10.bmp_negfs_id20_im3.bmp,['Im_RobertPattinson.png', 'Im_DanielRadcliffe.png', 'Im_OrlandoBloom.png', 'Im_KeanuReeves.png', 'Im_BenStiller.png', 'Im_PatrickDempsey.png', 'Im_GeorgeClooney.png', 'Im_LeonardoDiCaprio.png', 'Im_DanielCraig.png', 'Im_RyanGosling.png'],diff,1,849.648638300001,36,92.85714285714286
ALRE2209,0,inv,90,pos90_id13_im15.bmp_pos90_id19_im27.bmp,['Im_RobertPattinson.png', 'Im_DanielRadcliffe.png', 'Im_OrlandoBloom.png', 'Im_KeanuReeves.png', 'Im_BenStiller.png', 'Im_PatrickDempsey.png', 'Im_GeorgeClooney.png', 'Im_LeonardoDiCaprio.png', 'Im_DanielCraig.png', 'Im_RyanGosling.png'],diff,1,876.2979454000015,1,0
ALRE2209,0,inv,0,pos0_id16_im3.bmp_pos0_id19_im8.bmp,['Im_RobertPattinson.png', 'Im_DanielRadcliffe.png', 'Im_OrlandoBloom.png', 'Im_KeanuReeves.png', 'Im_BenStiller.png', 'Im_PatrickDempsey.png', 'Im_GeorgeClooney.png', 'Im_LeonardoDiCaprio.png', 'Im_DanielCraig.png', 'Im_RyanGosling.png'],same,0,880.972492500001,1,0
ALRE2209,0,inv,30,pos30_id13_im15.bmp_pos30_id19_im27.bmp,['Im_RobertPattinson.png', 'Im_DanielRadcliffe.png', 'Im_OrlandoBloom.png', 'Im_KeanuReeves.png', 'Im_BenStiller.png', 'Im_PatrickDempsey.png', 'Im_GeorgeClooney.png', 'Im_LeonardoDiCaprio.png', 'Im_DanielCraig.png', 'Im_RyanGosling.png'],same,0,885.5477542000008,1,0
ALRE2209,0,inv,150,pos150_id16_im3.bmp_pos150_id16_im2.bmp,['Im_RobertPattinson.png', 'Im_DanielRadcliffe.png', 'Im_OrlandoBloom.png', 'Im_KeanuReeves.png', 'Im_BenStiller.png', 'Im_PatrickDempsey.png', 'Im_GeorgeClooney.png', 'Im_LeonardoDiCaprio.png', 'Im_DanielCraig.png', 'Im_RyanGosling.png'],same,1,890.4395675999986,2,0
ALRE2209,0,inv,fs,posfs_id20_im12.bmp_posfs_id20_im3.bmp,['Im_RobertPattinson.png', 'Im_DanielRadcliffe.png', 'Im_OrlandoBloom.png', 'Im_KeanuReeves.png', 'Im_BenStiller.png', 'Im_PatrickDempsey.png', 'Im_GeorgeClooney.png', 'Im_LeonardoDiCaprio.png', 'Im_DanielCraig.png', 'Im_RyanGosling.png'],same,1,894.9312284000007,3,0
ALRE2209,0,inv,60,pos60_id11_im1.bmp_pos60_id2_im16.bmp,['Im_RobertPattinson.png', 'Im_DanielRadcliffe.png', 'Im_OrlandoBloom.png', 'Im_KeanuReeves.png', 'Im_BenStiller.png', 'Im_PatrickDempsey.png', 'Im_GeorgeClooney.png', 'Im_LeonardoDiCaprio.png', 'Im_DanielCraig.png', 'Im_RyanGosling.png'],diff,1,899.5893794000003,4,0
ALRE2209,0,inv,120,pos120_id11_im10.bmp_pos120_id11_im1.bmp,['Im_RobertPattinson.png', 'Im_DanielRadcliffe.png', 'Im_OrlandoBloom.png', 'Im_KeanuReeves.png', 'Im_BenStiller.png', 'Im_PatrickDempsey.png', 'Im_GeorgeClooney.png', 'Im_LeonardoDiCaprio.png', 'Im_DanielCraig.png', 'Im_RyanGosling.png'],same,1,904.4060270000009,5,0
ALRE2209,0,inv,150,pos150_id20_im12.bmp_pos150_id16_im19.bmp,['Im_RobertPattinson.png', 'Im_DanielRadcliffe.png', 'Im_OrlandoBloom.png', 'Im_KeanuReeves.png', 'Im_BenStiller.png', 'Im_PatrickDempsey.png', 'Im_GeorgeClooney.png', 'Im_LeonardoDiCaprio.png', 'Im_DanielCraig.png', 'Im_RyanGosling.png'],diff,1,908.8310008000008,6,0
ALRE2209,0,inv,120,pos120_id13_im10.bmp_pos120_id13_im29.bmp,['Im_RobertPattinson.png', 'Im_DanielRadcliffe.png', 'Im_OrlandoBloom.png', 'Im_KeanuReeves.png', 'Im_BenStiller.png', 'Im_PatrickDempsey.png', 'Im_GeorgeClooney.png', 'Im_LeonardoDiCaprio.png', 'Im_DanielCraig.png', 'Im_RyanGosling.png'],diff,0,913.6979439999996,6,0
ALRE2209,0,inv,90,pos90_id11_im2.bmp_pos90_id11_im10.bmp,['Im_RobertPattinson.png', 'Im_DanielRadcliffe.png', 'Im_OrlandoBloom.png', 'Im_KeanuReeves.png', 'Im_BenStiller.png', 'Im_PatrickDempsey.png', 'Im_GeorgeClooney.png', 'Im_LeonardoDiCaprio.png', 'Im_DanielCraig.png', 'Im_RyanGosling.png'],diff,0,918.2312366000006,6,0
ALRE2209,0,inv,30,pos30_id16_im2.bmp_pos30_id16_im19.bmp,['Im_RobertPattinson.png', 'Im_DanielRadcliffe.png', 'Im_OrlandoBloom.png', 'Im_KeanuReeves.png', 'Im_BenStiller.png', 'Im_PatrickDempsey.png', 'Im_GeorgeClooney.png', 'Im_LeonardoDiCaprio.png', 'Im_DanielCraig.png', 'Im_RyanGosling.png'],same,1,922.9726776999996,7,0
ALRE2209,0,inv,0,pos0_id17_im8.bmp_pos0_id11_im10.bmp,['Im_RobertPattinson.png', 'Im_DanielRadcliffe.png', 'Im_OrlandoBloom.png', 'Im_KeanuReeves.png', 'Im_BenStiller.png', 'Im_PatrickDempsey.png', 'Im_GeorgeClooney.png', 'Im_LeonardoDiCaprio.png', 'Im_DanielCraig.png', 'Im_RyanGosling.png'],same,0,927.7228189999987,7,0
ALRE2209,0,inv,60,pos60_id19_im4.bmp_pos60_id19_im8.bmp,['Im_RobertPattinson.png', 'Im_DanielRadcliffe.png', 'Im_OrlandoBloom.png', 'Im_KeanuReeves.png', 'Im_BenStiller.png', 'Im_PatrickDempsey.png', 'Im_GeorgeClooney.png', 'Im_LeonardoDiCaprio.png', 'Im_DanielCraig.png', 'Im_RyanGosling.png'],same,1,932.3893282999998,8,0
ALRE2209,0,inv,fs,posfs_id16_im3.bmp_posfs_id16_im2.bmp,['Im_RobertPattinson.png', 'Im_DanielRadcliffe.png', 'Im_OrlandoBloom.png', 'Im_KeanuReeves.png', 'Im_BenStiller.png', 'Im_PatrickDempsey.png', 'Im_GeorgeClooney.png', 'Im_LeonardoDiCaprio.png', 'Im_DanielCraig.png', 'Im_RyanGosling.png'],same,1,937.7560846000015,9,0
ALRE2209,1,neg,60,neg60_id13_im15.bmp_neg60_id13_im10.bmp,['Im_RobertPattinson.png', 'Im_DanielRadcliffe.png', 'Im_OrlandoBloom.png', 'Im_KeanuReeves.png', 'Im_BenStiller.png', 'Im_PatrickDempsey.png', 'Im_GeorgeClooney.png', 'Im_LeonardoDiCaprio.png', 'Im_DanielCraig.png', 'Im_RyanGosling.png'],same,1,945.8810703999989,10,0
ALRE2209,1,neg,120,neg120_id2_im2.bmp_neg120_id11_im10.bmp,['Im_RobertPattinson.png', 'Im_DanielRadcliffe.png', 'Im_OrlandoBloom.png', 'Im_KeanuReeves.png', 'Im_BenStiller.png', 'Im_PatrickDempsey.png', 'Im_GeorgeClooney.png', 'Im_LeonardoDiCaprio.png', 'Im_DanielCraig.png', 'Im_RyanGosling.png'],diff,1,950.3894001000008,11,0
ALRE2209,1,neg,30,neg30_id20_im3.bmp_neg30_id20_im12.bmp,['Im_RobertPattinson.png', 'Im_DanielRadcliffe.png', 'Im_OrlandoBloom.png', 'Im_KeanuReeves.png', 'Im_BenStiller.png', 'Im_PatrickDempsey.png', 'Im_GeorgeClooney.png', 'Im_LeonardoDiCaprio.png', 'Im_DanielCraig.png', 'Im_RyanGosling.png'],same,1,954.6560399000009,12,0
ALRE2209,1,neg,0,neg0_id2_im16.bmp_neg0_id11_im1.bmp,['Im_RobertPattinson.png', 'Im_DanielRadcliffe.png', 'Im_OrlandoBloom.png', 'Im_KeanuReeves.png', 'Im_BenStiller.png', 'Im_PatrickDempsey.png', 'Im_GeorgeClooney.png', 'Im_LeonardoDiCaprio.png', 'Im_DanielCraig.png', 'Im_RyanGosling.png'],diff,1,959.022766099999,13,0
ALRE2209,1,neg,fs,negfs_id4_im7.bmp_negfs_id17_im9.bmp,['Im_RobertPattinson.png', 'Im_DanielRadcliffe.png', 'Im_OrlandoBloom.png', 'Im_KeanuReeves.png', 'Im_BenStiller.png', 'Im_PatrickDempsey.png', 'Im_GeorgeClooney.png', 'Im_LeonardoDiCaprio.png', 'Im_DanielCraig.png', 'Im_RyanGosling.png'],diff,1,963.6393661000002,14,0
ALRE2209,1,neg,150,neg150_id2_im3.bmp_neg150_id7_im26.bmp,['Im_RobertPattinson.png', 'Im_DanielRadcliffe.png', 'Im_OrlandoBloom.png', 'Im_KeanuReeves.png', 'Im_BenStiller.png', 'Im_PatrickDempsey.png', 'Im_GeorgeClooney.png', 'Im_LeonardoDiCaprio.png', 'Im_DanielCraig.png', 'Im_RyanGosling.png'],diff,1,968.0228012000007,15,0
ALRE2209,1,neg,0,neg0_id13_im15.bmp_neg0_id19_im27.bmp,['Im_RobertPattinson.png', 'Im_DanielRadcliffe.png', 'Im_OrlandoBloom.png', 'Im_KeanuReeves.png', 'Im_BenStiller.png', 'Im_PatrickDempsey.png', 'Im_GeorgeClooney.png', 'Im_LeonardoDiCaprio.png', 'Im_DanielCraig.png', 'Im_RyanGosling.png'],diff,1,972.7894545000017,16,0
ALRE2209,1,neg,fs,negfs_id13_im10.bmp_negfs_id13_im15.bmp,['Im_RobertPattinson.png', 'Im_DanielRadcliffe.png', 'Im_OrlandoBloom.png', 'Im_KeanuReeves.png', 'Im_BenStiller.png', 'Im_PatrickDempsey.png', 'Im_GeorgeClooney.png', 'Im_LeonardoDiCaprio.png', 'Im_DanielCraig.png', 'Im_RyanGosling.png'],same,1,977.2478042000002,17,0
ALRE2209,1,neg,150,neg150_id16_im3.bmp_neg150_id16_im19.bmp,['Im_RobertPattinson.png', 'Im_DanielRadcliffe.png', 'Im_OrlandoBloom.png', 'Im_KeanuReeves.png', 'Im_BenStiller.png', 'Im_PatrickDempsey.png', 'Im_GeorgeClooney.png', 'Im_LeonardoDiCaprio.png', 'Im_DanielCraig.png', 'Im_RyanGosling.png'],same,1,981.3313511000015,18,0
ALRE2209,1,neg,90,neg90_id19_im27.bmp_neg90_id19_im8.bmp,['Im_RobertPattinson.png', 'Im_DanielRadcliffe.png', 'Im_OrlandoBloom.png', 'Im_KeanuReeves.png', 'Im_BenStiller.png', 'Im_PatrickDempsey.png', 'Im_GeorgeClooney.png', 'Im_LeonardoDiCaprio.png', 'Im_DanielCraig.png', 'Im_RyanGosling.png'],diff,0,986.0226035999985,18,0
ALRE2209,1,neg,30,neg30_id2_im16.bmp_neg30_id11_im1.bmp,['Im_RobertPattinson.png', 'Im_DanielRadcliffe.png', 'Im_OrlandoBloom.png', 'Im_KeanuReeves.png', 'Im_BenStiller.png', 'Im_PatrickDempsey.png', 'Im_GeorgeClooney.png', 'Im_LeonardoDiCaprio.png', 'Im_DanielCraig.png', 'Im_RyanGosling.png'],diff,1,990.6897073,19,0
ALRE2209,1,neg,60,neg60_id7_im14.bmp_neg60_id7_im15.bmp,['Im_RobertPattinson.png', 'Im_DanielRadcliffe.png', 'Im_OrlandoBloom.png', 'Im_KeanuReeves.png', 'Im_BenStiller.png', 'Im_PatrickDempsey.png', 'Im_GeorgeClooney.png', 'Im_LeonardoDiCaprio.png', 'Im_DanielCraig.png', 'Im_RyanGosling.png'],same,1,995.473038600001,20,0
ALRE2209,1,neg,120,neg120_id13_im10.bmp_neg120_id13_im15.bmp,['Im_RobertPattinson.png', 'Im_DanielRadcliffe.png', 'Im_OrlandoBloom.png', 'Im_KeanuReeves.png', 'Im_BenStiller.png', 'Im_PatrickDempsey.png', 'Im_GeorgeClooney.png', 'Im_LeonardoDiCaprio.png', 'Im_DanielCraig.png', 'Im_RyanGosling.png'],same,1,999.9893112999998,21,0
ALRE2209,1,neg,90,neg90_id19_im8.bmp_neg90_id16_im3.bmp,['Im_RobertPattinson.png', 'Im_DanielRadcliffe.png', 'Im_OrlandoBloom.png', 'Im_KeanuReeves.png', 'Im_BenStiller.png', 'Im_PatrickDempsey.png', 'Im_GeorgeClooney.png', 'Im_LeonardoDiCaprio.png', 'Im_DanielCraig.png', 'Im_RyanGosling.png'],same,0,1004.6730033999993,21,0
ALRE2209,2,inv,150,pos150_id4_im7.bmp_pos150_id17_im8.bmp,['Im_RobertPattinson.png', 'Im_DanielRadcliffe.png', 'Im_OrlandoBloom.png', 'Im_KeanuReeves.png', 'Im_BenStiller.png', 'Im_PatrickDempsey.png', 'Im_GeorgeClooney.png', 'Im_LeonardoDiCaprio.png', 'Im_DanielCraig.png', 'Im_RyanGosling.png'],diff,1,1013.3144221000002,22,0
ALRE2209,2,inv,fs,posfs_id19_im27.bmp_posfs_id19_im8.bmp,['Im_RobertPattinson.png', 'Im_DanielRadcliffe.png', 'Im_OrlandoBloom.png', 'Im_KeanuReeves.png', 'Im_BenStiller.png', 'Im_PatrickDempsey.png', 'Im_GeorgeClooney.png', 'Im_LeonardoDiCaprio.png', 'Im_DanielCraig.png', 'Im_RyanGosling.png'],same,1,1017.4977141999989,23,0
ALRE2209,2,inv,fs,posfs_id20_im30.bmp_posfs_id11_im2.bmp,['Im_RobertPattinson.png', 'Im_DanielRadcliffe.png', 'Im_OrlandoBloom.png', 'Im_KeanuReeves.png', 'Im_BenStiller.png', 'Im_PatrickDempsey.png', 'Im_GeorgeClooney.png', 'Im_LeonardoDiCaprio.png', 'Im_DanielCraig.png', 'Im_RyanGosling.png'],diff,1,1021.7645135999992,24,0
ALRE2209,2,inv,30,pos30_id19_im4.bmp_pos30_id7_im26.bmp,['Im_RobertPattinson.png', 'Im_DanielRadcliffe.png', 'Im_OrlandoBloom.png', 'Im_KeanuReeves.png', 'Im_BenStiller.png', 'Im_PatrickDempsey.png', 'Im_GeorgeClooney.png', 'Im_LeonardoDiCaprio.png', 'Im_DanielCraig.png', 'Im_RyanGosling.png'],diff,1,1026.8895211999989,25,0
ALRE2209,2,inv,90,pos90_id2_im16.bmp_pos90_id2_im2.bmp,['Im_RobertPattinson.png', 'Im_DanielRadcliffe.png', 'Im_OrlandoBloom.png', 'Im_KeanuReeves.png', 'Im_BenStiller.png', 'Im_PatrickDempsey.png', 'Im_GeorgeClooney.png', 'Im_LeonardoDiCaprio.png', 'Im_DanielCraig.png', 'Im_RyanGosling.png'],diff,0,1032.5314201,25,0
ALRE2209,2,inv,90,pos90_id5_im20.bmp_pos90_id16_im19.bmp,['Im_RobertPattinson.png', 'Im_DanielRadcliffe.png', 'Im_OrlandoBloom.png', 'Im_KeanuReeves.png', 'Im_BenStiller.png', 'Im_PatrickDempsey.png', 'Im_GeorgeClooney.png', 'Im_LeonardoDiCaprio.png', 'Im_DanielCraig.png', 'Im_RyanGosling.png'],diff,1,1037.014364300001,26,0
ALRE2209,2,inv,0,pos0_id2_im16.bmp_pos0_id13_im29.bmp,['Im_RobertPattinson.png', 'Im_DanielRadcliffe.png', 'Im_OrlandoBloom.png', 'Im_KeanuReeves.png', 'Im_BenStiller.png', 'Im_PatrickDempsey.png', 'Im_GeorgeClooney.png', 'Im_LeonardoDiCaprio.png', 'Im_DanielCraig.png', 'Im_RyanGosling.png'],same,0,1042.2481082000013,26,0
ALRE2209,2,inv,150,pos150_id11_im1.bmp_pos150_id11_im2.bmp,['Im_RobertPattinson.png', 'Im_DanielRadcliffe.png', 'Im_OrlandoBloom.png', 'Im_KeanuReeves.png', 'Im_BenStiller.png', 'Im_PatrickDempsey.png', 'Im_GeorgeClooney.png', 'Im_LeonardoDiCaprio.png', 'Im_DanielCraig.png', 'Im_RyanGosling.png'],same,1,1047.4397194000012,27,0
ALRE2209,2,inv,120,pos120_id5_im1.bmp_pos120_id5_im20.bmp,['Im_RobertPattinson.png', 'Im_DanielRadcliffe.png', 'Im_OrlandoBloom.png', 'Im_KeanuReeves.png', 'Im_BenStiller.png', 'Im_PatrickDempsey.png', 'Im_GeorgeClooney.png', 'Im_LeonardoDiCaprio.png', 'Im_DanielCraig.png', 'Im_RyanGosling.png'],same,1,1052.1897436,28,0
ALRE2209,2,inv,30,pos30_id5_im1.bmp_pos30_id5_im10.bmp,['Im_RobertPattinson.png', 'Im_DanielRadcliffe.png', 'Im_OrlandoBloom.png', 'Im_KeanuReeves.png', 'Im_BenStiller.png', 'Im_PatrickDempsey.png', 'Im_GeorgeClooney.png', 'Im_LeonardoDiCaprio.png', 'Im_DanielCraig.png', 'Im_RyanGosling.png'],same,1,1056.4898126000007,29,0
ALRE2209,2,inv,60,pos60_id2_im3.bmp_pos60_id7_im26.bmp,['Im_RobertPattinson.png', 'Im_DanielRadcliffe.png', 'Im_OrlandoBloom.png', 'Im_KeanuReeves.png', 'Im_BenStiller.png', 'Im_PatrickDempsey.png', 'Im_GeorgeClooney.png', 'Im_LeonardoDiCaprio.png', 'Im_DanielCraig.png', 'Im_RyanGosling.png'],diff,1,1061.239723300001,30,0
ALRE2209,2,inv,120,pos120_id20_im3.bmp_pos120_id20_im12.bmp,['Im_RobertPattinson.png', 'Im_DanielRadcliffe.png', 'Im_OrlandoBloom.png', 'Im_KeanuReeves.png', 'Im_BenStiller.png', 'Im_PatrickDempsey.png', 'Im_GeorgeClooney.png', 'Im_LeonardoDiCaprio.png', 'Im_DanielCraig.png', 'Im_RyanGosling.png'],diff,0,1066.0814394000008,30,0
ALRE2209,2,inv,0,pos0_id4_im15.bmp_pos0_id4_im20.bmp,['Im_RobertPattinson.png', 'Im_DanielRadcliffe.png', 'Im_OrlandoBloom.png', 'Im_KeanuReeves.png', 'Im_BenStiller.png', 'Im_PatrickDempsey.png', 'Im_GeorgeClooney.png', 'Im_LeonardoDiCaprio.png', 'Im_DanielCraig.png', 'Im_RyanGosling.png'],same,1,1070.931231300001,31,0
ALRE2209,2,inv,60,pos60_id20_im3.bmp_pos60_id5_im10.bmp,['Im_RobertPattinson.png', 'Im_DanielRadcliffe.png', 'Im_OrlandoBloom.png', 'Im_KeanuReeves.png', 'Im_BenStiller.png', 'Im_PatrickDempsey.png', 'Im_GeorgeClooney.png', 'Im_LeonardoDiCaprio.png', 'Im_DanielCraig.png', 'Im_RyanGosling.png'],diff,1,1075.589527,32,0
ALRE2209,3,pos,60,pos60_id7_im14.bmp_pos60_id4_im20.bmp,['Im_RobertPattinson.png', 'Im_DanielRadcliffe.png', 'Im_OrlandoBloom.png', 'Im_KeanuReeves.png', 'Im_BenStiller.png', 'Im_PatrickDempsey.png', 'Im_GeorgeClooney.png', 'Im_LeonardoDiCaprio.png', 'Im_DanielCraig.png', 'Im_RyanGosling.png'],diff,1,1095.0563183999984,1,76.19047619047619
ALRE2209,3,pos,fs,posfs_id4_im15.bmp_posfs_id4_im7.bmp,['Im_RobertPattinson.png', 'Im_DanielRadcliffe.png', 'Im_OrlandoBloom.png', 'Im_KeanuReeves.png', 'Im_BenStiller.png', 'Im_PatrickDempsey.png', 'Im_GeorgeClooney.png', 'Im_LeonardoDiCaprio.png', 'Im_DanielCraig.png', 'Im_RyanGosling.png'],same,1,1099.4815057000014,2,76.19047619047619
ALRE2209,3,pos,90,pos90_id11_im10.bmp_pos90_id11_im2.bmp,['Im_RobertPattinson.png', 'Im_DanielRadcliffe.png', 'Im_OrlandoBloom.png', 'Im_KeanuReeves.png', 'Im_BenStiller.png', 'Im_PatrickDempsey.png', 'Im_GeorgeClooney.png', 'Im_LeonardoDiCaprio.png', 'Im_DanielCraig.png', 'Im_RyanGosling.png'],same,1,1104.5978944000017,3,76.19047619047619
ALRE2209,3,pos,0,pos0_id20_im30.bmp_pos0_id20_im12.bmp,['Im_RobertPattinson.png', 'Im_DanielRadcliffe.png', 'Im_OrlandoBloom.png', 'Im_KeanuReeves.png', 'Im_BenStiller.png', 'Im_PatrickDempsey.png', 'Im_GeorgeClooney.png', 'Im_LeonardoDiCaprio.png', 'Im_DanielCraig.png', 'Im_RyanGosling.png'],same,1,1108.9312514999983,4,76.19047619047619
ALRE2209,3,pos,fs,posfs_id20_im30.bmp_posfs_id4_im20.bmp,['Im_RobertPattinson.png', 'Im_DanielRadcliffe.png', 'Im_OrlandoBloom.png', 'Im_KeanuReeves.png', 'Im_BenStiller.png', 'Im_PatrickDempsey.png', 'Im_GeorgeClooney.png', 'Im_LeonardoDiCaprio.png', 'Im_DanielCraig.png', 'Im_RyanGosling.png'],diff,1,1113.2728420999993,5,76.19047619047619
ALRE2209,3,pos,0,pos0_id19_im4.bmp_pos0_id19_im8.bmp,['Im_RobertPattinson.png', 'Im_DanielRadcliffe.png', 'Im_OrlandoBloom.png', 'Im_KeanuReeves.png', 'Im_BenStiller.png', 'Im_PatrickDempsey.png', 'Im_GeorgeClooney.png', 'Im_LeonardoDiCaprio.png', 'Im_DanielCraig.png', 'Im_RyanGosling.png'],same,1,1117.9397972000006,6,76.19047619047619
ALRE2209,3,pos,30,pos30_id17_im14.bmp_pos30_id2_im3.bmp,['Im_RobertPattinson.png', 'Im_DanielRadcliffe.png', 'Im_OrlandoBloom.png', 'Im_KeanuReeves.png', 'Im_BenStiller.png', 'Im_PatrickDempsey.png', 'Im_GeorgeClooney.png', 'Im_LeonardoDiCaprio.png', 'Im_DanielCraig.png', 'Im_RyanGosling.png'],diff,1,1122.5811536,7,76.19047619047619
ALRE2209,3,pos,60,pos60_id19_im4.bmp_pos60_id7_im26.bmp,['Im_RobertPattinson.png', 'Im_DanielRadcliffe.png', 'Im_OrlandoBloom.png', 'Im_KeanuReeves.png', 'Im_BenStiller.png', 'Im_PatrickDempsey.png', 'Im_GeorgeClooney.png', 'Im_LeonardoDiCaprio.png', 'Im_DanielCraig.png', 'Im_RyanGosling.png'],diff,1,1127.331581999999,8,76.19047619047619
ALRE2209,3,pos,90,pos90_id4_im15.bmp_pos90_id5_im1.bmp,['Im_RobertPattinson.png', 'Im_DanielRadcliffe.png', 'Im_OrlandoBloom.png', 'Im_KeanuReeves.png', 'Im_BenStiller.png', 'Im_PatrickDempsey.png', 'Im_GeorgeClooney.png', 'Im_LeonardoDiCaprio.png', 'Im_DanielCraig.png', 'Im_RyanGosling.png'],diff,1,1131.8063016000015,9,76.19047619047619
ALRE2209,3,pos,150,pos150_id17_im14.bmp_pos150_id17_im8.bmp,['Im_RobertPattinson.png', 'Im_DanielRadcliffe.png', 'Im_OrlandoBloom.png', 'Im_KeanuReeves.png', 'Im_BenStiller.png', 'Im_PatrickDempsey.png', 'Im_GeorgeClooney.png', 'Im_LeonardoDiCaprio.png', 'Im_DanielCraig.png', 'Im_RyanGosling.png'],same,1,1136.364662,10,76.19047619047619
ALRE2209,3,pos,30,pos30_id2_im2.bmp_pos30_id2_im3.bmp,['Im_RobertPattinson.png', 'Im_DanielRadcliffe.png', 'Im_OrlandoBloom.png', 'Im_KeanuReeves.png', 'Im_BenStiller.png', 'Im_PatrickDempsey.png', 'Im_GeorgeClooney.png', 'Im_LeonardoDiCaprio.png', 'Im_DanielCraig.png', 'Im_RyanGosling.png'],same,1,1140.7229896999997,11,76.19047619047619
ALRE2209,3,pos,120,pos120_id2_im2.bmp_pos120_id2_im16.bmp,['Im_RobertPattinson.png', 'Im_DanielRadcliffe.png', 'Im_OrlandoBloom.png', 'Im_KeanuReeves.png', 'Im_BenStiller.png', 'Im_PatrickDempsey.png', 'Im_GeorgeClooney.png', 'Im_LeonardoDiCaprio.png', 'Im_DanielCraig.png', 'Im_RyanGosling.png'],same,1,1144.981225200001,12,76.19047619047619
ALRE2209,3,pos,150,pos150_id4_im15.bmp_pos150_id4_im7.bmp,['Im_RobertPattinson.png', 'Im_DanielRadcliffe.png', 'Im_OrlandoBloom.png', 'Im_KeanuReeves.png', 'Im_BenStiller.png', 'Im_PatrickDempsey.png', 'Im_GeorgeClooney.png', 'Im_LeonardoDiCaprio.png', 'Im_DanielCraig.png', 'Im_RyanGosling.png'],same,1,1149.1895785999986,13,76.19047619047619
ALRE2209,3,pos,120,pos120_id2_im3.bmp_pos120_id2_im2.bmp,['Im_RobertPattinson.png', 'Im_DanielRadcliffe.png', 'Im_OrlandoBloom.png', 'Im_KeanuReeves.png', 'Im_BenStiller.png', 'Im_PatrickDempsey.png', 'Im_GeorgeClooney.png', 'Im_LeonardoDiCaprio.png', 'Im_DanielCraig.png', 'Im_RyanGosling.png'],diff,0,1154.0145053999986,13,76.19047619047619
ALRE2209,4,pos,30,pos30_id20_im30.bmp_pos30_id11_im2.bmp,['Im_RobertPattinson.png', 'Im_DanielRadcliffe.png', 'Im_OrlandoBloom.png', 'Im_KeanuReeves.png', 'Im_BenStiller.png', 'Im_PatrickDempsey.png', 'Im_GeorgeClooney.png', 'Im_LeonardoDiCaprio.png', 'Im_DanielCraig.png', 'Im_RyanGosling.png'],diff,1,1162.222813100001,14,76.19047619047619
ALRE2209,4,pos,fs,posfs_id5_im1.bmp_posfs_id4_im15.bmp,['Im_RobertPattinson.png', 'Im_DanielRadcliffe.png', 'Im_OrlandoBloom.png', 'Im_KeanuReeves.png', 'Im_BenStiller.png', 'Im_PatrickDempsey.png', 'Im_GeorgeClooney.png', 'Im_LeonardoDiCaprio.png', 'Im_DanielCraig.png', 'Im_RyanGosling.png'],diff,1,1166.3478953000013,15,76.19047619047619
ALRE2209,4,pos,150,pos150_id19_im8.bmp_pos150_id16_im3.bmp,['Im_RobertPattinson.png', 'Im_DanielRadcliffe.png', 'Im_OrlandoBloom.png', 'Im_KeanuReeves.png', 'Im_BenStiller.png', 'Im_PatrickDempsey.png', 'Im_GeorgeClooney.png', 'Im_LeonardoDiCaprio.png', 'Im_DanielCraig.png', 'Im_RyanGosling.png'],diff,1,1170.9649037000017,16,76.19047619047619
ALRE2209,4,pos,60,pos60_id2_im3.bmp_pos60_id2_im2.bmp,['Im_RobertPattinson.png', 'Im_DanielRadcliffe.png', 'Im_OrlandoBloom.png', 'Im_KeanuReeves.png', 'Im_BenStiller.png', 'Im_PatrickDempsey.png', 'Im_GeorgeClooney.png', 'Im_LeonardoDiCaprio.png', 'Im_DanielCraig.png', 'Im_RyanGosling.png'],same,1,1176.6811818999995,17,76.19047619047619
ALRE2209,4,pos,120,pos120_id19_im27.bmp_pos120_id13_im15.bmp,['Im_RobertPattinson.png', 'Im_DanielRadcliffe.png', 'Im_OrlandoBloom.png', 'Im_KeanuReeves.png', 'Im_BenStiller.png', 'Im_PatrickDempsey.png', 'Im_GeorgeClooney.png', 'Im_LeonardoDiCaprio.png', 'Im_DanielCraig.png', 'Im_RyanGosling.png'],diff,1,1181.2563592000006,18,76.19047619047619
ALRE2209,4,pos,30,pos30_id7_im14.bmp_pos30_id7_im26.bmp,['Im_RobertPattinson.png', 'Im_DanielRadcliffe.png', 'Im_OrlandoBloom.png', 'Im_KeanuReeves.png', 'Im_BenStiller.png', 'Im_PatrickDempsey.png', 'Im_GeorgeClooney.png', 'Im_LeonardoDiCaprio.png', 'Im_DanielCraig.png', 'Im_RyanGosling.png'],same,1,1185.8813332999998,19,76.19047619047619
ALRE2209,4,pos,60,pos60_id11_im2.bmp_pos60_id20_im30.bmp,['Im_RobertPattinson.png', 'Im_DanielRadcliffe.png', 'Im_OrlandoBloom.png', 'Im_KeanuReeves.png', 'Im_BenStiller.png', 'Im_PatrickDempsey.png', 'Im_GeorgeClooney.png', 'Im_LeonardoDiCaprio.png', 'Im_DanielCraig.png', 'Im_RyanGosling.png'],diff,1,1190.4565879000002,20,76.19047619047619
ALRE2209,4,pos,90,pos90_id16_im19.bmp_pos90_id16_im3.bmp,['Im_RobertPattinson.png', 'Im_DanielRadcliffe.png', 'Im_OrlandoBloom.png', 'Im_KeanuReeves.png', 'Im_BenStiller.png', 'Im_PatrickDempsey.png', 'Im_GeorgeClooney.png', 'Im_LeonardoDiCaprio.png', 'Im_DanielCraig.png', 'Im_RyanGosling.png'],same,1,1195.1730528000007,21,76.19047619047619
ALRE2209,4,pos,150,pos150_id4_im7.bmp_pos150_id17_im8.bmp,['Im_RobertPattinson.png', 'Im_DanielRadcliffe.png', 'Im_OrlandoBloom.png', 'Im_KeanuReeves.png', 'Im_BenStiller.png', 'Im_PatrickDempsey.png', 'Im_GeorgeClooney.png', 'Im_LeonardoDiCaprio.png', 'Im_DanielCraig.png', 'Im_RyanGosling.png'],diff,1,1200.3314584,22,76.19047619047619
ALRE2209,4,pos,0,pos0_id7_im26.bmp_pos0_id2_im3.bmp,['Im_RobertPattinson.png', 'Im_DanielRadcliffe.png', 'Im_OrlandoBloom.png', 'Im_KeanuReeves.png', 'Im_BenStiller.png', 'Im_PatrickDempsey.png', 'Im_GeorgeClooney.png', 'Im_LeonardoDiCaprio.png', 'Im_DanielCraig.png', 'Im_RyanGosling.png'],diff,1,1204.8983359999984,23,76.19047619047619
ALRE2209,4,pos,0,pos0_id17_im8.bmp_pos0_id17_im9.bmp,['Im_RobertPattinson.png', 'Im_DanielRadcliffe.png', 'Im_OrlandoBloom.png', 'Im_KeanuReeves.png', 'Im_BenStiller.png', 'Im_PatrickDempsey.png', 'Im_GeorgeClooney.png', 'Im_LeonardoDiCaprio.png', 'Im_DanielCraig.png', 'Im_RyanGosling.png'],same,1,1209.5563327000018,24,76.19047619047619
ALRE2209,4,pos,90,pos90_id5_im10.bmp_pos90_id20_im3.bmp,['Im_RobertPattinson.png', 'Im_DanielRadcliffe.png', 'Im_OrlandoBloom.png', 'Im_KeanuReeves.png', 'Im_BenStiller.png', 'Im_PatrickDempsey.png', 'Im_GeorgeClooney.png', 'Im_LeonardoDiCaprio.png', 'Im_DanielCraig.png', 'Im_RyanGosling.png'],diff,1,1213.7564389,25,76.19047619047619
ALRE2209,4,pos,fs,posfs_id16_im3.bmp_posfs_id7_im14.bmp,['Im_RobertPattinson.png', 'Im_DanielRadcliffe.png', 'Im_OrlandoBloom.png', 'Im_KeanuReeves.png', 'Im_BenStiller.png', 'Im_PatrickDempsey.png', 'Im_GeorgeClooney.png', 'Im_LeonardoDiCaprio.png', 'Im_DanielCraig.png', 'Im_RyanGosling.png'],diff,1,1218.3066639999997,26,76.19047619047619
ALRE2209,4,pos,120,pos120_id7_im26.bmp_pos120_id7_im15.bmp,['Im_RobertPattinson.png', 'Im_DanielRadcliffe.png', 'Im_OrlandoBloom.png', 'Im_KeanuReeves.png', 'Im_BenStiller.png', 'Im_PatrickDempsey.png', 'Im_GeorgeClooney.png', 'Im_LeonardoDiCaprio.png', 'Im_DanielCraig.png', 'Im_RyanGosling.png'],same,1,1222.6566241,27,76.19047619047619
ALRE2209,5,inv,60,pos60_id11_im10.bmp_pos60_id11_im2.bmp,['Im_RobertPattinson.png', 'Im_DanielRadcliffe.png', 'Im_OrlandoBloom.png', 'Im_KeanuReeves.png', 'Im_BenStiller.png', 'Im_PatrickDempsey.png', 'Im_GeorgeClooney.png', 'Im_LeonardoDiCaprio.png', 'Im_DanielCraig.png', 'Im_RyanGosling.png'],same,1,1230.8564216000013,28,76.19047619047619
ALRE2209,5,inv,30,pos30_id19_im27.bmp_pos30_id19_im4.bmp,['Im_RobertPattinson.png', 'Im_DanielRadcliffe.png', 'Im_OrlandoBloom.png', 'Im_KeanuReeves.png', 'Im_BenStiller.png', 'Im_PatrickDempsey.png', 'Im_GeorgeClooney.png', 'Im_LeonardoDiCaprio.png', 'Im_DanielCraig.png', 'Im_RyanGosling.png'],same,1,1235.6981140999997,29,76.19047619047619
ALRE2209,5,inv,60,pos60_id11_im10.bmp_pos60_id17_im8.bmp,['Im_RobertPattinson.png', 'Im_DanielRadcliffe.png', 'Im_OrlandoBloom.png', 'Im_KeanuReeves.png', 'Im_BenStiller.png', 'Im_PatrickDempsey.png', 'Im_GeorgeClooney.png', 'Im_LeonardoDiCaprio.png', 'Im_DanielCraig.png', 'Im_RyanGosling.png'],diff,1,1240.2649328000007,30,76.19047619047619
ALRE2209,5,inv,fs,posfs_id7_im26.bmp_posfs_id19_im4.bmp,['Im_RobertPattinson.png', 'Im_DanielRadcliffe.png', 'Im_OrlandoBloom.png', 'Im_KeanuReeves.png', 'Im_BenStiller.png', 'Im_PatrickDempsey.png', 'Im_GeorgeClooney.png', 'Im_LeonardoDiCaprio.png', 'Im_DanielCraig.png', 'Im_RyanGosling.png'],diff,1,1244.7980585000005,31,76.19047619047619
ALRE2209,5,inv,150,pos150_id20_im3.bmp_pos150_id20_im12.bmp,['Im_RobertPattinson.png', 'Im_DanielRadcliffe.png', 'Im_OrlandoBloom.png', 'Im_KeanuReeves.png', 'Im_BenStiller.png', 'Im_PatrickDempsey.png', 'Im_GeorgeClooney.png', 'Im_LeonardoDiCaprio.png', 'Im_DanielCraig.png', 'Im_RyanGosling.png'],same,1,1249.4317063000017,32,76.19047619047619
ALRE2209,5,inv,150,pos150_id5_im20.bmp_pos150_id16_im19.bmp,['Im_RobertPattinson.png', 'Im_DanielRadcliffe.png', 'Im_OrlandoBloom.png', 'Im_KeanuReeves.png', 'Im_BenStiller.png', 'Im_PatrickDempsey.png', 'Im_GeorgeClooney.png', 'Im_LeonardoDiCaprio.png', 'Im_DanielCraig.png', 'Im_RyanGosling.png'],diff,1,1253.6316729999999,33,76.19047619047619
ALRE2209,5,inv,120,pos120_id20_im12.bmp_pos120_id16_im19.bmp,['Im_RobertPattinson.png', 'Im_DanielRadcliffe.png', 'Im_OrlandoBloom.png', 'Im_KeanuReeves.png', 'Im_BenStiller.png', 'Im_PatrickDempsey.png', 'Im_GeorgeClooney.png', 'Im_LeonardoDiCaprio.png', 'Im_DanielCraig.png', 'Im_RyanGosling.png'],diff,1,1258.6148911000018,34,76.19047619047619
ALRE2209,5,inv,120,pos120_id16_im19.bmp_pos120_id16_im3.bmp,['Im_RobertPattinson.png', 'Im_DanielRadcliffe.png', 'Im_OrlandoBloom.png', 'Im_KeanuReeves.png', 'Im_BenStiller.png', 'Im_PatrickDempsey.png', 'Im_GeorgeClooney.png', 'Im_LeonardoDiCaprio.png', 'Im_DanielCraig.png', 'Im_RyanGosling.png'],same,1,1262.8898120999984,35,76.19047619047619
ALRE2209,5,inv,30,pos30_id16_im19.bmp_pos30_id16_im3.bmp,['Im_RobertPattinson.png', 'Im_DanielRadcliffe.png', 'Im_OrlandoBloom.png', 'Im_KeanuReeves.png', 'Im_BenStiller.png', 'Im_PatrickDempsey.png', 'Im_GeorgeClooney.png', 'Im_LeonardoDiCaprio.png', 'Im_DanielCraig.png', 'Im_RyanGosling.png'],same,1,1267.4068757999994,36,76.19047619047619
ALRE2209,5,inv,0,pos0_id4_im7.bmp_pos0_id4_im15.bmp,['Im_RobertPattinson.png', 'Im_DanielRadcliffe.png', 'Im_OrlandoBloom.png', 'Im_KeanuReeves.png', 'Im_BenStiller.png', 'Im_PatrickDempsey.png', 'Im_GeorgeClooney.png', 'Im_LeonardoDiCaprio.png', 'Im_DanielCraig.png', 'Im_RyanGosling.png'],same,1,1271.6313260999996,37,76.19047619047619
ALRE2209,5,inv,90,pos90_id7_im14.bmp_pos90_id4_im20.bmp,['Im_RobertPattinson.png', 'Im_DanielRadcliffe.png', 'Im_OrlandoBloom.png', 'Im_KeanuReeves.png', 'Im_BenStiller.png', 'Im_PatrickDempsey.png', 'Im_GeorgeClooney.png', 'Im_LeonardoDiCaprio.png', 'Im_DanielCraig.png', 'Im_RyanGosling.png'],diff,1,1276.298114000001,38,76.19047619047619
ALRE2209,5,inv,0,pos0_id4_im7.bmp_pos0_id17_im9.bmp,['Im_RobertPattinson.png', 'Im_DanielRadcliffe.png', 'Im_OrlandoBloom.png', 'Im_KeanuReeves.png', 'Im_BenStiller.png', 'Im_PatrickDempsey.png', 'Im_GeorgeClooney.png', 'Im_LeonardoDiCaprio.png', 'Im_DanielCraig.png', 'Im_RyanGosling.png'],same,0,1280.8479793000006,38,76.19047619047619
ALRE2209,5,inv,fs,posfs_id7_im14.bmp_posfs_id16_im3.bmp,['Im_RobertPattinson.png', 'Im_DanielRadcliffe.png', 'Im_OrlandoBloom.png', 'Im_KeanuReeves.png', 'Im_BenStiller.png', 'Im_PatrickDempsey.png', 'Im_GeorgeClooney.png', 'Im_LeonardoDiCaprio.png', 'Im_DanielCraig.png', 'Im_RyanGosling.png'],diff,1,1285.2981161999996,39,76.19047619047619
ALRE2209,5,inv,90,pos90_id5_im10.bmp_pos90_id5_im1.bmp,['Im_RobertPattinson.png', 'Im_DanielRadcliffe.png', 'Im_OrlandoBloom.png', 'Im_KeanuReeves.png', 'Im_BenStiller.png', 'Im_PatrickDempsey.png', 'Im_GeorgeClooney.png', 'Im_LeonardoDiCaprio.png', 'Im_DanielCraig.png', 'Im_RyanGosling.png'],same,1,1289.8398473999987,40,76.19047619047619
ALRE2209,6,neg,90,neg90_id2_im2.bmp_neg90_id2_im16.bmp,['Im_RobertPattinson.png', 'Im_DanielRadcliffe.png', 'Im_OrlandoBloom.png', 'Im_KeanuReeves.png', 'Im_BenStiller.png', 'Im_PatrickDempsey.png', 'Im_GeorgeClooney.png', 'Im_LeonardoDiCaprio.png', 'Im_DanielCraig.png', 'Im_RyanGosling.png'],same,1,1304.9234935999993,1,95.23809523809524
ALRE2209,6,neg,90,neg90_id19_im27.bmp_neg90_id4_im15.bmp,['Im_RobertPattinson.png', 'Im_DanielRadcliffe.png', 'Im_OrlandoBloom.png', 'Im_KeanuReeves.png', 'Im_BenStiller.png', 'Im_PatrickDempsey.png', 'Im_GeorgeClooney.png', 'Im_LeonardoDiCaprio.png', 'Im_DanielCraig.png', 'Im_RyanGosling.png'],diff,1,1309.7736710999998,2,95.23809523809524
ALRE2209,6,neg,120,neg120_id11_im1.bmp_neg120_id11_im10.bmp,['Im_RobertPattinson.png', 'Im_DanielRadcliffe.png', 'Im_OrlandoBloom.png', 'Im_KeanuReeves.png', 'Im_BenStiller.png', 'Im_PatrickDempsey.png', 'Im_GeorgeClooney.png', 'Im_LeonardoDiCaprio.png', 'Im_DanielCraig.png', 'Im_RyanGosling.png'],diff,0,1314.7232159000014,2,95.23809523809524
ALRE2209,6,neg,0,neg0_id2_im3.bmp_neg0_id17_im14.bmp,['Im_RobertPattinson.png', 'Im_DanielRadcliffe.png', 'Im_OrlandoBloom.png', 'Im_KeanuReeves.png', 'Im_BenStiller.png', 'Im_PatrickDempsey.png', 'Im_GeorgeClooney.png', 'Im_LeonardoDiCaprio.png', 'Im_DanielCraig.png', 'Im_RyanGosling.png'],same,0,1319.6234182000007,2,95.23809523809524
ALRE2209,6,neg,30,neg30_id13_im10.bmp_neg30_id13_im29.bmp,['Im_RobertPattinson.png', 'Im_DanielRadcliffe.png', 'Im_OrlandoBloom.png', 'Im_KeanuReeves.png', 'Im_BenStiller.png', 'Im_PatrickDempsey.png', 'Im_GeorgeClooney.png', 'Im_LeonardoDiCaprio.png', 'Im_DanielCraig.png', 'Im_RyanGosling.png'],same,1,1324.1730816000018,3,95.23809523809524
ALRE2209,6,neg,120,neg120_id16_im19.bmp_neg120_id20_im12.bmp,['Im_RobertPattinson.png', 'Im_DanielRadcliffe.png', 'Im_OrlandoBloom.png', 'Im_KeanuReeves.png', 'Im_BenStiller.png', 'Im_PatrickDempsey.png', 'Im_GeorgeClooney.png', 'Im_LeonardoDiCaprio.png', 'Im_DanielCraig.png', 'Im_RyanGosling.png'],diff,1,1328.5397326999991,4,95.23809523809524
ALRE2209,6,neg,fs,negfs_id4_im20.bmp_negfs_id7_im14.bmp,['Im_RobertPattinson.png', 'Im_DanielRadcliffe.png', 'Im_OrlandoBloom.png', 'Im_KeanuReeves.png', 'Im_BenStiller.png', 'Im_PatrickDempsey.png', 'Im_GeorgeClooney.png', 'Im_LeonardoDiCaprio.png', 'Im_DanielCraig.png', 'Im_RyanGosling.png'],diff,1,1333.1981067999986,5,95.23809523809524
ALRE2209,6,neg,0,neg0_id19_im8.bmp_neg0_id19_im27.bmp,['Im_RobertPattinson.png', 'Im_DanielRadcliffe.png', 'Im_OrlandoBloom.png', 'Im_KeanuReeves.png', 'Im_BenStiller.png', 'Im_PatrickDempsey.png', 'Im_GeorgeClooney.png', 'Im_LeonardoDiCaprio.png', 'Im_DanielCraig.png', 'Im_RyanGosling.png'],diff,0,1337.6484090000013,5,95.23809523809524
ALRE2209,6,neg,60,neg60_id5_im1.bmp_neg60_id5_im20.bmp,['Im_RobertPattinson.png', 'Im_DanielRadcliffe.png', 'Im_OrlandoBloom.png', 'Im_KeanuReeves.png', 'Im_BenStiller.png', 'Im_PatrickDempsey.png', 'Im_GeorgeClooney.png', 'Im_LeonardoDiCaprio.png', 'Im_DanielCraig.png', 'Im_RyanGosling.png'],same,1,1341.8482421000008,6,95.23809523809524
ALRE2209,6,neg,fs,negfs_id16_im19.bmp_negfs_id16_im2.bmp,['Im_RobertPattinson.png', 'Im_DanielRadcliffe.png', 'Im_OrlandoBloom.png', 'Im_KeanuReeves.png', 'Im_BenStiller.png', 'Im_PatrickDempsey.png', 'Im_GeorgeClooney.png', 'Im_LeonardoDiCaprio.png', 'Im_DanielCraig.png', 'Im_RyanGosling.png'],same,1,1346.1065952999998,7,95.23809523809524
ALRE2209,6,neg,60,neg60_id19_im4.bmp_neg60_id7_im15.bmp,['Im_RobertPattinson.png', 'Im_DanielRadcliffe.png', 'Im_OrlandoBloom.png', 'Im_KeanuReeves.png', 'Im_BenStiller.png', 'Im_PatrickDempsey.png', 'Im_GeorgeClooney.png', 'Im_LeonardoDiCaprio.png', 'Im_DanielCraig.png', 'Im_RyanGosling.png'],same,0,1351.1315824000012,7,95.23809523809524
ALRE2209,6,neg,150,neg150_id20_im30.bmp_neg150_id4_im20.bmp,['Im_RobertPattinson.png', 'Im_DanielRadcliffe.png', 'Im_OrlandoBloom.png', 'Im_KeanuReeves.png', 'Im_BenStiller.png', 'Im_PatrickDempsey.png', 'Im_GeorgeClooney.png', 'Im_LeonardoDiCaprio.png', 'Im_DanielCraig.png', 'Im_RyanGosling.png'],diff,1,1355.4901374,8,95.23809523809524
ALRE2209,6,neg,30,neg30_id2_im2.bmp_neg30_id11_im10.bmp,['Im_RobertPattinson.png', 'Im_DanielRadcliffe.png', 'Im_OrlandoBloom.png', 'Im_KeanuReeves.png', 'Im_BenStiller.png', 'Im_PatrickDempsey.png', 'Im_GeorgeClooney.png', 'Im_LeonardoDiCaprio.png', 'Im_DanielCraig.png', 'Im_RyanGosling.png'],diff,1,1360.8065434000018,9,95.23809523809524
ALRE2209,6,neg,150,neg150_id17_im8.bmp_neg150_id11_im10.bmp,['Im_RobertPattinson.png', 'Im_DanielRadcliffe.png', 'Im_OrlandoBloom.png', 'Im_KeanuReeves.png', 'Im_BenStiller.png', 'Im_PatrickDempsey.png', 'Im_GeorgeClooney.png', 'Im_LeonardoDiCaprio.png', 'Im_DanielCraig.png', 'Im_RyanGosling.png'],diff,1,1365.1319258000003,10,95.23809523809524
ALRE2209,7,inv,90,pos90_id5_im20.bmp_pos90_id20_im3.bmp,['Im_RobertPattinson.png', 'Im_DanielRadcliffe.png', 'Im_OrlandoBloom.png', 'Im_KeanuReeves.png', 'Im_BenStiller.png', 'Im_PatrickDempsey.png', 'Im_GeorgeClooney.png', 'Im_LeonardoDiCaprio.png', 'Im_DanielCraig.png', 'Im_RyanGosling.png'],diff,1,1373.5984591999986,11,95.23809523809524
ALRE2209,7,inv,30,pos30_id7_im14.bmp_pos30_id16_im3.bmp,['Im_RobertPattinson.png', 'Im_DanielRadcliffe.png', 'Im_OrlandoBloom.png', 'Im_KeanuReeves.png', 'Im_BenStiller.png', 'Im_PatrickDempsey.png', 'Im_GeorgeClooney.png', 'Im_LeonardoDiCaprio.png', 'Im_DanielCraig.png', 'Im_RyanGosling.png'],diff,1,1377.8901729999998,12,95.23809523809524
ALRE2209,7,inv,60,pos60_id13_im10.bmp_pos60_id16_im2.bmp,['Im_RobertPattinson.png', 'Im_DanielRadcliffe.png', 'Im_OrlandoBloom.png', 'Im_KeanuReeves.png', 'Im_BenStiller.png', 'Im_PatrickDempsey.png', 'Im_GeorgeClooney.png', 'Im_LeonardoDiCaprio.png', 'Im_DanielCraig.png', 'Im_RyanGosling.png'],diff,1,1382.2651624999999,13,95.23809523809524
ALRE2209,7,inv,0,pos0_id2_im3.bmp_pos0_id7_im26.bmp,['Im_RobertPattinson.png', 'Im_DanielRadcliffe.png', 'Im_OrlandoBloom.png', 'Im_KeanuReeves.png', 'Im_BenStiller.png', 'Im_PatrickDempsey.png', 'Im_GeorgeClooney.png', 'Im_LeonardoDiCaprio.png', 'Im_DanielCraig.png', 'Im_RyanGosling.png'],diff,1,1386.9566121999997,14,95.23809523809524
ALRE2209,7,inv,120,pos120_id13_im15.bmp_pos120_id19_im27.bmp,['Im_RobertPattinson.png', 'Im_DanielRadcliffe.png', 'Im_OrlandoBloom.png', 'Im_KeanuReeves.png', 'Im_BenStiller.png', 'Im_PatrickDempsey.png', 'Im_GeorgeClooney.png', 'Im_LeonardoDiCaprio.png', 'Im_DanielCraig.png', 'Im_RyanGosling.png'],diff,1,1391.798266400001,15,95.23809523809524
ALRE2209,7,inv,150,pos150_id16_im19.bmp_pos150_id16_im3.bmp,['Im_RobertPattinson.png', 'Im_DanielRadcliffe.png', 'Im_OrlandoBloom.png', 'Im_KeanuReeves.png', 'Im_BenStiller.png', 'Im_PatrickDempsey.png', 'Im_GeorgeClooney.png', 'Im_LeonardoDiCaprio.png', 'Im_DanielCraig.png', 'Im_RyanGosling.png'],diff,0,1396.5068438000017,15,95.23809523809524
ALRE2209,7,inv,60,pos60_id4_im20.bmp_pos60_id7_im14.bmp,['Im_RobertPattinson.png', 'Im_DanielRadcliffe.png', 'Im_OrlandoBloom.png', 'Im_KeanuReeves.png', 'Im_BenStiller.png', 'Im_PatrickDempsey.png', 'Im_GeorgeClooney.png', 'Im_LeonardoDiCaprio.png', 'Im_DanielCraig.png', 'Im_RyanGosling.png'],diff,1,1400.7649677000009,16,95.23809523809524
ALRE2209,7,inv,90,pos90_id5_im1.bmp_pos90_id5_im20.bmp,['Im_RobertPattinson.png', 'Im_DanielRadcliffe.png', 'Im_OrlandoBloom.png', 'Im_KeanuReeves.png', 'Im_BenStiller.png', 'Im_PatrickDempsey.png', 'Im_GeorgeClooney.png', 'Im_LeonardoDiCaprio.png', 'Im_DanielCraig.png', 'Im_RyanGosling.png'],same,1,1405.3148255000015,17,95.23809523809524
ALRE2209,7,inv,30,pos30_id20_im30.bmp_pos30_id20_im3.bmp,['Im_RobertPattinson.png', 'Im_DanielRadcliffe.png', 'Im_OrlandoBloom.png', 'Im_KeanuReeves.png', 'Im_BenStiller.png', 'Im_PatrickDempsey.png', 'Im_GeorgeClooney.png', 'Im_LeonardoDiCaprio.png', 'Im_DanielCraig.png', 'Im_RyanGosling.png'],diff,0,1409.6733310000018,17,95.23809523809524
ALRE2209,7,inv,fs,posfs_id16_im2.bmp_posfs_id16_im19.bmp,['Im_RobertPattinson.png', 'Im_DanielRadcliffe.png', 'Im_OrlandoBloom.png', 'Im_KeanuReeves.png', 'Im_BenStiller.png', 'Im_PatrickDempsey.png', 'Im_GeorgeClooney.png', 'Im_LeonardoDiCaprio.png', 'Im_DanielCraig.png', 'Im_RyanGosling.png'],same,1,1414.1650313999999,18,95.23809523809524
ALRE2209,7,inv,150,pos150_id11_im1.bmp_pos150_id11_im10.bmp,['Im_RobertPattinson.png', 'Im_DanielRadcliffe.png', 'Im_OrlandoBloom.png', 'Im_KeanuReeves.png', 'Im_BenStiller.png', 'Im_PatrickDempsey.png', 'Im_GeorgeClooney.png', 'Im_LeonardoDiCaprio.png', 'Im_DanielCraig.png', 'Im_RyanGosling.png'],same,1,1418.7817794000002,19,95.23809523809524
ALRE2209,7,inv,fs,posfs_id4_im7.bmp_posfs_id4_im20.bmp,['Im_RobertPattinson.png', 'Im_DanielRadcliffe.png', 'Im_OrlandoBloom.png', 'Im_KeanuReeves.png', 'Im_BenStiller.png', 'Im_PatrickDempsey.png', 'Im_GeorgeClooney.png', 'Im_LeonardoDiCaprio.png', 'Im_DanielCraig.png', 'Im_RyanGosling.png'],same,1,1423.2568812999998,20,95.23809523809524
ALRE2209,7,inv,120,pos120_id5_im1.bmp_pos120_id5_im10.bmp,['Im_RobertPattinson.png', 'Im_DanielRadcliffe.png', 'Im_OrlandoBloom.png', 'Im_KeanuReeves.png', 'Im_BenStiller.png', 'Im_PatrickDempsey.png', 'Im_GeorgeClooney.png', 'Im_LeonardoDiCaprio.png', 'Im_DanielCraig.png', 'Im_RyanGosling.png'],same,1,1427.8317037000015,21,95.23809523809524
ALRE2209,7,inv,0,pos0_id19_im27.bmp_pos0_id19_im4.bmp,['Im_RobertPattinson.png', 'Im_DanielRadcliffe.png', 'Im_OrlandoBloom.png', 'Im_KeanuReeves.png', 'Im_BenStiller.png', 'Im_PatrickDempsey.png', 'Im_GeorgeClooney.png', 'Im_LeonardoDiCaprio.png', 'Im_DanielCraig.png', 'Im_RyanGosling.png'],same,1,1432.2233226999997,22,95.23809523809524
ALRE2209,8,neg,150,neg150_id5_im1.bmp_neg150_id4_im15.bmp,['Im_RobertPattinson.png', 'Im_DanielRadcliffe.png', 'Im_OrlandoBloom.png', 'Im_KeanuReeves.png', 'Im_BenStiller.png', 'Im_PatrickDempsey.png', 'Im_GeorgeClooney.png', 'Im_LeonardoDiCaprio.png', 'Im_DanielCraig.png', 'Im_RyanGosling.png'],diff,1,1440.040249400001,23,95.23809523809524
ALRE2209,8,neg,0,neg0_id7_im26.bmp_neg0_id7_im15.bmp,['Im_RobertPattinson.png', 'Im_DanielRadcliffe.png', 'Im_OrlandoBloom.png', 'Im_KeanuReeves.png', 'Im_BenStiller.png', 'Im_PatrickDempsey.png', 'Im_GeorgeClooney.png', 'Im_LeonardoDiCaprio.png', 'Im_DanielCraig.png', 'Im_RyanGosling.png'],same,1,1444.5568889999995,24,95.23809523809524
ALRE2209,8,neg,60,neg60_id5_im10.bmp_neg60_id16_im2.bmp,['Im_RobertPattinson.png', 'Im_DanielRadcliffe.png', 'Im_OrlandoBloom.png', 'Im_KeanuReeves.png', 'Im_BenStiller.png', 'Im_PatrickDempsey.png', 'Im_GeorgeClooney.png', 'Im_LeonardoDiCaprio.png', 'Im_DanielCraig.png', 'Im_RyanGosling.png'],diff,1,1449.3567881000017,25,95.23809523809524
ALRE2209,8,neg,120,neg120_id16_im19.bmp_neg120_id16_im2.bmp,['Im_RobertPattinson.png', 'Im_DanielRadcliffe.png', 'Im_OrlandoBloom.png', 'Im_KeanuReeves.png', 'Im_BenStiller.png', 'Im_PatrickDempsey.png', 'Im_GeorgeClooney.png', 'Im_LeonardoDiCaprio.png', 'Im_DanielCraig.png', 'Im_RyanGosling.png'],same,1,1453.7898888000018,26,95.23809523809524
ALRE2209,8,neg,60,neg60_id19_im27.bmp_neg60_id13_im15.bmp,['Im_RobertPattinson.png', 'Im_DanielRadcliffe.png', 'Im_OrlandoBloom.png', 'Im_KeanuReeves.png', 'Im_BenStiller.png', 'Im_PatrickDempsey.png', 'Im_GeorgeClooney.png', 'Im_LeonardoDiCaprio.png', 'Im_DanielCraig.png', 'Im_RyanGosling.png'],diff,1,1458.5651327999985,27,95.23809523809524
ALRE2209,8,neg,fs,negfs_id5_im20.bmp_negfs_id5_im1.bmp,['Im_RobertPattinson.png', 'Im_DanielRadcliffe.png', 'Im_OrlandoBloom.png', 'Im_KeanuReeves.png', 'Im_BenStiller.png', 'Im_PatrickDempsey.png', 'Im_GeorgeClooney.png', 'Im_LeonardoDiCaprio.png', 'Im_DanielCraig.png', 'Im_RyanGosling.png'],same,1,1463.0319305000012,28,95.23809523809524
ALRE2209,8,neg,0,neg0_id4_im20.bmp_neg0_id4_im7.bmp,['Im_RobertPattinson.png', 'Im_DanielRadcliffe.png', 'Im_OrlandoBloom.png', 'Im_KeanuReeves.png', 'Im_BenStiller.png', 'Im_PatrickDempsey.png', 'Im_GeorgeClooney.png', 'Im_LeonardoDiCaprio.png', 'Im_DanielCraig.png', 'Im_RyanGosling.png'],same,1,1467.3317418000006,29,95.23809523809524
ALRE2209,8,neg,fs,negfs_id7_im15.bmp_negfs_id7_im26.bmp,['Im_RobertPattinson.png', 'Im_DanielRadcliffe.png', 'Im_OrlandoBloom.png', 'Im_KeanuReeves.png', 'Im_BenStiller.png', 'Im_PatrickDempsey.png', 'Im_GeorgeClooney.png', 'Im_LeonardoDiCaprio.png', 'Im_DanielCraig.png', 'Im_RyanGosling.png'],same,1,1471.6317138999984,30,95.23809523809524
ALRE2209,8,neg,150,neg150_id17_im14.bmp_neg150_id13_im15.bmp,['Im_RobertPattinson.png', 'Im_DanielRadcliffe.png', 'Im_OrlandoBloom.png', 'Im_KeanuReeves.png', 'Im_BenStiller.png', 'Im_PatrickDempsey.png', 'Im_GeorgeClooney.png', 'Im_LeonardoDiCaprio.png', 'Im_DanielCraig.png', 'Im_RyanGosling.png'],diff,1,1476.8234615000001,31,95.23809523809524
ALRE2209,8,neg,90,neg90_id17_im8.bmp_neg90_id17_im14.bmp,['Im_RobertPattinson.png', 'Im_DanielRadcliffe.png', 'Im_OrlandoBloom.png', 'Im_KeanuReeves.png', 'Im_BenStiller.png', 'Im_PatrickDempsey.png', 'Im_GeorgeClooney.png', 'Im_LeonardoDiCaprio.png', 'Im_DanielCraig.png', 'Im_RyanGosling.png'],same,1,1481.5150915000013,32,95.23809523809524
ALRE2209,8,neg,30,neg30_id4_im20.bmp_neg30_id20_im30.bmp,['Im_RobertPattinson.png', 'Im_DanielRadcliffe.png', 'Im_OrlandoBloom.png', 'Im_KeanuReeves.png', 'Im_BenStiller.png', 'Im_PatrickDempsey.png', 'Im_GeorgeClooney.png', 'Im_LeonardoDiCaprio.png', 'Im_DanielCraig.png', 'Im_RyanGosling.png'],diff,1,1486.1481768000012,33,95.23809523809524
ALRE2209,8,neg,90,neg90_id20_im30.bmp_neg90_id11_im2.bmp,['Im_RobertPattinson.png', 'Im_DanielRadcliffe.png', 'Im_OrlandoBloom.png', 'Im_KeanuReeves.png', 'Im_BenStiller.png', 'Im_PatrickDempsey.png', 'Im_GeorgeClooney.png', 'Im_LeonardoDiCaprio.png', 'Im_DanielCraig.png', 'Im_RyanGosling.png'],diff,1,1490.9235163999983,34,95.23809523809524
ALRE2209,8,neg,30,neg30_id7_im26.bmp_neg30_id19_im4.bmp,['Im_RobertPattinson.png', 'Im_DanielRadcliffe.png', 'Im_OrlandoBloom.png', 'Im_KeanuReeves.png', 'Im_BenStiller.png', 'Im_PatrickDempsey.png', 'Im_GeorgeClooney.png', 'Im_LeonardoDiCaprio.png', 'Im_DanielCraig.png', 'Im_RyanGosling.png'],diff,1,1496.0650395999983,35,95.23809523809524
