Sujet,Trial,Condition,Filter,Imname,Actor0,Actor1,Actor2,Actor3,Actor4,Actor5,Actor6,Actor7,Actor8,Actor9,Answer,Accu,RT,Score,Scoreperc, 
BECO2507,train,neg,150,neg150_id18_im11.bmp_neg150_id13_im15.bmp,['Im_LeonardoDiCaprio.png', 'Im_RobertPattinson.png', 'Im_RyanReynolds.png', 'Im_ElijahWood.png', 'Im_BenAffleck.png', 'Im_MattDamon.png', 'Im_HughJackman.png', 'Im_RobertDowneyJr.png', 'Im_KeanuReeves.png', 'Im_RyanGosling.png'],same,0,1.458363100000497,0,0,
BECO2507,train,neg,120,neg120_id11_im2.bmp_neg120_id13_im29.bmp,['Im_LeonardoDiCaprio.png', 'Im_RobertPattinson.png', 'Im_RyanReynolds.png', 'Im_ElijahWood.png', 'Im_BenAffleck.png', 'Im_MattDamon.png', 'Im_HughJackman.png', 'Im_RobertDowneyJr.png', 'Im_KeanuReeves.png', 'Im_RyanGosling.png'],diff,1,0.4167604999993273,1,0,
BECO2507,train,neg,60,neg60_id13_im15.bmp_neg60_id13_im10.bmp,['Im_LeonardoDiCaprio.png', 'Im_RobertPattinson.png', 'Im_RyanReynolds.png', 'Im_ElijahWood.png', 'Im_BenAffleck.png', 'Im_MattDamon.png', 'Im_HughJackman.png', 'Im_RobertDowneyJr.png', 'Im_KeanuReeves.png', 'Im_RyanGosling.png'],diff,0,0.6169285000005402,1,0,
BECO2507,train,neg,90,neg90_id21_im16.bmp_neg90_id21_im22.bmp,['Im_LeonardoDiCaprio.png', 'Im_RobertPattinson.png', 'Im_RyanReynolds.png', 'Im_ElijahWood.png', 'Im_BenAffleck.png', 'Im_MattDamon.png', 'Im_HughJackman.png', 'Im_RobertDowneyJr.png', 'Im_KeanuReeves.png', 'Im_RyanGosling.png'],same,1,0.7253148999998302,2,0,
BECO2507,train,neg,150,neg150_id20_im3.bmp_neg150_id18_im19.bmp,['Im_LeonardoDiCaprio.png', 'Im_RobertPattinson.png', 'Im_RyanReynolds.png', 'Im_ElijahWood.png', 'Im_BenAffleck.png', 'Im_MattDamon.png', 'Im_HughJackman.png', 'Im_RobertDowneyJr.png', 'Im_KeanuReeves.png', 'Im_RyanGosling.png'],same,0,0.4251531999998406,2,0,
BECO2507,train,neg,30,neg30_id6_im19.bmp_neg30_id6_im12.bmp,['Im_LeonardoDiCaprio.png', 'Im_RobertPattinson.png', 'Im_RyanReynolds.png', 'Im_ElijahWood.png', 'Im_BenAffleck.png', 'Im_MattDamon.png', 'Im_HughJackman.png', 'Im_RobertDowneyJr.png', 'Im_KeanuReeves.png', 'Im_RyanGosling.png'],same,1,0.4168109000002005,3,0,
BECO2507,train,neg,fs,negfs_id8_im21.bmp_negfs_id19_im4.bmp,['Im_LeonardoDiCaprio.png', 'Im_RobertPattinson.png', 'Im_RyanReynolds.png', 'Im_ElijahWood.png', 'Im_BenAffleck.png', 'Im_MattDamon.png', 'Im_HughJackman.png', 'Im_RobertDowneyJr.png', 'Im_KeanuReeves.png', 'Im_RyanGosling.png'],diff,1,0.4333752000002278,4,0,
BECO2507,train,neg,0,neg0_id1_im21.bmp_neg0_id1_im24.bmp,['Im_LeonardoDiCaprio.png', 'Im_RobertPattinson.png', 'Im_RyanReynolds.png', 'Im_ElijahWood.png', 'Im_BenAffleck.png', 'Im_MattDamon.png', 'Im_HughJackman.png', 'Im_RobertDowneyJr.png', 'Im_KeanuReeves.png', 'Im_RyanGosling.png'],same,1,0.41666519999944285,5,0,
BECO2507,train,neg,fs,negfs_id6_im12.bmp_negfs_id6_im18.bmp,['Im_LeonardoDiCaprio.png', 'Im_RobertPattinson.png', 'Im_RyanReynolds.png', 'Im_ElijahWood.png', 'Im_BenAffleck.png', 'Im_MattDamon.png', 'Im_HughJackman.png', 'Im_RobertDowneyJr.png', 'Im_KeanuReeves.png', 'Im_RyanGosling.png'],same,1,0.4414560999994137,6,0,
BECO2507,train,neg,120,neg120_id8_im13.bmp_neg120_id8_im21.bmp,['Im_LeonardoDiCaprio.png', 'Im_RobertPattinson.png', 'Im_RyanReynolds.png', 'Im_ElijahWood.png', 'Im_BenAffleck.png', 'Im_MattDamon.png', 'Im_HughJackman.png', 'Im_RobertDowneyJr.png', 'Im_KeanuReeves.png', 'Im_RyanGosling.png'],same,1,0.4164436000000933,7,0,
BECO2507,train,neg,90,neg90_id6_im18.bmp_neg90_id14_im18.bmp,['Im_LeonardoDiCaprio.png', 'Im_RobertPattinson.png', 'Im_RyanReynolds.png', 'Im_ElijahWood.png', 'Im_BenAffleck.png', 'Im_MattDamon.png', 'Im_HughJackman.png', 'Im_RobertDowneyJr.png', 'Im_KeanuReeves.png', 'Im_RyanGosling.png'],same,0,0.6419212999999218,7,0,
BECO2507,train,neg,30,neg30_id13_im10.bmp_neg30_id13_im29.bmp,['Im_LeonardoDiCaprio.png', 'Im_RobertPattinson.png', 'Im_RyanReynolds.png', 'Im_ElijahWood.png', 'Im_BenAffleck.png', 'Im_MattDamon.png', 'Im_HughJackman.png', 'Im_RobertDowneyJr.png', 'Im_KeanuReeves.png', 'Im_RyanGosling.png'],same,1,0.4999819999993633,8,0,
BECO2507,train,neg,60,neg60_id11_im2.bmp_neg60_id11_im10.bmp,['Im_LeonardoDiCaprio.png', 'Im_RobertPattinson.png', 'Im_RyanReynolds.png', 'Im_ElijahWood.png', 'Im_BenAffleck.png', 'Im_MattDamon.png', 'Im_HughJackman.png', 'Im_RobertDowneyJr.png', 'Im_KeanuReeves.png', 'Im_RyanGosling.png'],same,1,0.42472079999970447,9,0,
BECO2507,train,neg,0,neg0_id18_im11.bmp_neg0_id18_im18.bmp,['Im_LeonardoDiCaprio.png', 'Im_RobertPattinson.png', 'Im_RyanReynolds.png', 'Im_ElijahWood.png', 'Im_BenAffleck.png', 'Im_MattDamon.png', 'Im_HughJackman.png', 'Im_RobertDowneyJr.png', 'Im_KeanuReeves.png', 'Im_RyanGosling.png'],same,1,0.4084048000004259,10,0,
BECO2507,train,pos,60,pos60_id8_im13.bmp_pos60_id8_im21.bmp,['Im_LeonardoDiCaprio.png', 'Im_RobertPattinson.png', 'Im_RyanReynolds.png', 'Im_ElijahWood.png', 'Im_BenAffleck.png', 'Im_MattDamon.png', 'Im_HughJackman.png', 'Im_RobertDowneyJr.png', 'Im_KeanuReeves.png', 'Im_RyanGosling.png'],same,1,0.6503124000000753,11,0,
BECO2507,train,pos,150,pos150_id21_im16.bmp_pos150_id19_im27.bmp,['Im_LeonardoDiCaprio.png', 'Im_RobertPattinson.png', 'Im_RyanReynolds.png', 'Im_ElijahWood.png', 'Im_BenAffleck.png', 'Im_MattDamon.png', 'Im_HughJackman.png', 'Im_RobertDowneyJr.png', 'Im_KeanuReeves.png', 'Im_RyanGosling.png'],diff,1,0.40836140000010346,12,0,
BECO2507,train,pos,150,pos150_id11_im2.bmp_pos150_id1_im4.bmp,['Im_LeonardoDiCaprio.png', 'Im_RobertPattinson.png', 'Im_RyanReynolds.png', 'Im_ElijahWood.png', 'Im_BenAffleck.png', 'Im_MattDamon.png', 'Im_HughJackman.png', 'Im_RobertDowneyJr.png', 'Im_KeanuReeves.png', 'Im_RyanGosling.png'],diff,1,0.49144559999967896,13,0,
BECO2507,train,pos,30,pos30_id19_im8.bmp_pos30_id19_im4.bmp,['Im_LeonardoDiCaprio.png', 'Im_RobertPattinson.png', 'Im_RyanReynolds.png', 'Im_ElijahWood.png', 'Im_BenAffleck.png', 'Im_MattDamon.png', 'Im_HughJackman.png', 'Im_RobertDowneyJr.png', 'Im_KeanuReeves.png', 'Im_RyanGosling.png'],same,1,0.4256959000003917,14,0,
BECO2507,train,pos,fs,posfs_id13_im10.bmp_posfs_id13_im29.bmp,['Im_LeonardoDiCaprio.png', 'Im_RobertPattinson.png', 'Im_RyanReynolds.png', 'Im_ElijahWood.png', 'Im_BenAffleck.png', 'Im_MattDamon.png', 'Im_HughJackman.png', 'Im_RobertDowneyJr.png', 'Im_KeanuReeves.png', 'Im_RyanGosling.png'],same,1,0.4166958000005252,15,0,
BECO2507,train,pos,30,pos30_id18_im11.bmp_pos30_id18_im19.bmp,['Im_LeonardoDiCaprio.png', 'Im_RobertPattinson.png', 'Im_RyanReynolds.png', 'Im_ElijahWood.png', 'Im_BenAffleck.png', 'Im_MattDamon.png', 'Im_HughJackman.png', 'Im_RobertDowneyJr.png', 'Im_KeanuReeves.png', 'Im_RyanGosling.png'],same,1,0.4247709000001123,16,0,
BECO2507,train,pos,60,pos60_id21_im16.bmp_pos60_id6_im12.bmp,['Im_LeonardoDiCaprio.png', 'Im_RobertPattinson.png', 'Im_RyanReynolds.png', 'Im_ElijahWood.png', 'Im_BenAffleck.png', 'Im_MattDamon.png', 'Im_HughJackman.png', 'Im_RobertDowneyJr.png', 'Im_KeanuReeves.png', 'Im_RyanGosling.png'],diff,1,0.40836080000008224,17,0,
BECO2507,train,pos,0,pos0_id1_im24.bmp_pos0_id6_im19.bmp,['Im_LeonardoDiCaprio.png', 'Im_RobertPattinson.png', 'Im_RyanReynolds.png', 'Im_ElijahWood.png', 'Im_BenAffleck.png', 'Im_MattDamon.png', 'Im_HughJackman.png', 'Im_RobertDowneyJr.png', 'Im_KeanuReeves.png', 'Im_RyanGosling.png'],diff,1,0.40830910000022413,18,0,
BECO2507,train,pos,90,pos90_id21_im17.bmp_pos90_id21_im22.bmp,['Im_LeonardoDiCaprio.png', 'Im_RobertPattinson.png', 'Im_RyanReynolds.png', 'Im_ElijahWood.png', 'Im_BenAffleck.png', 'Im_MattDamon.png', 'Im_HughJackman.png', 'Im_RobertDowneyJr.png', 'Im_KeanuReeves.png', 'Im_RyanGosling.png'],same,1,0.40835080000033486,19,0,
BECO2507,train,pos,120,pos120_id20_im30.bmp_pos120_id20_im3.bmp,['Im_LeonardoDiCaprio.png', 'Im_RobertPattinson.png', 'Im_RyanReynolds.png', 'Im_ElijahWood.png', 'Im_BenAffleck.png', 'Im_MattDamon.png', 'Im_HughJackman.png', 'Im_RobertDowneyJr.png', 'Im_KeanuReeves.png', 'Im_RyanGosling.png'],same,1,0.4331945000003543,20,0,
BECO2507,train,pos,fs,posfs_id14_im24.bmp_posfs_id8_im13.bmp,['Im_LeonardoDiCaprio.png', 'Im_RobertPattinson.png', 'Im_RyanReynolds.png', 'Im_ElijahWood.png', 'Im_BenAffleck.png', 'Im_MattDamon.png', 'Im_HughJackman.png', 'Im_RobertDowneyJr.png', 'Im_KeanuReeves.png', 'Im_RyanGosling.png'],diff,1,0.42500599999948463,21,0,
BECO2507,train,pos,90,pos90_id18_im18.bmp_pos90_id18_im11.bmp,['Im_LeonardoDiCaprio.png', 'Im_RobertPattinson.png', 'Im_RyanReynolds.png', 'Im_ElijahWood.png', 'Im_BenAffleck.png', 'Im_MattDamon.png', 'Im_HughJackman.png', 'Im_RobertDowneyJr.png', 'Im_KeanuReeves.png', 'Im_RyanGosling.png'],same,1,0.4083560999997644,22,0,
BECO2507,train,pos,120,pos120_id11_im2.bmp_pos120_id1_im4.bmp,['Im_LeonardoDiCaprio.png', 'Im_RobertPattinson.png', 'Im_RyanReynolds.png', 'Im_ElijahWood.png', 'Im_BenAffleck.png', 'Im_MattDamon.png', 'Im_HughJackman.png', 'Im_RobertDowneyJr.png', 'Im_KeanuReeves.png', 'Im_RyanGosling.png'],diff,1,0.6087257999997746,23,0,
BECO2507,train,pos,0,pos0_id1_im24.bmp_pos0_id1_im21.bmp,['Im_LeonardoDiCaprio.png', 'Im_RobertPattinson.png', 'Im_RyanReynolds.png', 'Im_ElijahWood.png', 'Im_BenAffleck.png', 'Im_MattDamon.png', 'Im_HughJackman.png', 'Im_RobertDowneyJr.png', 'Im_KeanuReeves.png', 'Im_RyanGosling.png'],same,1,0.425117699999646,24,0,
BECO2507,train,inv,120,pos120_id14_im16.bmp_pos120_id1_im21.bmp,['Im_LeonardoDiCaprio.png', 'Im_RobertPattinson.png', 'Im_RyanReynolds.png', 'Im_ElijahWood.png', 'Im_BenAffleck.png', 'Im_MattDamon.png', 'Im_HughJackman.png', 'Im_RobertDowneyJr.png', 'Im_KeanuReeves.png', 'Im_RyanGosling.png'],diff,1,0.4250811000001704,25,0,
BECO2507,train,inv,120,pos120_id14_im24.bmp_pos120_id14_im16.bmp,['Im_LeonardoDiCaprio.png', 'Im_RobertPattinson.png', 'Im_RyanReynolds.png', 'Im_ElijahWood.png', 'Im_BenAffleck.png', 'Im_MattDamon.png', 'Im_HughJackman.png', 'Im_RobertDowneyJr.png', 'Im_KeanuReeves.png', 'Im_RyanGosling.png'],same,1,0.40817989999959536,26,0,
BECO2507,train,inv,150,pos150_id8_im21.bmp_pos150_id8_im20.bmp,['Im_LeonardoDiCaprio.png', 'Im_RobertPattinson.png', 'Im_RyanReynolds.png', 'Im_ElijahWood.png', 'Im_BenAffleck.png', 'Im_MattDamon.png', 'Im_HughJackman.png', 'Im_RobertDowneyJr.png', 'Im_KeanuReeves.png', 'Im_RyanGosling.png'],same,1,0.40814230000069074,27,0,
BECO2507,train,inv,60,pos60_id19_im27.bmp_pos60_id21_im16.bmp,['Im_LeonardoDiCaprio.png', 'Im_RobertPattinson.png', 'Im_RyanReynolds.png', 'Im_ElijahWood.png', 'Im_BenAffleck.png', 'Im_MattDamon.png', 'Im_HughJackman.png', 'Im_RobertDowneyJr.png', 'Im_KeanuReeves.png', 'Im_RyanGosling.png'],diff,1,0.43330059999971127,28,0,
BECO2507,train,inv,90,pos90_id20_im30.bmp_pos90_id8_im21.bmp,['Im_LeonardoDiCaprio.png', 'Im_RobertPattinson.png', 'Im_RyanReynolds.png', 'Im_ElijahWood.png', 'Im_BenAffleck.png', 'Im_MattDamon.png', 'Im_HughJackman.png', 'Im_RobertDowneyJr.png', 'Im_KeanuReeves.png', 'Im_RyanGosling.png'],same,0,0.4416950999993787,28,0,
BECO2507,train,inv,30,pos30_id19_im4.bmp_pos30_id8_im21.bmp,['Im_LeonardoDiCaprio.png', 'Im_RobertPattinson.png', 'Im_RyanReynolds.png', 'Im_ElijahWood.png', 'Im_BenAffleck.png', 'Im_MattDamon.png', 'Im_HughJackman.png', 'Im_RobertDowneyJr.png', 'Im_KeanuReeves.png', 'Im_RyanGosling.png'],diff,1,0.4082014000005074,29,0,
BECO2507,train,inv,30,pos30_id6_im18.bmp_pos30_id6_im12.bmp,['Im_LeonardoDiCaprio.png', 'Im_RobertPattinson.png', 'Im_RyanReynolds.png', 'Im_ElijahWood.png', 'Im_BenAffleck.png', 'Im_MattDamon.png', 'Im_HughJackman.png', 'Im_RobertDowneyJr.png', 'Im_KeanuReeves.png', 'Im_RyanGosling.png'],same,1,0.40837740000006306,30,0,
BECO2507,train,inv,150,pos150_id19_im27.bmp_pos150_id13_im15.bmp,['Im_LeonardoDiCaprio.png', 'Im_RobertPattinson.png', 'Im_RyanReynolds.png', 'Im_ElijahWood.png', 'Im_BenAffleck.png', 'Im_MattDamon.png', 'Im_HughJackman.png', 'Im_RobertDowneyJr.png', 'Im_KeanuReeves.png', 'Im_RyanGosling.png'],same,0,0.4916313000003356,30,0,
BECO2507,train,inv,90,pos90_id1_im24.bmp_pos90_id6_im18.bmp,['Im_LeonardoDiCaprio.png', 'Im_RobertPattinson.png', 'Im_RyanReynolds.png', 'Im_ElijahWood.png', 'Im_BenAffleck.png', 'Im_MattDamon.png', 'Im_HughJackman.png', 'Im_RobertDowneyJr.png', 'Im_KeanuReeves.png', 'Im_RyanGosling.png'],same,0,0.40814339999997173,30,0,
BECO2507,train,inv,0,pos0_id14_im24.bmp_pos0_id19_im8.bmp,['Im_LeonardoDiCaprio.png', 'Im_RobertPattinson.png', 'Im_RyanReynolds.png', 'Im_ElijahWood.png', 'Im_BenAffleck.png', 'Im_MattDamon.png', 'Im_HughJackman.png', 'Im_RobertDowneyJr.png', 'Im_KeanuReeves.png', 'Im_RyanGosling.png'],same,0,0.6586201000000074,30,0,
BECO2507,train,inv,fs,posfs_id11_im2.bmp_posfs_id1_im4.bmp,['Im_LeonardoDiCaprio.png', 'Im_RobertPattinson.png', 'Im_RyanReynolds.png', 'Im_ElijahWood.png', 'Im_BenAffleck.png', 'Im_MattDamon.png', 'Im_HughJackman.png', 'Im_RobertDowneyJr.png', 'Im_KeanuReeves.png', 'Im_RyanGosling.png'],diff,1,0.42496089999986,31,0,
BECO2507,train,inv,0,pos0_id1_im24.bmp_pos0_id1_im4.bmp,['Im_LeonardoDiCaprio.png', 'Im_RobertPattinson.png', 'Im_RyanReynolds.png', 'Im_ElijahWood.png', 'Im_BenAffleck.png', 'Im_MattDamon.png', 'Im_HughJackman.png', 'Im_RobertDowneyJr.png', 'Im_KeanuReeves.png', 'Im_RyanGosling.png'],same,1,0.4167246000006344,32,0,
BECO2507,train,inv,60,pos60_id6_im19.bmp_pos60_id6_im12.bmp,['Im_LeonardoDiCaprio.png', 'Im_RobertPattinson.png', 'Im_RyanReynolds.png', 'Im_ElijahWood.png', 'Im_BenAffleck.png', 'Im_MattDamon.png', 'Im_HughJackman.png', 'Im_RobertDowneyJr.png', 'Im_KeanuReeves.png', 'Im_RyanGosling.png'],same,1,0.4166752999999517,33,0,
BECO2507,train,inv,fs,posfs_id8_im21.bmp_posfs_id19_im4.bmp,['Im_LeonardoDiCaprio.png', 'Im_RobertPattinson.png', 'Im_RyanReynolds.png', 'Im_ElijahWood.png', 'Im_BenAffleck.png', 'Im_MattDamon.png', 'Im_HughJackman.png', 'Im_RobertDowneyJr.png', 'Im_KeanuReeves.png', 'Im_RyanGosling.png'],diff,1,0.4251040999997713,34,0,
BECO2507,train,neg,60,neg60_id6_im19.bmp_neg60_id1_im24.bmp,['Im_LeonardoDiCaprio.png', 'Im_RobertPattinson.png', 'Im_RyanReynolds.png', 'Im_ElijahWood.png', 'Im_BenAffleck.png', 'Im_MattDamon.png', 'Im_HughJackman.png', 'Im_RobertDowneyJr.png', 'Im_KeanuReeves.png', 'Im_RyanGosling.png'],same,0,0.6583120999994208,0,80.95238095238095,
BECO2507,train,neg,0,neg0_id8_im13.bmp_neg0_id8_im21.bmp,['Im_LeonardoDiCaprio.png', 'Im_RobertPattinson.png', 'Im_RyanReynolds.png', 'Im_ElijahWood.png', 'Im_BenAffleck.png', 'Im_MattDamon.png', 'Im_HughJackman.png', 'Im_RobertDowneyJr.png', 'Im_KeanuReeves.png', 'Im_RyanGosling.png'],same,1,0.42517659999975876,1,80.95238095238095,
BECO2507,train,neg,120,neg120_id20_im12.bmp_neg120_id13_im29.bmp,['Im_LeonardoDiCaprio.png', 'Im_RobertPattinson.png', 'Im_RyanReynolds.png', 'Im_ElijahWood.png', 'Im_BenAffleck.png', 'Im_MattDamon.png', 'Im_HughJackman.png', 'Im_RobertDowneyJr.png', 'Im_KeanuReeves.png', 'Im_RyanGosling.png'],diff,1,0.4331873999999516,2,80.95238095238095,
BECO2507,train,neg,30,neg30_id1_im24.bmp_neg30_id6_im18.bmp,['Im_LeonardoDiCaprio.png', 'Im_RobertPattinson.png', 'Im_RyanReynolds.png', 'Im_ElijahWood.png', 'Im_BenAffleck.png', 'Im_MattDamon.png', 'Im_HughJackman.png', 'Im_RobertDowneyJr.png', 'Im_KeanuReeves.png', 'Im_RyanGosling.png'],diff,1,0.8416459999998551,3,80.95238095238095,
BECO2507,train,neg,90,neg90_id13_im15.bmp_neg90_id13_im29.bmp,['Im_LeonardoDiCaprio.png', 'Im_RobertPattinson.png', 'Im_RyanReynolds.png', 'Im_ElijahWood.png', 'Im_BenAffleck.png', 'Im_MattDamon.png', 'Im_HughJackman.png', 'Im_RobertDowneyJr.png', 'Im_KeanuReeves.png', 'Im_RyanGosling.png'],same,1,0.40843430000040826,4,80.95238095238095,
BECO2507,train,neg,30,neg30_id8_im21.bmp_neg30_id20_im30.bmp,['Im_LeonardoDiCaprio.png', 'Im_RobertPattinson.png', 'Im_RyanReynolds.png', 'Im_ElijahWood.png', 'Im_BenAffleck.png', 'Im_MattDamon.png', 'Im_HughJackman.png', 'Im_RobertDowneyJr.png', 'Im_KeanuReeves.png', 'Im_RyanGosling.png'],same,0,0.47496659999978874,4,80.95238095238095,
BECO2507,train,neg,fs,negfs_id11_im2.bmp_negfs_id11_im10.bmp,['Im_LeonardoDiCaprio.png', 'Im_RobertPattinson.png', 'Im_RyanReynolds.png', 'Im_ElijahWood.png', 'Im_BenAffleck.png', 'Im_MattDamon.png', 'Im_HughJackman.png', 'Im_RobertDowneyJr.png', 'Im_KeanuReeves.png', 'Im_RyanGosling.png'],same,1,0.41674650000004476,5,80.95238095238095,
BECO2507,train,neg,0,neg0_id1_im21.bmp_neg0_id14_im16.bmp,['Im_LeonardoDiCaprio.png', 'Im_RobertPattinson.png', 'Im_RyanReynolds.png', 'Im_ElijahWood.png', 'Im_BenAffleck.png', 'Im_MattDamon.png', 'Im_HughJackman.png', 'Im_RobertDowneyJr.png', 'Im_KeanuReeves.png', 'Im_RyanGosling.png'],diff,1,0.600040700000136,6,80.95238095238095,
BECO2507,train,neg,fs,negfs_id20_im12.bmp_negfs_id11_im1.bmp,['Im_LeonardoDiCaprio.png', 'Im_RobertPattinson.png', 'Im_RyanReynolds.png', 'Im_ElijahWood.png', 'Im_BenAffleck.png', 'Im_MattDamon.png', 'Im_HughJackman.png', 'Im_RobertDowneyJr.png', 'Im_KeanuReeves.png', 'Im_RyanGosling.png'],diff,1,0.44175080000059097,7,80.95238095238095,
BECO2507,train,neg,90,neg90_id14_im24.bmp_neg90_id14_im16.bmp,['Im_LeonardoDiCaprio.png', 'Im_RobertPattinson.png', 'Im_RyanReynolds.png', 'Im_ElijahWood.png', 'Im_BenAffleck.png', 'Im_MattDamon.png', 'Im_HughJackman.png', 'Im_RobertDowneyJr.png', 'Im_KeanuReeves.png', 'Im_RyanGosling.png'],same,1,0.42506049999974493,8,80.95238095238095,
BECO2507,train,neg,150,neg150_id6_im12.bmp_neg150_id21_im16.bmp,['Im_LeonardoDiCaprio.png', 'Im_RobertPattinson.png', 'Im_RyanReynolds.png', 'Im_ElijahWood.png', 'Im_BenAffleck.png', 'Im_MattDamon.png', 'Im_HughJackman.png', 'Im_RobertDowneyJr.png', 'Im_KeanuReeves.png', 'Im_RyanGosling.png'],diff,1,0.42502779999995255,9,80.95238095238095,
BECO2507,train,neg,150,neg150_id13_im15.bmp_neg150_id13_im29.bmp,['Im_LeonardoDiCaprio.png', 'Im_RobertPattinson.png', 'Im_RyanReynolds.png', 'Im_ElijahWood.png', 'Im_BenAffleck.png', 'Im_MattDamon.png', 'Im_HughJackman.png', 'Im_RobertDowneyJr.png', 'Im_KeanuReeves.png', 'Im_RyanGosling.png'],same,1,0.4167208999997456,10,80.95238095238095,
BECO2507,train,neg,120,neg120_id8_im13.bmp_neg120_id21_im17.bmp,['Im_LeonardoDiCaprio.png', 'Im_RobertPattinson.png', 'Im_RyanReynolds.png', 'Im_ElijahWood.png', 'Im_BenAffleck.png', 'Im_MattDamon.png', 'Im_HughJackman.png', 'Im_RobertDowneyJr.png', 'Im_KeanuReeves.png', 'Im_RyanGosling.png'],diff,1,0.4167536000004475,11,80.95238095238095,
BECO2507,train,neg,60,neg60_id18_im18.bmp_neg60_id18_im11.bmp,['Im_LeonardoDiCaprio.png', 'Im_RobertPattinson.png', 'Im_RyanReynolds.png', 'Im_ElijahWood.png', 'Im_BenAffleck.png', 'Im_MattDamon.png', 'Im_HughJackman.png', 'Im_RobertDowneyJr.png', 'Im_KeanuReeves.png', 'Im_RyanGosling.png'],same,1,0.416721100000359,12,80.95238095238095,
BECO2507,train,inv,120,pos120_id1_im24.bmp_pos120_id1_im4.bmp,['Im_LeonardoDiCaprio.png', 'Im_RobertPattinson.png', 'Im_RyanReynolds.png', 'Im_ElijahWood.png', 'Im_BenAffleck.png', 'Im_MattDamon.png', 'Im_HughJackman.png', 'Im_RobertDowneyJr.png', 'Im_KeanuReeves.png', 'Im_RyanGosling.png'],same,1,0.4252977000005558,13,80.95238095238095,
BECO2507,train,inv,fs,posfs_id18_im18.bmp_posfs_id11_im10.bmp,['Im_LeonardoDiCaprio.png', 'Im_RobertPattinson.png', 'Im_RyanReynolds.png', 'Im_ElijahWood.png', 'Im_BenAffleck.png', 'Im_MattDamon.png', 'Im_HughJackman.png', 'Im_RobertDowneyJr.png', 'Im_KeanuReeves.png', 'Im_RyanGosling.png'],diff,1,0.42487119999987044,14,80.95238095238095,
BECO2507,train,inv,30,pos30_id20_im12.bmp_pos30_id11_im1.bmp,['Im_LeonardoDiCaprio.png', 'Im_RobertPattinson.png', 'Im_RyanReynolds.png', 'Im_ElijahWood.png', 'Im_BenAffleck.png', 'Im_MattDamon.png', 'Im_HughJackman.png', 'Im_RobertDowneyJr.png', 'Im_KeanuReeves.png', 'Im_RyanGosling.png'],diff,1,0.6083837999995012,15,80.95238095238095,
BECO2507,train,inv,30,pos30_id20_im3.bmp_pos30_id18_im19.bmp,['Im_LeonardoDiCaprio.png', 'Im_RobertPattinson.png', 'Im_RyanReynolds.png', 'Im_ElijahWood.png', 'Im_BenAffleck.png', 'Im_MattDamon.png', 'Im_HughJackman.png', 'Im_RobertDowneyJr.png', 'Im_KeanuReeves.png', 'Im_RyanGosling.png'],diff,1,0.6166441000004852,16,80.95238095238095,
BECO2507,train,inv,90,pos90_id19_im8.bmp_pos90_id19_im27.bmp,['Im_LeonardoDiCaprio.png', 'Im_RobertPattinson.png', 'Im_RyanReynolds.png', 'Im_ElijahWood.png', 'Im_BenAffleck.png', 'Im_MattDamon.png', 'Im_HughJackman.png', 'Im_RobertDowneyJr.png', 'Im_KeanuReeves.png', 'Im_RyanGosling.png'],diff,0,0.6585487000002104,16,80.95238095238095,
BECO2507,train,inv,150,pos150_id11_im2.bmp_pos150_id1_im4.bmp,['Im_LeonardoDiCaprio.png', 'Im_RobertPattinson.png', 'Im_RyanReynolds.png', 'Im_ElijahWood.png', 'Im_BenAffleck.png', 'Im_MattDamon.png', 'Im_HughJackman.png', 'Im_RobertDowneyJr.png', 'Im_KeanuReeves.png', 'Im_RyanGosling.png'],diff,1,0.4331688000002032,17,80.95238095238095,
BECO2507,train,inv,60,pos60_id1_im24.bmp_pos60_id1_im21.bmp,['Im_LeonardoDiCaprio.png', 'Im_RobertPattinson.png', 'Im_RyanReynolds.png', 'Im_ElijahWood.png', 'Im_BenAffleck.png', 'Im_MattDamon.png', 'Im_HughJackman.png', 'Im_RobertDowneyJr.png', 'Im_KeanuReeves.png', 'Im_RyanGosling.png'],same,1,0.41671060000044235,18,80.95238095238095,
BECO2507,train,inv,90,pos90_id13_im15.bmp_pos90_id19_im27.bmp,['Im_LeonardoDiCaprio.png', 'Im_RobertPattinson.png', 'Im_RyanReynolds.png', 'Im_ElijahWood.png', 'Im_BenAffleck.png', 'Im_MattDamon.png', 'Im_HughJackman.png', 'Im_RobertDowneyJr.png', 'Im_KeanuReeves.png', 'Im_RyanGosling.png'],diff,1,0.4250695999999152,19,80.95238095238095,
BECO2507,train,inv,0,pos0_id11_im2.bmp_pos0_id11_im1.bmp,['Im_LeonardoDiCaprio.png', 'Im_RobertPattinson.png', 'Im_RyanReynolds.png', 'Im_ElijahWood.png', 'Im_BenAffleck.png', 'Im_MattDamon.png', 'Im_HughJackman.png', 'Im_RobertDowneyJr.png', 'Im_KeanuReeves.png', 'Im_RyanGosling.png'],same,1,0.575391700000182,20,80.95238095238095,
BECO2507,train,inv,150,pos150_id13_im29.bmp_pos150_id11_im2.bmp,['Im_LeonardoDiCaprio.png', 'Im_RobertPattinson.png', 'Im_RyanReynolds.png', 'Im_ElijahWood.png', 'Im_BenAffleck.png', 'Im_MattDamon.png', 'Im_HughJackman.png', 'Im_RobertDowneyJr.png', 'Im_KeanuReeves.png', 'Im_RyanGosling.png'],diff,1,0.42487029999938386,21,80.95238095238095,
BECO2507,train,inv,fs,posfs_id14_im16.bmp_posfs_id6_im19.bmp,['Im_LeonardoDiCaprio.png', 'Im_RobertPattinson.png', 'Im_RyanReynolds.png', 'Im_ElijahWood.png', 'Im_BenAffleck.png', 'Im_MattDamon.png', 'Im_HughJackman.png', 'Im_RobertDowneyJr.png', 'Im_KeanuReeves.png', 'Im_RyanGosling.png'],diff,1,0.43359379999947123,22,80.95238095238095,
BECO2507,train,inv,0,pos0_id19_im27.bmp_pos0_id21_im16.bmp,['Im_LeonardoDiCaprio.png', 'Im_RobertPattinson.png', 'Im_RyanReynolds.png', 'Im_ElijahWood.png', 'Im_BenAffleck.png', 'Im_MattDamon.png', 'Im_HughJackman.png', 'Im_RobertDowneyJr.png', 'Im_KeanuReeves.png', 'Im_RyanGosling.png'],same,0,0.8257065999996485,22,80.95238095238095,
BECO2507,train,inv,60,pos60_id18_im18.bmp_pos60_id11_im10.bmp,['Im_LeonardoDiCaprio.png', 'Im_RobertPattinson.png', 'Im_RyanReynolds.png', 'Im_ElijahWood.png', 'Im_BenAffleck.png', 'Im_MattDamon.png', 'Im_HughJackman.png', 'Im_RobertDowneyJr.png', 'Im_KeanuReeves.png', 'Im_RyanGosling.png'],diff,1,0.416742699999304,23,80.95238095238095,
BECO2507,train,inv,120,pos120_id21_im22.bmp_pos120_id21_im17.bmp,['Im_LeonardoDiCaprio.png', 'Im_RobertPattinson.png', 'Im_RyanReynolds.png', 'Im_ElijahWood.png', 'Im_BenAffleck.png', 'Im_MattDamon.png', 'Im_HughJackman.png', 'Im_RobertDowneyJr.png', 'Im_KeanuReeves.png', 'Im_RyanGosling.png'],same,1,0.5915828999995938,24,80.95238095238095,
BECO2507,train,pos,150,pos150_id13_im15.bmp_pos150_id19_im27.bmp,['Im_LeonardoDiCaprio.png', 'Im_RobertPattinson.png', 'Im_RyanReynolds.png', 'Im_ElijahWood.png', 'Im_BenAffleck.png', 'Im_MattDamon.png', 'Im_HughJackman.png', 'Im_RobertDowneyJr.png', 'Im_KeanuReeves.png', 'Im_RyanGosling.png'],diff,1,0.42504209999970044,25,80.95238095238095,
BECO2507,train,pos,0,pos0_id13_im29.bmp_pos0_id11_im2.bmp,['Im_LeonardoDiCaprio.png', 'Im_RobertPattinson.png', 'Im_RyanReynolds.png', 'Im_ElijahWood.png', 'Im_BenAffleck.png', 'Im_MattDamon.png', 'Im_HughJackman.png', 'Im_RobertDowneyJr.png', 'Im_KeanuReeves.png', 'Im_RyanGosling.png'],diff,1,0.4083848999998736,26,80.95238095238095,
BECO2507,train,pos,120,pos120_id19_im4.bmp_pos120_id8_im20.bmp,['Im_LeonardoDiCaprio.png', 'Im_RobertPattinson.png', 'Im_RyanReynolds.png', 'Im_ElijahWood.png', 'Im_BenAffleck.png', 'Im_MattDamon.png', 'Im_HughJackman.png', 'Im_RobertDowneyJr.png', 'Im_KeanuReeves.png', 'Im_RyanGosling.png'],diff,1,0.4331324000004315,27,80.95238095238095,
BECO2507,train,pos,0,pos0_id6_im19.bmp_pos0_id6_im18.bmp,['Im_LeonardoDiCaprio.png', 'Im_RobertPattinson.png', 'Im_RyanReynolds.png', 'Im_ElijahWood.png', 'Im_BenAffleck.png', 'Im_MattDamon.png', 'Im_HughJackman.png', 'Im_RobertDowneyJr.png', 'Im_KeanuReeves.png', 'Im_RyanGosling.png'],same,1,0.42503099999976257,28,80.95238095238095,
BECO2507,train,pos,fs,posfs_id20_im30.bmp_posfs_id8_im21.bmp,['Im_LeonardoDiCaprio.png', 'Im_RobertPattinson.png', 'Im_RyanReynolds.png', 'Im_ElijahWood.png', 'Im_BenAffleck.png', 'Im_MattDamon.png', 'Im_HughJackman.png', 'Im_RobertDowneyJr.png', 'Im_KeanuReeves.png', 'Im_RyanGosling.png'],diff,1,0.40850979999959236,29,80.95238095238095,
BECO2507,train,pos,90,pos90_id18_im19.bmp_pos90_id21_im22.bmp,['Im_LeonardoDiCaprio.png', 'Im_RobertPattinson.png', 'Im_RyanReynolds.png', 'Im_ElijahWood.png', 'Im_BenAffleck.png', 'Im_MattDamon.png', 'Im_HughJackman.png', 'Im_RobertDowneyJr.png', 'Im_KeanuReeves.png', 'Im_RyanGosling.png'],diff,1,0.4250762000001487,30,80.95238095238095,
BECO2507,train,pos,60,pos60_id19_im27.bmp_pos60_id19_im8.bmp,['Im_LeonardoDiCaprio.png', 'Im_RobertPattinson.png', 'Im_RyanReynolds.png', 'Im_ElijahWood.png', 'Im_BenAffleck.png', 'Im_MattDamon.png', 'Im_HughJackman.png', 'Im_RobertDowneyJr.png', 'Im_KeanuReeves.png', 'Im_RyanGosling.png'],same,1,0.4083885999998529,31,80.95238095238095,
BECO2507,train,pos,150,pos150_id13_im29.bmp_pos150_id13_im15.bmp,['Im_LeonardoDiCaprio.png', 'Im_RobertPattinson.png', 'Im_RyanReynolds.png', 'Im_ElijahWood.png', 'Im_BenAffleck.png', 'Im_MattDamon.png', 'Im_HughJackman.png', 'Im_RobertDowneyJr.png', 'Im_KeanuReeves.png', 'Im_RyanGosling.png'],same,1,0.40856299999995827,32,80.95238095238095,
BECO2507,train,pos,90,pos90_id13_im29.bmp_pos90_id13_im10.bmp,['Im_LeonardoDiCaprio.png', 'Im_RobertPattinson.png', 'Im_RyanReynolds.png', 'Im_ElijahWood.png', 'Im_BenAffleck.png', 'Im_MattDamon.png', 'Im_HughJackman.png', 'Im_RobertDowneyJr.png', 'Im_KeanuReeves.png', 'Im_RyanGosling.png'],same,1,0.40804799999932584,33,80.95238095238095,
BECO2507,train,pos,60,pos60_id14_im16.bmp_pos60_id6_im19.bmp,['Im_LeonardoDiCaprio.png', 'Im_RobertPattinson.png', 'Im_RyanReynolds.png', 'Im_ElijahWood.png', 'Im_BenAffleck.png', 'Im_MattDamon.png', 'Im_HughJackman.png', 'Im_RobertDowneyJr.png', 'Im_KeanuReeves.png', 'Im_RyanGosling.png'],diff,1,0.42523069999970176,34,80.95238095238095,
BECO2507,train,pos,30,pos30_id1_im24.bmp_pos30_id6_im18.bmp,['Im_LeonardoDiCaprio.png', 'Im_RobertPattinson.png', 'Im_RyanReynolds.png', 'Im_ElijahWood.png', 'Im_BenAffleck.png', 'Im_MattDamon.png', 'Im_HughJackman.png', 'Im_RobertDowneyJr.png', 'Im_KeanuReeves.png', 'Im_RyanGosling.png'],diff,1,0.40838950000033947,35,80.95238095238095,
BECO2507,train,pos,30,pos30_id18_im18.bmp_pos30_id21_im22.bmp,['Im_LeonardoDiCaprio.png', 'Im_RobertPattinson.png', 'Im_RyanReynolds.png', 'Im_ElijahWood.png', 'Im_BenAffleck.png', 'Im_MattDamon.png', 'Im_HughJackman.png', 'Im_RobertDowneyJr.png', 'Im_KeanuReeves.png', 'Im_RyanGosling.png'],diff,1,0.4084245000003648,36,80.95238095238095,
BECO2507,train,pos,120,pos120_id1_im24.bmp_pos120_id6_im19.bmp,['Im_LeonardoDiCaprio.png', 'Im_RobertPattinson.png', 'Im_RyanReynolds.png', 'Im_ElijahWood.png', 'Im_BenAffleck.png', 'Im_MattDamon.png', 'Im_HughJackman.png', 'Im_RobertDowneyJr.png', 'Im_KeanuReeves.png', 'Im_RyanGosling.png'],diff,1,0.5095051000007516,37,80.95238095238095,
BECO2507,train,pos,fs,posfs_id21_im16.bmp_posfs_id21_im17.bmp,['Im_LeonardoDiCaprio.png', 'Im_RobertPattinson.png', 'Im_RyanReynolds.png', 'Im_ElijahWood.png', 'Im_BenAffleck.png', 'Im_MattDamon.png', 'Im_HughJackman.png', 'Im_RobertDowneyJr.png', 'Im_KeanuReeves.png', 'Im_RyanGosling.png'],same,1,0.40837680000004184,38,80.95238095238095,
BECO2507,0,inv,120,pos120_id11_im2.bmp_pos120_id1_im4.bmp,['Im_LeonardoDiCaprio.png', 'Im_RobertPattinson.png', 'Im_RyanReynolds.png', 'Im_ElijahWood.png', 'Im_BenAffleck.png', 'Im_MattDamon.png', 'Im_HughJackman.png', 'Im_RobertDowneyJr.png', 'Im_KeanuReeves.png', 'Im_RyanGosling.png'],same,0,0.45862680000027467,0,0,
BECO2507,0,inv,120,pos120_id6_im19.bmp_pos120_id1_im24.bmp,['Im_LeonardoDiCaprio.png', 'Im_RobertPattinson.png', 'Im_RyanReynolds.png', 'Im_ElijahWood.png', 'Im_BenAffleck.png', 'Im_MattDamon.png', 'Im_HughJackman.png', 'Im_RobertDowneyJr.png', 'Im_KeanuReeves.png', 'Im_RyanGosling.png'],diff,1,0.4249197999997705,1,0,
BECO2507,0,inv,0,pos0_id8_im20.bmp_pos0_id8_im13.bmp,['Im_LeonardoDiCaprio.png', 'Im_RobertPattinson.png', 'Im_RyanReynolds.png', 'Im_ElijahWood.png', 'Im_BenAffleck.png', 'Im_MattDamon.png', 'Im_HughJackman.png', 'Im_RobertDowneyJr.png', 'Im_KeanuReeves.png', 'Im_RyanGosling.png'],same,1,0.4167338999995991,2,0,
BECO2507,0,inv,150,pos150_id14_im18.bmp_pos150_id14_im16.bmp,['Im_LeonardoDiCaprio.png', 'Im_RobertPattinson.png', 'Im_RyanReynolds.png', 'Im_ElijahWood.png', 'Im_BenAffleck.png', 'Im_MattDamon.png', 'Im_HughJackman.png', 'Im_RobertDowneyJr.png', 'Im_KeanuReeves.png', 'Im_RyanGosling.png'],same,1,0.42507019999993645,3,0,
BECO2507,0,inv,60,pos60_id14_im24.bmp_pos60_id8_im13.bmp,['Im_LeonardoDiCaprio.png', 'Im_RobertPattinson.png', 'Im_RyanReynolds.png', 'Im_ElijahWood.png', 'Im_BenAffleck.png', 'Im_MattDamon.png', 'Im_HughJackman.png', 'Im_RobertDowneyJr.png', 'Im_KeanuReeves.png', 'Im_RyanGosling.png'],same,0,0.4084015999997064,3,0,
BECO2507,0,inv,fs,posfs_id14_im16.bmp_posfs_id1_im21.bmp,['Im_LeonardoDiCaprio.png', 'Im_RobertPattinson.png', 'Im_RyanReynolds.png', 'Im_ElijahWood.png', 'Im_BenAffleck.png', 'Im_MattDamon.png', 'Im_HughJackman.png', 'Im_RobertDowneyJr.png', 'Im_KeanuReeves.png', 'Im_RyanGosling.png'],diff,1,0.41683219999958965,4,0,
BECO2507,0,inv,90,pos90_id6_im18.bmp_pos90_id6_im19.bmp,['Im_LeonardoDiCaprio.png', 'Im_RobertPattinson.png', 'Im_RyanReynolds.png', 'Im_ElijahWood.png', 'Im_BenAffleck.png', 'Im_MattDamon.png', 'Im_HughJackman.png', 'Im_RobertDowneyJr.png', 'Im_KeanuReeves.png', 'Im_RyanGosling.png'],same,1,0.4250748000004023,5,0,
BECO2507,0,inv,0,pos0_id6_im12.bmp_pos0_id6_im19.bmp,['Im_LeonardoDiCaprio.png', 'Im_RobertPattinson.png', 'Im_RyanReynolds.png', 'Im_ElijahWood.png', 'Im_BenAffleck.png', 'Im_MattDamon.png', 'Im_HughJackman.png', 'Im_RobertDowneyJr.png', 'Im_KeanuReeves.png', 'Im_RyanGosling.png'],same,1,0.4248262999999497,6,0,
BECO2507,0,inv,90,pos90_id20_im3.bmp_pos90_id11_im10.bmp,['Im_LeonardoDiCaprio.png', 'Im_RobertPattinson.png', 'Im_RyanReynolds.png', 'Im_ElijahWood.png', 'Im_BenAffleck.png', 'Im_MattDamon.png', 'Im_HughJackman.png', 'Im_RobertDowneyJr.png', 'Im_KeanuReeves.png', 'Im_RyanGosling.png'],same,0,0.4164843999997174,6,0,
BECO2507,0,inv,30,pos30_id14_im24.bmp_pos30_id19_im8.bmp,['Im_LeonardoDiCaprio.png', 'Im_RobertPattinson.png', 'Im_RyanReynolds.png', 'Im_ElijahWood.png', 'Im_BenAffleck.png', 'Im_MattDamon.png', 'Im_HughJackman.png', 'Im_RobertDowneyJr.png', 'Im_KeanuReeves.png', 'Im_RyanGosling.png'],diff,1,0.5166678999994474,7,0,
BECO2507,0,inv,60,pos60_id13_im15.bmp_pos60_id13_im29.bmp,['Im_LeonardoDiCaprio.png', 'Im_RobertPattinson.png', 'Im_RyanReynolds.png', 'Im_ElijahWood.png', 'Im_BenAffleck.png', 'Im_MattDamon.png', 'Im_HughJackman.png', 'Im_RobertDowneyJr.png', 'Im_KeanuReeves.png', 'Im_RyanGosling.png'],same,1,0.4251345000002402,8,0,
BECO2507,0,inv,150,pos150_id6_im18.bmp_pos150_id6_im12.bmp,['Im_LeonardoDiCaprio.png', 'Im_RobertPattinson.png', 'Im_RyanReynolds.png', 'Im_ElijahWood.png', 'Im_BenAffleck.png', 'Im_MattDamon.png', 'Im_HughJackman.png', 'Im_RobertDowneyJr.png', 'Im_KeanuReeves.png', 'Im_RyanGosling.png'],same,1,0.4168045999995229,9,0,
BECO2507,0,inv,30,pos30_id11_im2.bmp_pos30_id1_im4.bmp,['Im_LeonardoDiCaprio.png', 'Im_RobertPattinson.png', 'Im_RyanReynolds.png', 'Im_ElijahWood.png', 'Im_BenAffleck.png', 'Im_MattDamon.png', 'Im_HughJackman.png', 'Im_RobertDowneyJr.png', 'Im_KeanuReeves.png', 'Im_RyanGosling.png'],diff,1,0.4166908000006515,10,0,
BECO2507,0,inv,fs,posfs_id14_im18.bmp_posfs_id6_im18.bmp,['Im_LeonardoDiCaprio.png', 'Im_RobertPattinson.png', 'Im_RyanReynolds.png', 'Im_ElijahWood.png', 'Im_BenAffleck.png', 'Im_MattDamon.png', 'Im_HughJackman.png', 'Im_RobertDowneyJr.png', 'Im_KeanuReeves.png', 'Im_RyanGosling.png'],diff,1,0.41670539999995526,11,0,
BECO2507,1,neg,30,neg30_id13_im29.bmp_neg30_id20_im12.bmp,['Im_LeonardoDiCaprio.png', 'Im_RobertPattinson.png', 'Im_RyanReynolds.png', 'Im_ElijahWood.png', 'Im_BenAffleck.png', 'Im_MattDamon.png', 'Im_HughJackman.png', 'Im_RobertDowneyJr.png', 'Im_KeanuReeves.png', 'Im_RyanGosling.png'],diff,1,0.4251595999994606,12,0,
BECO2507,1,neg,0,neg0_id14_im18.bmp_neg0_id14_im24.bmp,['Im_LeonardoDiCaprio.png', 'Im_RobertPattinson.png', 'Im_RyanReynolds.png', 'Im_ElijahWood.png', 'Im_BenAffleck.png', 'Im_MattDamon.png', 'Im_HughJackman.png', 'Im_RobertDowneyJr.png', 'Im_KeanuReeves.png', 'Im_RyanGosling.png'],same,1,0.4167040000002089,13,0,
BECO2507,1,neg,120,neg120_id6_im19.bmp_neg120_id6_im12.bmp,['Im_LeonardoDiCaprio.png', 'Im_RobertPattinson.png', 'Im_RyanReynolds.png', 'Im_ElijahWood.png', 'Im_BenAffleck.png', 'Im_MattDamon.png', 'Im_HughJackman.png', 'Im_RobertDowneyJr.png', 'Im_KeanuReeves.png', 'Im_RyanGosling.png'],same,1,0.4838106000006519,14,0,
BECO2507,1,neg,90,neg90_id13_im10.bmp_neg90_id13_im29.bmp,['Im_LeonardoDiCaprio.png', 'Im_RobertPattinson.png', 'Im_RyanReynolds.png', 'Im_ElijahWood.png', 'Im_BenAffleck.png', 'Im_MattDamon.png', 'Im_HughJackman.png', 'Im_RobertDowneyJr.png', 'Im_KeanuReeves.png', 'Im_RyanGosling.png'],same,1,0.42567589999998745,15,0,
BECO2507,1,neg,0,neg0_id18_im11.bmp_neg0_id13_im15.bmp,['Im_LeonardoDiCaprio.png', 'Im_RobertPattinson.png', 'Im_RyanReynolds.png', 'Im_ElijahWood.png', 'Im_BenAffleck.png', 'Im_MattDamon.png', 'Im_HughJackman.png', 'Im_RobertDowneyJr.png', 'Im_KeanuReeves.png', 'Im_RyanGosling.png'],diff,1,0.5251439000003302,16,0,
BECO2507,1,neg,150,neg150_id19_im8.bmp_neg150_id14_im24.bmp,['Im_LeonardoDiCaprio.png', 'Im_RobertPattinson.png', 'Im_RyanReynolds.png', 'Im_ElijahWood.png', 'Im_BenAffleck.png', 'Im_MattDamon.png', 'Im_HughJackman.png', 'Im_RobertDowneyJr.png', 'Im_KeanuReeves.png', 'Im_RyanGosling.png'],same,0,0.4250673000005918,16,0,
BECO2507,1,neg,120,neg120_id1_im24.bmp_neg120_id6_im18.bmp,['Im_LeonardoDiCaprio.png', 'Im_RobertPattinson.png', 'Im_RyanReynolds.png', 'Im_ElijahWood.png', 'Im_BenAffleck.png', 'Im_MattDamon.png', 'Im_HughJackman.png', 'Im_RobertDowneyJr.png', 'Im_KeanuReeves.png', 'Im_RyanGosling.png'],diff,1,0.4250417000002926,17,0,
BECO2507,1,neg,30,neg30_id21_im22.bmp_neg30_id21_im16.bmp,['Im_LeonardoDiCaprio.png', 'Im_RobertPattinson.png', 'Im_RyanReynolds.png', 'Im_ElijahWood.png', 'Im_BenAffleck.png', 'Im_MattDamon.png', 'Im_HughJackman.png', 'Im_RobertDowneyJr.png', 'Im_KeanuReeves.png', 'Im_RyanGosling.png'],same,1,0.4250198999998247,18,0,
BECO2507,1,neg,fs,negfs_id13_im10.bmp_negfs_id13_im29.bmp,['Im_LeonardoDiCaprio.png', 'Im_RobertPattinson.png', 'Im_RyanReynolds.png', 'Im_ElijahWood.png', 'Im_BenAffleck.png', 'Im_MattDamon.png', 'Im_HughJackman.png', 'Im_RobertDowneyJr.png', 'Im_KeanuReeves.png', 'Im_RyanGosling.png'],same,1,0.4418724999995902,19,0,
BECO2507,1,neg,90,neg90_id19_im27.bmp_neg90_id19_im4.bmp,['Im_LeonardoDiCaprio.png', 'Im_RobertPattinson.png', 'Im_RyanReynolds.png', 'Im_ElijahWood.png', 'Im_BenAffleck.png', 'Im_MattDamon.png', 'Im_HughJackman.png', 'Im_RobertDowneyJr.png', 'Im_KeanuReeves.png', 'Im_RyanGosling.png'],same,1,0.41683610000018234,20,0,
BECO2507,1,neg,fs,negfs_id6_im12.bmp_negfs_id11_im1.bmp,['Im_LeonardoDiCaprio.png', 'Im_RobertPattinson.png', 'Im_RyanReynolds.png', 'Im_ElijahWood.png', 'Im_BenAffleck.png', 'Im_MattDamon.png', 'Im_HughJackman.png', 'Im_RobertDowneyJr.png', 'Im_KeanuReeves.png', 'Im_RyanGosling.png'],diff,1,0.4251053999996657,21,0,
BECO2507,1,neg,60,neg60_id14_im16.bmp_neg60_id14_im24.bmp,['Im_LeonardoDiCaprio.png', 'Im_RobertPattinson.png', 'Im_RyanReynolds.png', 'Im_ElijahWood.png', 'Im_BenAffleck.png', 'Im_MattDamon.png', 'Im_HughJackman.png', 'Im_RobertDowneyJr.png', 'Im_KeanuReeves.png', 'Im_RyanGosling.png'],diff,0,0.41696979999960604,21,0,
BECO2507,1,neg,150,neg150_id19_im4.bmp_neg150_id8_im20.bmp,['Im_LeonardoDiCaprio.png', 'Im_RobertPattinson.png', 'Im_RyanReynolds.png', 'Im_ElijahWood.png', 'Im_BenAffleck.png', 'Im_MattDamon.png', 'Im_HughJackman.png', 'Im_RobertDowneyJr.png', 'Im_KeanuReeves.png', 'Im_RyanGosling.png'],same,0,0.9088408000006893,21,0,
BECO2507,1,neg,60,neg60_id13_im10.bmp_neg60_id13_im29.bmp,['Im_LeonardoDiCaprio.png', 'Im_RobertPattinson.png', 'Im_RyanReynolds.png', 'Im_ElijahWood.png', 'Im_BenAffleck.png', 'Im_MattDamon.png', 'Im_HughJackman.png', 'Im_RobertDowneyJr.png', 'Im_KeanuReeves.png', 'Im_RyanGosling.png'],same,1,0.41661089999979595,22,0,
BECO2507,2,inv,30,pos30_id19_im4.bmp_pos30_id8_im20.bmp,['Im_LeonardoDiCaprio.png', 'Im_RobertPattinson.png', 'Im_RyanReynolds.png', 'Im_ElijahWood.png', 'Im_BenAffleck.png', 'Im_MattDamon.png', 'Im_HughJackman.png', 'Im_RobertDowneyJr.png', 'Im_KeanuReeves.png', 'Im_RyanGosling.png'],diff,1,0.4167689000005339,23,0,
BECO2507,2,inv,120,pos120_id6_im12.bmp_pos120_id6_im19.bmp,['Im_LeonardoDiCaprio.png', 'Im_RobertPattinson.png', 'Im_RyanReynolds.png', 'Im_ElijahWood.png', 'Im_BenAffleck.png', 'Im_MattDamon.png', 'Im_HughJackman.png', 'Im_RobertDowneyJr.png', 'Im_KeanuReeves.png', 'Im_RyanGosling.png'],same,1,0.41669010000077833,24,0,
BECO2507,2,inv,150,pos150_id19_im8.bmp_pos150_id19_im27.bmp,['Im_LeonardoDiCaprio.png', 'Im_RobertPattinson.png', 'Im_RyanReynolds.png', 'Im_ElijahWood.png', 'Im_BenAffleck.png', 'Im_MattDamon.png', 'Im_HughJackman.png', 'Im_RobertDowneyJr.png', 'Im_KeanuReeves.png', 'Im_RyanGosling.png'],same,1,0.4166731000004802,25,0,
BECO2507,2,inv,60,pos60_id14_im16.bmp_pos60_id14_im18.bmp,['Im_LeonardoDiCaprio.png', 'Im_RobertPattinson.png', 'Im_RyanReynolds.png', 'Im_ElijahWood.png', 'Im_BenAffleck.png', 'Im_MattDamon.png', 'Im_HughJackman.png', 'Im_RobertDowneyJr.png', 'Im_KeanuReeves.png', 'Im_RyanGosling.png'],same,1,0.42513159999998607,26,0,
BECO2507,2,inv,fs,posfs_id13_im29.bmp_posfs_id13_im10.bmp,['Im_LeonardoDiCaprio.png', 'Im_RobertPattinson.png', 'Im_RyanReynolds.png', 'Im_ElijahWood.png', 'Im_BenAffleck.png', 'Im_MattDamon.png', 'Im_HughJackman.png', 'Im_RobertDowneyJr.png', 'Im_KeanuReeves.png', 'Im_RyanGosling.png'],same,1,0.40834930000073655,27,0,
BECO2507,2,inv,30,pos30_id19_im27.bmp_pos30_id21_im16.bmp,['Im_LeonardoDiCaprio.png', 'Im_RobertPattinson.png', 'Im_RyanReynolds.png', 'Im_ElijahWood.png', 'Im_BenAffleck.png', 'Im_MattDamon.png', 'Im_HughJackman.png', 'Im_RobertDowneyJr.png', 'Im_KeanuReeves.png', 'Im_RyanGosling.png'],diff,1,0.41673139999966224,28,0,
BECO2507,2,inv,150,pos150_id20_im30.bmp_pos150_id20_im3.bmp,['Im_LeonardoDiCaprio.png', 'Im_RobertPattinson.png', 'Im_RyanReynolds.png', 'Im_ElijahWood.png', 'Im_BenAffleck.png', 'Im_MattDamon.png', 'Im_HughJackman.png', 'Im_RobertDowneyJr.png', 'Im_KeanuReeves.png', 'Im_RyanGosling.png'],same,1,0.40842390000034356,29,0,
BECO2507,2,inv,fs,posfs_id13_im15.bmp_posfs_id13_im10.bmp,['Im_LeonardoDiCaprio.png', 'Im_RobertPattinson.png', 'Im_RyanReynolds.png', 'Im_ElijahWood.png', 'Im_BenAffleck.png', 'Im_MattDamon.png', 'Im_HughJackman.png', 'Im_RobertDowneyJr.png', 'Im_KeanuReeves.png', 'Im_RyanGosling.png'],same,1,0.4167451000002984,30,0,
BECO2507,2,inv,0,pos0_id11_im10.bmp_pos0_id18_im18.bmp,['Im_LeonardoDiCaprio.png', 'Im_RobertPattinson.png', 'Im_RyanReynolds.png', 'Im_ElijahWood.png', 'Im_BenAffleck.png', 'Im_MattDamon.png', 'Im_HughJackman.png', 'Im_RobertDowneyJr.png', 'Im_KeanuReeves.png', 'Im_RyanGosling.png'],diff,1,0.41669550000005984,31,0,
BECO2507,2,inv,90,pos90_id18_im19.bmp_pos90_id20_im3.bmp,['Im_LeonardoDiCaprio.png', 'Im_RobertPattinson.png', 'Im_RyanReynolds.png', 'Im_ElijahWood.png', 'Im_BenAffleck.png', 'Im_MattDamon.png', 'Im_HughJackman.png', 'Im_RobertDowneyJr.png', 'Im_KeanuReeves.png', 'Im_RyanGosling.png'],same,0,0.48353339999994205,31,0,
BECO2507,2,inv,90,pos90_id21_im16.bmp_pos90_id21_im22.bmp,['Im_LeonardoDiCaprio.png', 'Im_RobertPattinson.png', 'Im_RyanReynolds.png', 'Im_ElijahWood.png', 'Im_BenAffleck.png', 'Im_MattDamon.png', 'Im_HughJackman.png', 'Im_RobertDowneyJr.png', 'Im_KeanuReeves.png', 'Im_RyanGosling.png'],diff,0,0.6503752999997232,31,0,
BECO2507,2,inv,60,pos60_id18_im11.bmp_pos60_id20_im30.bmp,['Im_LeonardoDiCaprio.png', 'Im_RobertPattinson.png', 'Im_RyanReynolds.png', 'Im_ElijahWood.png', 'Im_BenAffleck.png', 'Im_MattDamon.png', 'Im_HughJackman.png', 'Im_RobertDowneyJr.png', 'Im_KeanuReeves.png', 'Im_RyanGosling.png'],diff,1,0.41673139999966224,32,0,
BECO2507,2,inv,120,pos120_id18_im11.bmp_pos120_id18_im19.bmp,['Im_LeonardoDiCaprio.png', 'Im_RobertPattinson.png', 'Im_RyanReynolds.png', 'Im_ElijahWood.png', 'Im_BenAffleck.png', 'Im_MattDamon.png', 'Im_HughJackman.png', 'Im_RobertDowneyJr.png', 'Im_KeanuReeves.png', 'Im_RyanGosling.png'],same,1,0.4083312000002479,33,0,
BECO2507,2,inv,0,pos0_id14_im24.bmp_pos0_id14_im18.bmp,['Im_LeonardoDiCaprio.png', 'Im_RobertPattinson.png', 'Im_RyanReynolds.png', 'Im_ElijahWood.png', 'Im_BenAffleck.png', 'Im_MattDamon.png', 'Im_HughJackman.png', 'Im_RobertDowneyJr.png', 'Im_KeanuReeves.png', 'Im_RyanGosling.png'],same,1,0.41679669999939506,34,0,
BECO2507,3,pos,0,pos0_id1_im24.bmp_pos0_id6_im18.bmp,['Im_LeonardoDiCaprio.png', 'Im_RobertPattinson.png', 'Im_RyanReynolds.png', 'Im_ElijahWood.png', 'Im_BenAffleck.png', 'Im_MattDamon.png', 'Im_HughJackman.png', 'Im_RobertDowneyJr.png', 'Im_KeanuReeves.png', 'Im_RyanGosling.png'],diff,1,0.4168478999999934,1,80.95238095238095,
BECO2507,3,pos,120,pos120_id13_im29.bmp_pos120_id20_im12.bmp,['Im_LeonardoDiCaprio.png', 'Im_RobertPattinson.png', 'Im_RyanReynolds.png', 'Im_ElijahWood.png', 'Im_BenAffleck.png', 'Im_MattDamon.png', 'Im_HughJackman.png', 'Im_RobertDowneyJr.png', 'Im_KeanuReeves.png', 'Im_RyanGosling.png'],diff,1,0.4166960000002291,2,80.95238095238095,
BECO2507,3,pos,90,pos90_id8_im20.bmp_pos90_id19_im4.bmp,['Im_LeonardoDiCaprio.png', 'Im_RobertPattinson.png', 'Im_RyanReynolds.png', 'Im_ElijahWood.png', 'Im_BenAffleck.png', 'Im_MattDamon.png', 'Im_HughJackman.png', 'Im_RobertDowneyJr.png', 'Im_KeanuReeves.png', 'Im_RyanGosling.png'],diff,1,0.4252132999999958,3,80.95238095238095,
BECO2507,3,pos,90,pos90_id1_im24.bmp_pos90_id1_im4.bmp,['Im_LeonardoDiCaprio.png', 'Im_RobertPattinson.png', 'Im_RyanReynolds.png', 'Im_ElijahWood.png', 'Im_BenAffleck.png', 'Im_MattDamon.png', 'Im_HughJackman.png', 'Im_RobertDowneyJr.png', 'Im_KeanuReeves.png', 'Im_RyanGosling.png'],same,1,0.4169145000005301,4,80.95238095238095,
BECO2507,3,pos,150,pos150_id21_im16.bmp_pos150_id21_im22.bmp,['Im_LeonardoDiCaprio.png', 'Im_RobertPattinson.png', 'Im_RyanReynolds.png', 'Im_ElijahWood.png', 'Im_BenAffleck.png', 'Im_MattDamon.png', 'Im_HughJackman.png', 'Im_RobertDowneyJr.png', 'Im_KeanuReeves.png', 'Im_RyanGosling.png'],same,1,0.4336674000005587,5,80.95238095238095,
BECO2507,3,pos,30,pos30_id1_im24.bmp_pos30_id1_im21.bmp,['Im_LeonardoDiCaprio.png', 'Im_RobertPattinson.png', 'Im_RyanReynolds.png', 'Im_ElijahWood.png', 'Im_BenAffleck.png', 'Im_MattDamon.png', 'Im_HughJackman.png', 'Im_RobertDowneyJr.png', 'Im_KeanuReeves.png', 'Im_RyanGosling.png'],same,1,0.40830319999986386,6,80.95238095238095,
BECO2507,3,pos,0,pos0_id6_im18.bmp_pos0_id14_im18.bmp,['Im_LeonardoDiCaprio.png', 'Im_RobertPattinson.png', 'Im_RyanReynolds.png', 'Im_ElijahWood.png', 'Im_BenAffleck.png', 'Im_MattDamon.png', 'Im_HughJackman.png', 'Im_RobertDowneyJr.png', 'Im_KeanuReeves.png', 'Im_RyanGosling.png'],diff,1,0.43344900000010966,7,80.95238095238095,
BECO2507,3,pos,30,pos30_id21_im22.bmp_pos30_id21_im16.bmp,['Im_LeonardoDiCaprio.png', 'Im_RobertPattinson.png', 'Im_RyanReynolds.png', 'Im_ElijahWood.png', 'Im_BenAffleck.png', 'Im_MattDamon.png', 'Im_HughJackman.png', 'Im_RobertDowneyJr.png', 'Im_KeanuReeves.png', 'Im_RyanGosling.png'],same,1,0.4252098000006299,8,80.95238095238095,
BECO2507,3,pos,150,pos150_id19_im27.bmp_pos150_id19_im8.bmp,['Im_LeonardoDiCaprio.png', 'Im_RobertPattinson.png', 'Im_RyanReynolds.png', 'Im_ElijahWood.png', 'Im_BenAffleck.png', 'Im_MattDamon.png', 'Im_HughJackman.png', 'Im_RobertDowneyJr.png', 'Im_KeanuReeves.png', 'Im_RyanGosling.png'],same,1,0.4167625999998563,9,80.95238095238095,
BECO2507,3,pos,fs,posfs_id13_im15.bmp_posfs_id18_im11.bmp,['Im_LeonardoDiCaprio.png', 'Im_RobertPattinson.png', 'Im_RyanReynolds.png', 'Im_ElijahWood.png', 'Im_BenAffleck.png', 'Im_MattDamon.png', 'Im_HughJackman.png', 'Im_RobertDowneyJr.png', 'Im_KeanuReeves.png', 'Im_RyanGosling.png'],diff,1,0.4167410000000018,10,80.95238095238095,
BECO2507,3,pos,fs,posfs_id1_im4.bmp_posfs_id1_im24.bmp,['Im_LeonardoDiCaprio.png', 'Im_RobertPattinson.png', 'Im_RyanReynolds.png', 'Im_ElijahWood.png', 'Im_BenAffleck.png', 'Im_MattDamon.png', 'Im_HughJackman.png', 'Im_RobertDowneyJr.png', 'Im_KeanuReeves.png', 'Im_RyanGosling.png'],same,1,0.41682740000032936,11,80.95238095238095,
BECO2507,3,pos,120,pos120_id21_im16.bmp_pos120_id19_im27.bmp,['Im_LeonardoDiCaprio.png', 'Im_RobertPattinson.png', 'Im_RyanReynolds.png', 'Im_ElijahWood.png', 'Im_BenAffleck.png', 'Im_MattDamon.png', 'Im_HughJackman.png', 'Im_RobertDowneyJr.png', 'Im_KeanuReeves.png', 'Im_RyanGosling.png'],diff,1,0.42505489999985,12,80.95238095238095,
BECO2507,3,pos,60,pos60_id13_im10.bmp_pos60_id19_im8.bmp,['Im_LeonardoDiCaprio.png', 'Im_RobertPattinson.png', 'Im_RyanReynolds.png', 'Im_ElijahWood.png', 'Im_BenAffleck.png', 'Im_MattDamon.png', 'Im_HughJackman.png', 'Im_RobertDowneyJr.png', 'Im_KeanuReeves.png', 'Im_RyanGosling.png'],diff,1,0.4085338999993837,13,80.95238095238095,
BECO2507,3,pos,60,pos60_id8_im20.bmp_pos60_id8_im13.bmp,['Im_LeonardoDiCaprio.png', 'Im_RobertPattinson.png', 'Im_RyanReynolds.png', 'Im_ElijahWood.png', 'Im_BenAffleck.png', 'Im_MattDamon.png', 'Im_HughJackman.png', 'Im_RobertDowneyJr.png', 'Im_KeanuReeves.png', 'Im_RyanGosling.png'],same,1,0.5666400999998586,14,80.95238095238095,
BECO2507,4,neg,150,neg150_id21_im16.bmp_neg150_id21_im17.bmp,['Im_LeonardoDiCaprio.png', 'Im_RobertPattinson.png', 'Im_RyanReynolds.png', 'Im_ElijahWood.png', 'Im_BenAffleck.png', 'Im_MattDamon.png', 'Im_HughJackman.png', 'Im_RobertDowneyJr.png', 'Im_KeanuReeves.png', 'Im_RyanGosling.png'],same,1,0.4167556999991575,15,80.95238095238095,
BECO2507,4,neg,fs,negfs_id14_im18.bmp_negfs_id14_im16.bmp,['Im_LeonardoDiCaprio.png', 'Im_RobertPattinson.png', 'Im_RyanReynolds.png', 'Im_ElijahWood.png', 'Im_BenAffleck.png', 'Im_MattDamon.png', 'Im_HughJackman.png', 'Im_RobertDowneyJr.png', 'Im_KeanuReeves.png', 'Im_RyanGosling.png'],same,1,0.416871500000525,16,80.95238095238095,
BECO2507,4,neg,fs,negfs_id13_im10.bmp_negfs_id13_im15.bmp,['Im_LeonardoDiCaprio.png', 'Im_RobertPattinson.png', 'Im_RyanReynolds.png', 'Im_ElijahWood.png', 'Im_BenAffleck.png', 'Im_MattDamon.png', 'Im_HughJackman.png', 'Im_RobertDowneyJr.png', 'Im_KeanuReeves.png', 'Im_RyanGosling.png'],same,1,0.41667150000012043,17,80.95238095238095,
BECO2507,4,neg,30,neg30_id21_im16.bmp_neg30_id6_im12.bmp,['Im_LeonardoDiCaprio.png', 'Im_RobertPattinson.png', 'Im_RyanReynolds.png', 'Im_ElijahWood.png', 'Im_BenAffleck.png', 'Im_MattDamon.png', 'Im_HughJackman.png', 'Im_RobertDowneyJr.png', 'Im_KeanuReeves.png', 'Im_RyanGosling.png'],diff,1,0.4084104000003208,18,80.95238095238095,
BECO2507,4,neg,90,neg90_id6_im19.bmp_neg90_id6_im12.bmp,['Im_LeonardoDiCaprio.png', 'Im_RobertPattinson.png', 'Im_RyanReynolds.png', 'Im_ElijahWood.png', 'Im_BenAffleck.png', 'Im_MattDamon.png', 'Im_HughJackman.png', 'Im_RobertDowneyJr.png', 'Im_KeanuReeves.png', 'Im_RyanGosling.png'],same,1,0.40830240000013873,19,80.95238095238095,
BECO2507,4,neg,0,neg0_id19_im8.bmp_neg0_id19_im27.bmp,['Im_LeonardoDiCaprio.png', 'Im_RobertPattinson.png', 'Im_RyanReynolds.png', 'Im_ElijahWood.png', 'Im_BenAffleck.png', 'Im_MattDamon.png', 'Im_HughJackman.png', 'Im_RobertDowneyJr.png', 'Im_KeanuReeves.png', 'Im_RyanGosling.png'],same,1,0.43357899999955407,20,80.95238095238095,
BECO2507,4,neg,30,neg30_id21_im17.bmp_neg30_id8_im13.bmp,['Im_LeonardoDiCaprio.png', 'Im_RobertPattinson.png', 'Im_RyanReynolds.png', 'Im_ElijahWood.png', 'Im_BenAffleck.png', 'Im_MattDamon.png', 'Im_HughJackman.png', 'Im_RobertDowneyJr.png', 'Im_KeanuReeves.png', 'Im_RyanGosling.png'],diff,1,0.4168730000001233,21,80.95238095238095,
BECO2507,4,neg,120,neg120_id20_im30.bmp_neg120_id8_im21.bmp,['Im_LeonardoDiCaprio.png', 'Im_RobertPattinson.png', 'Im_RyanReynolds.png', 'Im_ElijahWood.png', 'Im_BenAffleck.png', 'Im_MattDamon.png', 'Im_HughJackman.png', 'Im_RobertDowneyJr.png', 'Im_KeanuReeves.png', 'Im_RyanGosling.png'],diff,1,0.4166419000002861,22,80.95238095238095,
BECO2507,4,neg,0,neg0_id20_im30.bmp_neg0_id18_im11.bmp,['Im_LeonardoDiCaprio.png', 'Im_RobertPattinson.png', 'Im_RyanReynolds.png', 'Im_ElijahWood.png', 'Im_BenAffleck.png', 'Im_MattDamon.png', 'Im_HughJackman.png', 'Im_RobertDowneyJr.png', 'Im_KeanuReeves.png', 'Im_RyanGosling.png'],diff,1,0.6252066999995805,23,80.95238095238095,
BECO2507,4,neg,60,neg60_id20_im12.bmp_neg60_id20_im3.bmp,['Im_LeonardoDiCaprio.png', 'Im_RobertPattinson.png', 'Im_RyanReynolds.png', 'Im_ElijahWood.png', 'Im_BenAffleck.png', 'Im_MattDamon.png', 'Im_HughJackman.png', 'Im_RobertDowneyJr.png', 'Im_KeanuReeves.png', 'Im_RyanGosling.png'],same,1,0.40837610000016866,24,80.95238095238095,
BECO2507,4,neg,90,neg90_id19_im8.bmp_neg90_id13_im10.bmp,['Im_LeonardoDiCaprio.png', 'Im_RobertPattinson.png', 'Im_RyanReynolds.png', 'Im_ElijahWood.png', 'Im_BenAffleck.png', 'Im_MattDamon.png', 'Im_HughJackman.png', 'Im_RobertDowneyJr.png', 'Im_KeanuReeves.png', 'Im_RyanGosling.png'],diff,1,0.4251140000005762,25,80.95238095238095,
BECO2507,4,neg,60,neg60_id11_im2.bmp_neg60_id11_im1.bmp,['Im_LeonardoDiCaprio.png', 'Im_RobertPattinson.png', 'Im_RyanReynolds.png', 'Im_ElijahWood.png', 'Im_BenAffleck.png', 'Im_MattDamon.png', 'Im_HughJackman.png', 'Im_RobertDowneyJr.png', 'Im_KeanuReeves.png', 'Im_RyanGosling.png'],same,1,0.4168518000005861,26,80.95238095238095,
BECO2507,4,neg,150,neg150_id6_im18.bmp_neg150_id14_im18.bmp,['Im_LeonardoDiCaprio.png', 'Im_RobertPattinson.png', 'Im_RyanReynolds.png', 'Im_ElijahWood.png', 'Im_BenAffleck.png', 'Im_MattDamon.png', 'Im_HughJackman.png', 'Im_RobertDowneyJr.png', 'Im_KeanuReeves.png', 'Im_RyanGosling.png'],diff,1,0.4584719000004043,27,80.95238095238095,
BECO2507,4,neg,120,neg120_id14_im16.bmp_neg120_id6_im19.bmp,['Im_LeonardoDiCaprio.png', 'Im_RobertPattinson.png', 'Im_RyanReynolds.png', 'Im_ElijahWood.png', 'Im_BenAffleck.png', 'Im_MattDamon.png', 'Im_HughJackman.png', 'Im_RobertDowneyJr.png', 'Im_KeanuReeves.png', 'Im_RyanGosling.png'],diff,1,0.4167137999993429,28,80.95238095238095,
BECO2507,5,pos,0,pos0_id8_im13.bmp_pos0_id8_im20.bmp,['Im_LeonardoDiCaprio.png', 'Im_RobertPattinson.png', 'Im_RyanReynolds.png', 'Im_ElijahWood.png', 'Im_BenAffleck.png', 'Im_MattDamon.png', 'Im_HughJackman.png', 'Im_RobertDowneyJr.png', 'Im_KeanuReeves.png', 'Im_RyanGosling.png'],same,1,0.42494949999945675,29,80.95238095238095,
BECO2507,5,pos,150,pos150_id19_im27.bmp_pos150_id19_im4.bmp,['Im_LeonardoDiCaprio.png', 'Im_RobertPattinson.png', 'Im_RyanReynolds.png', 'Im_ElijahWood.png', 'Im_BenAffleck.png', 'Im_MattDamon.png', 'Im_HughJackman.png', 'Im_RobertDowneyJr.png', 'Im_KeanuReeves.png', 'Im_RyanGosling.png'],same,1,0.4167685000002166,30,80.95238095238095,
BECO2507,5,pos,120,pos120_id13_im10.bmp_pos120_id19_im8.bmp,['Im_LeonardoDiCaprio.png', 'Im_RobertPattinson.png', 'Im_RyanReynolds.png', 'Im_ElijahWood.png', 'Im_BenAffleck.png', 'Im_MattDamon.png', 'Im_HughJackman.png', 'Im_RobertDowneyJr.png', 'Im_KeanuReeves.png', 'Im_RyanGosling.png'],diff,1,0.4250296000000162,31,80.95238095238095,
BECO2507,5,pos,0,pos0_id11_im2.bmp_pos0_id11_im1.bmp,['Im_LeonardoDiCaprio.png', 'Im_RobertPattinson.png', 'Im_RyanReynolds.png', 'Im_ElijahWood.png', 'Im_BenAffleck.png', 'Im_MattDamon.png', 'Im_HughJackman.png', 'Im_RobertDowneyJr.png', 'Im_KeanuReeves.png', 'Im_RyanGosling.png'],diff,0,0.4249965999997585,31,80.95238095238095,
BECO2507,5,pos,60,pos60_id14_im16.bmp_pos60_id14_im24.bmp,['Im_LeonardoDiCaprio.png', 'Im_RobertPattinson.png', 'Im_RyanReynolds.png', 'Im_ElijahWood.png', 'Im_BenAffleck.png', 'Im_MattDamon.png', 'Im_HughJackman.png', 'Im_RobertDowneyJr.png', 'Im_KeanuReeves.png', 'Im_RyanGosling.png'],same,1,0.41654039999957604,32,80.95238095238095,
BECO2507,5,pos,fs,posfs_id18_im19.bmp_posfs_id18_im11.bmp,['Im_LeonardoDiCaprio.png', 'Im_RobertPattinson.png', 'Im_RyanReynolds.png', 'Im_ElijahWood.png', 'Im_BenAffleck.png', 'Im_MattDamon.png', 'Im_HughJackman.png', 'Im_RobertDowneyJr.png', 'Im_KeanuReeves.png', 'Im_RyanGosling.png'],same,1,0.4166321999991851,33,80.95238095238095,
BECO2507,5,pos,60,pos60_id6_im18.bmp_pos60_id6_im19.bmp,['Im_LeonardoDiCaprio.png', 'Im_RobertPattinson.png', 'Im_RyanReynolds.png', 'Im_ElijahWood.png', 'Im_BenAffleck.png', 'Im_MattDamon.png', 'Im_HughJackman.png', 'Im_RobertDowneyJr.png', 'Im_KeanuReeves.png', 'Im_RyanGosling.png'],same,1,0.4167600000000675,34,80.95238095238095,
BECO2507,5,pos,30,pos30_id6_im12.bmp_pos30_id6_im19.bmp,['Im_LeonardoDiCaprio.png', 'Im_RobertPattinson.png', 'Im_RyanReynolds.png', 'Im_ElijahWood.png', 'Im_BenAffleck.png', 'Im_MattDamon.png', 'Im_HughJackman.png', 'Im_RobertDowneyJr.png', 'Im_KeanuReeves.png', 'Im_RyanGosling.png'],same,1,0.41694749999987835,35,80.95238095238095,
BECO2507,5,pos,150,pos150_id13_im29.bmp_pos150_id20_im12.bmp,['Im_LeonardoDiCaprio.png', 'Im_RobertPattinson.png', 'Im_RyanReynolds.png', 'Im_ElijahWood.png', 'Im_BenAffleck.png', 'Im_MattDamon.png', 'Im_HughJackman.png', 'Im_RobertDowneyJr.png', 'Im_KeanuReeves.png', 'Im_RyanGosling.png'],diff,1,0.42507209999985207,36,80.95238095238095,
BECO2507,5,pos,fs,posfs_id11_im1.bmp_posfs_id6_im12.bmp,['Im_LeonardoDiCaprio.png', 'Im_RobertPattinson.png', 'Im_RyanReynolds.png', 'Im_ElijahWood.png', 'Im_BenAffleck.png', 'Im_MattDamon.png', 'Im_HughJackman.png', 'Im_RobertDowneyJr.png', 'Im_KeanuReeves.png', 'Im_RyanGosling.png'],diff,1,0.41679519999979675,37,80.95238095238095,
BECO2507,5,pos,90,pos90_id1_im21.bmp_pos90_id8_im20.bmp,['Im_LeonardoDiCaprio.png', 'Im_RobertPattinson.png', 'Im_RyanReynolds.png', 'Im_ElijahWood.png', 'Im_BenAffleck.png', 'Im_MattDamon.png', 'Im_HughJackman.png', 'Im_RobertDowneyJr.png', 'Im_KeanuReeves.png', 'Im_RyanGosling.png'],diff,1,0.41668490000029124,38,80.95238095238095,
BECO2507,5,pos,30,pos30_id8_im13.bmp_pos30_id8_im21.bmp,['Im_LeonardoDiCaprio.png', 'Im_RobertPattinson.png', 'Im_RyanReynolds.png', 'Im_ElijahWood.png', 'Im_BenAffleck.png', 'Im_MattDamon.png', 'Im_HughJackman.png', 'Im_RobertDowneyJr.png', 'Im_KeanuReeves.png', 'Im_RyanGosling.png'],same,1,0.4166341999998622,39,80.95238095238095,
BECO2507,5,pos,120,pos120_id13_im10.bmp_pos120_id13_im29.bmp,['Im_LeonardoDiCaprio.png', 'Im_RobertPattinson.png', 'Im_RyanReynolds.png', 'Im_ElijahWood.png', 'Im_BenAffleck.png', 'Im_MattDamon.png', 'Im_HughJackman.png', 'Im_RobertDowneyJr.png', 'Im_KeanuReeves.png', 'Im_RyanGosling.png'],same,1,0.41682569999920815,40,80.95238095238095,
BECO2507,5,pos,90,pos90_id19_im27.bmp_pos90_id19_im4.bmp,['Im_LeonardoDiCaprio.png', 'Im_RobertPattinson.png', 'Im_RyanReynolds.png', 'Im_ElijahWood.png', 'Im_BenAffleck.png', 'Im_MattDamon.png', 'Im_HughJackman.png', 'Im_RobertDowneyJr.png', 'Im_KeanuReeves.png', 'Im_RyanGosling.png'],same,1,0.42501420000007784,41,80.95238095238095,
BECO2507,6,inv,60,pos60_id18_im18.bmp_pos60_id18_im11.bmp,['Im_LeonardoDiCaprio.png', 'Im_RobertPattinson.png', 'Im_RyanReynolds.png', 'Im_ElijahWood.png', 'Im_BenAffleck.png', 'Im_MattDamon.png', 'Im_HughJackman.png', 'Im_RobertDowneyJr.png', 'Im_KeanuReeves.png', 'Im_RyanGosling.png'],same,1,0.44171490000007907,1,97.61904761904762,
BECO2507,6,inv,fs,posfs_id8_im21.bmp_posfs_id8_im13.bmp,['Im_LeonardoDiCaprio.png', 'Im_RobertPattinson.png', 'Im_RyanReynolds.png', 'Im_ElijahWood.png', 'Im_BenAffleck.png', 'Im_MattDamon.png', 'Im_HughJackman.png', 'Im_RobertDowneyJr.png', 'Im_KeanuReeves.png', 'Im_RyanGosling.png'],same,1,0.41660630000023957,2,97.61904761904762,
BECO2507,6,inv,fs,posfs_id11_im10.bmp_posfs_id11_im1.bmp,['Im_LeonardoDiCaprio.png', 'Im_RobertPattinson.png', 'Im_RyanReynolds.png', 'Im_ElijahWood.png', 'Im_BenAffleck.png', 'Im_MattDamon.png', 'Im_HughJackman.png', 'Im_RobertDowneyJr.png', 'Im_KeanuReeves.png', 'Im_RyanGosling.png'],same,1,0.4251476999997976,3,97.61904761904762,
BECO2507,6,inv,30,pos30_id13_im10.bmp_pos30_id14_im18.bmp,['Im_LeonardoDiCaprio.png', 'Im_RobertPattinson.png', 'Im_RyanReynolds.png', 'Im_ElijahWood.png', 'Im_BenAffleck.png', 'Im_MattDamon.png', 'Im_HughJackman.png', 'Im_RobertDowneyJr.png', 'Im_KeanuReeves.png', 'Im_RyanGosling.png'],diff,1,0.4082785000000513,4,97.61904761904762,
BECO2507,6,inv,90,pos90_id6_im19.bmp_pos90_id1_im24.bmp,['Im_LeonardoDiCaprio.png', 'Im_RobertPattinson.png', 'Im_RyanReynolds.png', 'Im_ElijahWood.png', 'Im_BenAffleck.png', 'Im_MattDamon.png', 'Im_HughJackman.png', 'Im_RobertDowneyJr.png', 'Im_KeanuReeves.png', 'Im_RyanGosling.png'],diff,1,0.4500474000005852,5,97.61904761904762,
BECO2507,6,inv,150,pos150_id21_im16.bmp_pos150_id21_im22.bmp,['Im_LeonardoDiCaprio.png', 'Im_RobertPattinson.png', 'Im_RyanReynolds.png', 'Im_ElijahWood.png', 'Im_BenAffleck.png', 'Im_MattDamon.png', 'Im_HughJackman.png', 'Im_RobertDowneyJr.png', 'Im_KeanuReeves.png', 'Im_RyanGosling.png'],same,1,0.4166822000006505,6,97.61904761904762,
BECO2507,6,inv,0,pos0_id19_im4.bmp_pos0_id8_im21.bmp,['Im_LeonardoDiCaprio.png', 'Im_RobertPattinson.png', 'Im_RyanReynolds.png', 'Im_ElijahWood.png', 'Im_BenAffleck.png', 'Im_MattDamon.png', 'Im_HughJackman.png', 'Im_RobertDowneyJr.png', 'Im_KeanuReeves.png', 'Im_RyanGosling.png'],same,0,0.641798500000732,6,97.61904761904762,
BECO2507,6,inv,0,pos0_id11_im1.bmp_pos0_id6_im12.bmp,['Im_LeonardoDiCaprio.png', 'Im_RobertPattinson.png', 'Im_RyanReynolds.png', 'Im_ElijahWood.png', 'Im_BenAffleck.png', 'Im_MattDamon.png', 'Im_HughJackman.png', 'Im_RobertDowneyJr.png', 'Im_KeanuReeves.png', 'Im_RyanGosling.png'],diff,1,0.42492870000023686,7,97.61904761904762,
BECO2507,6,inv,120,pos120_id1_im4.bmp_pos120_id1_im21.bmp,['Im_LeonardoDiCaprio.png', 'Im_RobertPattinson.png', 'Im_RyanReynolds.png', 'Im_ElijahWood.png', 'Im_BenAffleck.png', 'Im_MattDamon.png', 'Im_HughJackman.png', 'Im_RobertDowneyJr.png', 'Im_KeanuReeves.png', 'Im_RyanGosling.png'],same,1,0.5085020999995322,8,97.61904761904762,
BECO2507,6,inv,150,pos150_id19_im8.bmp_pos150_id19_im4.bmp,['Im_LeonardoDiCaprio.png', 'Im_RobertPattinson.png', 'Im_RyanReynolds.png', 'Im_ElijahWood.png', 'Im_BenAffleck.png', 'Im_MattDamon.png', 'Im_HughJackman.png', 'Im_RobertDowneyJr.png', 'Im_KeanuReeves.png', 'Im_RyanGosling.png'],same,1,0.5168161000001419,9,97.61904761904762,
BECO2507,6,inv,30,pos30_id1_im21.bmp_pos30_id1_im4.bmp,['Im_LeonardoDiCaprio.png', 'Im_RobertPattinson.png', 'Im_RyanReynolds.png', 'Im_ElijahWood.png', 'Im_BenAffleck.png', 'Im_MattDamon.png', 'Im_HughJackman.png', 'Im_RobertDowneyJr.png', 'Im_KeanuReeves.png', 'Im_RyanGosling.png'],same,1,0.4167272000004232,10,97.61904761904762,
BECO2507,6,inv,90,pos90_id21_im16.bmp_pos90_id6_im12.bmp,['Im_LeonardoDiCaprio.png', 'Im_RobertPattinson.png', 'Im_RyanReynolds.png', 'Im_ElijahWood.png', 'Im_BenAffleck.png', 'Im_MattDamon.png', 'Im_HughJackman.png', 'Im_RobertDowneyJr.png', 'Im_KeanuReeves.png', 'Im_RyanGosling.png'],diff,1,0.4333667000000787,11,97.61904761904762,
BECO2507,6,inv,60,pos60_id13_im29.bmp_pos60_id13_im10.bmp,['Im_LeonardoDiCaprio.png', 'Im_RobertPattinson.png', 'Im_RyanReynolds.png', 'Im_ElijahWood.png', 'Im_BenAffleck.png', 'Im_MattDamon.png', 'Im_HughJackman.png', 'Im_RobertDowneyJr.png', 'Im_KeanuReeves.png', 'Im_RyanGosling.png'],same,1,0.4166398000006666,12,97.61904761904762,
BECO2507,6,inv,120,pos120_id14_im24.bmp_pos120_id19_im8.bmp,['Im_LeonardoDiCaprio.png', 'Im_RobertPattinson.png', 'Im_RyanReynolds.png', 'Im_ElijahWood.png', 'Im_BenAffleck.png', 'Im_MattDamon.png', 'Im_HughJackman.png', 'Im_RobertDowneyJr.png', 'Im_KeanuReeves.png', 'Im_RyanGosling.png'],diff,1,0.40840620000017225,13,97.61904761904762,
BECO2507,7,neg,150,neg150_id14_im16.bmp_neg150_id14_im24.bmp,['Im_LeonardoDiCaprio.png', 'Im_RobertPattinson.png', 'Im_RyanReynolds.png', 'Im_ElijahWood.png', 'Im_BenAffleck.png', 'Im_MattDamon.png', 'Im_HughJackman.png', 'Im_RobertDowneyJr.png', 'Im_KeanuReeves.png', 'Im_RyanGosling.png'],diff,0,1.6251854000001913,13,97.61904761904762,
BECO2507,7,neg,30,neg30_id13_im10.bmp_neg30_id13_im15.bmp,['Im_LeonardoDiCaprio.png', 'Im_RobertPattinson.png', 'Im_RyanReynolds.png', 'Im_ElijahWood.png', 'Im_BenAffleck.png', 'Im_MattDamon.png', 'Im_HughJackman.png', 'Im_RobertDowneyJr.png', 'Im_KeanuReeves.png', 'Im_RyanGosling.png'],same,1,0.41684280000026774,14,97.61904761904762,
BECO2507,7,neg,120,neg120_id14_im24.bmp_neg120_id8_im13.bmp,['Im_LeonardoDiCaprio.png', 'Im_RobertPattinson.png', 'Im_RyanReynolds.png', 'Im_ElijahWood.png', 'Im_BenAffleck.png', 'Im_MattDamon.png', 'Im_HughJackman.png', 'Im_RobertDowneyJr.png', 'Im_KeanuReeves.png', 'Im_RyanGosling.png'],diff,1,0.41679260000000795,15,97.61904761904762,
BECO2507,7,neg,90,neg90_id1_im24.bmp_neg90_id1_im21.bmp,['Im_LeonardoDiCaprio.png', 'Im_RobertPattinson.png', 'Im_RyanReynolds.png', 'Im_ElijahWood.png', 'Im_BenAffleck.png', 'Im_MattDamon.png', 'Im_HughJackman.png', 'Im_RobertDowneyJr.png', 'Im_KeanuReeves.png', 'Im_RyanGosling.png'],same,1,0.41670020000037766,16,97.61904761904762,
BECO2507,7,neg,150,neg150_id8_im13.bmp_neg150_id21_im17.bmp,['Im_LeonardoDiCaprio.png', 'Im_RobertPattinson.png', 'Im_RyanReynolds.png', 'Im_ElijahWood.png', 'Im_BenAffleck.png', 'Im_MattDamon.png', 'Im_HughJackman.png', 'Im_RobertDowneyJr.png', 'Im_KeanuReeves.png', 'Im_RyanGosling.png'],diff,1,0.41678910000064207,17,97.61904761904762,
BECO2507,7,neg,30,neg30_id13_im15.bmp_neg30_id19_im27.bmp,['Im_LeonardoDiCaprio.png', 'Im_RobertPattinson.png', 'Im_RyanReynolds.png', 'Im_ElijahWood.png', 'Im_BenAffleck.png', 'Im_MattDamon.png', 'Im_HughJackman.png', 'Im_RobertDowneyJr.png', 'Im_KeanuReeves.png', 'Im_RyanGosling.png'],diff,1,0.7083657000002859,18,97.61904761904762,
BECO2507,7,neg,120,neg120_id18_im11.bmp_neg120_id18_im18.bmp,['Im_LeonardoDiCaprio.png', 'Im_RobertPattinson.png', 'Im_RyanReynolds.png', 'Im_ElijahWood.png', 'Im_BenAffleck.png', 'Im_MattDamon.png', 'Im_HughJackman.png', 'Im_RobertDowneyJr.png', 'Im_KeanuReeves.png', 'Im_RyanGosling.png'],same,1,0.4084269000004497,19,97.61904761904762,
BECO2507,7,neg,90,neg90_id1_im4.bmp_neg90_id11_im2.bmp,['Im_LeonardoDiCaprio.png', 'Im_RobertPattinson.png', 'Im_RyanReynolds.png', 'Im_ElijahWood.png', 'Im_BenAffleck.png', 'Im_MattDamon.png', 'Im_HughJackman.png', 'Im_RobertDowneyJr.png', 'Im_KeanuReeves.png', 'Im_RyanGosling.png'],diff,1,0.45828789999995934,20,97.61904761904762,
BECO2507,7,neg,60,neg60_id6_im18.bmp_neg60_id1_im24.bmp,['Im_LeonardoDiCaprio.png', 'Im_RobertPattinson.png', 'Im_RyanReynolds.png', 'Im_ElijahWood.png', 'Im_BenAffleck.png', 'Im_MattDamon.png', 'Im_HughJackman.png', 'Im_RobertDowneyJr.png', 'Im_KeanuReeves.png', 'Im_RyanGosling.png'],diff,1,0.4081712000006519,21,97.61904761904762,
BECO2507,7,neg,0,neg0_id13_im29.bmp_neg0_id13_im10.bmp,['Im_LeonardoDiCaprio.png', 'Im_RobertPattinson.png', 'Im_RyanReynolds.png', 'Im_ElijahWood.png', 'Im_BenAffleck.png', 'Im_MattDamon.png', 'Im_HughJackman.png', 'Im_RobertDowneyJr.png', 'Im_KeanuReeves.png', 'Im_RyanGosling.png'],diff,0,0.4250224999996135,21,97.61904761904762,
BECO2507,7,neg,0,neg0_id20_im3.bmp_neg0_id11_im10.bmp,['Im_LeonardoDiCaprio.png', 'Im_RobertPattinson.png', 'Im_RyanReynolds.png', 'Im_ElijahWood.png', 'Im_BenAffleck.png', 'Im_MattDamon.png', 'Im_HughJackman.png', 'Im_RobertDowneyJr.png', 'Im_KeanuReeves.png', 'Im_RyanGosling.png'],same,0,0.41659600000002683,21,97.61904761904762,
BECO2507,7,neg,fs,negfs_id18_im11.bmp_negfs_id20_im30.bmp,['Im_LeonardoDiCaprio.png', 'Im_RobertPattinson.png', 'Im_RyanReynolds.png', 'Im_ElijahWood.png', 'Im_BenAffleck.png', 'Im_MattDamon.png', 'Im_HughJackman.png', 'Im_RobertDowneyJr.png', 'Im_KeanuReeves.png', 'Im_RyanGosling.png'],diff,1,0.4166771999998673,22,97.61904761904762,
BECO2507,7,neg,60,neg60_id13_im29.bmp_neg60_id13_im15.bmp,['Im_LeonardoDiCaprio.png', 'Im_RobertPattinson.png', 'Im_RyanReynolds.png', 'Im_ElijahWood.png', 'Im_BenAffleck.png', 'Im_MattDamon.png', 'Im_HughJackman.png', 'Im_RobertDowneyJr.png', 'Im_KeanuReeves.png', 'Im_RyanGosling.png'],same,1,0.4084362000003239,23,97.61904761904762,
BECO2507,7,neg,fs,negfs_id8_im21.bmp_negfs_id8_im13.bmp,['Im_LeonardoDiCaprio.png', 'Im_RobertPattinson.png', 'Im_RyanReynolds.png', 'Im_ElijahWood.png', 'Im_BenAffleck.png', 'Im_MattDamon.png', 'Im_HughJackman.png', 'Im_RobertDowneyJr.png', 'Im_KeanuReeves.png', 'Im_RyanGosling.png'],same,1,0.4167496999998548,24,97.61904761904762,
BECO2507,8,pos,90,pos90_id1_im21.bmp_pos90_id1_im4.bmp,['Im_LeonardoDiCaprio.png', 'Im_RobertPattinson.png', 'Im_RyanReynolds.png', 'Im_ElijahWood.png', 'Im_BenAffleck.png', 'Im_MattDamon.png', 'Im_HughJackman.png', 'Im_RobertDowneyJr.png', 'Im_KeanuReeves.png', 'Im_RyanGosling.png'],same,1,0.4084395999998378,25,97.61904761904762,
BECO2507,8,pos,120,pos120_id13_im10.bmp_pos120_id13_im15.bmp,['Im_LeonardoDiCaprio.png', 'Im_RobertPattinson.png', 'Im_RyanReynolds.png', 'Im_ElijahWood.png', 'Im_BenAffleck.png', 'Im_MattDamon.png', 'Im_HughJackman.png', 'Im_RobertDowneyJr.png', 'Im_KeanuReeves.png', 'Im_RyanGosling.png'],same,1,0.41676209999968705,26,97.61904761904762,
BECO2507,8,pos,60,pos60_id18_im19.bmp_pos60_id18_im11.bmp,['Im_LeonardoDiCaprio.png', 'Im_RobertPattinson.png', 'Im_RyanReynolds.png', 'Im_ElijahWood.png', 'Im_BenAffleck.png', 'Im_MattDamon.png', 'Im_HughJackman.png', 'Im_RobertDowneyJr.png', 'Im_KeanuReeves.png', 'Im_RyanGosling.png'],same,1,0.4167882000001555,27,97.61904761904762,
BECO2507,8,pos,fs,posfs_id19_im27.bmp_posfs_id13_im15.bmp,['Im_LeonardoDiCaprio.png', 'Im_RobertPattinson.png', 'Im_RyanReynolds.png', 'Im_ElijahWood.png', 'Im_BenAffleck.png', 'Im_MattDamon.png', 'Im_HughJackman.png', 'Im_RobertDowneyJr.png', 'Im_KeanuReeves.png', 'Im_RyanGosling.png'],diff,1,0.4251557999996294,28,97.61904761904762,
BECO2507,8,pos,0,pos0_id18_im18.bmp_pos0_id21_im22.bmp,['Im_LeonardoDiCaprio.png', 'Im_RobertPattinson.png', 'Im_RyanReynolds.png', 'Im_ElijahWood.png', 'Im_BenAffleck.png', 'Im_MattDamon.png', 'Im_HughJackman.png', 'Im_RobertDowneyJr.png', 'Im_KeanuReeves.png', 'Im_RyanGosling.png'],diff,1,0.416797900000347,29,97.61904761904762,
BECO2507,8,pos,150,pos150_id18_im11.bmp_pos150_id18_im18.bmp,['Im_LeonardoDiCaprio.png', 'Im_RobertPattinson.png', 'Im_RyanReynolds.png', 'Im_ElijahWood.png', 'Im_BenAffleck.png', 'Im_MattDamon.png', 'Im_HughJackman.png', 'Im_RobertDowneyJr.png', 'Im_KeanuReeves.png', 'Im_RyanGosling.png'],same,1,0.41649929999948654,30,97.61904761904762,
BECO2507,8,pos,30,pos30_id19_im27.bmp_pos30_id13_im15.bmp,['Im_LeonardoDiCaprio.png', 'Im_RobertPattinson.png', 'Im_RyanReynolds.png', 'Im_ElijahWood.png', 'Im_BenAffleck.png', 'Im_MattDamon.png', 'Im_HughJackman.png', 'Im_RobertDowneyJr.png', 'Im_KeanuReeves.png', 'Im_RyanGosling.png'],same,0,1.0502078999998048,30,97.61904761904762,
BECO2507,8,pos,30,pos30_id18_im11.bmp_pos30_id13_im15.bmp,['Im_LeonardoDiCaprio.png', 'Im_RobertPattinson.png', 'Im_RyanReynolds.png', 'Im_ElijahWood.png', 'Im_BenAffleck.png', 'Im_MattDamon.png', 'Im_HughJackman.png', 'Im_RobertDowneyJr.png', 'Im_KeanuReeves.png', 'Im_RyanGosling.png'],diff,1,0.4250234000001001,31,97.61904761904762,
BECO2507,8,pos,fs,posfs_id18_im11.bmp_posfs_id20_im30.bmp,['Im_LeonardoDiCaprio.png', 'Im_RobertPattinson.png', 'Im_RyanReynolds.png', 'Im_ElijahWood.png', 'Im_BenAffleck.png', 'Im_MattDamon.png', 'Im_HughJackman.png', 'Im_RobertDowneyJr.png', 'Im_KeanuReeves.png', 'Im_RyanGosling.png'],diff,1,0.43349660000058066,32,97.61904761904762,
BECO2507,8,pos,0,pos0_id20_im12.bmp_pos0_id20_im30.bmp,['Im_LeonardoDiCaprio.png', 'Im_RobertPattinson.png', 'Im_RyanReynolds.png', 'Im_ElijahWood.png', 'Im_BenAffleck.png', 'Im_MattDamon.png', 'Im_HughJackman.png', 'Im_RobertDowneyJr.png', 'Im_KeanuReeves.png', 'Im_RyanGosling.png'],same,1,0.4166912000000593,33,97.61904761904762,
BECO2507,8,pos,150,pos150_id18_im18.bmp_pos150_id11_im10.bmp,['Im_LeonardoDiCaprio.png', 'Im_RobertPattinson.png', 'Im_RyanReynolds.png', 'Im_ElijahWood.png', 'Im_BenAffleck.png', 'Im_MattDamon.png', 'Im_HughJackman.png', 'Im_RobertDowneyJr.png', 'Im_KeanuReeves.png', 'Im_RyanGosling.png'],diff,1,0.40830210000058287,34,97.61904761904762,
BECO2507,8,pos,90,pos90_id18_im18.bmp_pos90_id18_im19.bmp,['Im_LeonardoDiCaprio.png', 'Im_RobertPattinson.png', 'Im_RyanReynolds.png', 'Im_ElijahWood.png', 'Im_BenAffleck.png', 'Im_MattDamon.png', 'Im_HughJackman.png', 'Im_RobertDowneyJr.png', 'Im_KeanuReeves.png', 'Im_RyanGosling.png'],same,1,0.4333616999992955,35,97.61904761904762,
BECO2507,8,pos,120,pos120_id14_im16.bmp_pos120_id1_im21.bmp,['Im_LeonardoDiCaprio.png', 'Im_RobertPattinson.png', 'Im_RyanReynolds.png', 'Im_ElijahWood.png', 'Im_BenAffleck.png', 'Im_MattDamon.png', 'Im_HughJackman.png', 'Im_RobertDowneyJr.png', 'Im_KeanuReeves.png', 'Im_RyanGosling.png'],diff,1,0.4082791000000725,36,97.61904761904762,
BECO2507,8,pos,60,pos60_id20_im12.bmp_pos60_id20_im30.bmp,['Im_LeonardoDiCaprio.png', 'Im_RobertPattinson.png', 'Im_RyanReynolds.png', 'Im_ElijahWood.png', 'Im_BenAffleck.png', 'Im_MattDamon.png', 'Im_HughJackman.png', 'Im_RobertDowneyJr.png', 'Im_KeanuReeves.png', 'Im_RyanGosling.png'],same,1,0.4081116999996084,37,97.61904761904762,
BECO2507,9,inv,fs,posfs_id14_im24.bmp_posfs_id19_im8.bmp,['Im_LeonardoDiCaprio.png', 'Im_RobertPattinson.png', 'Im_RyanReynolds.png', 'Im_ElijahWood.png', 'Im_BenAffleck.png', 'Im_MattDamon.png', 'Im_HughJackman.png', 'Im_RobertDowneyJr.png', 'Im_KeanuReeves.png', 'Im_RyanGosling.png'],diff,1,0.40846740000051796,1,88.0952380952381,
BECO2507,9,inv,60,pos60_id21_im17.bmp_pos60_id21_im16.bmp,['Im_LeonardoDiCaprio.png', 'Im_RobertPattinson.png', 'Im_RyanReynolds.png', 'Im_ElijahWood.png', 'Im_BenAffleck.png', 'Im_MattDamon.png', 'Im_HughJackman.png', 'Im_RobertDowneyJr.png', 'Im_KeanuReeves.png', 'Im_RyanGosling.png'],same,1,0.4166116999995211,2,88.0952380952381,
BECO2507,9,inv,30,pos30_id21_im17.bmp_pos30_id8_im13.bmp,['Im_LeonardoDiCaprio.png', 'Im_RobertPattinson.png', 'Im_RyanReynolds.png', 'Im_ElijahWood.png', 'Im_BenAffleck.png', 'Im_MattDamon.png', 'Im_HughJackman.png', 'Im_RobertDowneyJr.png', 'Im_KeanuReeves.png', 'Im_RyanGosling.png'],diff,1,0.4166012999994564,3,88.0952380952381,
BECO2507,9,inv,150,pos150_id21_im22.bmp_pos150_id18_im19.bmp,['Im_LeonardoDiCaprio.png', 'Im_RobertPattinson.png', 'Im_RyanReynolds.png', 'Im_ElijahWood.png', 'Im_BenAffleck.png', 'Im_MattDamon.png', 'Im_HughJackman.png', 'Im_RobertDowneyJr.png', 'Im_KeanuReeves.png', 'Im_RyanGosling.png'],diff,1,0.41657519999989745,4,88.0952380952381,
BECO2507,9,inv,30,pos30_id20_im3.bmp_pos30_id20_im30.bmp,['Im_LeonardoDiCaprio.png', 'Im_RobertPattinson.png', 'Im_RyanReynolds.png', 'Im_ElijahWood.png', 'Im_BenAffleck.png', 'Im_MattDamon.png', 'Im_HughJackman.png', 'Im_RobertDowneyJr.png', 'Im_KeanuReeves.png', 'Im_RyanGosling.png'],same,1,0.4251453999995647,5,88.0952380952381,
BECO2507,9,inv,90,pos90_id14_im18.bmp_pos90_id6_im18.bmp,['Im_LeonardoDiCaprio.png', 'Im_RobertPattinson.png', 'Im_RyanReynolds.png', 'Im_ElijahWood.png', 'Im_BenAffleck.png', 'Im_MattDamon.png', 'Im_HughJackman.png', 'Im_RobertDowneyJr.png', 'Im_KeanuReeves.png', 'Im_RyanGosling.png'],diff,1,0.41700289999971574,6,88.0952380952381,
BECO2507,9,inv,0,pos0_id21_im22.bmp_pos0_id18_im18.bmp,['Im_LeonardoDiCaprio.png', 'Im_RobertPattinson.png', 'Im_RyanReynolds.png', 'Im_ElijahWood.png', 'Im_BenAffleck.png', 'Im_MattDamon.png', 'Im_HughJackman.png', 'Im_RobertDowneyJr.png', 'Im_KeanuReeves.png', 'Im_RyanGosling.png'],same,0,0.4167904999994789,6,88.0952380952381,
BECO2507,9,inv,90,pos90_id13_im15.bmp_pos90_id13_im10.bmp,['Im_LeonardoDiCaprio.png', 'Im_RobertPattinson.png', 'Im_RyanReynolds.png', 'Im_ElijahWood.png', 'Im_BenAffleck.png', 'Im_MattDamon.png', 'Im_HughJackman.png', 'Im_RobertDowneyJr.png', 'Im_KeanuReeves.png', 'Im_RyanGosling.png'],diff,0,0.541710200000125,6,88.0952380952381,
BECO2507,9,inv,150,pos150_id14_im16.bmp_pos150_id14_im24.bmp,['Im_LeonardoDiCaprio.png', 'Im_RobertPattinson.png', 'Im_RyanReynolds.png', 'Im_ElijahWood.png', 'Im_BenAffleck.png', 'Im_MattDamon.png', 'Im_HughJackman.png', 'Im_RobertDowneyJr.png', 'Im_KeanuReeves.png', 'Im_RyanGosling.png'],same,1,0.42522619999999733,7,88.0952380952381,
BECO2507,9,inv,120,pos120_id19_im27.bmp_pos120_id19_im8.bmp,['Im_LeonardoDiCaprio.png', 'Im_RobertPattinson.png', 'Im_RyanReynolds.png', 'Im_ElijahWood.png', 'Im_BenAffleck.png', 'Im_MattDamon.png', 'Im_HughJackman.png', 'Im_RobertDowneyJr.png', 'Im_KeanuReeves.png', 'Im_RyanGosling.png'],same,1,0.40845830000034766,8,88.0952380952381,
BECO2507,9,inv,0,pos0_id21_im16.bmp_pos0_id21_im22.bmp,['Im_LeonardoDiCaprio.png', 'Im_RobertPattinson.png', 'Im_RyanReynolds.png', 'Im_ElijahWood.png', 'Im_BenAffleck.png', 'Im_MattDamon.png', 'Im_HughJackman.png', 'Im_RobertDowneyJr.png', 'Im_KeanuReeves.png', 'Im_RyanGosling.png'],same,1,0.416702699999405,9,88.0952380952381,
BECO2507,9,inv,60,pos60_id11_im1.bmp_pos60_id20_im12.bmp,['Im_LeonardoDiCaprio.png', 'Im_RobertPattinson.png', 'Im_RyanReynolds.png', 'Im_ElijahWood.png', 'Im_BenAffleck.png', 'Im_MattDamon.png', 'Im_HughJackman.png', 'Im_RobertDowneyJr.png', 'Im_KeanuReeves.png', 'Im_RyanGosling.png'],diff,1,0.4250233999991906,10,88.0952380952381,
BECO2507,9,inv,120,pos120_id8_im21.bmp_pos120_id19_im4.bmp,['Im_LeonardoDiCaprio.png', 'Im_RobertPattinson.png', 'Im_RyanReynolds.png', 'Im_ElijahWood.png', 'Im_BenAffleck.png', 'Im_MattDamon.png', 'Im_HughJackman.png', 'Im_RobertDowneyJr.png', 'Im_KeanuReeves.png', 'Im_RyanGosling.png'],diff,1,0.42500680000011926,11,88.0952380952381,
BECO2507,9,inv,fs,posfs_id1_im21.bmp_posfs_id8_im20.bmp,['Im_LeonardoDiCaprio.png', 'Im_RobertPattinson.png', 'Im_RyanReynolds.png', 'Im_ElijahWood.png', 'Im_BenAffleck.png', 'Im_MattDamon.png', 'Im_HughJackman.png', 'Im_RobertDowneyJr.png', 'Im_KeanuReeves.png', 'Im_RyanGosling.png'],diff,1,0.4167814000002181,12,88.0952380952381,
BECO2507,10,pos,fs,posfs_id13_im29.bmp_posfs_id13_im15.bmp,['Im_LeonardoDiCaprio.png', 'Im_RobertPattinson.png', 'Im_RyanReynolds.png', 'Im_ElijahWood.png', 'Im_BenAffleck.png', 'Im_MattDamon.png', 'Im_HughJackman.png', 'Im_RobertDowneyJr.png', 'Im_KeanuReeves.png', 'Im_RyanGosling.png'],same,1,0.416523199999574,13,88.0952380952381,
BECO2507,10,pos,fs,posfs_id20_im3.bmp_posfs_id18_im19.bmp,['Im_LeonardoDiCaprio.png', 'Im_RobertPattinson.png', 'Im_RyanReynolds.png', 'Im_ElijahWood.png', 'Im_BenAffleck.png', 'Im_MattDamon.png', 'Im_HughJackman.png', 'Im_RobertDowneyJr.png', 'Im_KeanuReeves.png', 'Im_RyanGosling.png'],diff,1,0.42498599999998987,14,88.0952380952381,
BECO2507,10,pos,150,pos150_id14_im16.bmp_pos150_id1_im21.bmp,['Im_LeonardoDiCaprio.png', 'Im_RobertPattinson.png', 'Im_RyanReynolds.png', 'Im_ElijahWood.png', 'Im_BenAffleck.png', 'Im_MattDamon.png', 'Im_HughJackman.png', 'Im_RobertDowneyJr.png', 'Im_KeanuReeves.png', 'Im_RyanGosling.png'],diff,1,0.4250424000001658,15,88.0952380952381,
BECO2507,10,pos,120,pos120_id8_im21.bmp_pos120_id8_im13.bmp,['Im_LeonardoDiCaprio.png', 'Im_RobertPattinson.png', 'Im_RyanReynolds.png', 'Im_ElijahWood.png', 'Im_BenAffleck.png', 'Im_MattDamon.png', 'Im_HughJackman.png', 'Im_RobertDowneyJr.png', 'Im_KeanuReeves.png', 'Im_RyanGosling.png'],same,1,0.4165693000004467,16,88.0952380952381,
BECO2507,10,pos,0,pos0_id1_im4.bmp_pos0_id11_im2.bmp,['Im_LeonardoDiCaprio.png', 'Im_RobertPattinson.png', 'Im_RyanReynolds.png', 'Im_ElijahWood.png', 'Im_BenAffleck.png', 'Im_MattDamon.png', 'Im_HughJackman.png', 'Im_RobertDowneyJr.png', 'Im_KeanuReeves.png', 'Im_RyanGosling.png'],same,0,0.8251920999991853,16,88.0952380952381,
BECO2507,10,pos,0,pos0_id11_im1.bmp_pos0_id11_im10.bmp,['Im_LeonardoDiCaprio.png', 'Im_RobertPattinson.png', 'Im_RyanReynolds.png', 'Im_ElijahWood.png', 'Im_BenAffleck.png', 'Im_MattDamon.png', 'Im_HughJackman.png', 'Im_RobertDowneyJr.png', 'Im_KeanuReeves.png', 'Im_RyanGosling.png'],same,1,0.4166587999998228,17,88.0952380952381,
BECO2507,10,pos,30,pos30_id11_im2.bmp_pos30_id1_im4.bmp,['Im_LeonardoDiCaprio.png', 'Im_RobertPattinson.png', 'Im_RyanReynolds.png', 'Im_ElijahWood.png', 'Im_BenAffleck.png', 'Im_MattDamon.png', 'Im_HughJackman.png', 'Im_RobertDowneyJr.png', 'Im_KeanuReeves.png', 'Im_RyanGosling.png'],diff,1,0.4167301999996198,18,88.0952380952381,
BECO2507,10,pos,150,pos150_id13_im10.bmp_pos150_id19_im8.bmp,['Im_LeonardoDiCaprio.png', 'Im_RobertPattinson.png', 'Im_RyanReynolds.png', 'Im_ElijahWood.png', 'Im_BenAffleck.png', 'Im_MattDamon.png', 'Im_HughJackman.png', 'Im_RobertDowneyJr.png', 'Im_KeanuReeves.png', 'Im_RyanGosling.png'],diff,1,0.4250715999996828,19,88.0952380952381,
BECO2507,10,pos,120,pos120_id1_im24.bmp_pos120_id1_im21.bmp,['Im_LeonardoDiCaprio.png', 'Im_RobertPattinson.png', 'Im_RyanReynolds.png', 'Im_ElijahWood.png', 'Im_BenAffleck.png', 'Im_MattDamon.png', 'Im_HughJackman.png', 'Im_RobertDowneyJr.png', 'Im_KeanuReeves.png', 'Im_RyanGosling.png'],same,1,0.4334052000003794,20,88.0952380952381,
BECO2507,10,pos,90,pos90_id11_im2.bmp_pos90_id11_im1.bmp,['Im_LeonardoDiCaprio.png', 'Im_RobertPattinson.png', 'Im_RyanReynolds.png', 'Im_ElijahWood.png', 'Im_BenAffleck.png', 'Im_MattDamon.png', 'Im_HughJackman.png', 'Im_RobertDowneyJr.png', 'Im_KeanuReeves.png', 'Im_RyanGosling.png'],same,1,0.4083442000001014,21,88.0952380952381,
BECO2507,10,pos,60,pos60_id20_im3.bmp_pos60_id20_im12.bmp,['Im_LeonardoDiCaprio.png', 'Im_RobertPattinson.png', 'Im_RyanReynolds.png', 'Im_ElijahWood.png', 'Im_BenAffleck.png', 'Im_MattDamon.png', 'Im_HughJackman.png', 'Im_RobertDowneyJr.png', 'Im_KeanuReeves.png', 'Im_RyanGosling.png'],same,1,0.4167128999997658,22,88.0952380952381,
BECO2507,10,pos,90,pos90_id19_im27.bmp_pos90_id19_im8.bmp,['Im_LeonardoDiCaprio.png', 'Im_RobertPattinson.png', 'Im_RyanReynolds.png', 'Im_ElijahWood.png', 'Im_BenAffleck.png', 'Im_MattDamon.png', 'Im_HughJackman.png', 'Im_RobertDowneyJr.png', 'Im_KeanuReeves.png', 'Im_RyanGosling.png'],same,1,0.4166207000007489,23,88.0952380952381,
BECO2507,10,pos,30,pos30_id19_im27.bmp_pos30_id19_im8.bmp,['Im_LeonardoDiCaprio.png', 'Im_RobertPattinson.png', 'Im_RyanReynolds.png', 'Im_ElijahWood.png', 'Im_BenAffleck.png', 'Im_MattDamon.png', 'Im_HughJackman.png', 'Im_RobertDowneyJr.png', 'Im_KeanuReeves.png', 'Im_RyanGosling.png'],same,1,0.4249945999999909,24,88.0952380952381,
BECO2507,10,pos,60,pos60_id11_im1.bmp_pos60_id11_im2.bmp,['Im_LeonardoDiCaprio.png', 'Im_RobertPattinson.png', 'Im_RyanReynolds.png', 'Im_ElijahWood.png', 'Im_BenAffleck.png', 'Im_MattDamon.png', 'Im_HughJackman.png', 'Im_RobertDowneyJr.png', 'Im_KeanuReeves.png', 'Im_RyanGosling.png'],same,1,0.41669589999946766,25,88.0952380952381,
BECO2507,11,neg,30,neg30_id11_im1.bmp_neg30_id20_im12.bmp,['Im_LeonardoDiCaprio.png', 'Im_RobertPattinson.png', 'Im_RyanReynolds.png', 'Im_ElijahWood.png', 'Im_BenAffleck.png', 'Im_MattDamon.png', 'Im_HughJackman.png', 'Im_RobertDowneyJr.png', 'Im_KeanuReeves.png', 'Im_RyanGosling.png'],diff,1,0.41668110000046,26,88.0952380952381,
BECO2507,11,neg,150,neg150_id11_im2.bmp_neg150_id11_im1.bmp,['Im_LeonardoDiCaprio.png', 'Im_RobertPattinson.png', 'Im_RyanReynolds.png', 'Im_ElijahWood.png', 'Im_BenAffleck.png', 'Im_MattDamon.png', 'Im_HughJackman.png', 'Im_RobertDowneyJr.png', 'Im_KeanuReeves.png', 'Im_RyanGosling.png'],same,1,0.4999344999996538,27,88.0952380952381,
BECO2507,11,neg,60,neg60_id8_im21.bmp_neg60_id20_im30.bmp,['Im_LeonardoDiCaprio.png', 'Im_RobertPattinson.png', 'Im_RyanReynolds.png', 'Im_ElijahWood.png', 'Im_BenAffleck.png', 'Im_MattDamon.png', 'Im_HughJackman.png', 'Im_RobertDowneyJr.png', 'Im_KeanuReeves.png', 'Im_RyanGosling.png'],diff,1,0.41663299999981973,28,88.0952380952381,
BECO2507,11,neg,120,neg120_id1_im24.bmp_neg120_id1_im21.bmp,['Im_LeonardoDiCaprio.png', 'Im_RobertPattinson.png', 'Im_RyanReynolds.png', 'Im_ElijahWood.png', 'Im_BenAffleck.png', 'Im_MattDamon.png', 'Im_HughJackman.png', 'Im_RobertDowneyJr.png', 'Im_KeanuReeves.png', 'Im_RyanGosling.png'],same,1,0.42521619999934046,29,88.0952380952381,
BECO2507,11,neg,30,neg30_id14_im24.bmp_neg30_id19_im8.bmp,['Im_LeonardoDiCaprio.png', 'Im_RobertPattinson.png', 'Im_RyanReynolds.png', 'Im_ElijahWood.png', 'Im_BenAffleck.png', 'Im_MattDamon.png', 'Im_HughJackman.png', 'Im_RobertDowneyJr.png', 'Im_KeanuReeves.png', 'Im_RyanGosling.png'],diff,1,0.4500963000000411,30,88.0952380952381,
BECO2507,11,neg,fs,negfs_id6_im19.bmp_negfs_id6_im18.bmp,['Im_LeonardoDiCaprio.png', 'Im_RobertPattinson.png', 'Im_RyanReynolds.png', 'Im_ElijahWood.png', 'Im_BenAffleck.png', 'Im_MattDamon.png', 'Im_HughJackman.png', 'Im_RobertDowneyJr.png', 'Im_KeanuReeves.png', 'Im_RyanGosling.png'],same,1,0.5170582999999169,31,88.0952380952381,
BECO2507,11,neg,90,neg90_id21_im22.bmp_neg90_id18_im19.bmp,['Im_LeonardoDiCaprio.png', 'Im_RobertPattinson.png', 'Im_RyanReynolds.png', 'Im_ElijahWood.png', 'Im_BenAffleck.png', 'Im_MattDamon.png', 'Im_HughJackman.png', 'Im_RobertDowneyJr.png', 'Im_KeanuReeves.png', 'Im_RyanGosling.png'],same,0,0.8920748000000458,31,88.0952380952381,
BECO2507,11,neg,90,neg90_id19_im27.bmp_neg90_id19_im8.bmp,['Im_LeonardoDiCaprio.png', 'Im_RobertPattinson.png', 'Im_RyanReynolds.png', 'Im_ElijahWood.png', 'Im_BenAffleck.png', 'Im_MattDamon.png', 'Im_HughJackman.png', 'Im_RobertDowneyJr.png', 'Im_KeanuReeves.png', 'Im_RyanGosling.png'],same,1,0.4168997999995554,32,88.0952380952381,
BECO2507,11,neg,150,neg150_id14_im18.bmp_neg150_id14_im24.bmp,['Im_LeonardoDiCaprio.png', 'Im_RobertPattinson.png', 'Im_RyanReynolds.png', 'Im_ElijahWood.png', 'Im_BenAffleck.png', 'Im_MattDamon.png', 'Im_HughJackman.png', 'Im_RobertDowneyJr.png', 'Im_KeanuReeves.png', 'Im_RyanGosling.png'],same,1,0.41678219999994326,33,88.0952380952381,
BECO2507,11,neg,fs,negfs_id8_im20.bmp_negfs_id8_im13.bmp,['Im_LeonardoDiCaprio.png', 'Im_RobertPattinson.png', 'Im_RyanReynolds.png', 'Im_ElijahWood.png', 'Im_BenAffleck.png', 'Im_MattDamon.png', 'Im_HughJackman.png', 'Im_RobertDowneyJr.png', 'Im_KeanuReeves.png', 'Im_RyanGosling.png'],same,1,0.4167258999996193,34,88.0952380952381,
BECO2507,11,neg,120,neg120_id11_im10.bmp_neg120_id20_im3.bmp,['Im_LeonardoDiCaprio.png', 'Im_RobertPattinson.png', 'Im_RyanReynolds.png', 'Im_ElijahWood.png', 'Im_BenAffleck.png', 'Im_MattDamon.png', 'Im_HughJackman.png', 'Im_RobertDowneyJr.png', 'Im_KeanuReeves.png', 'Im_RyanGosling.png'],diff,1,0.4250640000000203,35,88.0952380952381,
BECO2507,11,neg,0,neg0_id21_im16.bmp_neg0_id21_im22.bmp,['Im_LeonardoDiCaprio.png', 'Im_RobertPattinson.png', 'Im_RyanReynolds.png', 'Im_ElijahWood.png', 'Im_BenAffleck.png', 'Im_MattDamon.png', 'Im_HughJackman.png', 'Im_RobertDowneyJr.png', 'Im_KeanuReeves.png', 'Im_RyanGosling.png'],same,1,0.42512410000017553,36,88.0952380952381,
BECO2507,11,neg,60,neg60_id18_im11.bmp_neg60_id13_im15.bmp,['Im_LeonardoDiCaprio.png', 'Im_RobertPattinson.png', 'Im_RyanReynolds.png', 'Im_ElijahWood.png', 'Im_BenAffleck.png', 'Im_MattDamon.png', 'Im_HughJackman.png', 'Im_RobertDowneyJr.png', 'Im_KeanuReeves.png', 'Im_RyanGosling.png'],diff,1,0.41671539999970264,37,88.0952380952381,
BECO2507,11,neg,0,neg0_id19_im8.bmp_neg0_id19_im4.bmp,['Im_LeonardoDiCaprio.png', 'Im_RobertPattinson.png', 'Im_RyanReynolds.png', 'Im_ElijahWood.png', 'Im_BenAffleck.png', 'Im_MattDamon.png', 'Im_HughJackman.png', 'Im_RobertDowneyJr.png', 'Im_KeanuReeves.png', 'Im_RyanGosling.png'],same,1,0.43352390000018204,38,88.0952380952381,
BECO2507,12,inv,fs,posfs_id6_im12.bmp_posfs_id11_im1.bmp,['Im_LeonardoDiCaprio.png', 'Im_RobertPattinson.png', 'Im_RyanReynolds.png', 'Im_ElijahWood.png', 'Im_BenAffleck.png', 'Im_MattDamon.png', 'Im_HughJackman.png', 'Im_RobertDowneyJr.png', 'Im_KeanuReeves.png', 'Im_RyanGosling.png'],diff,1,0.6502766000003248,1,90.47619047619048,
BECO2507,12,inv,90,pos90_id19_im8.bmp_pos90_id14_im24.bmp,['Im_LeonardoDiCaprio.png', 'Im_RobertPattinson.png', 'Im_RyanReynolds.png', 'Im_ElijahWood.png', 'Im_BenAffleck.png', 'Im_MattDamon.png', 'Im_HughJackman.png', 'Im_RobertDowneyJr.png', 'Im_KeanuReeves.png', 'Im_RyanGosling.png'],diff,1,0.41674590000002354,2,90.47619047619048,
BECO2507,12,inv,0,pos0_id18_im19.bmp_pos0_id18_im11.bmp,['Im_LeonardoDiCaprio.png', 'Im_RobertPattinson.png', 'Im_RyanReynolds.png', 'Im_ElijahWood.png', 'Im_BenAffleck.png', 'Im_MattDamon.png', 'Im_HughJackman.png', 'Im_RobertDowneyJr.png', 'Im_KeanuReeves.png', 'Im_RyanGosling.png'],same,1,0.6834090000002107,3,90.47619047619048,
BECO2507,12,inv,fs,posfs_id6_im12.bmp_posfs_id6_im18.bmp,['Im_LeonardoDiCaprio.png', 'Im_RobertPattinson.png', 'Im_RyanReynolds.png', 'Im_ElijahWood.png', 'Im_BenAffleck.png', 'Im_MattDamon.png', 'Im_HughJackman.png', 'Im_RobertDowneyJr.png', 'Im_KeanuReeves.png', 'Im_RyanGosling.png'],same,1,0.42500289999952656,4,90.47619047619048,
BECO2507,12,inv,60,pos60_id14_im16.bmp_pos60_id6_im19.bmp,['Im_LeonardoDiCaprio.png', 'Im_RobertPattinson.png', 'Im_RyanReynolds.png', 'Im_ElijahWood.png', 'Im_BenAffleck.png', 'Im_MattDamon.png', 'Im_HughJackman.png', 'Im_RobertDowneyJr.png', 'Im_KeanuReeves.png', 'Im_RyanGosling.png'],diff,1,0.408574399999452,5,90.47619047619048,
BECO2507,12,inv,120,pos120_id1_im24.bmp_pos120_id6_im18.bmp,['Im_LeonardoDiCaprio.png', 'Im_RobertPattinson.png', 'Im_RyanReynolds.png', 'Im_ElijahWood.png', 'Im_BenAffleck.png', 'Im_MattDamon.png', 'Im_HughJackman.png', 'Im_RobertDowneyJr.png', 'Im_KeanuReeves.png', 'Im_RyanGosling.png'],diff,1,0.44172509999953036,6,90.47619047619048,
BECO2507,12,inv,90,pos90_id11_im2.bmp_pos90_id13_im29.bmp,['Im_LeonardoDiCaprio.png', 'Im_RobertPattinson.png', 'Im_RyanReynolds.png', 'Im_ElijahWood.png', 'Im_BenAffleck.png', 'Im_MattDamon.png', 'Im_HughJackman.png', 'Im_RobertDowneyJr.png', 'Im_KeanuReeves.png', 'Im_RyanGosling.png'],diff,1,0.7751028000002407,7,90.47619047619048,
BECO2507,12,inv,60,pos60_id8_im20.bmp_pos60_id19_im4.bmp,['Im_LeonardoDiCaprio.png', 'Im_RobertPattinson.png', 'Im_RyanReynolds.png', 'Im_ElijahWood.png', 'Im_BenAffleck.png', 'Im_MattDamon.png', 'Im_HughJackman.png', 'Im_RobertDowneyJr.png', 'Im_KeanuReeves.png', 'Im_RyanGosling.png'],diff,1,0.4167656999998144,8,90.47619047619048,
BECO2507,12,inv,120,pos120_id11_im2.bmp_pos120_id11_im10.bmp,['Im_LeonardoDiCaprio.png', 'Im_RobertPattinson.png', 'Im_RyanReynolds.png', 'Im_ElijahWood.png', 'Im_BenAffleck.png', 'Im_MattDamon.png', 'Im_HughJackman.png', 'Im_RobertDowneyJr.png', 'Im_KeanuReeves.png', 'Im_RyanGosling.png'],diff,0,0.5001236999996763,8,90.47619047619048,
BECO2507,12,inv,0,pos0_id8_im13.bmp_pos0_id14_im24.bmp,['Im_LeonardoDiCaprio.png', 'Im_RobertPattinson.png', 'Im_RyanReynolds.png', 'Im_ElijahWood.png', 'Im_BenAffleck.png', 'Im_MattDamon.png', 'Im_HughJackman.png', 'Im_RobertDowneyJr.png', 'Im_KeanuReeves.png', 'Im_RyanGosling.png'],diff,1,0.4252617000001919,9,90.47619047619048,
BECO2507,12,inv,150,pos150_id18_im11.bmp_pos150_id13_im15.bmp,['Im_LeonardoDiCaprio.png', 'Im_RobertPattinson.png', 'Im_RyanReynolds.png', 'Im_ElijahWood.png', 'Im_BenAffleck.png', 'Im_MattDamon.png', 'Im_HughJackman.png', 'Im_RobertDowneyJr.png', 'Im_KeanuReeves.png', 'Im_RyanGosling.png'],diff,1,0.41673589999936667,10,90.47619047619048,
BECO2507,12,inv,30,pos30_id8_im21.bmp_pos30_id20_im30.bmp,['Im_LeonardoDiCaprio.png', 'Im_RobertPattinson.png', 'Im_RyanReynolds.png', 'Im_ElijahWood.png', 'Im_BenAffleck.png', 'Im_MattDamon.png', 'Im_HughJackman.png', 'Im_RobertDowneyJr.png', 'Im_KeanuReeves.png', 'Im_RyanGosling.png'],diff,1,0.45830730000034237,11,90.47619047619048,
BECO2507,12,inv,30,pos30_id18_im11.bmp_pos30_id20_im30.bmp,['Im_LeonardoDiCaprio.png', 'Im_RobertPattinson.png', 'Im_RyanReynolds.png', 'Im_ElijahWood.png', 'Im_BenAffleck.png', 'Im_MattDamon.png', 'Im_HughJackman.png', 'Im_RobertDowneyJr.png', 'Im_KeanuReeves.png', 'Im_RyanGosling.png'],diff,1,0.4251100999999835,12,90.47619047619048,
BECO2507,12,inv,150,pos150_id18_im19.bmp_pos150_id20_im3.bmp,['Im_LeonardoDiCaprio.png', 'Im_RobertPattinson.png', 'Im_RyanReynolds.png', 'Im_ElijahWood.png', 'Im_BenAffleck.png', 'Im_MattDamon.png', 'Im_HughJackman.png', 'Im_RobertDowneyJr.png', 'Im_KeanuReeves.png', 'Im_RyanGosling.png'],diff,1,0.7252134000000297,13,90.47619047619048,
BECO2507,13,neg,120,neg120_id19_im8.bmp_neg120_id13_im10.bmp,['Im_LeonardoDiCaprio.png', 'Im_RobertPattinson.png', 'Im_RyanReynolds.png', 'Im_ElijahWood.png', 'Im_BenAffleck.png', 'Im_MattDamon.png', 'Im_HughJackman.png', 'Im_RobertDowneyJr.png', 'Im_KeanuReeves.png', 'Im_RyanGosling.png'],diff,1,0.43353360000037355,14,90.47619047619048,
BECO2507,13,neg,fs,negfs_id11_im2.bmp_negfs_id13_im29.bmp,['Im_LeonardoDiCaprio.png', 'Im_RobertPattinson.png', 'Im_RyanReynolds.png', 'Im_ElijahWood.png', 'Im_BenAffleck.png', 'Im_MattDamon.png', 'Im_HughJackman.png', 'Im_RobertDowneyJr.png', 'Im_KeanuReeves.png', 'Im_RyanGosling.png'],diff,1,0.42516839999916556,15,90.47619047619048,
BECO2507,13,neg,0,neg0_id8_im20.bmp_neg0_id1_im21.bmp,['Im_LeonardoDiCaprio.png', 'Im_RobertPattinson.png', 'Im_RyanReynolds.png', 'Im_ElijahWood.png', 'Im_BenAffleck.png', 'Im_MattDamon.png', 'Im_HughJackman.png', 'Im_RobertDowneyJr.png', 'Im_KeanuReeves.png', 'Im_RyanGosling.png'],diff,1,0.458469299999706,16,90.47619047619048,
BECO2507,13,neg,30,neg30_id20_im30.bmp_neg30_id20_im3.bmp,['Im_LeonardoDiCaprio.png', 'Im_RobertPattinson.png', 'Im_RyanReynolds.png', 'Im_ElijahWood.png', 'Im_BenAffleck.png', 'Im_MattDamon.png', 'Im_HughJackman.png', 'Im_RobertDowneyJr.png', 'Im_KeanuReeves.png', 'Im_RyanGosling.png'],same,1,0.7750726000003851,17,90.47619047619048,
BECO2507,13,neg,60,neg60_id20_im30.bmp_neg60_id20_im3.bmp,['Im_LeonardoDiCaprio.png', 'Im_RobertPattinson.png', 'Im_RyanReynolds.png', 'Im_ElijahWood.png', 'Im_BenAffleck.png', 'Im_MattDamon.png', 'Im_HughJackman.png', 'Im_RobertDowneyJr.png', 'Im_KeanuReeves.png', 'Im_RyanGosling.png'],same,1,0.4167403000001286,18,90.47619047619048,
BECO2507,13,neg,0,neg0_id8_im20.bmp_neg0_id8_im21.bmp,['Im_LeonardoDiCaprio.png', 'Im_RobertPattinson.png', 'Im_RyanReynolds.png', 'Im_ElijahWood.png', 'Im_BenAffleck.png', 'Im_MattDamon.png', 'Im_HughJackman.png', 'Im_RobertDowneyJr.png', 'Im_KeanuReeves.png', 'Im_RyanGosling.png'],same,1,0.42505890000029467,19,90.47619047619048,
BECO2507,13,neg,90,neg90_id18_im18.bmp_neg90_id18_im19.bmp,['Im_LeonardoDiCaprio.png', 'Im_RobertPattinson.png', 'Im_RyanReynolds.png', 'Im_ElijahWood.png', 'Im_BenAffleck.png', 'Im_MattDamon.png', 'Im_HughJackman.png', 'Im_RobertDowneyJr.png', 'Im_KeanuReeves.png', 'Im_RyanGosling.png'],same,1,0.5504538999994111,20,90.47619047619048,
BECO2507,13,neg,30,neg30_id14_im18.bmp_neg30_id14_im16.bmp,['Im_LeonardoDiCaprio.png', 'Im_RobertPattinson.png', 'Im_RyanReynolds.png', 'Im_ElijahWood.png', 'Im_BenAffleck.png', 'Im_MattDamon.png', 'Im_HughJackman.png', 'Im_RobertDowneyJr.png', 'Im_KeanuReeves.png', 'Im_RyanGosling.png'],same,1,0.4250430999991295,21,90.47619047619048,
BECO2507,13,neg,90,neg90_id11_im10.bmp_neg90_id20_im3.bmp,['Im_LeonardoDiCaprio.png', 'Im_RobertPattinson.png', 'Im_RyanReynolds.png', 'Im_ElijahWood.png', 'Im_BenAffleck.png', 'Im_MattDamon.png', 'Im_HughJackman.png', 'Im_RobertDowneyJr.png', 'Im_KeanuReeves.png', 'Im_RyanGosling.png'],same,0,0.41681119999975635,21,90.47619047619048,
BECO2507,13,neg,120,neg120_id14_im18.bmp_neg120_id14_im24.bmp,['Im_LeonardoDiCaprio.png', 'Im_RobertPattinson.png', 'Im_RyanReynolds.png', 'Im_ElijahWood.png', 'Im_BenAffleck.png', 'Im_MattDamon.png', 'Im_HughJackman.png', 'Im_RobertDowneyJr.png', 'Im_KeanuReeves.png', 'Im_RyanGosling.png'],same,1,0.4250650999993013,22,90.47619047619048,
BECO2507,13,neg,150,neg150_id21_im17.bmp_neg150_id21_im22.bmp,['Im_LeonardoDiCaprio.png', 'Im_RobertPattinson.png', 'Im_RyanReynolds.png', 'Im_ElijahWood.png', 'Im_BenAffleck.png', 'Im_MattDamon.png', 'Im_HughJackman.png', 'Im_RobertDowneyJr.png', 'Im_KeanuReeves.png', 'Im_RyanGosling.png'],same,1,0.42504400000052556,23,90.47619047619048,
BECO2507,13,neg,60,neg60_id1_im4.bmp_neg60_id1_im21.bmp,['Im_LeonardoDiCaprio.png', 'Im_RobertPattinson.png', 'Im_RyanReynolds.png', 'Im_ElijahWood.png', 'Im_BenAffleck.png', 'Im_MattDamon.png', 'Im_HughJackman.png', 'Im_RobertDowneyJr.png', 'Im_KeanuReeves.png', 'Im_RyanGosling.png'],same,1,0.7664758999999322,24,90.47619047619048,
BECO2507,13,neg,150,neg150_id13_im15.bmp_neg150_id13_im10.bmp,['Im_LeonardoDiCaprio.png', 'Im_RobertPattinson.png', 'Im_RyanReynolds.png', 'Im_ElijahWood.png', 'Im_BenAffleck.png', 'Im_MattDamon.png', 'Im_HughJackman.png', 'Im_RobertDowneyJr.png', 'Im_KeanuReeves.png', 'Im_RyanGosling.png'],same,1,0.42510739999943326,25,90.47619047619048,
BECO2507,13,neg,fs,negfs_id1_im4.bmp_negfs_id1_im21.bmp,['Im_LeonardoDiCaprio.png', 'Im_RobertPattinson.png', 'Im_RyanReynolds.png', 'Im_ElijahWood.png', 'Im_BenAffleck.png', 'Im_MattDamon.png', 'Im_HughJackman.png', 'Im_RobertDowneyJr.png', 'Im_KeanuReeves.png', 'Im_RyanGosling.png'],same,1,0.40841120000004594,26,90.47619047619048,
BECO2507,14,pos,120,pos120_id13_im15.bmp_pos120_id19_im27.bmp,['Im_LeonardoDiCaprio.png', 'Im_RobertPattinson.png', 'Im_RyanReynolds.png', 'Im_ElijahWood.png', 'Im_BenAffleck.png', 'Im_MattDamon.png', 'Im_HughJackman.png', 'Im_RobertDowneyJr.png', 'Im_KeanuReeves.png', 'Im_RyanGosling.png'],diff,1,0.4168059000003268,27,90.47619047619048,
BECO2507,14,pos,30,pos30_id13_im10.bmp_pos30_id13_im29.bmp,['Im_LeonardoDiCaprio.png', 'Im_RobertPattinson.png', 'Im_RyanReynolds.png', 'Im_ElijahWood.png', 'Im_BenAffleck.png', 'Im_MattDamon.png', 'Im_HughJackman.png', 'Im_RobertDowneyJr.png', 'Im_KeanuReeves.png', 'Im_RyanGosling.png'],same,1,0.4251351999992039,28,90.47619047619048,
BECO2507,14,pos,150,pos150_id11_im1.bmp_pos150_id11_im10.bmp,['Im_LeonardoDiCaprio.png', 'Im_RobertPattinson.png', 'Im_RyanReynolds.png', 'Im_ElijahWood.png', 'Im_BenAffleck.png', 'Im_MattDamon.png', 'Im_HughJackman.png', 'Im_RobertDowneyJr.png', 'Im_KeanuReeves.png', 'Im_RyanGosling.png'],same,1,0.41669980000006035,29,90.47619047619048,
BECO2507,14,pos,150,pos150_id19_im4.bmp_pos150_id8_im21.bmp,['Im_LeonardoDiCaprio.png', 'Im_RobertPattinson.png', 'Im_RyanReynolds.png', 'Im_ElijahWood.png', 'Im_BenAffleck.png', 'Im_MattDamon.png', 'Im_HughJackman.png', 'Im_RobertDowneyJr.png', 'Im_KeanuReeves.png', 'Im_RyanGosling.png'],diff,1,0.41668209999988903,30,90.47619047619048,
BECO2507,14,pos,0,pos0_id6_im12.bmp_pos0_id6_im18.bmp,['Im_LeonardoDiCaprio.png', 'Im_RobertPattinson.png', 'Im_RyanReynolds.png', 'Im_ElijahWood.png', 'Im_BenAffleck.png', 'Im_MattDamon.png', 'Im_HughJackman.png', 'Im_RobertDowneyJr.png', 'Im_KeanuReeves.png', 'Im_RyanGosling.png'],same,1,0.4166302999992695,31,90.47619047619048,
BECO2507,14,pos,fs,posfs_id19_im8.bmp_posfs_id14_im24.bmp,['Im_LeonardoDiCaprio.png', 'Im_RobertPattinson.png', 'Im_RyanReynolds.png', 'Im_ElijahWood.png', 'Im_BenAffleck.png', 'Im_MattDamon.png', 'Im_HughJackman.png', 'Im_RobertDowneyJr.png', 'Im_KeanuReeves.png', 'Im_RyanGosling.png'],diff,1,0.41673660000014934,32,90.47619047619048,
BECO2507,14,pos,90,pos90_id19_im8.bmp_pos90_id13_im10.bmp,['Im_LeonardoDiCaprio.png', 'Im_RobertPattinson.png', 'Im_RyanReynolds.png', 'Im_ElijahWood.png', 'Im_BenAffleck.png', 'Im_MattDamon.png', 'Im_HughJackman.png', 'Im_RobertDowneyJr.png', 'Im_KeanuReeves.png', 'Im_RyanGosling.png'],diff,1,0.4166240000004109,33,90.47619047619048,
BECO2507,14,pos,0,pos0_id18_im18.bmp_pos0_id11_im10.bmp,['Im_LeonardoDiCaprio.png', 'Im_RobertPattinson.png', 'Im_RyanReynolds.png', 'Im_ElijahWood.png', 'Im_BenAffleck.png', 'Im_MattDamon.png', 'Im_HughJackman.png', 'Im_RobertDowneyJr.png', 'Im_KeanuReeves.png', 'Im_RyanGosling.png'],diff,1,0.424989000000096,34,90.47619047619048,
BECO2507,14,pos,30,pos30_id14_im16.bmp_pos30_id14_im18.bmp,['Im_LeonardoDiCaprio.png', 'Im_RobertPattinson.png', 'Im_RyanReynolds.png', 'Im_ElijahWood.png', 'Im_BenAffleck.png', 'Im_MattDamon.png', 'Im_HughJackman.png', 'Im_RobertDowneyJr.png', 'Im_KeanuReeves.png', 'Im_RyanGosling.png'],same,1,0.4251780000004146,35,90.47619047619048,
BECO2507,14,pos,120,pos120_id20_im30.bmp_pos120_id8_im21.bmp,['Im_LeonardoDiCaprio.png', 'Im_RobertPattinson.png', 'Im_RyanReynolds.png', 'Im_ElijahWood.png', 'Im_BenAffleck.png', 'Im_MattDamon.png', 'Im_HughJackman.png', 'Im_RobertDowneyJr.png', 'Im_KeanuReeves.png', 'Im_RyanGosling.png'],diff,1,0.4083614999999554,36,90.47619047619048,
BECO2507,14,pos,60,pos60_id19_im8.bmp_pos60_id19_im4.bmp,['Im_LeonardoDiCaprio.png', 'Im_RobertPattinson.png', 'Im_RyanReynolds.png', 'Im_ElijahWood.png', 'Im_BenAffleck.png', 'Im_MattDamon.png', 'Im_HughJackman.png', 'Im_RobertDowneyJr.png', 'Im_KeanuReeves.png', 'Im_RyanGosling.png'],same,1,0.4166704999997819,37,90.47619047619048,
BECO2507,14,pos,fs,posfs_id11_im2.bmp_posfs_id11_im1.bmp,['Im_LeonardoDiCaprio.png', 'Im_RobertPattinson.png', 'Im_RyanReynolds.png', 'Im_ElijahWood.png', 'Im_BenAffleck.png', 'Im_MattDamon.png', 'Im_HughJackman.png', 'Im_RobertDowneyJr.png', 'Im_KeanuReeves.png', 'Im_RyanGosling.png'],same,1,0.4084322999997312,38,90.47619047619048,
BECO2507,14,pos,60,pos60_id21_im16.bmp_pos60_id21_im17.bmp,['Im_LeonardoDiCaprio.png', 'Im_RobertPattinson.png', 'Im_RyanReynolds.png', 'Im_ElijahWood.png', 'Im_BenAffleck.png', 'Im_MattDamon.png', 'Im_HughJackman.png', 'Im_RobertDowneyJr.png', 'Im_KeanuReeves.png', 'Im_RyanGosling.png'],same,1,0.4166832000000795,39,90.47619047619048,
BECO2507,14,pos,90,pos90_id20_im30.bmp_pos90_id18_im11.bmp,['Im_LeonardoDiCaprio.png', 'Im_RobertPattinson.png', 'Im_RyanReynolds.png', 'Im_ElijahWood.png', 'Im_BenAffleck.png', 'Im_MattDamon.png', 'Im_HughJackman.png', 'Im_RobertDowneyJr.png', 'Im_KeanuReeves.png', 'Im_RyanGosling.png'],diff,1,0.41670040000008157,40,90.47619047619048,
BECO2507,15,inv,0,pos0_id18_im11.bmp_pos0_id18_im18.bmp,['Im_LeonardoDiCaprio.png', 'Im_RobertPattinson.png', 'Im_RyanReynolds.png', 'Im_ElijahWood.png', 'Im_BenAffleck.png', 'Im_MattDamon.png', 'Im_HughJackman.png', 'Im_RobertDowneyJr.png', 'Im_KeanuReeves.png', 'Im_RyanGosling.png'],same,1,0.41674090000014985,1,95.23809523809524,
BECO2507,15,inv,150,pos150_id13_im10.bmp_pos150_id13_im29.bmp,['Im_LeonardoDiCaprio.png', 'Im_RobertPattinson.png', 'Im_RyanReynolds.png', 'Im_ElijahWood.png', 'Im_BenAffleck.png', 'Im_MattDamon.png', 'Im_HughJackman.png', 'Im_RobertDowneyJr.png', 'Im_KeanuReeves.png', 'Im_RyanGosling.png'],same,1,0.4165746999997282,2,95.23809523809524,
BECO2507,15,inv,30,pos30_id1_im24.bmp_pos30_id1_im4.bmp,['Im_LeonardoDiCaprio.png', 'Im_RobertPattinson.png', 'Im_RyanReynolds.png', 'Im_ElijahWood.png', 'Im_BenAffleck.png', 'Im_MattDamon.png', 'Im_HughJackman.png', 'Im_RobertDowneyJr.png', 'Im_KeanuReeves.png', 'Im_RyanGosling.png'],same,1,0.4166556000000128,3,95.23809523809524,
BECO2507,15,inv,30,pos30_id21_im22.bmp_pos30_id18_im18.bmp,['Im_LeonardoDiCaprio.png', 'Im_RobertPattinson.png', 'Im_RyanReynolds.png', 'Im_ElijahWood.png', 'Im_BenAffleck.png', 'Im_MattDamon.png', 'Im_HughJackman.png', 'Im_RobertDowneyJr.png', 'Im_KeanuReeves.png', 'Im_RyanGosling.png'],diff,1,0.4167162999992797,4,95.23809523809524,
BECO2507,15,inv,0,pos0_id21_im17.bmp_pos0_id1_im4.bmp,['Im_LeonardoDiCaprio.png', 'Im_RobertPattinson.png', 'Im_RyanReynolds.png', 'Im_ElijahWood.png', 'Im_BenAffleck.png', 'Im_MattDamon.png', 'Im_HughJackman.png', 'Im_RobertDowneyJr.png', 'Im_KeanuReeves.png', 'Im_RyanGosling.png'],diff,1,0.4165375000002314,5,95.23809523809524,
