Sujet,Trial,Condition,Filter,Imname,Actor0,Actor1,Actor2,Actor3,Actor4,Actor5,Actor6,Actor7,Actor8,Actor9,Answer,Accu,RT,Score,Scoreperc, 
BECO2507,_,posfs_GeorgeClooney_im26.bmp,GeorgeClooney,LeonardoDiCaprio,LeonardoDiCaprio,RobertPattinson,BenAffleck,ElijahWood,,,,,posfs_GeorgeClooney_im26.bmp,2.41835010000068,
BECO2507,_,posfs_OrlandoBloom_im19.bmp,OrlandoBloom,ElijahWood,ElijahWood,DanielCraig,PatrickDempsey,LeonardoDiCaprio,,,,,posfs_OrlandoBloom_im19.bmp,0.8799674000001687,
BECO2507,_,posfs_PatrickDempsey_im8.bmp,PatrickDempsey,BenStiller,BenStiller,MattDamon,BradPitt,RyanGosling,,,,,posfs_PatrickDempsey_im8.bmp,1.6113242999999784,
BECO2507,_,posfs_BenStiller_im3.bmp,BenStiller,ElijahWood,ElijahWood,JustinTimberlake,BradPitt,RobertDowneyJr,,,,,posfs_BenStiller_im3.bmp,1.0883775999991485,
BECO2507,_,posfs_RobertDowneyJr_im4.bmp,RobertDowneyJr,RyanGosling,RyanGosling,BradPitt,HughJackman,ElijahWood,,,,,posfs_RobertDowneyJr_im4.bmp,1.202374200000122,
BECO2507,_,posfs_RyanReynolds_im22.bmp,RyanReynolds,JustinTimberlake,JustinTimberlake,BradPitt,KeanuReeves,LeonardoDiCaprio,,,,,posfs_RyanReynolds_im22.bmp,1.1596618000003218,
BECO2507,_,posfs_KeanuReeves_im10.bmp,KeanuReeves,MattDamon,MattDamon,OrlandoBloom,PatrickDempsey,LeonardoDiCaprio,,,,,posfs_KeanuReeves_im10.bmp,1.0394678999982716,
BECO2507,_,posfs_BradPitt_im6.bmp,BradPitt,RyanGosling,RyanGosling,RobertDowneyJr,OrlandoBloom,HughJackman,,,,,posfs_BradPitt_im6.bmp,2.7329749000000447,
BECO2507,_,posfs_RyanGosling_im3.bmp,RyanGosling,RobertPattinson,RobertPattinson,PatrickDempsey,DanielCraig,JustinTimberlake,,,,,posfs_RyanGosling_im3.bmp,1.1011102000011306,
BECO2507,_,posfs_MattDamon_im18.bmp,MattDamon,DanielCraig,DanielCraig,PatrickDempsey,DanielRadcliffe,ElijahWood,,,,,posfs_MattDamon_im18.bmp,1.343396299998858,
BECO2507,_,posfs_RobertPattinson_im27.bmp,RobertPattinson,RyanReynolds,RyanReynolds,OrlandoBloom,MattDamon,KeanuReeves,,,,,posfs_RobertPattinson_im27.bmp,1.5678918000012345,
BECO2507,_,posfs_BenAffleck_im21.bmp,BenAffleck,RyanGosling,RyanGosling,GeorgeClooney,ElijahWood,BradPitt,,,,,posfs_BenAffleck_im21.bmp,2.3506680999998935,
BECO2507,_,posfs_DanielCraig_im20.bmp,DanielCraig,BenStiller,BenStiller,BradPitt,LeonardoDiCaprio,OrlandoBloom,,,,,posfs_DanielCraig_im20.bmp,1.2779965000008815,
BECO2507,_,posfs_BradPitt_im8.bmp,BradPitt,BenStiller,BenStiller,BenAffleck,OrlandoBloom,RobertPattinson,,,,,posfs_BradPitt_im8.bmp,3.7531775000006746,
BECO2507,_,posfs_JustinTimberlake_im18.bmp,JustinTimberlake,ElijahWood,ElijahWood,RyanGosling,DanielRadcliffe,LeonardoDiCaprio,,,,,1,1.913312799999403,
BECO2507,_,posfs_GeorgeClooney_im14.bmp,GeorgeClooney,KeanuReeves,KeanuReeves,LeonardoDiCaprio,PatrickDempsey,RobertPattinson,,,,,posfs_GeorgeClooney_im14.bmp,2.0182586000009906,
BECO2507,_,posfs_BenStiller_im7.bmp,BenStiller,LeonardoDiCaprio,LeonardoDiCaprio,RyanGosling,DanielCraig,PatrickDempsey,,,,,posfs_BenStiller_im7.bmp,1.5033176000015374,
BECO2507,_,posfs_MattDamon_im16.bmp,MattDamon,LeonardoDiCaprio,LeonardoDiCaprio,RyanGosling,KeanuReeves,BenStiller,,,,,posfs_MattDamon_im16.bmp,0.9363747000006697,
BECO2507,_,posfs_DanielRadcliffe_im1.bmp,DanielRadcliffe,BradPitt,BradPitt,LeonardoDiCaprio,BenStiller,RobertPattinson,,,,,posfs_DanielRadcliffe_im1.bmp,1.9524718999982724,
BECO2507,_,posfs_RobertPattinson_im4.bmp,RobertPattinson,DanielRadcliffe,DanielRadcliffe,RyanGosling,MattDamon,ElijahWood,,,,,posfs_RobertPattinson_im4.bmp,1.831574099998761,
BECO2507,_,posfs_RobertPattinson_im8.bmp,RobertPattinson,DanielRadcliffe,DanielRadcliffe,OrlandoBloom,MattDamon,RyanGosling,,,,,posfs_RobertPattinson_im8.bmp,1.851362399998834,
BECO2507,_,posfs_RyanReynolds_im17.bmp,RyanReynolds,PatrickDempsey,PatrickDempsey,ElijahWood,BenStiller,BradPitt,,,,,posfs_RyanReynolds_im17.bmp,1.7133482999997796,
BECO2507,_,posfs_KeanuReeves_im2.bmp,KeanuReeves,HughJackman,HughJackman,GeorgeClooney,RobertPattinson,BenStiller,,,,,posfs_KeanuReeves_im2.bmp,1.2266249999993306,
BECO2507,_,posfs_BradPitt_im14.bmp,BradPitt,MattDamon,MattDamon,DanielCraig,OrlandoBloom,LeonardoDiCaprio,,,,,posfs_BradPitt_im14.bmp,3.2720076000005065,
BECO2507,_,posfs_RobertDowneyJr_im11.bmp,RobertDowneyJr,HughJackman,HughJackman,RyanGosling,JustinTimberlake,BenStiller,,,,,posfs_RobertDowneyJr_im11.bmp,1.1708997999994608,
BECO2507,_,posfs_RyanReynolds_im3.bmp,RyanReynolds,BenAffleck,BenAffleck,DanielCraig,MattDamon,OrlandoBloom,,,,,posfs_RyanReynolds_im3.bmp,2.3702990999991016,
BECO2507,_,posfs_DanielCraig_im8.bmp,DanielCraig,RobertPattinson,RobertPattinson,BenAffleck,BenStiller,LeonardoDiCaprio,,,,,posfs_DanielCraig_im8.bmp,1.089252600000691,
BECO2507,_,posfs_LeonardoDiCaprio_im15.bmp,LeonardoDiCaprio,RobertPattinson,RobertPattinson,DanielCraig,BradPitt,DanielRadcliffe,,,,,posfs_LeonardoDiCaprio_im15.bmp,2.373229300001185,
BECO2507,_,posfs_PatrickDempsey_im14.bmp,PatrickDempsey,KeanuReeves,KeanuReeves,RobertDowneyJr,HughJackman,RyanReynolds,,,,,posfs_PatrickDempsey_im14.bmp,3.090928499999791,
BECO2507,_,posfs_LeonardoDiCaprio_im24.bmp,LeonardoDiCaprio,DanielCraig,DanielCraig,BradPitt,PatrickDempsey,RyanGosling,,,,,posfs_LeonardoDiCaprio_im24.bmp,2.3412277000006725,
BECO2507,_,posfs_RobertPattinson_im30.bmp,RobertPattinson,DanielRadcliffe,DanielRadcliffe,DanielCraig,BenAffleck,JustinTimberlake,,,,,posfs_RobertPattinson_im30.bmp,2.0850147000001016,
BECO2507,_,posfs_DanielRadcliffe_im10.bmp,DanielRadcliffe,LeonardoDiCaprio,LeonardoDiCaprio,KeanuReeves,ElijahWood,MattDamon,,,,,posfs_DanielRadcliffe_im10.bmp,0.9196353999996063,
BECO2507,_,posfs_KeanuReeves_im1.bmp,KeanuReeves,LeonardoDiCaprio,LeonardoDiCaprio,BradPitt,JustinTimberlake,RobertPattinson,,,,,posfs_KeanuReeves_im1.bmp,1.896572899999228,
BECO2507,_,posfs_LeonardoDiCaprio_im10.bmp,LeonardoDiCaprio,BenStiller,BenStiller,RyanGosling,PatrickDempsey,RobertPattinson,,,,,posfs_LeonardoDiCaprio_im10.bmp,2.0182956000007835,
BECO2507,_,posfs_HughJackman_im13.bmp,HughJackman,BradPitt,BradPitt,PatrickDempsey,MattDamon,RobertPattinson,,,,,posfs_HughJackman_im13.bmp,1.7523991000016395,
BECO2507,_,posfs_JustinTimberlake_im1.bmp,JustinTimberlake,BenAffleck,BenAffleck,ElijahWood,PatrickDempsey,HughJackman,,,,,posfs_JustinTimberlake_im1.bmp,2.583151500000895,
BECO2507,_,posfs_OrlandoBloom_im30.bmp,OrlandoBloom,JustinTimberlake,JustinTimberlake,BradPitt,KeanuReeves,RyanGosling,,,,,posfs_OrlandoBloom_im30.bmp,1.479588899999726,
BECO2507,_,posfs_BenStiller_im2.bmp,BenStiller,RobertDowneyJr,RobertDowneyJr,GeorgeClooney,DanielCraig,RyanReynolds,,,,,posfs_BenStiller_im2.bmp,1.0008515000008629,
BECO2507,_,posfs_KeanuReeves_im8.bmp,KeanuReeves,BenAffleck,BenAffleck,LeonardoDiCaprio,RyanGosling,GeorgeClooney,,,,,posfs_KeanuReeves_im8.bmp,1.446931599999516,
BECO2507,_,posfs_BradPitt_im17.bmp,BradPitt,PatrickDempsey,PatrickDempsey,LeonardoDiCaprio,JustinTimberlake,HughJackman,,,,,posfs_BradPitt_im17.bmp,1.8191935000013473,
BECO2507,_,posfs_RyanGosling_im25.bmp,RyanGosling,DanielCraig,DanielCraig,KeanuReeves,BradPitt,MattDamon,,,,,posfs_RyanGosling_im25.bmp,2.392024199998559,
BECO2507,_,posfs_RobertDowneyJr_im18.bmp,RobertDowneyJr,MattDamon,MattDamon,BradPitt,GeorgeClooney,JustinTimberlake,,,,,posfs_RobertDowneyJr_im18.bmp,1.4142024000011588,
BECO2507,_,posfs_DanielRadcliffe_im8.bmp,DanielRadcliffe,MattDamon,MattDamon,PatrickDempsey,RyanReynolds,RobertDowneyJr,,,,,posfs_DanielRadcliffe_im8.bmp,2.651221300000543,
BECO2507,_,posfs_JustinTimberlake_im17.bmp,JustinTimberlake,MattDamon,MattDamon,LeonardoDiCaprio,ElijahWood,GeorgeClooney,,,,,posfs_JustinTimberlake_im17.bmp,2.134881600000881,
BECO2507,_,posfs_DanielRadcliffe_im20.bmp,DanielRadcliffe,GeorgeClooney,GeorgeClooney,ElijahWood,RobertPattinson,KeanuReeves,,,,,posfs_DanielRadcliffe_im20.bmp,1.5830206999999064,
BECO2507,_,posfs_HughJackman_im21.bmp,HughJackman,OrlandoBloom,OrlandoBloom,GeorgeClooney,RyanGosling,BradPitt,,,,,posfs_HughJackman_im21.bmp,2.053242699999828,
BECO2507,_,posfs_ElijahWood_im18.bmp,ElijahWood,PatrickDempsey,PatrickDempsey,JustinTimberlake,RobertPattinson,RobertDowneyJr,,,,,posfs_ElijahWood_im18.bmp,2.2809816999997565,
BECO2507,_,posfs_DanielCraig_im15.bmp,DanielCraig,BenAffleck,BenAffleck,MattDamon,BenStiller,HughJackman,,,,,posfs_DanielCraig_im15.bmp,1.7090504000007058,
BECO2507,_,posfs_ElijahWood_im12.bmp,ElijahWood,DanielRadcliffe,DanielRadcliffe,RobertDowneyJr,GeorgeClooney,BenStiller,,,,,posfs_ElijahWood_im12.bmp,1.278221599999597,
BECO2507,_,posfs_LeonardoDiCaprio_im29.bmp,LeonardoDiCaprio,RobertDowneyJr,RobertDowneyJr,PatrickDempsey,OrlandoBloom,DanielCraig,,,,,posfs_LeonardoDiCaprio_im29.bmp,3.1850656000005984,
BECO2507,_,posfs_RyanGosling_im30.bmp,RyanGosling,RyanReynolds,RyanReynolds,DanielCraig,PatrickDempsey,RobertPattinson,,,,,posfs_RyanGosling_im30.bmp,1.8960876000001008,
BECO2507,_,posfs_BenAffleck_im24.bmp,BenAffleck,OrlandoBloom,OrlandoBloom,DanielRadcliffe,MattDamon,GeorgeClooney,,,,,posfs_BenAffleck_im24.bmp,2.457774900000004,
BECO2507,_,posfs_BenAffleck_im8.bmp,BenAffleck,OrlandoBloom,OrlandoBloom,RobertPattinson,RyanReynolds,MattDamon,,,,,posfs_BenAffleck_im8.bmp,1.8691362999998091,
BECO2507,_,posfs_MattDamon_im9.bmp,MattDamon,BradPitt,BradPitt,HughJackman,DanielCraig,LeonardoDiCaprio,,,,,posfs_MattDamon_im9.bmp,2.68019170000116,
BECO2507,_,posfs_BenStiller_im16.bmp,BenStiller,KeanuReeves,KeanuReeves,MattDamon,JustinTimberlake,BenAffleck,,,,,3,1.1636192999994819,
BECO2507,_,posfs_PatrickDempsey_im9.bmp,PatrickDempsey,HughJackman,HughJackman,RobertDowneyJr,KeanuReeves,BenAffleck,,,,,posfs_PatrickDempsey_im9.bmp,1.2020221999991918,
BECO2507,_,posfs_ElijahWood_im23.bmp,ElijahWood,BenAffleck,BenAffleck,RyanGosling,BenStiller,RobertDowneyJr,,,,,posfs_ElijahWood_im23.bmp,1.7119643000005453,
BECO2507,_,posfs_HughJackman_im18.bmp,HughJackman,LeonardoDiCaprio,LeonardoDiCaprio,BradPitt,RyanGosling,DanielRadcliffe,,,,,posfs_HughJackman_im18.bmp,1.0653344000002107,
BECO2507,_,posfs_OrlandoBloom_im3.bmp,OrlandoBloom,RobertPattinson,RobertPattinson,RyanReynolds,RyanGosling,RobertDowneyJr,,,,,posfs_OrlandoBloom_im3.bmp,1.0768434000001434,
BECO2507,_,posfs_GeorgeClooney_im23.bmp,GeorgeClooney,BenAffleck,BenAffleck,MattDamon,OrlandoBloom,KeanuReeves,,,,,posfs_GeorgeClooney_im23.bmp,1.6799695000008796,
BECO2507,_,posfs_PatrickDempsey_im16.bmp,PatrickDempsey,BradPitt,BradPitt,DanielCraig,DanielRadcliffe,LeonardoDiCaprio,,,,,posfs_PatrickDempsey_im16.bmp,1.0983200999999099,
BECO2507,_,posfs_RyanReynolds_im16.bmp,RyanReynolds,OrlandoBloom,OrlandoBloom,RobertPattinson,RyanGosling,LeonardoDiCaprio,,,,,posfs_RyanReynolds_im16.bmp,3.1008393000010983,
BECO2507,_,posfs_OrlandoBloom_im2.bmp,OrlandoBloom,BenAffleck,BenAffleck,RyanGosling,MattDamon,RobertDowneyJr,,,,,posfs_OrlandoBloom_im2.bmp,3.9261382000004232,
BECO2507,_,posfs_MattDamon_im24.bmp,MattDamon,RobertDowneyJr,RobertDowneyJr,BradPitt,HughJackman,RobertPattinson,,,,,posfs_MattDamon_im24.bmp,2.1436897000003228,
BECO2507,_,posfs_ElijahWood_im19.bmp,ElijahWood,PatrickDempsey,PatrickDempsey,RyanReynolds,BenAffleck,OrlandoBloom,,,,,posfs_ElijahWood_im19.bmp,2.143974000000526,
BECO2507,_,posfs_RyanGosling_im12.bmp,RyanGosling,PatrickDempsey,PatrickDempsey,RyanReynolds,BradPitt,DanielCraig,,,,,posfs_RyanGosling_im12.bmp,5.479887100000269,
BECO2507,_,posfs_GeorgeClooney_im15.bmp,GeorgeClooney,JustinTimberlake,JustinTimberlake,DanielRadcliffe,DanielCraig,BenAffleck,,,,,posfs_GeorgeClooney_im15.bmp,2.3302003999997396,
BECO2507,_,posfs_JustinTimberlake_im4.bmp,JustinTimberlake,BenStiller,BenStiller,RobertDowneyJr,OrlandoBloom,PatrickDempsey,,,,,posfs_JustinTimberlake_im4.bmp,3.5238409000012325,
BECO2507,_,posfs_HughJackman_im20.bmp,HughJackman,JustinTimberlake,JustinTimberlake,RyanReynolds,DanielCraig,OrlandoBloom,,,,,posfs_HughJackman_im20.bmp,1.4605280999985553,
BECO2507,_,posfs_BenAffleck_im4.bmp,BenAffleck,BenStiller,BenStiller,KeanuReeves,ElijahWood,PatrickDempsey,,,,,posfs_BenAffleck_im4.bmp,3.0088878000005934,
BECO2507,_,posfs_RobertDowneyJr_im19.bmp,RobertDowneyJr,DanielRadcliffe,DanielRadcliffe,DanielCraig,PatrickDempsey,BenStiller,,,,,posfs_RobertDowneyJr_im19.bmp,1.5898940000006405,
BECO2507,_,posfs_DanielCraig_im7.bmp,DanielCraig,BenAffleck,BenAffleck,KeanuReeves,PatrickDempsey,DanielRadcliffe,,,,,posfs_DanielCraig_im7.bmp,1.6052164000011544,
BECO2507,train,pos,fs,posfs_id13_im29.bmp_posfs_id11_im2.bmp,['Im_RyanReynolds.png', 'Im_RyanGosling.png', 'Im_ElijahWood.png', 'Im_HughJackman.png', 'Im_RobertDowneyJr.png', 'Im_RobertPattinson.png', 'Im_MattDamon.png', 'Im_LeonardoDiCaprio.png', 'Im_BenAffleck.png', 'Im_KeanuReeves.png'],diff,1,1.1165605999995023,1,0,
BECO2507,train,pos,fs,posfs_id19_im8.bmp_posfs_id13_im10.bmp,['Im_RyanReynolds.png', 'Im_RyanGosling.png', 'Im_ElijahWood.png', 'Im_HughJackman.png', 'Im_RobertDowneyJr.png', 'Im_RobertPattinson.png', 'Im_MattDamon.png', 'Im_LeonardoDiCaprio.png', 'Im_BenAffleck.png', 'Im_KeanuReeves.png'],diff,1,0.9666865999988659,2,0,
BECO2507,train,pos,fs,posfs_id11_im10.bmp_posfs_id11_im2.bmp,['Im_RyanReynolds.png', 'Im_RyanGosling.png', 'Im_ElijahWood.png', 'Im_HughJackman.png', 'Im_RobertDowneyJr.png', 'Im_RobertPattinson.png', 'Im_MattDamon.png', 'Im_LeonardoDiCaprio.png', 'Im_BenAffleck.png', 'Im_KeanuReeves.png'],none,1,4.416626600001109,2,0,
BECO2507,train,pos,fs,posfs_id21_im17.bmp_posfs_id1_im4.bmp,['Im_RyanReynolds.png', 'Im_RyanGosling.png', 'Im_ElijahWood.png', 'Im_HughJackman.png', 'Im_RobertDowneyJr.png', 'Im_RobertPattinson.png', 'Im_MattDamon.png', 'Im_LeonardoDiCaprio.png', 'Im_BenAffleck.png', 'Im_KeanuReeves.png'],same,0,2.2835888999998133,2,0,
BECO2507,train,pos,fs,posfs_id19_im4.bmp_posfs_id8_im21.bmp,['Im_RyanReynolds.png', 'Im_RyanGosling.png', 'Im_ElijahWood.png', 'Im_HughJackman.png', 'Im_RobertDowneyJr.png', 'Im_RobertPattinson.png', 'Im_MattDamon.png', 'Im_LeonardoDiCaprio.png', 'Im_BenAffleck.png', 'Im_KeanuReeves.png'],diff,1,1.4248225999999704,3,0,
BECO2507,train,pos,fs,posfs_id1_im21.bmp_posfs_id1_im4.bmp,['Im_RyanReynolds.png', 'Im_RyanGosling.png', 'Im_ElijahWood.png', 'Im_HughJackman.png', 'Im_RobertDowneyJr.png', 'Im_RobertPattinson.png', 'Im_MattDamon.png', 'Im_LeonardoDiCaprio.png', 'Im_BenAffleck.png', 'Im_KeanuReeves.png'],same,1,0.716620300001523,4,0,
BECO2507,train,pos,fs,posfs_id14_im16.bmp_posfs_id14_im18.bmp,['Im_RyanReynolds.png', 'Im_RyanGosling.png', 'Im_ElijahWood.png', 'Im_HughJackman.png', 'Im_RobertDowneyJr.png', 'Im_RobertPattinson.png', 'Im_MattDamon.png', 'Im_LeonardoDiCaprio.png', 'Im_BenAffleck.png', 'Im_KeanuReeves.png'],same,1,1.749983699999575,5,0,
BECO2507,train,pos,fs,posfs_id14_im18.bmp_posfs_id6_im18.bmp,['Im_RyanReynolds.png', 'Im_RyanGosling.png', 'Im_ElijahWood.png', 'Im_HughJackman.png', 'Im_RobertDowneyJr.png', 'Im_RobertPattinson.png', 'Im_MattDamon.png', 'Im_LeonardoDiCaprio.png', 'Im_BenAffleck.png', 'Im_KeanuReeves.png'],diff,1,0.8752070000009553,6,0,
BECO2507,train,pos,fs,posfs_id6_im12.bmp_posfs_id21_im16.bmp,['Im_RyanReynolds.png', 'Im_RyanGosling.png', 'Im_ElijahWood.png', 'Im_HughJackman.png', 'Im_RobertDowneyJr.png', 'Im_RobertPattinson.png', 'Im_MattDamon.png', 'Im_LeonardoDiCaprio.png', 'Im_BenAffleck.png', 'Im_KeanuReeves.png'],diff,1,0.8334939999986091,7,0,
BECO2507,train,pos,fs,posfs_id8_im20.bmp_posfs_id1_im21.bmp,['Im_RyanReynolds.png', 'Im_RyanGosling.png', 'Im_ElijahWood.png', 'Im_HughJackman.png', 'Im_RobertDowneyJr.png', 'Im_RobertPattinson.png', 'Im_MattDamon.png', 'Im_LeonardoDiCaprio.png', 'Im_BenAffleck.png', 'Im_KeanuReeves.png'],diff,1,0.8415906999998697,8,0,
BECO2507,train,pos,fs,posfs_id21_im17.bmp_posfs_id8_im13.bmp,['Im_RyanReynolds.png', 'Im_RyanGosling.png', 'Im_ElijahWood.png', 'Im_HughJackman.png', 'Im_RobertDowneyJr.png', 'Im_RobertPattinson.png', 'Im_MattDamon.png', 'Im_LeonardoDiCaprio.png', 'Im_BenAffleck.png', 'Im_KeanuReeves.png'],diff,1,0.6998425000001589,9,0,
BECO2507,train,pos,fs,posfs_id6_im12.bmp_posfs_id6_im18.bmp,['Im_RyanReynolds.png', 'Im_RyanGosling.png', 'Im_ElijahWood.png', 'Im_HughJackman.png', 'Im_RobertDowneyJr.png', 'Im_RobertPattinson.png', 'Im_MattDamon.png', 'Im_LeonardoDiCaprio.png', 'Im_BenAffleck.png', 'Im_KeanuReeves.png'],same,1,1.3083052999991196,10,0,
BECO2507,train,pos,fs,posfs_id13_im15.bmp_posfs_id13_im10.bmp,['Im_RyanReynolds.png', 'Im_RyanGosling.png', 'Im_ElijahWood.png', 'Im_HughJackman.png', 'Im_RobertDowneyJr.png', 'Im_RobertPattinson.png', 'Im_MattDamon.png', 'Im_LeonardoDiCaprio.png', 'Im_BenAffleck.png', 'Im_KeanuReeves.png'],same,1,0.7584587999990617,11,0,
BECO2507,train,pos,fs,posfs_id20_im12.bmp_posfs_id20_im30.bmp,['Im_RyanReynolds.png', 'Im_RyanGosling.png', 'Im_ElijahWood.png', 'Im_HughJackman.png', 'Im_RobertDowneyJr.png', 'Im_RobertPattinson.png', 'Im_MattDamon.png', 'Im_LeonardoDiCaprio.png', 'Im_BenAffleck.png', 'Im_KeanuReeves.png'],same,1,0.6669127000004664,12,0,
BECO2507,train,pos,fs,posfs_id21_im16.bmp_posfs_id19_im27.bmp,['Im_RyanReynolds.png', 'Im_RyanGosling.png', 'Im_ElijahWood.png', 'Im_HughJackman.png', 'Im_RobertDowneyJr.png', 'Im_RobertPattinson.png', 'Im_MattDamon.png', 'Im_LeonardoDiCaprio.png', 'Im_BenAffleck.png', 'Im_KeanuReeves.png'],diff,1,0.8336579999995593,13,0,
BECO2507,train,pos,fs,posfs_id18_im11.bmp_posfs_id18_im18.bmp,['Im_RyanReynolds.png', 'Im_RyanGosling.png', 'Im_ElijahWood.png', 'Im_HughJackman.png', 'Im_RobertDowneyJr.png', 'Im_RobertPattinson.png', 'Im_MattDamon.png', 'Im_LeonardoDiCaprio.png', 'Im_BenAffleck.png', 'Im_KeanuReeves.png'],same,1,0.7582598999997572,14,0,
BECO2507,train,pos,fs,posfs_id8_im13.bmp_posfs_id8_im21.bmp,['Im_RyanReynolds.png', 'Im_RyanGosling.png', 'Im_ElijahWood.png', 'Im_HughJackman.png', 'Im_RobertDowneyJr.png', 'Im_RobertPattinson.png', 'Im_MattDamon.png', 'Im_LeonardoDiCaprio.png', 'Im_BenAffleck.png', 'Im_KeanuReeves.png'],same,1,0.8832605999996304,15,0,
BECO2507,train,pos,fs,posfs_id18_im18.bmp_posfs_id18_im19.bmp,['Im_RyanReynolds.png', 'Im_RyanGosling.png', 'Im_ElijahWood.png', 'Im_HughJackman.png', 'Im_RobertDowneyJr.png', 'Im_RobertPattinson.png', 'Im_MattDamon.png', 'Im_LeonardoDiCaprio.png', 'Im_BenAffleck.png', 'Im_KeanuReeves.png'],same,1,0.6750021000007109,16,0,
BECO2507,train,pos,fs,posfs_id1_im4.bmp_posfs_id11_im2.bmp,['Im_RyanReynolds.png', 'Im_RyanGosling.png', 'Im_ElijahWood.png', 'Im_HughJackman.png', 'Im_RobertDowneyJr.png', 'Im_RobertPattinson.png', 'Im_MattDamon.png', 'Im_LeonardoDiCaprio.png', 'Im_BenAffleck.png', 'Im_KeanuReeves.png'],diff,1,0.7338665000006586,17,0,
BECO2507,train,pos,fs,posfs_id19_im27.bmp_posfs_id19_im8.bmp,['Im_RyanReynolds.png', 'Im_RyanGosling.png', 'Im_ElijahWood.png', 'Im_HughJackman.png', 'Im_RobertDowneyJr.png', 'Im_RobertPattinson.png', 'Im_MattDamon.png', 'Im_LeonardoDiCaprio.png', 'Im_BenAffleck.png', 'Im_KeanuReeves.png'],same,1,0.6918456999992486,18,0,
BECO2507,train,neg,fs,negfs_id14_im18.bmp_negfs_id14_im16.bmp,['Im_RyanReynolds.png', 'Im_RyanGosling.png', 'Im_ElijahWood.png', 'Im_HughJackman.png', 'Im_RobertDowneyJr.png', 'Im_RobertPattinson.png', 'Im_MattDamon.png', 'Im_LeonardoDiCaprio.png', 'Im_BenAffleck.png', 'Im_KeanuReeves.png'],same,1,0.5086109000003489,1,0,
BECO2507,train,inv,fs,posfs_id1_im24.bmp_posfs_id6_im19.bmp,['Im_RyanReynolds.png', 'Im_RyanGosling.png', 'Im_ElijahWood.png', 'Im_HughJackman.png', 'Im_RobertDowneyJr.png', 'Im_RobertPattinson.png', 'Im_MattDamon.png', 'Im_LeonardoDiCaprio.png', 'Im_BenAffleck.png', 'Im_KeanuReeves.png'],diff,1,0.608608099999401,2,0,
BECO2507,train,pos,fs,posfs_id13_im29.bmp_posfs_id13_im10.bmp,['Im_RyanReynolds.png', 'Im_RyanGosling.png', 'Im_ElijahWood.png', 'Im_HughJackman.png', 'Im_RobertDowneyJr.png', 'Im_RobertPattinson.png', 'Im_MattDamon.png', 'Im_LeonardoDiCaprio.png', 'Im_BenAffleck.png', 'Im_KeanuReeves.png'],same,1,0.4083431999988534,3,0,
BECO2507,train,neg,fs,negfs_id19_im27.bmp_negfs_id21_im16.bmp,['Im_RyanReynolds.png', 'Im_RyanGosling.png', 'Im_ElijahWood.png', 'Im_HughJackman.png', 'Im_RobertDowneyJr.png', 'Im_RobertPattinson.png', 'Im_MattDamon.png', 'Im_LeonardoDiCaprio.png', 'Im_BenAffleck.png', 'Im_KeanuReeves.png'],diff,1,0.5085405999998329,4,0,
BECO2507,train,inv,fs,posfs_id18_im19.bmp_posfs_id18_im18.bmp,['Im_RyanReynolds.png', 'Im_RyanGosling.png', 'Im_ElijahWood.png', 'Im_HughJackman.png', 'Im_RobertDowneyJr.png', 'Im_RobertPattinson.png', 'Im_MattDamon.png', 'Im_LeonardoDiCaprio.png', 'Im_BenAffleck.png', 'Im_KeanuReeves.png'],same,1,0.5417453000009118,5,0,
BECO2507,train,neg,fs,negfs_id11_im2.bmp_negfs_id11_im1.bmp,['Im_RyanReynolds.png', 'Im_RyanGosling.png', 'Im_ElijahWood.png', 'Im_HughJackman.png', 'Im_RobertDowneyJr.png', 'Im_RobertPattinson.png', 'Im_MattDamon.png', 'Im_LeonardoDiCaprio.png', 'Im_BenAffleck.png', 'Im_KeanuReeves.png'],same,1,1.2417467999985092,6,0,
BECO2507,train,neg,fs,negfs_id19_im8.bmp_negfs_id19_im4.bmp,['Im_RyanReynolds.png', 'Im_RyanGosling.png', 'Im_ElijahWood.png', 'Im_HughJackman.png', 'Im_RobertDowneyJr.png', 'Im_RobertPattinson.png', 'Im_MattDamon.png', 'Im_LeonardoDiCaprio.png', 'Im_BenAffleck.png', 'Im_KeanuReeves.png'],diff,0,0.8250497000008181,6,0,
BECO2507,train,neg,fs,negfs_id19_im8.bmp_negfs_id14_im24.bmp,['Im_RyanReynolds.png', 'Im_RyanGosling.png', 'Im_ElijahWood.png', 'Im_HughJackman.png', 'Im_RobertDowneyJr.png', 'Im_RobertPattinson.png', 'Im_MattDamon.png', 'Im_LeonardoDiCaprio.png', 'Im_BenAffleck.png', 'Im_KeanuReeves.png'],diff,1,0.858978099999149,7,0,
BECO2507,train,inv,fs,posfs_id14_im18.bmp_posfs_id14_im24.bmp,['Im_RyanReynolds.png', 'Im_RyanGosling.png', 'Im_ElijahWood.png', 'Im_HughJackman.png', 'Im_RobertDowneyJr.png', 'Im_RobertPattinson.png', 'Im_MattDamon.png', 'Im_LeonardoDiCaprio.png', 'Im_BenAffleck.png', 'Im_KeanuReeves.png'],same,1,0.975214899999628,8,0,
BECO2507,train,inv,fs,posfs_id19_im8.bmp_posfs_id19_im4.bmp,['Im_RyanReynolds.png', 'Im_RyanGosling.png', 'Im_ElijahWood.png', 'Im_HughJackman.png', 'Im_RobertDowneyJr.png', 'Im_RobertPattinson.png', 'Im_MattDamon.png', 'Im_LeonardoDiCaprio.png', 'Im_BenAffleck.png', 'Im_KeanuReeves.png'],same,1,0.40836990000025253,9,0,
BECO2507,train,inv,fs,posfs_id21_im16.bmp_posfs_id21_im22.bmp,['Im_RyanReynolds.png', 'Im_RyanGosling.png', 'Im_ElijahWood.png', 'Im_HughJackman.png', 'Im_RobertDowneyJr.png', 'Im_RobertPattinson.png', 'Im_MattDamon.png', 'Im_LeonardoDiCaprio.png', 'Im_BenAffleck.png', 'Im_KeanuReeves.png'],same,1,0.4334557999991375,10,0,
BECO2507,train,inv,fs,posfs_id6_im19.bmp_posfs_id14_im16.bmp,['Im_RyanReynolds.png', 'Im_RyanGosling.png', 'Im_ElijahWood.png', 'Im_HughJackman.png', 'Im_RobertDowneyJr.png', 'Im_RobertPattinson.png', 'Im_MattDamon.png', 'Im_LeonardoDiCaprio.png', 'Im_BenAffleck.png', 'Im_KeanuReeves.png'],diff,1,0.40839150000101654,11,0,
BECO2507,train,neg,fs,negfs_id13_im15.bmp_negfs_id19_im27.bmp,['Im_RyanReynolds.png', 'Im_RyanGosling.png', 'Im_ElijahWood.png', 'Im_HughJackman.png', 'Im_RobertDowneyJr.png', 'Im_RobertPattinson.png', 'Im_MattDamon.png', 'Im_LeonardoDiCaprio.png', 'Im_BenAffleck.png', 'Im_KeanuReeves.png'],same,0,0.8836969000003592,11,0,
BECO2507,train,neg,fs,negfs_id1_im4.bmp_negfs_id11_im2.bmp,['Im_RyanReynolds.png', 'Im_RyanGosling.png', 'Im_ElijahWood.png', 'Im_HughJackman.png', 'Im_RobertDowneyJr.png', 'Im_RobertPattinson.png', 'Im_MattDamon.png', 'Im_LeonardoDiCaprio.png', 'Im_BenAffleck.png', 'Im_KeanuReeves.png'],same,0,0.9834980000014184,11,0,
BECO2507,train,inv,fs,posfs_id14_im18.bmp_posfs_id6_im18.bmp,['Im_RyanReynolds.png', 'Im_RyanGosling.png', 'Im_ElijahWood.png', 'Im_HughJackman.png', 'Im_RobertDowneyJr.png', 'Im_RobertPattinson.png', 'Im_MattDamon.png', 'Im_LeonardoDiCaprio.png', 'Im_BenAffleck.png', 'Im_KeanuReeves.png'],diff,1,0.4168976000000839,12,0,
BECO2507,train,pos,fs,posfs_id13_im15.bmp_posfs_id13_im10.bmp,['Im_RyanReynolds.png', 'Im_RyanGosling.png', 'Im_ElijahWood.png', 'Im_HughJackman.png', 'Im_RobertDowneyJr.png', 'Im_RobertPattinson.png', 'Im_MattDamon.png', 'Im_LeonardoDiCaprio.png', 'Im_BenAffleck.png', 'Im_KeanuReeves.png'],same,1,0.41686740000113787,13,0,
BECO2507,train,pos,fs,posfs_id13_im29.bmp_posfs_id13_im15.bmp,['Im_RyanReynolds.png', 'Im_RyanGosling.png', 'Im_ElijahWood.png', 'Im_HughJackman.png', 'Im_RobertDowneyJr.png', 'Im_RobertPattinson.png', 'Im_MattDamon.png', 'Im_LeonardoDiCaprio.png', 'Im_BenAffleck.png', 'Im_KeanuReeves.png'],same,1,0.41673249999985273,14,0,
BECO2507,train,inv,fs,posfs_id13_im10.bmp_posfs_id13_im29.bmp,['Im_RyanReynolds.png', 'Im_RyanGosling.png', 'Im_ElijahWood.png', 'Im_HughJackman.png', 'Im_RobertDowneyJr.png', 'Im_RobertPattinson.png', 'Im_MattDamon.png', 'Im_LeonardoDiCaprio.png', 'Im_BenAffleck.png', 'Im_KeanuReeves.png'],same,1,0.9917298000000301,15,0,
BECO2507,train,inv,fs,posfs_id18_im19.bmp_posfs_id20_im3.bmp,['Im_RyanReynolds.png', 'Im_RyanGosling.png', 'Im_ElijahWood.png', 'Im_HughJackman.png', 'Im_RobertDowneyJr.png', 'Im_RobertPattinson.png', 'Im_MattDamon.png', 'Im_LeonardoDiCaprio.png', 'Im_BenAffleck.png', 'Im_KeanuReeves.png'],diff,1,0.4248975000009523,16,0,
BECO2507,train,neg,fs,negfs_id11_im1.bmp_negfs_id20_im12.bmp,['Im_RyanReynolds.png', 'Im_RyanGosling.png', 'Im_ElijahWood.png', 'Im_HughJackman.png', 'Im_RobertDowneyJr.png', 'Im_RobertPattinson.png', 'Im_MattDamon.png', 'Im_LeonardoDiCaprio.png', 'Im_BenAffleck.png', 'Im_KeanuReeves.png'],same,0,0.775114100000792,16,0,
BECO2507,train,neg,fs,negfs_id18_im19.bmp_negfs_id21_im22.bmp,['Im_RyanReynolds.png', 'Im_RyanGosling.png', 'Im_ElijahWood.png', 'Im_HughJackman.png', 'Im_RobertDowneyJr.png', 'Im_RobertPattinson.png', 'Im_MattDamon.png', 'Im_LeonardoDiCaprio.png', 'Im_BenAffleck.png', 'Im_KeanuReeves.png'],diff,1,0.5916363999986061,1,0,
BECO2507,train,neg,fs,negfs_id20_im3.bmp_negfs_id20_im12.bmp,['Im_RyanReynolds.png', 'Im_RyanGosling.png', 'Im_ElijahWood.png', 'Im_HughJackman.png', 'Im_RobertDowneyJr.png', 'Im_RobertPattinson.png', 'Im_MattDamon.png', 'Im_LeonardoDiCaprio.png', 'Im_BenAffleck.png', 'Im_KeanuReeves.png'],same,1,0.4917127000007895,2,0,
BECO2507,train,neg,150,neg150_id14_im16.bmp_neg150_id14_im18.bmp,['Im_RyanReynolds.png', 'Im_RyanGosling.png', 'Im_ElijahWood.png', 'Im_HughJackman.png', 'Im_RobertDowneyJr.png', 'Im_RobertPattinson.png', 'Im_MattDamon.png', 'Im_LeonardoDiCaprio.png', 'Im_BenAffleck.png', 'Im_KeanuReeves.png'],same,1,0.7917208999988361,3,0,
BECO2507,train,neg,120,neg120_id13_im15.bmp_neg120_id13_im29.bmp,['Im_RyanReynolds.png', 'Im_RyanGosling.png', 'Im_ElijahWood.png', 'Im_HughJackman.png', 'Im_RobertDowneyJr.png', 'Im_RobertPattinson.png', 'Im_MattDamon.png', 'Im_LeonardoDiCaprio.png', 'Im_BenAffleck.png', 'Im_KeanuReeves.png'],diff,0,0.808416899999429,3,0,
BECO2507,train,neg,90,neg90_id21_im22.bmp_neg90_id21_im17.bmp,['Im_RyanReynolds.png', 'Im_RyanGosling.png', 'Im_ElijahWood.png', 'Im_HughJackman.png', 'Im_RobertDowneyJr.png', 'Im_RobertPattinson.png', 'Im_MattDamon.png', 'Im_LeonardoDiCaprio.png', 'Im_BenAffleck.png', 'Im_KeanuReeves.png'],diff,0,0.4167395000004035,3,0,
BECO2507,train,neg,60,neg60_id19_im4.bmp_neg60_id8_im20.bmp,['Im_RyanReynolds.png', 'Im_RyanGosling.png', 'Im_ElijahWood.png', 'Im_HughJackman.png', 'Im_RobertDowneyJr.png', 'Im_RobertPattinson.png', 'Im_MattDamon.png', 'Im_LeonardoDiCaprio.png', 'Im_BenAffleck.png', 'Im_KeanuReeves.png'],diff,1,0.5667261999988114,4,0,
BECO2507,train,neg,30,neg30_id11_im1.bmp_neg30_id11_im10.bmp,['Im_RyanReynolds.png', 'Im_RyanGosling.png', 'Im_ElijahWood.png', 'Im_HughJackman.png', 'Im_RobertDowneyJr.png', 'Im_RobertPattinson.png', 'Im_MattDamon.png', 'Im_LeonardoDiCaprio.png', 'Im_BenAffleck.png', 'Im_KeanuReeves.png'],same,1,0.7169816000005085,5,0,
BECO2507,train,neg,0,neg0_id6_im12.bmp_neg0_id6_im19.bmp,['Im_RyanReynolds.png', 'Im_RyanGosling.png', 'Im_ElijahWood.png', 'Im_HughJackman.png', 'Im_RobertDowneyJr.png', 'Im_RobertPattinson.png', 'Im_MattDamon.png', 'Im_LeonardoDiCaprio.png', 'Im_BenAffleck.png', 'Im_KeanuReeves.png'],diff,0,0.4250491000002512,5,0,
BECO2507,train,neg,60,neg60_id8_im13.bmp_neg60_id8_im21.bmp,['Im_RyanReynolds.png', 'Im_RyanGosling.png', 'Im_ElijahWood.png', 'Im_HughJackman.png', 'Im_RobertDowneyJr.png', 'Im_RobertPattinson.png', 'Im_MattDamon.png', 'Im_LeonardoDiCaprio.png', 'Im_BenAffleck.png', 'Im_KeanuReeves.png'],same,1,0.5001673999995546,6,0,
BECO2507,train,neg,30,neg30_id8_im20.bmp_neg30_id19_im4.bmp,['Im_RyanReynolds.png', 'Im_RyanGosling.png', 'Im_ElijahWood.png', 'Im_HughJackman.png', 'Im_RobertDowneyJr.png', 'Im_RobertPattinson.png', 'Im_MattDamon.png', 'Im_LeonardoDiCaprio.png', 'Im_BenAffleck.png', 'Im_KeanuReeves.png'],same,0,1.2250487000001158,6,0,
BECO2507,train,neg,90,neg90_id18_im18.bmp_neg90_id21_im22.bmp,['Im_RyanReynolds.png', 'Im_RyanGosling.png', 'Im_ElijahWood.png', 'Im_HughJackman.png', 'Im_RobertDowneyJr.png', 'Im_RobertPattinson.png', 'Im_MattDamon.png', 'Im_LeonardoDiCaprio.png', 'Im_BenAffleck.png', 'Im_KeanuReeves.png'],same,0,0.7503604000012274,6,0,
BECO2507,train,neg,0,neg0_id11_im2.bmp_neg0_id1_im4.bmp,['Im_RyanReynolds.png', 'Im_RyanGosling.png', 'Im_ElijahWood.png', 'Im_HughJackman.png', 'Im_RobertDowneyJr.png', 'Im_RobertPattinson.png', 'Im_MattDamon.png', 'Im_LeonardoDiCaprio.png', 'Im_BenAffleck.png', 'Im_KeanuReeves.png'],diff,1,1.7927306000001408,7,0,
BECO2507,train,neg,120,neg120_id21_im16.bmp_neg120_id21_im17.bmp,['Im_RyanReynolds.png', 'Im_RyanGosling.png', 'Im_ElijahWood.png', 'Im_HughJackman.png', 'Im_RobertDowneyJr.png', 'Im_RobertPattinson.png', 'Im_MattDamon.png', 'Im_LeonardoDiCaprio.png', 'Im_BenAffleck.png', 'Im_KeanuReeves.png'],same,1,0.6417781999989529,8,0,
BECO2507,train,neg,150,neg150_id1_im24.bmp_neg150_id6_im19.bmp,['Im_RyanReynolds.png', 'Im_RyanGosling.png', 'Im_ElijahWood.png', 'Im_HughJackman.png', 'Im_RobertDowneyJr.png', 'Im_RobertPattinson.png', 'Im_MattDamon.png', 'Im_LeonardoDiCaprio.png', 'Im_BenAffleck.png', 'Im_KeanuReeves.png'],same,0,0.9419198999985383,8,0,
BECO2507,train,pos,30,pos30_id14_im16.bmp_pos30_id1_im21.bmp,['Im_RyanReynolds.png', 'Im_RyanGosling.png', 'Im_ElijahWood.png', 'Im_HughJackman.png', 'Im_RobertDowneyJr.png', 'Im_RobertPattinson.png', 'Im_MattDamon.png', 'Im_LeonardoDiCaprio.png', 'Im_BenAffleck.png', 'Im_KeanuReeves.png'],diff,1,0.41687499999898137,9,0,
BECO2507,train,pos,150,pos150_id20_im30.bmp_pos150_id18_im11.bmp,['Im_RyanReynolds.png', 'Im_RyanGosling.png', 'Im_ElijahWood.png', 'Im_HughJackman.png', 'Im_RobertDowneyJr.png', 'Im_RobertPattinson.png', 'Im_MattDamon.png', 'Im_LeonardoDiCaprio.png', 'Im_BenAffleck.png', 'Im_KeanuReeves.png'],diff,1,0.9584164999996574,10,0,
BECO2507,train,pos,30,pos30_id21_im17.bmp_pos30_id8_im13.bmp,['Im_RyanReynolds.png', 'Im_RyanGosling.png', 'Im_ElijahWood.png', 'Im_HughJackman.png', 'Im_RobertDowneyJr.png', 'Im_RobertPattinson.png', 'Im_MattDamon.png', 'Im_LeonardoDiCaprio.png', 'Im_BenAffleck.png', 'Im_KeanuReeves.png'],diff,1,0.4334415000012086,11,0,
BECO2507,train,pos,90,pos90_id8_im20.bmp_pos90_id8_im13.bmp,['Im_RyanReynolds.png', 'Im_RyanGosling.png', 'Im_ElijahWood.png', 'Im_HughJackman.png', 'Im_RobertDowneyJr.png', 'Im_RobertPattinson.png', 'Im_MattDamon.png', 'Im_LeonardoDiCaprio.png', 'Im_BenAffleck.png', 'Im_KeanuReeves.png'],same,1,0.7583501999997679,12,0,
BECO2507,train,pos,150,pos150_id19_im4.bmp_pos150_id19_im8.bmp,['Im_RyanReynolds.png', 'Im_RyanGosling.png', 'Im_ElijahWood.png', 'Im_HughJackman.png', 'Im_RobertDowneyJr.png', 'Im_RobertPattinson.png', 'Im_MattDamon.png', 'Im_LeonardoDiCaprio.png', 'Im_BenAffleck.png', 'Im_KeanuReeves.png'],same,1,0.4084366000006412,13,0,
BECO2507,train,pos,fs,posfs_id18_im19.bmp_posfs_id18_im18.bmp,['Im_RyanReynolds.png', 'Im_RyanGosling.png', 'Im_ElijahWood.png', 'Im_HughJackman.png', 'Im_RobertDowneyJr.png', 'Im_RobertPattinson.png', 'Im_MattDamon.png', 'Im_LeonardoDiCaprio.png', 'Im_BenAffleck.png', 'Im_KeanuReeves.png'],same,1,0.41684859999986656,14,0,
BECO2507,train,pos,0,pos0_id13_im15.bmp_pos0_id18_im11.bmp,['Im_RyanReynolds.png', 'Im_RyanGosling.png', 'Im_ElijahWood.png', 'Im_HughJackman.png', 'Im_RobertDowneyJr.png', 'Im_RobertPattinson.png', 'Im_MattDamon.png', 'Im_LeonardoDiCaprio.png', 'Im_BenAffleck.png', 'Im_KeanuReeves.png'],diff,1,0.4083485999999539,15,0,
BECO2507,train,pos,60,pos60_id21_im17.bmp_pos60_id21_im22.bmp,['Im_RyanReynolds.png', 'Im_RyanGosling.png', 'Im_ElijahWood.png', 'Im_HughJackman.png', 'Im_RobertDowneyJr.png', 'Im_RobertPattinson.png', 'Im_MattDamon.png', 'Im_LeonardoDiCaprio.png', 'Im_BenAffleck.png', 'Im_KeanuReeves.png'],same,1,0.4084497999992891,16,0,
BECO2507,train,pos,60,pos60_id18_im19.bmp_pos60_id21_im22.bmp,['Im_RyanReynolds.png', 'Im_RyanGosling.png', 'Im_ElijahWood.png', 'Im_HughJackman.png', 'Im_RobertDowneyJr.png', 'Im_RobertPattinson.png', 'Im_MattDamon.png', 'Im_LeonardoDiCaprio.png', 'Im_BenAffleck.png', 'Im_KeanuReeves.png'],diff,1,0.4167029000000184,17,0,
BECO2507,train,pos,90,pos90_id20_im12.bmp_pos90_id20_im3.bmp,['Im_RyanReynolds.png', 'Im_RyanGosling.png', 'Im_ElijahWood.png', 'Im_HughJackman.png', 'Im_RobertDowneyJr.png', 'Im_RobertPattinson.png', 'Im_MattDamon.png', 'Im_LeonardoDiCaprio.png', 'Im_BenAffleck.png', 'Im_KeanuReeves.png'],same,1,0.40838090000033844,18,0,
BECO2507,train,pos,fs,posfs_id8_im13.bmp_posfs_id8_im21.bmp,['Im_RyanReynolds.png', 'Im_RyanGosling.png', 'Im_ElijahWood.png', 'Im_HughJackman.png', 'Im_RobertDowneyJr.png', 'Im_RobertPattinson.png', 'Im_MattDamon.png', 'Im_LeonardoDiCaprio.png', 'Im_BenAffleck.png', 'Im_KeanuReeves.png'],same,1,0.4084224999987782,19,0,
BECO2507,train,pos,0,pos0_id14_im16.bmp_pos0_id6_im19.bmp,['Im_RyanReynolds.png', 'Im_RyanGosling.png', 'Im_ElijahWood.png', 'Im_HughJackman.png', 'Im_RobertDowneyJr.png', 'Im_RobertPattinson.png', 'Im_MattDamon.png', 'Im_LeonardoDiCaprio.png', 'Im_BenAffleck.png', 'Im_KeanuReeves.png'],diff,1,0.40839319999940926,20,0,
BECO2507,train,pos,120,pos120_id18_im18.bmp_pos120_id21_im22.bmp,['Im_RyanReynolds.png', 'Im_RyanGosling.png', 'Im_ElijahWood.png', 'Im_HughJackman.png', 'Im_RobertDowneyJr.png', 'Im_RobertPattinson.png', 'Im_MattDamon.png', 'Im_LeonardoDiCaprio.png', 'Im_BenAffleck.png', 'Im_KeanuReeves.png'],diff,1,0.4167059999999765,21,0,
BECO2507,train,pos,120,pos120_id19_im4.bmp_pos120_id8_im21.bmp,['Im_RyanReynolds.png', 'Im_RyanGosling.png', 'Im_ElijahWood.png', 'Im_HughJackman.png', 'Im_RobertDowneyJr.png', 'Im_RobertPattinson.png', 'Im_MattDamon.png', 'Im_LeonardoDiCaprio.png', 'Im_BenAffleck.png', 'Im_KeanuReeves.png'],diff,1,0.4164580000015121,22,0,
BECO2507,train,inv,60,pos60_id18_im11.bmp_pos60_id18_im19.bmp,['Im_RyanReynolds.png', 'Im_RyanGosling.png', 'Im_ElijahWood.png', 'Im_HughJackman.png', 'Im_RobertDowneyJr.png', 'Im_RobertPattinson.png', 'Im_MattDamon.png', 'Im_LeonardoDiCaprio.png', 'Im_BenAffleck.png', 'Im_KeanuReeves.png'],same,1,0.6418324999995093,23,0,
BECO2507,train,inv,90,pos90_id1_im24.bmp_pos90_id1_im4.bmp,['Im_RyanReynolds.png', 'Im_RyanGosling.png', 'Im_ElijahWood.png', 'Im_HughJackman.png', 'Im_RobertDowneyJr.png', 'Im_RobertPattinson.png', 'Im_MattDamon.png', 'Im_LeonardoDiCaprio.png', 'Im_BenAffleck.png', 'Im_KeanuReeves.png'],same,1,0.9083412999989378,24,0,
BECO2507,train,inv,0,pos0_id19_im8.bmp_pos0_id13_im10.bmp,['Im_RyanReynolds.png', 'Im_RyanGosling.png', 'Im_ElijahWood.png', 'Im_HughJackman.png', 'Im_RobertDowneyJr.png', 'Im_RobertPattinson.png', 'Im_MattDamon.png', 'Im_LeonardoDiCaprio.png', 'Im_BenAffleck.png', 'Im_KeanuReeves.png'],diff,1,0.6334485999996105,25,0,
BECO2507,train,inv,30,pos30_id6_im12.bmp_pos30_id21_im16.bmp,['Im_RyanReynolds.png', 'Im_RyanGosling.png', 'Im_ElijahWood.png', 'Im_HughJackman.png', 'Im_RobertDowneyJr.png', 'Im_RobertPattinson.png', 'Im_MattDamon.png', 'Im_LeonardoDiCaprio.png', 'Im_BenAffleck.png', 'Im_KeanuReeves.png'],diff,1,0.49166279999917606,26,0,
BECO2507,train,inv,30,pos30_id14_im24.bmp_pos30_id14_im18.bmp,['Im_RyanReynolds.png', 'Im_RyanGosling.png', 'Im_ElijahWood.png', 'Im_HughJackman.png', 'Im_RobertDowneyJr.png', 'Im_RobertPattinson.png', 'Im_MattDamon.png', 'Im_LeonardoDiCaprio.png', 'Im_BenAffleck.png', 'Im_KeanuReeves.png'],same,1,0.4419041000001016,27,0,
BECO2507,train,inv,fs,posfs_id8_im21.bmp_posfs_id20_im30.bmp,['Im_RyanReynolds.png', 'Im_RyanGosling.png', 'Im_ElijahWood.png', 'Im_HughJackman.png', 'Im_RobertDowneyJr.png', 'Im_RobertPattinson.png', 'Im_MattDamon.png', 'Im_LeonardoDiCaprio.png', 'Im_BenAffleck.png', 'Im_KeanuReeves.png'],diff,1,0.42503039999974135,28,0,
BECO2507,train,inv,fs,posfs_id13_im29.bmp_posfs_id11_im2.bmp,['Im_RyanReynolds.png', 'Im_RyanGosling.png', 'Im_ElijahWood.png', 'Im_HughJackman.png', 'Im_RobertDowneyJr.png', 'Im_RobertPattinson.png', 'Im_MattDamon.png', 'Im_LeonardoDiCaprio.png', 'Im_BenAffleck.png', 'Im_KeanuReeves.png'],diff,1,0.41666110000005574,29,0,
BECO2507,train,inv,0,pos0_id8_im13.bmp_pos0_id21_im17.bmp,['Im_RyanReynolds.png', 'Im_RyanGosling.png', 'Im_ElijahWood.png', 'Im_HughJackman.png', 'Im_RobertDowneyJr.png', 'Im_RobertPattinson.png', 'Im_MattDamon.png', 'Im_LeonardoDiCaprio.png', 'Im_BenAffleck.png', 'Im_KeanuReeves.png'],diff,1,0.5082899999997608,30,0,
BECO2507,train,inv,90,pos90_id14_im24.bmp_pos90_id14_im18.bmp,['Im_RyanReynolds.png', 'Im_RyanGosling.png', 'Im_ElijahWood.png', 'Im_HughJackman.png', 'Im_RobertDowneyJr.png', 'Im_RobertPattinson.png', 'Im_MattDamon.png', 'Im_LeonardoDiCaprio.png', 'Im_BenAffleck.png', 'Im_KeanuReeves.png'],same,1,0.41688650000105554,31,0,
BECO2507,train,inv,150,pos150_id21_im17.bmp_pos150_id21_im22.bmp,['Im_RyanReynolds.png', 'Im_RyanGosling.png', 'Im_ElijahWood.png', 'Im_HughJackman.png', 'Im_RobertDowneyJr.png', 'Im_RobertPattinson.png', 'Im_MattDamon.png', 'Im_LeonardoDiCaprio.png', 'Im_BenAffleck.png', 'Im_KeanuReeves.png'],same,1,0.43330779999996594,32,0,
BECO2507,train,inv,150,pos150_id14_im24.bmp_pos150_id19_im8.bmp,['Im_RyanReynolds.png', 'Im_RyanGosling.png', 'Im_ElijahWood.png', 'Im_HughJackman.png', 'Im_RobertDowneyJr.png', 'Im_RobertPattinson.png', 'Im_MattDamon.png', 'Im_LeonardoDiCaprio.png', 'Im_BenAffleck.png', 'Im_KeanuReeves.png'],same,0,0.7165371000010055,32,0,
BECO2507,train,inv,120,pos120_id13_im10.bmp_pos120_id13_im15.bmp,['Im_RyanReynolds.png', 'Im_RyanGosling.png', 'Im_ElijahWood.png', 'Im_HughJackman.png', 'Im_RobertDowneyJr.png', 'Im_RobertPattinson.png', 'Im_MattDamon.png', 'Im_LeonardoDiCaprio.png', 'Im_BenAffleck.png', 'Im_KeanuReeves.png'],diff,0,0.41655120000177703,32,0,
BECO2507,train,inv,120,pos120_id13_im15.bmp_pos120_id13_im29.bmp,['Im_RyanReynolds.png', 'Im_RyanGosling.png', 'Im_ElijahWood.png', 'Im_HughJackman.png', 'Im_RobertDowneyJr.png', 'Im_RobertPattinson.png', 'Im_MattDamon.png', 'Im_LeonardoDiCaprio.png', 'Im_BenAffleck.png', 'Im_KeanuReeves.png'],same,1,0.5002796999997372,33,0,
BECO2507,train,inv,60,pos60_id11_im1.bmp_pos60_id11_im2.bmp,['Im_RyanReynolds.png', 'Im_RyanGosling.png', 'Im_ElijahWood.png', 'Im_HughJackman.png', 'Im_RobertDowneyJr.png', 'Im_RobertPattinson.png', 'Im_MattDamon.png', 'Im_LeonardoDiCaprio.png', 'Im_BenAffleck.png', 'Im_KeanuReeves.png'],same,1,0.4169208000002982,34,0,
BECO2507,train,inv,90,pos90_id20_im30.bmp_pos90_id18_im11.bmp,['Im_RyanReynolds.png', 'Im_RyanGosling.png', 'Im_ElijahWood.png', 'Im_HughJackman.png', 'Im_RobertDowneyJr.png', 'Im_RobertPattinson.png', 'Im_MattDamon.png', 'Im_LeonardoDiCaprio.png', 'Im_BenAffleck.png', 'Im_KeanuReeves.png'],same,0,0.566694400000415,0,80.95238095238095,
BECO2507,train,inv,30,pos30_id20_im30.bmp_pos30_id20_im12.bmp,['Im_RyanReynolds.png', 'Im_RyanGosling.png', 'Im_ElijahWood.png', 'Im_HughJackman.png', 'Im_RobertDowneyJr.png', 'Im_RobertPattinson.png', 'Im_MattDamon.png', 'Im_LeonardoDiCaprio.png', 'Im_BenAffleck.png', 'Im_KeanuReeves.png'],diff,0,1.208182599999418,0,80.95238095238095,
BECO2507,train,inv,30,pos30_id8_im21.bmp_pos30_id8_im13.bmp,['Im_RyanReynolds.png', 'Im_RyanGosling.png', 'Im_ElijahWood.png', 'Im_HughJackman.png', 'Im_RobertDowneyJr.png', 'Im_RobertPattinson.png', 'Im_MattDamon.png', 'Im_LeonardoDiCaprio.png', 'Im_BenAffleck.png', 'Im_KeanuReeves.png'],same,1,0.8752060999995592,1,80.95238095238095,
BECO2507,train,inv,fs,posfs_id1_im4.bmp_posfs_id1_im24.bmp,['Im_RyanReynolds.png', 'Im_RyanGosling.png', 'Im_ElijahWood.png', 'Im_HughJackman.png', 'Im_RobertDowneyJr.png', 'Im_RobertPattinson.png', 'Im_MattDamon.png', 'Im_LeonardoDiCaprio.png', 'Im_BenAffleck.png', 'Im_KeanuReeves.png'],same,1,0.5419075000008888,2,80.95238095238095,
BECO2507,train,inv,0,pos0_id13_im29.bmp_pos0_id13_im15.bmp,['Im_RyanReynolds.png', 'Im_RyanGosling.png', 'Im_ElijahWood.png', 'Im_HughJackman.png', 'Im_RobertDowneyJr.png', 'Im_RobertPattinson.png', 'Im_MattDamon.png', 'Im_LeonardoDiCaprio.png', 'Im_BenAffleck.png', 'Im_KeanuReeves.png'],same,1,0.6669228999999177,3,80.95238095238095,
BECO2507,train,inv,60,pos60_id20_im3.bmp_pos60_id20_im30.bmp,['Im_RyanReynolds.png', 'Im_RyanGosling.png', 'Im_ElijahWood.png', 'Im_HughJackman.png', 'Im_RobertDowneyJr.png', 'Im_RobertPattinson.png', 'Im_MattDamon.png', 'Im_LeonardoDiCaprio.png', 'Im_BenAffleck.png', 'Im_KeanuReeves.png'],same,1,0.49997199999961595,4,80.95238095238095,
BECO2507,train,inv,0,pos0_id19_im8.bmp_pos0_id19_im27.bmp,['Im_RyanReynolds.png', 'Im_RyanGosling.png', 'Im_ElijahWood.png', 'Im_HughJackman.png', 'Im_RobertDowneyJr.png', 'Im_RobertPattinson.png', 'Im_MattDamon.png', 'Im_LeonardoDiCaprio.png', 'Im_BenAffleck.png', 'Im_KeanuReeves.png'],same,1,0.42508249999991676,5,80.95238095238095,
BECO2507,train,inv,150,pos150_id20_im12.bmp_pos150_id20_im30.bmp,['Im_RyanReynolds.png', 'Im_RyanGosling.png', 'Im_ElijahWood.png', 'Im_HughJackman.png', 'Im_RobertDowneyJr.png', 'Im_RobertPattinson.png', 'Im_MattDamon.png', 'Im_LeonardoDiCaprio.png', 'Im_BenAffleck.png', 'Im_KeanuReeves.png'],same,1,0.7583260999999766,6,80.95238095238095,
BECO2507,train,inv,90,pos90_id18_im19.bmp_pos90_id18_im11.bmp,['Im_RyanReynolds.png', 'Im_RyanGosling.png', 'Im_ElijahWood.png', 'Im_HughJackman.png', 'Im_RobertDowneyJr.png', 'Im_RobertPattinson.png', 'Im_MattDamon.png', 'Im_LeonardoDiCaprio.png', 'Im_BenAffleck.png', 'Im_KeanuReeves.png'],same,1,0.499991399999999,7,80.95238095238095,
BECO2507,train,inv,fs,posfs_id8_im21.bmp_posfs_id8_im20.bmp,['Im_RyanReynolds.png', 'Im_RyanGosling.png', 'Im_ElijahWood.png', 'Im_HughJackman.png', 'Im_RobertDowneyJr.png', 'Im_RobertPattinson.png', 'Im_MattDamon.png', 'Im_LeonardoDiCaprio.png', 'Im_BenAffleck.png', 'Im_KeanuReeves.png'],same,1,0.6419224000001122,8,80.95238095238095,
BECO2507,train,inv,60,pos60_id13_im15.bmp_pos60_id18_im11.bmp,['Im_RyanReynolds.png', 'Im_RyanGosling.png', 'Im_ElijahWood.png', 'Im_HughJackman.png', 'Im_RobertDowneyJr.png', 'Im_RobertPattinson.png', 'Im_MattDamon.png', 'Im_LeonardoDiCaprio.png', 'Im_BenAffleck.png', 'Im_KeanuReeves.png'],diff,1,0.5251514000010502,9,80.95238095238095,
BECO2507,train,inv,120,pos120_id19_im8.bmp_pos120_id19_im4.bmp,['Im_RyanReynolds.png', 'Im_RyanGosling.png', 'Im_ElijahWood.png', 'Im_HughJackman.png', 'Im_RobertDowneyJr.png', 'Im_RobertPattinson.png', 'Im_MattDamon.png', 'Im_LeonardoDiCaprio.png', 'Im_BenAffleck.png', 'Im_KeanuReeves.png'],same,1,0.41672599999947124,10,80.95238095238095,
BECO2507,train,inv,120,pos120_id6_im12.bmp_pos120_id11_im1.bmp,['Im_RyanReynolds.png', 'Im_RyanGosling.png', 'Im_ElijahWood.png', 'Im_HughJackman.png', 'Im_RobertDowneyJr.png', 'Im_RobertPattinson.png', 'Im_MattDamon.png', 'Im_LeonardoDiCaprio.png', 'Im_BenAffleck.png', 'Im_KeanuReeves.png'],diff,1,0.43324700000084704,11,80.95238095238095,
BECO2507,train,inv,150,pos150_id8_im13.bmp_pos150_id21_im17.bmp,['Im_RyanReynolds.png', 'Im_RyanGosling.png', 'Im_ElijahWood.png', 'Im_HughJackman.png', 'Im_RobertDowneyJr.png', 'Im_RobertPattinson.png', 'Im_MattDamon.png', 'Im_LeonardoDiCaprio.png', 'Im_BenAffleck.png', 'Im_KeanuReeves.png'],diff,1,0.6416456999995717,12,80.95238095238095,
BECO2507,train,pos,0,pos0_id18_im11.bmp_pos0_id18_im18.bmp,['Im_RyanReynolds.png', 'Im_RyanGosling.png', 'Im_ElijahWood.png', 'Im_HughJackman.png', 'Im_RobertDowneyJr.png', 'Im_RobertPattinson.png', 'Im_MattDamon.png', 'Im_LeonardoDiCaprio.png', 'Im_BenAffleck.png', 'Im_KeanuReeves.png'],same,1,0.4250262000005023,13,80.95238095238095,
BECO2507,train,pos,90,pos90_id6_im18.bmp_pos90_id1_im24.bmp,['Im_RyanReynolds.png', 'Im_RyanGosling.png', 'Im_ElijahWood.png', 'Im_HughJackman.png', 'Im_RobertDowneyJr.png', 'Im_RobertPattinson.png', 'Im_MattDamon.png', 'Im_LeonardoDiCaprio.png', 'Im_BenAffleck.png', 'Im_KeanuReeves.png'],diff,1,0.7337380999997549,14,80.95238095238095,
BECO2507,train,pos,120,pos120_id21_im16.bmp_pos120_id6_im12.bmp,['Im_RyanReynolds.png', 'Im_RyanGosling.png', 'Im_ElijahWood.png', 'Im_HughJackman.png', 'Im_RobertDowneyJr.png', 'Im_RobertPattinson.png', 'Im_MattDamon.png', 'Im_LeonardoDiCaprio.png', 'Im_BenAffleck.png', 'Im_KeanuReeves.png'],diff,1,0.42508429999907094,15,80.95238095238095,
BECO2507,train,pos,fs,posfs_id11_im2.bmp_posfs_id1_im4.bmp,['Im_RyanReynolds.png', 'Im_RyanGosling.png', 'Im_ElijahWood.png', 'Im_HughJackman.png', 'Im_RobertDowneyJr.png', 'Im_RobertPattinson.png', 'Im_MattDamon.png', 'Im_LeonardoDiCaprio.png', 'Im_BenAffleck.png', 'Im_KeanuReeves.png'],diff,1,0.7250280000007479,16,80.95238095238095,
BECO2507,train,pos,fs,posfs_id19_im8.bmp_posfs_id19_im27.bmp,['Im_RyanReynolds.png', 'Im_RyanGosling.png', 'Im_ElijahWood.png', 'Im_HughJackman.png', 'Im_RobertDowneyJr.png', 'Im_RobertPattinson.png', 'Im_MattDamon.png', 'Im_LeonardoDiCaprio.png', 'Im_BenAffleck.png', 'Im_KeanuReeves.png'],same,1,0.4169391000014002,17,80.95238095238095,
BECO2507,train,pos,30,pos30_id21_im16.bmp_pos30_id21_im17.bmp,['Im_RyanReynolds.png', 'Im_RyanGosling.png', 'Im_ElijahWood.png', 'Im_HughJackman.png', 'Im_RobertDowneyJr.png', 'Im_RobertPattinson.png', 'Im_MattDamon.png', 'Im_LeonardoDiCaprio.png', 'Im_BenAffleck.png', 'Im_KeanuReeves.png'],same,1,0.4417057999999088,18,80.95238095238095,
BECO2507,train,pos,120,pos120_id14_im18.bmp_pos120_id14_im24.bmp,['Im_RyanReynolds.png', 'Im_RyanGosling.png', 'Im_ElijahWood.png', 'Im_HughJackman.png', 'Im_RobertDowneyJr.png', 'Im_RobertPattinson.png', 'Im_MattDamon.png', 'Im_LeonardoDiCaprio.png', 'Im_BenAffleck.png', 'Im_KeanuReeves.png'],same,1,0.6585205999999744,19,80.95238095238095,
BECO2507,train,pos,60,pos60_id19_im4.bmp_pos60_id19_im27.bmp,['Im_RyanReynolds.png', 'Im_RyanGosling.png', 'Im_ElijahWood.png', 'Im_HughJackman.png', 'Im_RobertDowneyJr.png', 'Im_RobertPattinson.png', 'Im_MattDamon.png', 'Im_LeonardoDiCaprio.png', 'Im_BenAffleck.png', 'Im_KeanuReeves.png'],same,1,0.6000150999989273,20,80.95238095238095,
BECO2507,train,pos,60,pos60_id6_im18.bmp_pos60_id14_im18.bmp,['Im_RyanReynolds.png', 'Im_RyanGosling.png', 'Im_ElijahWood.png', 'Im_HughJackman.png', 'Im_RobertDowneyJr.png', 'Im_RobertPattinson.png', 'Im_MattDamon.png', 'Im_LeonardoDiCaprio.png', 'Im_BenAffleck.png', 'Im_KeanuReeves.png'],diff,1,0.42501479999918956,21,80.95238095238095,
BECO2507,train,pos,0,pos0_id19_im8.bmp_pos0_id14_im24.bmp,['Im_RyanReynolds.png', 'Im_RyanGosling.png', 'Im_ElijahWood.png', 'Im_HughJackman.png', 'Im_RobertDowneyJr.png', 'Im_RobertPattinson.png', 'Im_MattDamon.png', 'Im_LeonardoDiCaprio.png', 'Im_BenAffleck.png', 'Im_KeanuReeves.png'],diff,1,0.683394199999384,22,80.95238095238095,
BECO2507,train,pos,150,pos150_id8_im20.bmp_pos150_id8_im21.bmp,['Im_RyanReynolds.png', 'Im_RyanGosling.png', 'Im_ElijahWood.png', 'Im_HughJackman.png', 'Im_RobertDowneyJr.png', 'Im_RobertPattinson.png', 'Im_MattDamon.png', 'Im_LeonardoDiCaprio.png', 'Im_BenAffleck.png', 'Im_KeanuReeves.png'],same,1,0.6002124999995431,23,80.95238095238095,
BECO2507,train,pos,90,pos90_id11_im10.bmp_pos90_id18_im18.bmp,['Im_RyanReynolds.png', 'Im_RyanGosling.png', 'Im_ElijahWood.png', 'Im_HughJackman.png', 'Im_RobertDowneyJr.png', 'Im_RobertPattinson.png', 'Im_MattDamon.png', 'Im_LeonardoDiCaprio.png', 'Im_BenAffleck.png', 'Im_KeanuReeves.png'],diff,1,0.4333642999990843,24,80.95238095238095,
BECO2507,train,pos,30,pos30_id8_im13.bmp_pos30_id14_im24.bmp,['Im_RyanReynolds.png', 'Im_RyanGosling.png', 'Im_ElijahWood.png', 'Im_HughJackman.png', 'Im_RobertDowneyJr.png', 'Im_RobertPattinson.png', 'Im_MattDamon.png', 'Im_LeonardoDiCaprio.png', 'Im_BenAffleck.png', 'Im_KeanuReeves.png'],diff,1,0.46715729999959876,25,80.95238095238095,
BECO2507,train,pos,150,pos150_id20_im30.bmp_pos150_id8_im21.bmp,['Im_RyanReynolds.png', 'Im_RyanGosling.png', 'Im_ElijahWood.png', 'Im_HughJackman.png', 'Im_RobertDowneyJr.png', 'Im_RobertPattinson.png', 'Im_MattDamon.png', 'Im_LeonardoDiCaprio.png', 'Im_BenAffleck.png', 'Im_KeanuReeves.png'],diff,1,0.5500246999999945,26,80.95238095238095,
BECO2507,train,neg,90,neg90_id8_im21.bmp_neg90_id20_im30.bmp,['Im_RyanReynolds.png', 'Im_RyanGosling.png', 'Im_ElijahWood.png', 'Im_HughJackman.png', 'Im_RobertDowneyJr.png', 'Im_RobertPattinson.png', 'Im_MattDamon.png', 'Im_LeonardoDiCaprio.png', 'Im_BenAffleck.png', 'Im_KeanuReeves.png'],diff,1,0.4252222000013717,27,80.95238095238095,
BECO2507,train,neg,0,neg0_id14_im16.bmp_neg0_id14_im18.bmp,['Im_RyanReynolds.png', 'Im_RyanGosling.png', 'Im_ElijahWood.png', 'Im_HughJackman.png', 'Im_RobertDowneyJr.png', 'Im_RobertPattinson.png', 'Im_MattDamon.png', 'Im_LeonardoDiCaprio.png', 'Im_BenAffleck.png', 'Im_KeanuReeves.png'],same,1,0.5588496999989729,28,80.95238095238095,
BECO2507,train,neg,30,neg30_id11_im2.bmp_neg30_id11_im1.bmp,['Im_RyanReynolds.png', 'Im_RyanGosling.png', 'Im_ElijahWood.png', 'Im_HughJackman.png', 'Im_RobertDowneyJr.png', 'Im_RobertPattinson.png', 'Im_MattDamon.png', 'Im_LeonardoDiCaprio.png', 'Im_BenAffleck.png', 'Im_KeanuReeves.png'],diff,0,0.5250512000002345,28,80.95238095238095,
BECO2507,train,neg,30,neg30_id6_im18.bmp_neg30_id6_im19.bmp,['Im_RyanReynolds.png', 'Im_RyanGosling.png', 'Im_ElijahWood.png', 'Im_HughJackman.png', 'Im_RobertDowneyJr.png', 'Im_RobertPattinson.png', 'Im_MattDamon.png', 'Im_LeonardoDiCaprio.png', 'Im_BenAffleck.png', 'Im_KeanuReeves.png'],same,1,0.608745400000771,29,80.95238095238095,
BECO2507,train,neg,fs,negfs_id8_im20.bmp_negfs_id1_im21.bmp,['Im_RyanReynolds.png', 'Im_RyanGosling.png', 'Im_ElijahWood.png', 'Im_HughJackman.png', 'Im_RobertDowneyJr.png', 'Im_RobertPattinson.png', 'Im_MattDamon.png', 'Im_LeonardoDiCaprio.png', 'Im_BenAffleck.png', 'Im_KeanuReeves.png'],diff,1,0.4417902999994112,30,80.95238095238095,
BECO2507,train,neg,60,neg60_id18_im18.bmp_neg60_id18_im19.bmp,['Im_RyanReynolds.png', 'Im_RyanGosling.png', 'Im_ElijahWood.png', 'Im_HughJackman.png', 'Im_RobertDowneyJr.png', 'Im_RobertPattinson.png', 'Im_MattDamon.png', 'Im_LeonardoDiCaprio.png', 'Im_BenAffleck.png', 'Im_KeanuReeves.png'],same,1,0.4750051999999414,31,80.95238095238095,
BECO2507,train,neg,150,neg150_id6_im19.bmp_neg150_id14_im16.bmp,['Im_RyanReynolds.png', 'Im_RyanGosling.png', 'Im_ElijahWood.png', 'Im_HughJackman.png', 'Im_RobertDowneyJr.png', 'Im_RobertPattinson.png', 'Im_MattDamon.png', 'Im_LeonardoDiCaprio.png', 'Im_BenAffleck.png', 'Im_KeanuReeves.png'],diff,1,0.5251557000010507,32,80.95238095238095,
BECO2507,train,neg,fs,negfs_id18_im11.bmp_negfs_id18_im18.bmp,['Im_RyanReynolds.png', 'Im_RyanGosling.png', 'Im_ElijahWood.png', 'Im_HughJackman.png', 'Im_RobertDowneyJr.png', 'Im_RobertPattinson.png', 'Im_MattDamon.png', 'Im_LeonardoDiCaprio.png', 'Im_BenAffleck.png', 'Im_KeanuReeves.png'],same,1,0.40842610000072455,33,80.95238095238095,
BECO2507,train,neg,150,neg150_id6_im18.bmp_neg150_id6_im12.bmp,['Im_RyanReynolds.png', 'Im_RyanGosling.png', 'Im_ElijahWood.png', 'Im_HughJackman.png', 'Im_RobertDowneyJr.png', 'Im_RobertPattinson.png', 'Im_MattDamon.png', 'Im_LeonardoDiCaprio.png', 'Im_BenAffleck.png', 'Im_KeanuReeves.png'],same,1,0.6331929999996646,34,80.95238095238095,
BECO2507,train,neg,0,neg0_id14_im24.bmp_neg0_id8_im13.bmp,['Im_RyanReynolds.png', 'Im_RyanGosling.png', 'Im_ElijahWood.png', 'Im_HughJackman.png', 'Im_RobertDowneyJr.png', 'Im_RobertPattinson.png', 'Im_MattDamon.png', 'Im_LeonardoDiCaprio.png', 'Im_BenAffleck.png', 'Im_KeanuReeves.png'],same,0,0.708401199999571,34,80.95238095238095,
BECO2507,train,neg,90,neg90_id21_im16.bmp_neg90_id21_im17.bmp,['Im_RyanReynolds.png', 'Im_RyanGosling.png', 'Im_ElijahWood.png', 'Im_HughJackman.png', 'Im_RobertDowneyJr.png', 'Im_RobertPattinson.png', 'Im_MattDamon.png', 'Im_LeonardoDiCaprio.png', 'Im_BenAffleck.png', 'Im_KeanuReeves.png'],same,1,1.2248885999997583,35,80.95238095238095,
BECO2507,train,neg,60,neg60_id8_im20.bmp_neg60_id1_im21.bmp,['Im_RyanReynolds.png', 'Im_RyanGosling.png', 'Im_ElijahWood.png', 'Im_HughJackman.png', 'Im_RobertDowneyJr.png', 'Im_RobertPattinson.png', 'Im_MattDamon.png', 'Im_LeonardoDiCaprio.png', 'Im_BenAffleck.png', 'Im_KeanuReeves.png'],same,0,0.7583570000006148,35,80.95238095238095,
BECO2507,train,neg,120,neg120_id18_im11.bmp_neg120_id20_im30.bmp,['Im_RyanReynolds.png', 'Im_RyanGosling.png', 'Im_ElijahWood.png', 'Im_HughJackman.png', 'Im_RobertDowneyJr.png', 'Im_RobertPattinson.png', 'Im_MattDamon.png', 'Im_LeonardoDiCaprio.png', 'Im_BenAffleck.png', 'Im_KeanuReeves.png'],same,0,0.6582030999998096,35,80.95238095238095,
BECO2507,train,neg,120,neg120_id8_im20.bmp_neg120_id8_im21.bmp,['Im_RyanReynolds.png', 'Im_RyanGosling.png', 'Im_ElijahWood.png', 'Im_HughJackman.png', 'Im_RobertDowneyJr.png', 'Im_RobertPattinson.png', 'Im_MattDamon.png', 'Im_LeonardoDiCaprio.png', 'Im_BenAffleck.png', 'Im_KeanuReeves.png'],same,1,0.6420577999997477,36,80.95238095238095,
BECO2507,0,pos,fs,posfs_id13_im10.bmp_posfs_id19_im8.bmp,['Im_RyanReynolds.png', 'Im_RyanGosling.png', 'Im_ElijahWood.png', 'Im_HughJackman.png', 'Im_RobertDowneyJr.png', 'Im_RobertPattinson.png', 'Im_MattDamon.png', 'Im_LeonardoDiCaprio.png', 'Im_BenAffleck.png', 'Im_KeanuReeves.png'],diff,1,0.41677829999935057,1,0,
BECO2507,0,pos,30,pos30_id1_im4.bmp_pos30_id1_im24.bmp,['Im_RyanReynolds.png', 'Im_RyanGosling.png', 'Im_ElijahWood.png', 'Im_HughJackman.png', 'Im_RobertDowneyJr.png', 'Im_RobertPattinson.png', 'Im_MattDamon.png', 'Im_LeonardoDiCaprio.png', 'Im_BenAffleck.png', 'Im_KeanuReeves.png'],same,1,0.416697300001033,2,0,
BECO2507,0,pos,120,pos120_id1_im4.bmp_pos120_id1_im21.bmp,['Im_RyanReynolds.png', 'Im_RyanGosling.png', 'Im_ElijahWood.png', 'Im_HughJackman.png', 'Im_RobertDowneyJr.png', 'Im_RobertPattinson.png', 'Im_MattDamon.png', 'Im_LeonardoDiCaprio.png', 'Im_BenAffleck.png', 'Im_KeanuReeves.png'],same,1,0.44214259999898786,3,0,
BECO2507,0,pos,90,pos90_id19_im8.bmp_pos90_id14_im24.bmp,['Im_RyanReynolds.png', 'Im_RyanGosling.png', 'Im_ElijahWood.png', 'Im_HughJackman.png', 'Im_RobertDowneyJr.png', 'Im_RobertPattinson.png', 'Im_MattDamon.png', 'Im_LeonardoDiCaprio.png', 'Im_BenAffleck.png', 'Im_KeanuReeves.png'],diff,1,0.4166803999996773,4,0,
BECO2507,0,pos,30,pos30_id19_im4.bmp_pos30_id19_im27.bmp,['Im_RyanReynolds.png', 'Im_RyanGosling.png', 'Im_ElijahWood.png', 'Im_HughJackman.png', 'Im_RobertDowneyJr.png', 'Im_RobertPattinson.png', 'Im_MattDamon.png', 'Im_LeonardoDiCaprio.png', 'Im_BenAffleck.png', 'Im_KeanuReeves.png'],same,1,0.6752642000010383,5,0,
BECO2507,0,pos,0,pos0_id19_im4.bmp_pos0_id19_im8.bmp,['Im_RyanReynolds.png', 'Im_RyanGosling.png', 'Im_ElijahWood.png', 'Im_HughJackman.png', 'Im_RobertDowneyJr.png', 'Im_RobertPattinson.png', 'Im_MattDamon.png', 'Im_LeonardoDiCaprio.png', 'Im_BenAffleck.png', 'Im_KeanuReeves.png'],same,1,0.45026230000075884,6,0,
BECO2507,0,pos,150,pos150_id6_im12.bmp_pos150_id6_im18.bmp,['Im_RyanReynolds.png', 'Im_RyanGosling.png', 'Im_ElijahWood.png', 'Im_HughJackman.png', 'Im_RobertDowneyJr.png', 'Im_RobertPattinson.png', 'Im_MattDamon.png', 'Im_LeonardoDiCaprio.png', 'Im_BenAffleck.png', 'Im_KeanuReeves.png'],same,1,0.4420766999992338,7,0,
BECO2507,0,pos,90,pos90_id6_im12.bmp_pos90_id21_im16.bmp,['Im_RyanReynolds.png', 'Im_RyanGosling.png', 'Im_ElijahWood.png', 'Im_HughJackman.png', 'Im_RobertDowneyJr.png', 'Im_RobertPattinson.png', 'Im_MattDamon.png', 'Im_LeonardoDiCaprio.png', 'Im_BenAffleck.png', 'Im_KeanuReeves.png'],diff,1,0.4334201000001485,8,0,
BECO2507,0,pos,60,pos60_id6_im12.bmp_pos60_id6_im18.bmp,['Im_RyanReynolds.png', 'Im_RyanGosling.png', 'Im_ElijahWood.png', 'Im_HughJackman.png', 'Im_RobertDowneyJr.png', 'Im_RobertPattinson.png', 'Im_MattDamon.png', 'Im_LeonardoDiCaprio.png', 'Im_BenAffleck.png', 'Im_KeanuReeves.png'],same,1,0.4167154999995546,9,0,
BECO2507,0,pos,fs,posfs_id13_im29.bmp_posfs_id11_im2.bmp,['Im_RyanReynolds.png', 'Im_RyanGosling.png', 'Im_ElijahWood.png', 'Im_HughJackman.png', 'Im_RobertDowneyJr.png', 'Im_RobertPattinson.png', 'Im_MattDamon.png', 'Im_LeonardoDiCaprio.png', 'Im_BenAffleck.png', 'Im_KeanuReeves.png'],diff,1,0.6500993999998173,10,0,
BECO2507,0,pos,60,pos60_id21_im22.bmp_pos60_id18_im18.bmp,['Im_RyanReynolds.png', 'Im_RyanGosling.png', 'Im_ElijahWood.png', 'Im_HughJackman.png', 'Im_RobertDowneyJr.png', 'Im_RobertPattinson.png', 'Im_MattDamon.png', 'Im_LeonardoDiCaprio.png', 'Im_BenAffleck.png', 'Im_KeanuReeves.png'],diff,1,0.42505159999927855,11,0,
BECO2507,0,pos,150,pos150_id8_im20.bmp_pos150_id1_im21.bmp,['Im_RyanReynolds.png', 'Im_RyanGosling.png', 'Im_ElijahWood.png', 'Im_HughJackman.png', 'Im_RobertDowneyJr.png', 'Im_RobertPattinson.png', 'Im_MattDamon.png', 'Im_LeonardoDiCaprio.png', 'Im_BenAffleck.png', 'Im_KeanuReeves.png'],diff,1,0.7418247000005067,12,0,
BECO2507,0,pos,120,pos120_id11_im10.bmp_pos120_id11_im1.bmp,['Im_RyanReynolds.png', 'Im_RyanGosling.png', 'Im_ElijahWood.png', 'Im_HughJackman.png', 'Im_RobertDowneyJr.png', 'Im_RobertPattinson.png', 'Im_MattDamon.png', 'Im_LeonardoDiCaprio.png', 'Im_BenAffleck.png', 'Im_KeanuReeves.png'],same,1,0.7582877000004373,13,0,
BECO2507,0,pos,0,pos0_id13_im29.bmp_pos0_id13_im10.bmp,['Im_RyanReynolds.png', 'Im_RyanGosling.png', 'Im_ElijahWood.png', 'Im_HughJackman.png', 'Im_RobertDowneyJr.png', 'Im_RobertPattinson.png', 'Im_MattDamon.png', 'Im_LeonardoDiCaprio.png', 'Im_BenAffleck.png', 'Im_KeanuReeves.png'],same,1,0.7250315000001137,14,0,
BECO2507,1,inv,150,pos150_id6_im18.bmp_pos150_id14_im18.bmp,['Im_RyanReynolds.png', 'Im_RyanGosling.png', 'Im_ElijahWood.png', 'Im_HughJackman.png', 'Im_RobertDowneyJr.png', 'Im_RobertPattinson.png', 'Im_MattDamon.png', 'Im_LeonardoDiCaprio.png', 'Im_BenAffleck.png', 'Im_KeanuReeves.png'],same,0,0.6414812000002712,14,0,
BECO2507,1,inv,120,pos120_id8_im20.bmp_pos120_id8_im13.bmp,['Im_RyanReynolds.png', 'Im_RyanGosling.png', 'Im_ElijahWood.png', 'Im_HughJackman.png', 'Im_RobertDowneyJr.png', 'Im_RobertPattinson.png', 'Im_MattDamon.png', 'Im_LeonardoDiCaprio.png', 'Im_BenAffleck.png', 'Im_KeanuReeves.png'],same,1,0.5666407000007894,15,0,
BECO2507,1,inv,0,pos0_id1_im4.bmp_pos0_id1_im21.bmp,['Im_RyanReynolds.png', 'Im_RyanGosling.png', 'Im_ElijahWood.png', 'Im_HughJackman.png', 'Im_RobertDowneyJr.png', 'Im_RobertPattinson.png', 'Im_MattDamon.png', 'Im_LeonardoDiCaprio.png', 'Im_BenAffleck.png', 'Im_KeanuReeves.png'],same,1,0.44159579999904963,16,0,
BECO2507,1,inv,30,pos30_id21_im17.bmp_pos30_id21_im22.bmp,['Im_RyanReynolds.png', 'Im_RyanGosling.png', 'Im_ElijahWood.png', 'Im_HughJackman.png', 'Im_RobertDowneyJr.png', 'Im_RobertPattinson.png', 'Im_MattDamon.png', 'Im_LeonardoDiCaprio.png', 'Im_BenAffleck.png', 'Im_KeanuReeves.png'],diff,0,0.4251227000004292,16,0,
BECO2507,1,inv,120,pos120_id8_im20.bmp_pos120_id19_im4.bmp,['Im_RyanReynolds.png', 'Im_RyanGosling.png', 'Im_ElijahWood.png', 'Im_HughJackman.png', 'Im_RobertDowneyJr.png', 'Im_RobertPattinson.png', 'Im_MattDamon.png', 'Im_LeonardoDiCaprio.png', 'Im_BenAffleck.png', 'Im_KeanuReeves.png'],diff,1,0.5168854000003194,17,0,
BECO2507,1,inv,fs,posfs_id11_im1.bmp_posfs_id11_im2.bmp,['Im_RyanReynolds.png', 'Im_RyanGosling.png', 'Im_ElijahWood.png', 'Im_HughJackman.png', 'Im_RobertDowneyJr.png', 'Im_RobertPattinson.png', 'Im_MattDamon.png', 'Im_LeonardoDiCaprio.png', 'Im_BenAffleck.png', 'Im_KeanuReeves.png'],same,1,0.4251569999996718,18,0,
BECO2507,1,inv,0,pos0_id18_im18.bmp_pos0_id18_im19.bmp,['Im_RyanReynolds.png', 'Im_RyanGosling.png', 'Im_ElijahWood.png', 'Im_HughJackman.png', 'Im_RobertDowneyJr.png', 'Im_RobertPattinson.png', 'Im_MattDamon.png', 'Im_LeonardoDiCaprio.png', 'Im_BenAffleck.png', 'Im_KeanuReeves.png'],diff,0,0.8169259000005695,18,0,
BECO2507,1,inv,60,pos60_id1_im21.bmp_pos60_id8_im20.bmp,['Im_RyanReynolds.png', 'Im_RyanGosling.png', 'Im_ElijahWood.png', 'Im_HughJackman.png', 'Im_RobertDowneyJr.png', 'Im_RobertPattinson.png', 'Im_MattDamon.png', 'Im_LeonardoDiCaprio.png', 'Im_BenAffleck.png', 'Im_KeanuReeves.png'],same,0,0.4168205999994825,18,0,
BECO2507,1,inv,150,pos150_id20_im12.bmp_pos150_id11_im1.bmp,['Im_RyanReynolds.png', 'Im_RyanGosling.png', 'Im_ElijahWood.png', 'Im_HughJackman.png', 'Im_RobertDowneyJr.png', 'Im_RobertPattinson.png', 'Im_MattDamon.png', 'Im_LeonardoDiCaprio.png', 'Im_BenAffleck.png', 'Im_KeanuReeves.png'],diff,1,0.9083934999998746,19,0,
BECO2507,1,inv,90,pos90_id8_im20.bmp_pos90_id19_im4.bmp,['Im_RyanReynolds.png', 'Im_RyanGosling.png', 'Im_ElijahWood.png', 'Im_HughJackman.png', 'Im_RobertDowneyJr.png', 'Im_RobertPattinson.png', 'Im_MattDamon.png', 'Im_LeonardoDiCaprio.png', 'Im_BenAffleck.png', 'Im_KeanuReeves.png'],diff,1,1.0331413000003522,20,0,
BECO2507,1,inv,30,pos30_id13_im10.bmp_pos30_id13_im15.bmp,['Im_RyanReynolds.png', 'Im_RyanGosling.png', 'Im_ElijahWood.png', 'Im_HughJackman.png', 'Im_RobertDowneyJr.png', 'Im_RobertPattinson.png', 'Im_MattDamon.png', 'Im_LeonardoDiCaprio.png', 'Im_BenAffleck.png', 'Im_KeanuReeves.png'],same,1,0.41667569999845,21,0,
BECO2507,1,inv,fs,posfs_id21_im16.bmp_posfs_id21_im17.bmp,['Im_RyanReynolds.png', 'Im_RyanGosling.png', 'Im_ElijahWood.png', 'Im_HughJackman.png', 'Im_RobertDowneyJr.png', 'Im_RobertPattinson.png', 'Im_MattDamon.png', 'Im_LeonardoDiCaprio.png', 'Im_BenAffleck.png', 'Im_KeanuReeves.png'],same,1,0.5003648000001704,22,0,
BECO2507,1,inv,90,pos90_id11_im1.bmp_pos90_id20_im12.bmp,['Im_RyanReynolds.png', 'Im_RyanGosling.png', 'Im_ElijahWood.png', 'Im_HughJackman.png', 'Im_RobertDowneyJr.png', 'Im_RobertPattinson.png', 'Im_MattDamon.png', 'Im_LeonardoDiCaprio.png', 'Im_BenAffleck.png', 'Im_KeanuReeves.png'],same,0,0.41677510000045004,22,0,
BECO2507,1,inv,60,pos60_id1_im4.bmp_pos60_id11_im2.bmp,['Im_RyanReynolds.png', 'Im_RyanGosling.png', 'Im_ElijahWood.png', 'Im_HughJackman.png', 'Im_RobertDowneyJr.png', 'Im_RobertPattinson.png', 'Im_MattDamon.png', 'Im_LeonardoDiCaprio.png', 'Im_BenAffleck.png', 'Im_KeanuReeves.png'],same,0,0.425075499999366,22,0,
BECO2507,2,neg,30,neg30_id21_im16.bmp_neg30_id21_im17.bmp,['Im_RyanReynolds.png', 'Im_RyanGosling.png', 'Im_ElijahWood.png', 'Im_HughJackman.png', 'Im_RobertDowneyJr.png', 'Im_RobertPattinson.png', 'Im_MattDamon.png', 'Im_LeonardoDiCaprio.png', 'Im_BenAffleck.png', 'Im_KeanuReeves.png'],same,1,0.41675260000010894,23,0,
BECO2507,2,neg,90,neg90_id6_im19.bmp_neg90_id6_im18.bmp,['Im_RyanReynolds.png', 'Im_RyanGosling.png', 'Im_ElijahWood.png', 'Im_HughJackman.png', 'Im_RobertDowneyJr.png', 'Im_RobertPattinson.png', 'Im_MattDamon.png', 'Im_LeonardoDiCaprio.png', 'Im_BenAffleck.png', 'Im_KeanuReeves.png'],same,1,0.88357299999916,24,0,
BECO2507,2,neg,0,neg0_id6_im18.bmp_neg0_id14_im18.bmp,['Im_RyanReynolds.png', 'Im_RyanGosling.png', 'Im_ElijahWood.png', 'Im_HughJackman.png', 'Im_RobertDowneyJr.png', 'Im_RobertPattinson.png', 'Im_MattDamon.png', 'Im_LeonardoDiCaprio.png', 'Im_BenAffleck.png', 'Im_KeanuReeves.png'],same,0,0.4084883000014088,24,0,
BECO2507,2,neg,150,neg150_id8_im13.bmp_neg150_id8_im21.bmp,['Im_RyanReynolds.png', 'Im_RyanGosling.png', 'Im_ElijahWood.png', 'Im_HughJackman.png', 'Im_RobertDowneyJr.png', 'Im_RobertPattinson.png', 'Im_MattDamon.png', 'Im_LeonardoDiCaprio.png', 'Im_BenAffleck.png', 'Im_KeanuReeves.png'],same,1,0.48335320000114734,25,0,
BECO2507,2,neg,0,neg0_id6_im18.bmp_neg0_id6_im12.bmp,['Im_RyanReynolds.png', 'Im_RyanGosling.png', 'Im_ElijahWood.png', 'Im_HughJackman.png', 'Im_RobertDowneyJr.png', 'Im_RobertPattinson.png', 'Im_MattDamon.png', 'Im_LeonardoDiCaprio.png', 'Im_BenAffleck.png', 'Im_KeanuReeves.png'],diff,0,0.8002737999995588,25,0,
BECO2507,2,neg,fs,negfs_id1_im21.bmp_negfs_id1_im24.bmp,['Im_RyanReynolds.png', 'Im_RyanGosling.png', 'Im_ElijahWood.png', 'Im_HughJackman.png', 'Im_RobertDowneyJr.png', 'Im_RobertPattinson.png', 'Im_MattDamon.png', 'Im_LeonardoDiCaprio.png', 'Im_BenAffleck.png', 'Im_KeanuReeves.png'],same,1,0.42509310000059486,26,0,
BECO2507,2,neg,150,neg150_id8_im13.bmp_neg150_id8_im20.bmp,['Im_RyanReynolds.png', 'Im_RyanGosling.png', 'Im_ElijahWood.png', 'Im_HughJackman.png', 'Im_RobertDowneyJr.png', 'Im_RobertPattinson.png', 'Im_MattDamon.png', 'Im_LeonardoDiCaprio.png', 'Im_BenAffleck.png', 'Im_KeanuReeves.png'],same,1,0.4250401999997848,27,0,
BECO2507,2,neg,120,neg120_id14_im24.bmp_neg120_id19_im8.bmp,['Im_RyanReynolds.png', 'Im_RyanGosling.png', 'Im_ElijahWood.png', 'Im_HughJackman.png', 'Im_RobertDowneyJr.png', 'Im_RobertPattinson.png', 'Im_MattDamon.png', 'Im_LeonardoDiCaprio.png', 'Im_BenAffleck.png', 'Im_KeanuReeves.png'],diff,1,0.41674369999964256,28,0,
BECO2507,2,neg,60,neg60_id20_im30.bmp_neg60_id18_im11.bmp,['Im_RyanReynolds.png', 'Im_RyanGosling.png', 'Im_ElijahWood.png', 'Im_HughJackman.png', 'Im_RobertDowneyJr.png', 'Im_RobertPattinson.png', 'Im_MattDamon.png', 'Im_LeonardoDiCaprio.png', 'Im_BenAffleck.png', 'Im_KeanuReeves.png'],diff,1,0.4166895999987901,29,0,
BECO2507,2,neg,60,neg60_id18_im19.bmp_neg60_id21_im22.bmp,['Im_RyanReynolds.png', 'Im_RyanGosling.png', 'Im_ElijahWood.png', 'Im_HughJackman.png', 'Im_RobertDowneyJr.png', 'Im_RobertPattinson.png', 'Im_MattDamon.png', 'Im_LeonardoDiCaprio.png', 'Im_BenAffleck.png', 'Im_KeanuReeves.png'],diff,1,0.4337383000001864,30,0,
BECO2507,2,neg,30,neg30_id18_im19.bmp_neg30_id20_im3.bmp,['Im_RyanReynolds.png', 'Im_RyanGosling.png', 'Im_ElijahWood.png', 'Im_HughJackman.png', 'Im_RobertDowneyJr.png', 'Im_RobertPattinson.png', 'Im_MattDamon.png', 'Im_LeonardoDiCaprio.png', 'Im_BenAffleck.png', 'Im_KeanuReeves.png'],diff,1,0.4249290999996447,31,0,
BECO2507,2,neg,90,neg90_id18_im18.bmp_neg90_id11_im10.bmp,['Im_RyanReynolds.png', 'Im_RyanGosling.png', 'Im_ElijahWood.png', 'Im_HughJackman.png', 'Im_RobertDowneyJr.png', 'Im_RobertPattinson.png', 'Im_MattDamon.png', 'Im_LeonardoDiCaprio.png', 'Im_BenAffleck.png', 'Im_KeanuReeves.png'],diff,1,0.5834081000011793,32,0,
BECO2507,2,neg,fs,negfs_id11_im1.bmp_negfs_id11_im10.bmp,['Im_RyanReynolds.png', 'Im_RyanGosling.png', 'Im_ElijahWood.png', 'Im_HughJackman.png', 'Im_RobertDowneyJr.png', 'Im_RobertPattinson.png', 'Im_MattDamon.png', 'Im_LeonardoDiCaprio.png', 'Im_BenAffleck.png', 'Im_KeanuReeves.png'],same,1,1.0917627999988326,33,0,
BECO2507,2,neg,120,neg120_id11_im2.bmp_neg120_id11_im1.bmp,['Im_RyanReynolds.png', 'Im_RyanGosling.png', 'Im_ElijahWood.png', 'Im_HughJackman.png', 'Im_RobertDowneyJr.png', 'Im_RobertPattinson.png', 'Im_MattDamon.png', 'Im_LeonardoDiCaprio.png', 'Im_BenAffleck.png', 'Im_KeanuReeves.png'],diff,0,0.9252763999993476,33,0,
BECO2507,3,neg,0,neg0_id11_im10.bmp_neg0_id11_im1.bmp,['Im_RyanReynolds.png', 'Im_RyanGosling.png', 'Im_ElijahWood.png', 'Im_HughJackman.png', 'Im_RobertDowneyJr.png', 'Im_RobertPattinson.png', 'Im_MattDamon.png', 'Im_LeonardoDiCaprio.png', 'Im_BenAffleck.png', 'Im_KeanuReeves.png'],same,1,0.7167033000005176,1,78.57142857142857,
BECO2507,3,neg,90,neg90_id18_im11.bmp_neg90_id13_im15.bmp,['Im_RyanReynolds.png', 'Im_RyanGosling.png', 'Im_ElijahWood.png', 'Im_HughJackman.png', 'Im_RobertDowneyJr.png', 'Im_RobertPattinson.png', 'Im_MattDamon.png', 'Im_LeonardoDiCaprio.png', 'Im_BenAffleck.png', 'Im_KeanuReeves.png'],same,0,0.5417371000003186,1,78.57142857142857,
BECO2507,3,neg,120,neg120_id20_im30.bmp_neg120_id20_im3.bmp,['Im_RyanReynolds.png', 'Im_RyanGosling.png', 'Im_ElijahWood.png', 'Im_HughJackman.png', 'Im_RobertDowneyJr.png', 'Im_RobertPattinson.png', 'Im_MattDamon.png', 'Im_LeonardoDiCaprio.png', 'Im_BenAffleck.png', 'Im_KeanuReeves.png'],diff,0,0.41683650000049965,1,78.57142857142857,
BECO2507,3,neg,fs,negfs_id18_im18.bmp_negfs_id21_im22.bmp,['Im_RyanReynolds.png', 'Im_RyanGosling.png', 'Im_ElijahWood.png', 'Im_HughJackman.png', 'Im_RobertDowneyJr.png', 'Im_RobertPattinson.png', 'Im_MattDamon.png', 'Im_LeonardoDiCaprio.png', 'Im_BenAffleck.png', 'Im_KeanuReeves.png'],diff,1,0.9833902999998827,2,78.57142857142857,
BECO2507,3,neg,30,neg30_id1_im4.bmp_neg30_id1_im24.bmp,['Im_RyanReynolds.png', 'Im_RyanGosling.png', 'Im_ElijahWood.png', 'Im_HughJackman.png', 'Im_RobertDowneyJr.png', 'Im_RobertPattinson.png', 'Im_MattDamon.png', 'Im_LeonardoDiCaprio.png', 'Im_BenAffleck.png', 'Im_KeanuReeves.png'],same,1,0.6665873000001739,3,78.57142857142857,
BECO2507,3,neg,90,neg90_id19_im8.bmp_neg90_id19_im4.bmp,['Im_RyanReynolds.png', 'Im_RyanGosling.png', 'Im_ElijahWood.png', 'Im_HughJackman.png', 'Im_RobertDowneyJr.png', 'Im_RobertPattinson.png', 'Im_MattDamon.png', 'Im_LeonardoDiCaprio.png', 'Im_BenAffleck.png', 'Im_KeanuReeves.png'],diff,0,0.6001369999994495,3,78.57142857142857,
BECO2507,3,neg,150,neg150_id1_im24.bmp_neg150_id1_im4.bmp,['Im_RyanReynolds.png', 'Im_RyanGosling.png', 'Im_ElijahWood.png', 'Im_HughJackman.png', 'Im_RobertDowneyJr.png', 'Im_RobertPattinson.png', 'Im_MattDamon.png', 'Im_LeonardoDiCaprio.png', 'Im_BenAffleck.png', 'Im_KeanuReeves.png'],same,1,0.42507759999898553,4,78.57142857142857,
BECO2507,3,neg,0,neg0_id13_im15.bmp_neg0_id13_im29.bmp,['Im_RyanReynolds.png', 'Im_RyanGosling.png', 'Im_ElijahWood.png', 'Im_HughJackman.png', 'Im_RobertDowneyJr.png', 'Im_RobertPattinson.png', 'Im_MattDamon.png', 'Im_LeonardoDiCaprio.png', 'Im_BenAffleck.png', 'Im_KeanuReeves.png'],diff,0,1.525095599999986,4,78.57142857142857,
BECO2507,3,neg,60,neg60_id20_im12.bmp_neg60_id11_im1.bmp,['Im_RyanReynolds.png', 'Im_RyanGosling.png', 'Im_ElijahWood.png', 'Im_HughJackman.png', 'Im_RobertDowneyJr.png', 'Im_RobertPattinson.png', 'Im_MattDamon.png', 'Im_LeonardoDiCaprio.png', 'Im_BenAffleck.png', 'Im_KeanuReeves.png'],same,0,0.5502825999992638,4,78.57142857142857,
BECO2507,3,neg,30,neg30_id1_im21.bmp_neg30_id1_im4.bmp,['Im_RyanReynolds.png', 'Im_RyanGosling.png', 'Im_ElijahWood.png', 'Im_HughJackman.png', 'Im_RobertDowneyJr.png', 'Im_RobertPattinson.png', 'Im_MattDamon.png', 'Im_LeonardoDiCaprio.png', 'Im_BenAffleck.png', 'Im_KeanuReeves.png'],same,1,0.4083402999985992,5,78.57142857142857,
BECO2507,3,neg,60,neg60_id21_im16.bmp_neg60_id6_im12.bmp,['Im_RyanReynolds.png', 'Im_RyanGosling.png', 'Im_ElijahWood.png', 'Im_HughJackman.png', 'Im_RobertDowneyJr.png', 'Im_RobertPattinson.png', 'Im_MattDamon.png', 'Im_LeonardoDiCaprio.png', 'Im_BenAffleck.png', 'Im_KeanuReeves.png'],diff,1,0.41668360000039684,6,78.57142857142857,
BECO2507,3,neg,fs,negfs_id21_im17.bmp_negfs_id8_im13.bmp,['Im_RyanReynolds.png', 'Im_RyanGosling.png', 'Im_ElijahWood.png', 'Im_HughJackman.png', 'Im_RobertDowneyJr.png', 'Im_RobertPattinson.png', 'Im_MattDamon.png', 'Im_LeonardoDiCaprio.png', 'Im_BenAffleck.png', 'Im_KeanuReeves.png'],diff,1,0.4252536999993026,7,78.57142857142857,
BECO2507,3,neg,150,neg150_id21_im16.bmp_neg150_id21_im22.bmp,['Im_RyanReynolds.png', 'Im_RyanGosling.png', 'Im_ElijahWood.png', 'Im_HughJackman.png', 'Im_RobertDowneyJr.png', 'Im_RobertPattinson.png', 'Im_MattDamon.png', 'Im_LeonardoDiCaprio.png', 'Im_BenAffleck.png', 'Im_KeanuReeves.png'],same,1,0.9833154000007198,8,78.57142857142857,
BECO2507,3,neg,120,neg120_id11_im2.bmp_neg120_id1_im4.bmp,['Im_RyanReynolds.png', 'Im_RyanGosling.png', 'Im_ElijahWood.png', 'Im_HughJackman.png', 'Im_RobertDowneyJr.png', 'Im_RobertPattinson.png', 'Im_MattDamon.png', 'Im_LeonardoDiCaprio.png', 'Im_BenAffleck.png', 'Im_KeanuReeves.png'],same,0,0.7750505999993038,8,78.57142857142857,
BECO2507,4,inv,30,pos30_id1_im21.bmp_pos30_id8_im20.bmp,['Im_RyanReynolds.png', 'Im_RyanGosling.png', 'Im_ElijahWood.png', 'Im_HughJackman.png', 'Im_RobertDowneyJr.png', 'Im_RobertPattinson.png', 'Im_MattDamon.png', 'Im_LeonardoDiCaprio.png', 'Im_BenAffleck.png', 'Im_KeanuReeves.png'],same,0,0.9415627999987919,8,78.57142857142857,
BECO2507,4,inv,90,pos90_id8_im13.bmp_pos90_id14_im24.bmp,['Im_RyanReynolds.png', 'Im_RyanGosling.png', 'Im_ElijahWood.png', 'Im_HughJackman.png', 'Im_RobertDowneyJr.png', 'Im_RobertPattinson.png', 'Im_MattDamon.png', 'Im_LeonardoDiCaprio.png', 'Im_BenAffleck.png', 'Im_KeanuReeves.png'],diff,1,0.8916463999994448,9,78.57142857142857,
BECO2507,4,inv,0,pos0_id8_im20.bmp_pos0_id8_im21.bmp,['Im_RyanReynolds.png', 'Im_RyanGosling.png', 'Im_ElijahWood.png', 'Im_HughJackman.png', 'Im_RobertDowneyJr.png', 'Im_RobertPattinson.png', 'Im_MattDamon.png', 'Im_LeonardoDiCaprio.png', 'Im_BenAffleck.png', 'Im_KeanuReeves.png'],same,1,0.6169356999998854,10,78.57142857142857,
BECO2507,4,inv,30,pos30_id19_im4.bmp_pos30_id19_im8.bmp,['Im_RyanReynolds.png', 'Im_RyanGosling.png', 'Im_ElijahWood.png', 'Im_HughJackman.png', 'Im_RobertDowneyJr.png', 'Im_RobertPattinson.png', 'Im_MattDamon.png', 'Im_LeonardoDiCaprio.png', 'Im_BenAffleck.png', 'Im_KeanuReeves.png'],same,1,0.7003363999992871,11,78.57142857142857,
BECO2507,4,inv,150,pos150_id19_im8.bmp_pos150_id13_im10.bmp,['Im_RyanReynolds.png', 'Im_RyanGosling.png', 'Im_ElijahWood.png', 'Im_HughJackman.png', 'Im_RobertDowneyJr.png', 'Im_RobertPattinson.png', 'Im_MattDamon.png', 'Im_LeonardoDiCaprio.png', 'Im_BenAffleck.png', 'Im_KeanuReeves.png'],same,0,1.2333228999996209,11,78.57142857142857,
BECO2507,4,inv,150,pos150_id1_im4.bmp_pos150_id1_im24.bmp,['Im_RyanReynolds.png', 'Im_RyanGosling.png', 'Im_ElijahWood.png', 'Im_HughJackman.png', 'Im_RobertDowneyJr.png', 'Im_RobertPattinson.png', 'Im_MattDamon.png', 'Im_LeonardoDiCaprio.png', 'Im_BenAffleck.png', 'Im_KeanuReeves.png'],same,1,0.6168565999996645,12,78.57142857142857,
BECO2507,4,inv,0,pos0_id14_im16.bmp_pos0_id1_im21.bmp,['Im_RyanReynolds.png', 'Im_RyanGosling.png', 'Im_ElijahWood.png', 'Im_HughJackman.png', 'Im_RobertDowneyJr.png', 'Im_RobertPattinson.png', 'Im_MattDamon.png', 'Im_LeonardoDiCaprio.png', 'Im_BenAffleck.png', 'Im_KeanuReeves.png'],diff,1,1.0750628000005236,13,78.57142857142857,
BECO2507,4,inv,120,pos120_id21_im16.bmp_pos120_id21_im22.bmp,['Im_RyanReynolds.png', 'Im_RyanGosling.png', 'Im_ElijahWood.png', 'Im_HughJackman.png', 'Im_RobertDowneyJr.png', 'Im_RobertPattinson.png', 'Im_MattDamon.png', 'Im_LeonardoDiCaprio.png', 'Im_BenAffleck.png', 'Im_KeanuReeves.png'],diff,0,1.6086203000013484,13,78.57142857142857,
BECO2507,4,inv,120,pos120_id14_im24.bmp_pos120_id8_im13.bmp,['Im_RyanReynolds.png', 'Im_RyanGosling.png', 'Im_ElijahWood.png', 'Im_HughJackman.png', 'Im_RobertDowneyJr.png', 'Im_RobertPattinson.png', 'Im_MattDamon.png', 'Im_LeonardoDiCaprio.png', 'Im_BenAffleck.png', 'Im_KeanuReeves.png'],diff,1,0.6252846000006684,14,78.57142857142857,
BECO2507,4,inv,60,pos60_id14_im24.bmp_pos60_id19_im8.bmp,['Im_RyanReynolds.png', 'Im_RyanGosling.png', 'Im_ElijahWood.png', 'Im_HughJackman.png', 'Im_RobertDowneyJr.png', 'Im_RobertPattinson.png', 'Im_MattDamon.png', 'Im_LeonardoDiCaprio.png', 'Im_BenAffleck.png', 'Im_KeanuReeves.png'],diff,1,0.5171534000000975,15,78.57142857142857,
BECO2507,4,inv,60,pos60_id6_im18.bmp_pos60_id6_im12.bmp,['Im_RyanReynolds.png', 'Im_RyanGosling.png', 'Im_ElijahWood.png', 'Im_HughJackman.png', 'Im_RobertDowneyJr.png', 'Im_RobertPattinson.png', 'Im_MattDamon.png', 'Im_LeonardoDiCaprio.png', 'Im_BenAffleck.png', 'Im_KeanuReeves.png'],same,1,0.42503229999965697,16,78.57142857142857,
BECO2507,4,inv,fs,posfs_id13_im10.bmp_posfs_id19_im8.bmp,['Im_RyanReynolds.png', 'Im_RyanGosling.png', 'Im_ElijahWood.png', 'Im_HughJackman.png', 'Im_RobertDowneyJr.png', 'Im_RobertPattinson.png', 'Im_MattDamon.png', 'Im_LeonardoDiCaprio.png', 'Im_BenAffleck.png', 'Im_KeanuReeves.png'],diff,1,0.4167245000007824,17,78.57142857142857,
BECO2507,4,inv,fs,posfs_id19_im27.bmp_posfs_id13_im15.bmp,['Im_RyanReynolds.png', 'Im_RyanGosling.png', 'Im_ElijahWood.png', 'Im_HughJackman.png', 'Im_RobertDowneyJr.png', 'Im_RobertPattinson.png', 'Im_MattDamon.png', 'Im_LeonardoDiCaprio.png', 'Im_BenAffleck.png', 'Im_KeanuReeves.png'],diff,1,0.4333818000013707,18,78.57142857142857,
BECO2507,4,inv,90,pos90_id8_im21.bmp_pos90_id8_im20.bmp,['Im_RyanReynolds.png', 'Im_RyanGosling.png', 'Im_ElijahWood.png', 'Im_HughJackman.png', 'Im_RobertDowneyJr.png', 'Im_RobertPattinson.png', 'Im_MattDamon.png', 'Im_LeonardoDiCaprio.png', 'Im_BenAffleck.png', 'Im_KeanuReeves.png'],diff,0,0.433569400000124,18,78.57142857142857,
BECO2507,5,pos,0,pos0_id18_im19.bmp_pos0_id18_im18.bmp,['Im_RyanReynolds.png', 'Im_RyanGosling.png', 'Im_ElijahWood.png', 'Im_HughJackman.png', 'Im_RobertDowneyJr.png', 'Im_RobertPattinson.png', 'Im_MattDamon.png', 'Im_LeonardoDiCaprio.png', 'Im_BenAffleck.png', 'Im_KeanuReeves.png'],same,1,0.5002355000015086,19,78.57142857142857,
BECO2507,5,pos,120,pos120_id18_im18.bmp_pos120_id11_im10.bmp,['Im_RyanReynolds.png', 'Im_RyanGosling.png', 'Im_ElijahWood.png', 'Im_HughJackman.png', 'Im_RobertDowneyJr.png', 'Im_RobertPattinson.png', 'Im_MattDamon.png', 'Im_LeonardoDiCaprio.png', 'Im_BenAffleck.png', 'Im_KeanuReeves.png'],diff,1,0.4087247000006755,20,78.57142857142857,
BECO2507,5,pos,fs,posfs_id1_im4.bmp_posfs_id21_im17.bmp,['Im_RyanReynolds.png', 'Im_RyanGosling.png', 'Im_ElijahWood.png', 'Im_HughJackman.png', 'Im_RobertDowneyJr.png', 'Im_RobertPattinson.png', 'Im_MattDamon.png', 'Im_LeonardoDiCaprio.png', 'Im_BenAffleck.png', 'Im_KeanuReeves.png'],diff,1,0.4168065000012575,21,78.57142857142857,
BECO2507,5,pos,120,pos120_id11_im2.bmp_pos120_id11_im1.bmp,['Im_RyanReynolds.png', 'Im_RyanGosling.png', 'Im_ElijahWood.png', 'Im_HughJackman.png', 'Im_RobertDowneyJr.png', 'Im_RobertPattinson.png', 'Im_MattDamon.png', 'Im_LeonardoDiCaprio.png', 'Im_BenAffleck.png', 'Im_KeanuReeves.png'],same,1,0.7167444999995496,22,78.57142857142857,
BECO2507,5,pos,60,pos60_id8_im20.bmp_pos60_id1_im21.bmp,['Im_RyanReynolds.png', 'Im_RyanGosling.png', 'Im_ElijahWood.png', 'Im_HughJackman.png', 'Im_RobertDowneyJr.png', 'Im_RobertPattinson.png', 'Im_MattDamon.png', 'Im_LeonardoDiCaprio.png', 'Im_BenAffleck.png', 'Im_KeanuReeves.png'],diff,1,0.42497180000100343,23,78.57142857142857,
BECO2507,5,pos,30,pos30_id20_im3.bmp_pos30_id20_im12.bmp,['Im_RyanReynolds.png', 'Im_RyanGosling.png', 'Im_ElijahWood.png', 'Im_HughJackman.png', 'Im_RobertDowneyJr.png', 'Im_RobertPattinson.png', 'Im_MattDamon.png', 'Im_LeonardoDiCaprio.png', 'Im_BenAffleck.png', 'Im_KeanuReeves.png'],same,1,0.41668680000111635,24,78.57142857142857,
BECO2507,5,pos,60,pos60_id14_im24.bmp_pos60_id19_im8.bmp,['Im_RyanReynolds.png', 'Im_RyanGosling.png', 'Im_ElijahWood.png', 'Im_HughJackman.png', 'Im_RobertDowneyJr.png', 'Im_RobertPattinson.png', 'Im_MattDamon.png', 'Im_LeonardoDiCaprio.png', 'Im_BenAffleck.png', 'Im_KeanuReeves.png'],diff,1,0.4250725000001694,25,78.57142857142857,
BECO2507,5,pos,0,pos0_id14_im16.bmp_pos0_id1_im21.bmp,['Im_RyanReynolds.png', 'Im_RyanGosling.png', 'Im_ElijahWood.png', 'Im_HughJackman.png', 'Im_RobertDowneyJr.png', 'Im_RobertPattinson.png', 'Im_MattDamon.png', 'Im_LeonardoDiCaprio.png', 'Im_BenAffleck.png', 'Im_KeanuReeves.png'],diff,1,0.41670610000073793,26,78.57142857142857,
BECO2507,5,pos,30,pos30_id11_im2.bmp_pos30_id11_im10.bmp,['Im_RyanReynolds.png', 'Im_RyanGosling.png', 'Im_ElijahWood.png', 'Im_HughJackman.png', 'Im_RobertDowneyJr.png', 'Im_RobertPattinson.png', 'Im_MattDamon.png', 'Im_LeonardoDiCaprio.png', 'Im_BenAffleck.png', 'Im_KeanuReeves.png'],diff,0,0.6335424999997485,26,78.57142857142857,
BECO2507,5,pos,90,pos90_id6_im19.bmp_pos90_id14_im16.bmp,['Im_RyanReynolds.png', 'Im_RyanGosling.png', 'Im_ElijahWood.png', 'Im_HughJackman.png', 'Im_RobertDowneyJr.png', 'Im_RobertPattinson.png', 'Im_MattDamon.png', 'Im_LeonardoDiCaprio.png', 'Im_BenAffleck.png', 'Im_KeanuReeves.png'],diff,1,0.41681319999952393,27,78.57142857142857,
BECO2507,5,pos,150,pos150_id6_im19.bmp_pos150_id14_im16.bmp,['Im_RyanReynolds.png', 'Im_RyanGosling.png', 'Im_ElijahWood.png', 'Im_HughJackman.png', 'Im_RobertDowneyJr.png', 'Im_RobertPattinson.png', 'Im_MattDamon.png', 'Im_LeonardoDiCaprio.png', 'Im_BenAffleck.png', 'Im_KeanuReeves.png'],diff,1,0.41685580000012123,28,78.57142857142857,
BECO2507,5,pos,90,pos90_id6_im12.bmp_pos90_id6_im18.bmp,['Im_RyanReynolds.png', 'Im_RyanGosling.png', 'Im_ElijahWood.png', 'Im_HughJackman.png', 'Im_RobertDowneyJr.png', 'Im_RobertPattinson.png', 'Im_MattDamon.png', 'Im_LeonardoDiCaprio.png', 'Im_BenAffleck.png', 'Im_KeanuReeves.png'],same,1,0.4250507999986439,29,78.57142857142857,
BECO2507,5,pos,fs,posfs_id11_im2.bmp_posfs_id11_im10.bmp,['Im_RyanReynolds.png', 'Im_RyanGosling.png', 'Im_ElijahWood.png', 'Im_HughJackman.png', 'Im_RobertDowneyJr.png', 'Im_RobertPattinson.png', 'Im_MattDamon.png', 'Im_LeonardoDiCaprio.png', 'Im_BenAffleck.png', 'Im_KeanuReeves.png'],same,1,0.40840860000025714,30,78.57142857142857,
BECO2507,5,pos,150,pos150_id1_im24.bmp_pos150_id1_im21.bmp,['Im_RyanReynolds.png', 'Im_RyanGosling.png', 'Im_ElijahWood.png', 'Im_HughJackman.png', 'Im_RobertDowneyJr.png', 'Im_RobertPattinson.png', 'Im_MattDamon.png', 'Im_LeonardoDiCaprio.png', 'Im_BenAffleck.png', 'Im_KeanuReeves.png'],same,1,0.4251334999989922,31,78.57142857142857,
BECO2507,6,inv,150,pos150_id11_im1.bmp_pos150_id11_im2.bmp,['Im_RyanReynolds.png', 'Im_RyanGosling.png', 'Im_ElijahWood.png', 'Im_HughJackman.png', 'Im_RobertDowneyJr.png', 'Im_RobertPattinson.png', 'Im_MattDamon.png', 'Im_LeonardoDiCaprio.png', 'Im_BenAffleck.png', 'Im_KeanuReeves.png'],same,1,0.4334123999997246,1,73.80952380952381,
BECO2507,6,inv,90,pos90_id18_im11.bmp_pos90_id13_im15.bmp,['Im_RyanReynolds.png', 'Im_RyanGosling.png', 'Im_ElijahWood.png', 'Im_HughJackman.png', 'Im_RobertDowneyJr.png', 'Im_RobertPattinson.png', 'Im_MattDamon.png', 'Im_LeonardoDiCaprio.png', 'Im_BenAffleck.png', 'Im_KeanuReeves.png'],same,0,0.6584866000011971,1,73.80952380952381,
BECO2507,6,inv,90,pos90_id20_im30.bmp_pos90_id20_im3.bmp,['Im_RyanReynolds.png', 'Im_RyanGosling.png', 'Im_ElijahWood.png', 'Im_HughJackman.png', 'Im_RobertDowneyJr.png', 'Im_RobertPattinson.png', 'Im_MattDamon.png', 'Im_LeonardoDiCaprio.png', 'Im_BenAffleck.png', 'Im_KeanuReeves.png'],same,1,0.6170032999998512,2,73.80952380952381,
BECO2507,6,inv,120,pos120_id19_im8.bmp_pos120_id13_im10.bmp,['Im_RyanReynolds.png', 'Im_RyanGosling.png', 'Im_ElijahWood.png', 'Im_HughJackman.png', 'Im_RobertDowneyJr.png', 'Im_RobertPattinson.png', 'Im_MattDamon.png', 'Im_LeonardoDiCaprio.png', 'Im_BenAffleck.png', 'Im_KeanuReeves.png'],same,0,0.7002366000015172,2,73.80952380952381,
BECO2507,6,inv,fs,posfs_id18_im18.bmp_posfs_id18_im11.bmp,['Im_RyanReynolds.png', 'Im_RyanGosling.png', 'Im_ElijahWood.png', 'Im_HughJackman.png', 'Im_RobertDowneyJr.png', 'Im_RobertPattinson.png', 'Im_MattDamon.png', 'Im_LeonardoDiCaprio.png', 'Im_BenAffleck.png', 'Im_KeanuReeves.png'],same,1,0.4085111999993387,3,73.80952380952381,
BECO2507,6,inv,fs,posfs_id20_im3.bmp_posfs_id20_im30.bmp,['Im_RyanReynolds.png', 'Im_RyanGosling.png', 'Im_ElijahWood.png', 'Im_HughJackman.png', 'Im_RobertDowneyJr.png', 'Im_RobertPattinson.png', 'Im_MattDamon.png', 'Im_LeonardoDiCaprio.png', 'Im_BenAffleck.png', 'Im_KeanuReeves.png'],same,1,0.416711400001077,4,73.80952380952381,
BECO2507,6,inv,60,pos60_id18_im19.bmp_pos60_id20_im3.bmp,['Im_RyanReynolds.png', 'Im_RyanGosling.png', 'Im_ElijahWood.png', 'Im_HughJackman.png', 'Im_RobertDowneyJr.png', 'Im_RobertPattinson.png', 'Im_MattDamon.png', 'Im_LeonardoDiCaprio.png', 'Im_BenAffleck.png', 'Im_KeanuReeves.png'],diff,1,0.8333314000010432,5,73.80952380952381,
BECO2507,6,inv,30,pos30_id1_im4.bmp_pos30_id21_im17.bmp,['Im_RyanReynolds.png', 'Im_RyanGosling.png', 'Im_ElijahWood.png', 'Im_HughJackman.png', 'Im_RobertDowneyJr.png', 'Im_RobertPattinson.png', 'Im_MattDamon.png', 'Im_LeonardoDiCaprio.png', 'Im_BenAffleck.png', 'Im_KeanuReeves.png'],diff,1,1.0419836999990366,6,73.80952380952381,
BECO2507,6,inv,0,pos0_id20_im12.bmp_pos0_id11_im1.bmp,['Im_RyanReynolds.png', 'Im_RyanGosling.png', 'Im_ElijahWood.png', 'Im_HughJackman.png', 'Im_RobertDowneyJr.png', 'Im_RobertPattinson.png', 'Im_MattDamon.png', 'Im_LeonardoDiCaprio.png', 'Im_BenAffleck.png', 'Im_KeanuReeves.png'],diff,1,1.283601400000407,7,73.80952380952381,
BECO2507,6,inv,30,pos30_id11_im10.bmp_pos30_id11_im1.bmp,['Im_RyanReynolds.png', 'Im_RyanGosling.png', 'Im_ElijahWood.png', 'Im_HughJackman.png', 'Im_RobertDowneyJr.png', 'Im_RobertPattinson.png', 'Im_MattDamon.png', 'Im_LeonardoDiCaprio.png', 'Im_BenAffleck.png', 'Im_KeanuReeves.png'],same,1,0.7169030999993993,8,73.80952380952381,
BECO2507,6,inv,120,pos120_id6_im12.bmp_pos120_id6_im18.bmp,['Im_RyanReynolds.png', 'Im_RyanGosling.png', 'Im_ElijahWood.png', 'Im_HughJackman.png', 'Im_RobertDowneyJr.png', 'Im_RobertPattinson.png', 'Im_MattDamon.png', 'Im_LeonardoDiCaprio.png', 'Im_BenAffleck.png', 'Im_KeanuReeves.png'],same,1,0.5583308000004763,9,73.80952380952381,
BECO2507,6,inv,0,pos0_id20_im30.bmp_pos0_id20_im3.bmp,['Im_RyanReynolds.png', 'Im_RyanGosling.png', 'Im_ElijahWood.png', 'Im_HughJackman.png', 'Im_RobertDowneyJr.png', 'Im_RobertPattinson.png', 'Im_MattDamon.png', 'Im_LeonardoDiCaprio.png', 'Im_BenAffleck.png', 'Im_KeanuReeves.png'],same,1,1.0502491999995982,10,73.80952380952381,
BECO2507,6,inv,60,pos60_id6_im19.bmp_pos60_id1_im24.bmp,['Im_RyanReynolds.png', 'Im_RyanGosling.png', 'Im_ElijahWood.png', 'Im_HughJackman.png', 'Im_RobertDowneyJr.png', 'Im_RobertPattinson.png', 'Im_MattDamon.png', 'Im_LeonardoDiCaprio.png', 'Im_BenAffleck.png', 'Im_KeanuReeves.png'],diff,1,0.4833647000014025,11,73.80952380952381,
BECO2507,6,inv,150,pos150_id11_im1.bmp_pos150_id11_im10.bmp,['Im_RyanReynolds.png', 'Im_RyanGosling.png', 'Im_ElijahWood.png', 'Im_HughJackman.png', 'Im_RobertDowneyJr.png', 'Im_RobertPattinson.png', 'Im_MattDamon.png', 'Im_LeonardoDiCaprio.png', 'Im_BenAffleck.png', 'Im_KeanuReeves.png'],same,1,0.4250610000017332,12,73.80952380952381,
BECO2507,7,neg,120,neg120_id21_im22.bmp_neg120_id21_im16.bmp,['Im_RyanReynolds.png', 'Im_RyanGosling.png', 'Im_ElijahWood.png', 'Im_HughJackman.png', 'Im_RobertDowneyJr.png', 'Im_RobertPattinson.png', 'Im_MattDamon.png', 'Im_LeonardoDiCaprio.png', 'Im_BenAffleck.png', 'Im_KeanuReeves.png'],same,1,0.483197100000325,13,73.80952380952381,
BECO2507,7,neg,90,neg90_id14_im16.bmp_neg90_id6_im19.bmp,['Im_RyanReynolds.png', 'Im_RyanGosling.png', 'Im_ElijahWood.png', 'Im_HughJackman.png', 'Im_RobertDowneyJr.png', 'Im_RobertPattinson.png', 'Im_MattDamon.png', 'Im_LeonardoDiCaprio.png', 'Im_BenAffleck.png', 'Im_KeanuReeves.png'],diff,1,0.4082849999995233,14,73.80952380952381,
BECO2507,7,neg,fs,negfs_id21_im17.bmp_negfs_id21_im16.bmp,['Im_RyanReynolds.png', 'Im_RyanGosling.png', 'Im_ElijahWood.png', 'Im_HughJackman.png', 'Im_RobertDowneyJr.png', 'Im_RobertPattinson.png', 'Im_MattDamon.png', 'Im_LeonardoDiCaprio.png', 'Im_BenAffleck.png', 'Im_KeanuReeves.png'],same,1,0.48357320000104664,15,73.80952380952381,
BECO2507,7,neg,fs,negfs_id1_im21.bmp_negfs_id14_im16.bmp,['Im_RyanReynolds.png', 'Im_RyanGosling.png', 'Im_ElijahWood.png', 'Im_HughJackman.png', 'Im_RobertDowneyJr.png', 'Im_RobertPattinson.png', 'Im_MattDamon.png', 'Im_LeonardoDiCaprio.png', 'Im_BenAffleck.png', 'Im_KeanuReeves.png'],diff,1,0.5504619999992428,16,73.80952380952381,
BECO2507,7,neg,60,neg60_id6_im18.bmp_neg60_id6_im19.bmp,['Im_RyanReynolds.png', 'Im_RyanGosling.png', 'Im_ElijahWood.png', 'Im_HughJackman.png', 'Im_RobertDowneyJr.png', 'Im_RobertPattinson.png', 'Im_MattDamon.png', 'Im_LeonardoDiCaprio.png', 'Im_BenAffleck.png', 'Im_KeanuReeves.png'],same,1,0.5085613999999623,17,73.80952380952381,
BECO2507,7,neg,30,neg30_id6_im12.bmp_neg30_id11_im1.bmp,['Im_RyanReynolds.png', 'Im_RyanGosling.png', 'Im_ElijahWood.png', 'Im_HughJackman.png', 'Im_RobertDowneyJr.png', 'Im_RobertPattinson.png', 'Im_MattDamon.png', 'Im_LeonardoDiCaprio.png', 'Im_BenAffleck.png', 'Im_KeanuReeves.png'],diff,1,0.4334113000004436,18,73.80952380952381,
BECO2507,7,neg,150,neg150_id18_im18.bmp_neg150_id11_im10.bmp,['Im_RyanReynolds.png', 'Im_RyanGosling.png', 'Im_ElijahWood.png', 'Im_HughJackman.png', 'Im_RobertDowneyJr.png', 'Im_RobertPattinson.png', 'Im_MattDamon.png', 'Im_LeonardoDiCaprio.png', 'Im_BenAffleck.png', 'Im_KeanuReeves.png'],diff,1,0.8500277000002825,19,73.80952380952381,
BECO2507,7,neg,30,neg30_id6_im18.bmp_neg30_id6_im12.bmp,['Im_RyanReynolds.png', 'Im_RyanGosling.png', 'Im_ElijahWood.png', 'Im_HughJackman.png', 'Im_RobertDowneyJr.png', 'Im_RobertPattinson.png', 'Im_MattDamon.png', 'Im_LeonardoDiCaprio.png', 'Im_BenAffleck.png', 'Im_KeanuReeves.png'],same,1,0.4750752999989345,20,73.80952380952381,
BECO2507,7,neg,0,neg0_id18_im11.bmp_neg0_id18_im19.bmp,['Im_RyanReynolds.png', 'Im_RyanGosling.png', 'Im_ElijahWood.png', 'Im_HughJackman.png', 'Im_RobertDowneyJr.png', 'Im_RobertPattinson.png', 'Im_MattDamon.png', 'Im_LeonardoDiCaprio.png', 'Im_BenAffleck.png', 'Im_KeanuReeves.png'],same,1,0.5670370999996521,21,73.80952380952381,
BECO2507,7,neg,0,neg0_id13_im10.bmp_neg0_id14_im18.bmp,['Im_RyanReynolds.png', 'Im_RyanGosling.png', 'Im_ElijahWood.png', 'Im_HughJackman.png', 'Im_RobertDowneyJr.png', 'Im_RobertPattinson.png', 'Im_MattDamon.png', 'Im_LeonardoDiCaprio.png', 'Im_BenAffleck.png', 'Im_KeanuReeves.png'],same,0,0.44198379999943427,21,73.80952380952381,
BECO2507,7,neg,60,neg60_id8_im13.bmp_neg60_id8_im20.bmp,['Im_RyanReynolds.png', 'Im_RyanGosling.png', 'Im_ElijahWood.png', 'Im_HughJackman.png', 'Im_RobertDowneyJr.png', 'Im_RobertPattinson.png', 'Im_MattDamon.png', 'Im_LeonardoDiCaprio.png', 'Im_BenAffleck.png', 'Im_KeanuReeves.png'],same,1,1.1000672000009217,22,73.80952380952381,
BECO2507,7,neg,120,neg120_id11_im10.bmp_neg120_id18_im18.bmp,['Im_RyanReynolds.png', 'Im_RyanGosling.png', 'Im_ElijahWood.png', 'Im_HughJackman.png', 'Im_RobertDowneyJr.png', 'Im_RobertPattinson.png', 'Im_MattDamon.png', 'Im_LeonardoDiCaprio.png', 'Im_BenAffleck.png', 'Im_KeanuReeves.png'],diff,1,0.5750674000009894,23,73.80952380952381,
BECO2507,7,neg,90,neg90_id6_im18.bmp_neg90_id6_im12.bmp,['Im_RyanReynolds.png', 'Im_RyanGosling.png', 'Im_ElijahWood.png', 'Im_HughJackman.png', 'Im_RobertDowneyJr.png', 'Im_RobertPattinson.png', 'Im_MattDamon.png', 'Im_LeonardoDiCaprio.png', 'Im_BenAffleck.png', 'Im_KeanuReeves.png'],same,1,0.4250125999988086,24,73.80952380952381,
BECO2507,7,neg,150,neg150_id18_im11.bmp_neg150_id18_im18.bmp,['Im_RyanReynolds.png', 'Im_RyanGosling.png', 'Im_ElijahWood.png', 'Im_HughJackman.png', 'Im_RobertDowneyJr.png', 'Im_RobertPattinson.png', 'Im_MattDamon.png', 'Im_LeonardoDiCaprio.png', 'Im_BenAffleck.png', 'Im_KeanuReeves.png'],same,1,0.4250102000005427,25,73.80952380952381,
BECO2507,8,pos,30,pos30_id8_im20.bmp_pos30_id8_im21.bmp,['Im_RyanReynolds.png', 'Im_RyanGosling.png', 'Im_ElijahWood.png', 'Im_HughJackman.png', 'Im_RobertDowneyJr.png', 'Im_RobertPattinson.png', 'Im_MattDamon.png', 'Im_LeonardoDiCaprio.png', 'Im_BenAffleck.png', 'Im_KeanuReeves.png'],same,1,0.4333725000014965,26,73.80952380952381,
BECO2507,8,pos,fs,posfs_id1_im4.bmp_posfs_id1_im21.bmp,['Im_RyanReynolds.png', 'Im_RyanGosling.png', 'Im_ElijahWood.png', 'Im_HughJackman.png', 'Im_RobertDowneyJr.png', 'Im_RobertPattinson.png', 'Im_MattDamon.png', 'Im_LeonardoDiCaprio.png', 'Im_BenAffleck.png', 'Im_KeanuReeves.png'],same,1,0.416697299999214,27,73.80952380952381,
BECO2507,8,pos,30,pos30_id21_im22.bmp_pos30_id18_im19.bmp,['Im_RyanReynolds.png', 'Im_RyanGosling.png', 'Im_ElijahWood.png', 'Im_HughJackman.png', 'Im_RobertDowneyJr.png', 'Im_RobertPattinson.png', 'Im_MattDamon.png', 'Im_LeonardoDiCaprio.png', 'Im_BenAffleck.png', 'Im_KeanuReeves.png'],diff,1,0.42522810000082245,28,73.80952380952381,
BECO2507,8,pos,150,pos150_id1_im4.bmp_pos150_id21_im17.bmp,['Im_RyanReynolds.png', 'Im_RyanGosling.png', 'Im_ElijahWood.png', 'Im_HughJackman.png', 'Im_RobertDowneyJr.png', 'Im_RobertPattinson.png', 'Im_MattDamon.png', 'Im_LeonardoDiCaprio.png', 'Im_BenAffleck.png', 'Im_KeanuReeves.png'],diff,1,0.4250339000009262,29,73.80952380952381,
BECO2507,8,pos,fs,posfs_id19_im4.bmp_posfs_id8_im21.bmp,['Im_RyanReynolds.png', 'Im_RyanGosling.png', 'Im_ElijahWood.png', 'Im_HughJackman.png', 'Im_RobertDowneyJr.png', 'Im_RobertPattinson.png', 'Im_MattDamon.png', 'Im_LeonardoDiCaprio.png', 'Im_BenAffleck.png', 'Im_KeanuReeves.png'],diff,1,0.433418000000529,30,73.80952380952381,
BECO2507,8,pos,150,pos150_id1_im4.bmp_pos150_id1_im21.bmp,['Im_RyanReynolds.png', 'Im_RyanGosling.png', 'Im_ElijahWood.png', 'Im_HughJackman.png', 'Im_RobertDowneyJr.png', 'Im_RobertPattinson.png', 'Im_MattDamon.png', 'Im_LeonardoDiCaprio.png', 'Im_BenAffleck.png', 'Im_KeanuReeves.png'],same,1,0.42509419999987585,31,73.80952380952381,
BECO2507,8,pos,90,pos90_id20_im12.bmp_pos90_id20_im30.bmp,['Im_RyanReynolds.png', 'Im_RyanGosling.png', 'Im_ElijahWood.png', 'Im_HughJackman.png', 'Im_RobertDowneyJr.png', 'Im_RobertPattinson.png', 'Im_MattDamon.png', 'Im_LeonardoDiCaprio.png', 'Im_BenAffleck.png', 'Im_KeanuReeves.png'],same,1,0.4250341999995726,32,73.80952380952381,
BECO2507,8,pos,120,pos120_id20_im12.bmp_pos120_id20_im30.bmp,['Im_RyanReynolds.png', 'Im_RyanGosling.png', 'Im_ElijahWood.png', 'Im_HughJackman.png', 'Im_RobertDowneyJr.png', 'Im_RobertPattinson.png', 'Im_MattDamon.png', 'Im_LeonardoDiCaprio.png', 'Im_BenAffleck.png', 'Im_KeanuReeves.png'],same,1,0.4248788999993849,33,73.80952380952381,
BECO2507,8,pos,120,pos120_id18_im19.bmp_pos120_id21_im22.bmp,['Im_RyanReynolds.png', 'Im_RyanGosling.png', 'Im_ElijahWood.png', 'Im_HughJackman.png', 'Im_RobertDowneyJr.png', 'Im_RobertPattinson.png', 'Im_MattDamon.png', 'Im_LeonardoDiCaprio.png', 'Im_BenAffleck.png', 'Im_KeanuReeves.png'],diff,1,0.4250284999998257,34,73.80952380952381,
BECO2507,8,pos,0,pos0_id6_im19.bmp_pos0_id6_im12.bmp,['Im_RyanReynolds.png', 'Im_RyanGosling.png', 'Im_ElijahWood.png', 'Im_HughJackman.png', 'Im_RobertDowneyJr.png', 'Im_RobertPattinson.png', 'Im_MattDamon.png', 'Im_LeonardoDiCaprio.png', 'Im_BenAffleck.png', 'Im_KeanuReeves.png'],same,1,0.42504969999936293,35,73.80952380952381,
BECO2507,8,pos,0,pos0_id21_im22.bmp_pos0_id21_im16.bmp,['Im_RyanReynolds.png', 'Im_RyanGosling.png', 'Im_ElijahWood.png', 'Im_HughJackman.png', 'Im_RobertDowneyJr.png', 'Im_RobertPattinson.png', 'Im_MattDamon.png', 'Im_LeonardoDiCaprio.png', 'Im_BenAffleck.png', 'Im_KeanuReeves.png'],same,1,0.4751046999990649,36,73.80952380952381,
BECO2507,8,pos,90,pos90_id8_im21.bmp_pos90_id20_im30.bmp,['Im_RyanReynolds.png', 'Im_RyanGosling.png', 'Im_ElijahWood.png', 'Im_HughJackman.png', 'Im_RobertDowneyJr.png', 'Im_RobertPattinson.png', 'Im_MattDamon.png', 'Im_LeonardoDiCaprio.png', 'Im_BenAffleck.png', 'Im_KeanuReeves.png'],same,0,0.6501339000005828,36,73.80952380952381,
BECO2507,8,pos,60,pos60_id18_im11.bmp_pos60_id13_im15.bmp,['Im_RyanReynolds.png', 'Im_RyanGosling.png', 'Im_ElijahWood.png', 'Im_HughJackman.png', 'Im_RobertDowneyJr.png', 'Im_RobertPattinson.png', 'Im_MattDamon.png', 'Im_LeonardoDiCaprio.png', 'Im_BenAffleck.png', 'Im_KeanuReeves.png'],diff,1,0.41686679999838816,37,73.80952380952381,
BECO2507,8,pos,60,pos60_id21_im17.bmp_pos60_id1_im4.bmp,['Im_RyanReynolds.png', 'Im_RyanGosling.png', 'Im_ElijahWood.png', 'Im_HughJackman.png', 'Im_RobertDowneyJr.png', 'Im_RobertPattinson.png', 'Im_MattDamon.png', 'Im_LeonardoDiCaprio.png', 'Im_BenAffleck.png', 'Im_KeanuReeves.png'],diff,1,0.4333980999999767,38,73.80952380952381,
BECO2507,9,inv,120,pos120_id18_im19.bmp_pos120_id20_im3.bmp,['Im_RyanReynolds.png', 'Im_RyanGosling.png', 'Im_ElijahWood.png', 'Im_HughJackman.png', 'Im_RobertDowneyJr.png', 'Im_RobertPattinson.png', 'Im_MattDamon.png', 'Im_LeonardoDiCaprio.png', 'Im_BenAffleck.png', 'Im_KeanuReeves.png'],diff,1,0.42498360000172397,1,90.47619047619048,
BECO2507,9,inv,150,pos150_id21_im16.bmp_pos150_id21_im17.bmp,['Im_RyanReynolds.png', 'Im_RyanGosling.png', 'Im_ElijahWood.png', 'Im_HughJackman.png', 'Im_RobertDowneyJr.png', 'Im_RobertPattinson.png', 'Im_MattDamon.png', 'Im_LeonardoDiCaprio.png', 'Im_BenAffleck.png', 'Im_KeanuReeves.png'],same,1,0.4166824000003544,2,90.47619047619048,
BECO2507,9,inv,90,pos90_id18_im18.bmp_pos90_id18_im11.bmp,['Im_RyanReynolds.png', 'Im_RyanGosling.png', 'Im_ElijahWood.png', 'Im_HughJackman.png', 'Im_RobertDowneyJr.png', 'Im_RobertPattinson.png', 'Im_MattDamon.png', 'Im_LeonardoDiCaprio.png', 'Im_BenAffleck.png', 'Im_KeanuReeves.png'],diff,0,0.4916754000005312,2,90.47619047619048,
BECO2507,9,inv,fs,posfs_id1_im4.bmp_posfs_id21_im17.bmp,['Im_RyanReynolds.png', 'Im_RyanGosling.png', 'Im_ElijahWood.png', 'Im_HughJackman.png', 'Im_RobertDowneyJr.png', 'Im_RobertPattinson.png', 'Im_MattDamon.png', 'Im_LeonardoDiCaprio.png', 'Im_BenAffleck.png', 'Im_KeanuReeves.png'],diff,1,0.42481169999882695,3,90.47619047619048,
BECO2507,9,inv,120,pos120_id20_im12.bmp_pos120_id13_im29.bmp,['Im_RyanReynolds.png', 'Im_RyanGosling.png', 'Im_ElijahWood.png', 'Im_HughJackman.png', 'Im_RobertDowneyJr.png', 'Im_RobertPattinson.png', 'Im_MattDamon.png', 'Im_LeonardoDiCaprio.png', 'Im_BenAffleck.png', 'Im_KeanuReeves.png'],diff,1,0.40861170000061975,4,90.47619047619048,
BECO2507,9,inv,0,pos0_id13_im10.bmp_pos0_id14_im18.bmp,['Im_RyanReynolds.png', 'Im_RyanGosling.png', 'Im_ElijahWood.png', 'Im_HughJackman.png', 'Im_RobertDowneyJr.png', 'Im_RobertPattinson.png', 'Im_MattDamon.png', 'Im_LeonardoDiCaprio.png', 'Im_BenAffleck.png', 'Im_KeanuReeves.png'],same,0,0.6420353000012256,4,90.47619047619048,
BECO2507,9,inv,fs,posfs_id13_im29.bmp_posfs_id20_im12.bmp,['Im_RyanReynolds.png', 'Im_RyanGosling.png', 'Im_ElijahWood.png', 'Im_HughJackman.png', 'Im_RobertDowneyJr.png', 'Im_RobertPattinson.png', 'Im_MattDamon.png', 'Im_LeonardoDiCaprio.png', 'Im_BenAffleck.png', 'Im_KeanuReeves.png'],diff,1,0.41678110000066226,5,90.47619047619048,
BECO2507,9,inv,30,pos30_id13_im15.bmp_pos30_id13_im29.bmp,['Im_RyanReynolds.png', 'Im_RyanGosling.png', 'Im_ElijahWood.png', 'Im_HughJackman.png', 'Im_RobertDowneyJr.png', 'Im_RobertPattinson.png', 'Im_MattDamon.png', 'Im_LeonardoDiCaprio.png', 'Im_BenAffleck.png', 'Im_KeanuReeves.png'],same,1,0.6002541000016208,6,90.47619047619048,
BECO2507,9,inv,30,pos30_id13_im29.bmp_pos30_id20_im12.bmp,['Im_RyanReynolds.png', 'Im_RyanGosling.png', 'Im_ElijahWood.png', 'Im_HughJackman.png', 'Im_RobertDowneyJr.png', 'Im_RobertPattinson.png', 'Im_MattDamon.png', 'Im_LeonardoDiCaprio.png', 'Im_BenAffleck.png', 'Im_KeanuReeves.png'],diff,1,0.42504120000012335,7,90.47619047619048,
BECO2507,9,inv,90,pos90_id1_im4.bmp_pos90_id21_im17.bmp,['Im_RyanReynolds.png', 'Im_RyanGosling.png', 'Im_ElijahWood.png', 'Im_HughJackman.png', 'Im_RobertDowneyJr.png', 'Im_RobertPattinson.png', 'Im_MattDamon.png', 'Im_LeonardoDiCaprio.png', 'Im_BenAffleck.png', 'Im_KeanuReeves.png'],diff,1,1.3831685000004654,8,90.47619047619048,
BECO2507,9,inv,60,pos60_id6_im19.bmp_pos60_id6_im18.bmp,['Im_RyanReynolds.png', 'Im_RyanGosling.png', 'Im_ElijahWood.png', 'Im_HughJackman.png', 'Im_RobertDowneyJr.png', 'Im_RobertPattinson.png', 'Im_MattDamon.png', 'Im_LeonardoDiCaprio.png', 'Im_BenAffleck.png', 'Im_KeanuReeves.png'],same,1,0.4250302999989799,9,90.47619047619048,
BECO2507,9,inv,0,pos0_id8_im20.bmp_pos0_id19_im4.bmp,['Im_RyanReynolds.png', 'Im_RyanGosling.png', 'Im_ElijahWood.png', 'Im_HughJackman.png', 'Im_RobertDowneyJr.png', 'Im_RobertPattinson.png', 'Im_MattDamon.png', 'Im_LeonardoDiCaprio.png', 'Im_BenAffleck.png', 'Im_KeanuReeves.png'],diff,1,0.4588218000008055,10,90.47619047619048,
BECO2507,9,inv,150,pos150_id11_im10.bmp_pos150_id18_im18.bmp,['Im_RyanReynolds.png', 'Im_RyanGosling.png', 'Im_ElijahWood.png', 'Im_HughJackman.png', 'Im_RobertDowneyJr.png', 'Im_RobertPattinson.png', 'Im_MattDamon.png', 'Im_LeonardoDiCaprio.png', 'Im_BenAffleck.png', 'Im_KeanuReeves.png'],diff,1,0.4173850000006496,11,90.47619047619048,
BECO2507,9,inv,60,pos60_id8_im21.bmp_pos60_id8_im13.bmp,['Im_RyanReynolds.png', 'Im_RyanGosling.png', 'Im_ElijahWood.png', 'Im_HughJackman.png', 'Im_RobertDowneyJr.png', 'Im_RobertPattinson.png', 'Im_MattDamon.png', 'Im_LeonardoDiCaprio.png', 'Im_BenAffleck.png', 'Im_KeanuReeves.png'],diff,0,0.4832531000010931,11,90.47619047619048,
BECO2507,10,neg,0,neg0_id8_im13.bmp_neg0_id21_im17.bmp,['Im_RyanReynolds.png', 'Im_RyanGosling.png', 'Im_ElijahWood.png', 'Im_HughJackman.png', 'Im_RobertDowneyJr.png', 'Im_RobertPattinson.png', 'Im_MattDamon.png', 'Im_LeonardoDiCaprio.png', 'Im_BenAffleck.png', 'Im_KeanuReeves.png'],same,0,0.42505699999856006,11,90.47619047619048,
