Sujet,Trial,Condition,Filter,Imname,Actor0,Actor1,Actor2,Actor3,Actor4,Actor5,Actor6,Actor7,Actor8,Actor9,Answer,Accu,RT,Score,Scoreperc, 
BECO2507,train,inv,fs,posfs_id19_im8.bmp_posfs_id14_im24.bmp,['Im_RobertDowneyJr.png', 'Im_HughJackman.png', 'Im_KeanuReeves.png', 'Im_BenAffleck.png', 'Im_RobertPattinson.png', 'Im_LeonardoDiCaprio.png', 'Im_RyanReynolds.png', 'Im_ElijahWood.png', 'Im_RyanGosling.png', 'Im_MattDamon.png'],same,0,4.133537000001525,0,0,
BECO2507,train,inv,60,pos60_id21_im16.bmp_pos60_id21_im17.bmp,['Im_RobertDowneyJr.png', 'Im_HughJackman.png', 'Im_KeanuReeves.png', 'Im_BenAffleck.png', 'Im_RobertPattinson.png', 'Im_LeonardoDiCaprio.png', 'Im_RyanReynolds.png', 'Im_ElijahWood.png', 'Im_RyanGosling.png', 'Im_MattDamon.png'],diff,0,0.408377499999915,0,0,
BECO2507,train,inv,30,pos30_id8_im13.bmp_pos30_id21_im17.bmp,['Im_RobertDowneyJr.png', 'Im_HughJackman.png', 'Im_KeanuReeves.png', 'Im_BenAffleck.png', 'Im_RobertPattinson.png', 'Im_LeonardoDiCaprio.png', 'Im_RyanReynolds.png', 'Im_ElijahWood.png', 'Im_RyanGosling.png', 'Im_MattDamon.png'],diff,1,0.8000299999985145,1,0,
BECO2507,train,inv,150,pos150_id21_im22.bmp_pos150_id18_im19.bmp,['Im_RobertDowneyJr.png', 'Im_HughJackman.png', 'Im_KeanuReeves.png', 'Im_BenAffleck.png', 'Im_RobertPattinson.png', 'Im_LeonardoDiCaprio.png', 'Im_RyanReynolds.png', 'Im_ElijahWood.png', 'Im_RyanGosling.png', 'Im_MattDamon.png'],diff,1,0.5751618000031158,2,0,
BECO2507,train,inv,30,pos30_id20_im30.bmp_pos30_id20_im3.bmp,['Im_RobertDowneyJr.png', 'Im_HughJackman.png', 'Im_KeanuReeves.png', 'Im_BenAffleck.png', 'Im_RobertPattinson.png', 'Im_LeonardoDiCaprio.png', 'Im_RyanReynolds.png', 'Im_ElijahWood.png', 'Im_RyanGosling.png', 'Im_MattDamon.png'],diff,0,0.40837159999864525,2,0,
BECO2507,train,inv,90,pos90_id14_im18.bmp_pos90_id6_im18.bmp,['Im_RobertDowneyJr.png', 'Im_HughJackman.png', 'Im_KeanuReeves.png', 'Im_BenAffleck.png', 'Im_RobertPattinson.png', 'Im_LeonardoDiCaprio.png', 'Im_RyanReynolds.png', 'Im_ElijahWood.png', 'Im_RyanGosling.png', 'Im_MattDamon.png'],same,0,0.5250141999968037,2,0,
BECO2507,train,inv,0,pos0_id21_im22.bmp_pos0_id18_im18.bmp,['Im_RobertDowneyJr.png', 'Im_HughJackman.png', 'Im_KeanuReeves.png', 'Im_BenAffleck.png', 'Im_RobertPattinson.png', 'Im_LeonardoDiCaprio.png', 'Im_RyanReynolds.png', 'Im_ElijahWood.png', 'Im_RyanGosling.png', 'Im_MattDamon.png'],diff,1,0.7917951000017638,3,0,
BECO2507,train,inv,90,pos90_id13_im10.bmp_pos90_id13_im15.bmp,['Im_RobertDowneyJr.png', 'Im_HughJackman.png', 'Im_KeanuReeves.png', 'Im_BenAffleck.png', 'Im_RobertPattinson.png', 'Im_LeonardoDiCaprio.png', 'Im_RyanReynolds.png', 'Im_ElijahWood.png', 'Im_RyanGosling.png', 'Im_MattDamon.png'],same,1,0.42522420000022976,4,0,
BECO2507,train,inv,150,pos150_id14_im24.bmp_pos150_id14_im16.bmp,['Im_RobertDowneyJr.png', 'Im_HughJackman.png', 'Im_KeanuReeves.png', 'Im_BenAffleck.png', 'Im_RobertPattinson.png', 'Im_LeonardoDiCaprio.png', 'Im_RyanReynolds.png', 'Im_ElijahWood.png', 'Im_RyanGosling.png', 'Im_MattDamon.png'],same,1,0.7832471000001533,5,0,
BECO2507,train,inv,120,pos120_id19_im27.bmp_pos120_id19_im8.bmp,['Im_RobertDowneyJr.png', 'Im_HughJackman.png', 'Im_KeanuReeves.png', 'Im_BenAffleck.png', 'Im_RobertPattinson.png', 'Im_LeonardoDiCaprio.png', 'Im_RyanReynolds.png', 'Im_ElijahWood.png', 'Im_RyanGosling.png', 'Im_MattDamon.png'],same,1,0.44206970000232104,6,0,
BECO2507,train,inv,0,pos0_id21_im22.bmp_pos0_id21_im16.bmp,['Im_RobertDowneyJr.png', 'Im_HughJackman.png', 'Im_KeanuReeves.png', 'Im_BenAffleck.png', 'Im_RobertPattinson.png', 'Im_LeonardoDiCaprio.png', 'Im_RyanReynolds.png', 'Im_ElijahWood.png', 'Im_RyanGosling.png', 'Im_MattDamon.png'],same,1,0.41671990000031656,7,0,
BECO2507,train,inv,60,pos60_id20_im12.bmp_pos60_id11_im1.bmp,['Im_RobertDowneyJr.png', 'Im_HughJackman.png', 'Im_KeanuReeves.png', 'Im_BenAffleck.png', 'Im_RobertPattinson.png', 'Im_LeonardoDiCaprio.png', 'Im_RyanReynolds.png', 'Im_ElijahWood.png', 'Im_RyanGosling.png', 'Im_MattDamon.png'],diff,1,0.4250138999996125,8,0,
BECO2507,train,inv,120,pos120_id8_im21.bmp_pos120_id19_im4.bmp,['Im_RobertDowneyJr.png', 'Im_HughJackman.png', 'Im_KeanuReeves.png', 'Im_BenAffleck.png', 'Im_RobertPattinson.png', 'Im_LeonardoDiCaprio.png', 'Im_RyanReynolds.png', 'Im_ElijahWood.png', 'Im_RyanGosling.png', 'Im_MattDamon.png'],diff,1,0.4083740999994916,9,0,
BECO2507,train,inv,fs,posfs_id8_im20.bmp_posfs_id1_im21.bmp,['Im_RobertDowneyJr.png', 'Im_HughJackman.png', 'Im_KeanuReeves.png', 'Im_BenAffleck.png', 'Im_RobertPattinson.png', 'Im_LeonardoDiCaprio.png', 'Im_RyanReynolds.png', 'Im_ElijahWood.png', 'Im_RyanGosling.png', 'Im_MattDamon.png'],diff,1,0.4167608999996446,10,0,
BECO2507,train,pos,fs,posfs_id13_im29.bmp_posfs_id13_im15.bmp,['Im_RobertDowneyJr.png', 'Im_HughJackman.png', 'Im_KeanuReeves.png', 'Im_BenAffleck.png', 'Im_RobertPattinson.png', 'Im_LeonardoDiCaprio.png', 'Im_RyanReynolds.png', 'Im_ElijahWood.png', 'Im_RyanGosling.png', 'Im_MattDamon.png'],diff,0,0.41673309999896446,10,0,
BECO2507,train,pos,fs,posfs_id18_im19.bmp_posfs_id20_im3.bmp,['Im_RobertDowneyJr.png', 'Im_HughJackman.png', 'Im_KeanuReeves.png', 'Im_BenAffleck.png', 'Im_RobertPattinson.png', 'Im_LeonardoDiCaprio.png', 'Im_RyanReynolds.png', 'Im_ElijahWood.png', 'Im_RyanGosling.png', 'Im_MattDamon.png'],diff,1,0.4250452000014775,11,0,
BECO2507,train,pos,150,pos150_id1_im21.bmp_pos150_id14_im16.bmp,['Im_RobertDowneyJr.png', 'Im_HughJackman.png', 'Im_KeanuReeves.png', 'Im_BenAffleck.png', 'Im_RobertPattinson.png', 'Im_LeonardoDiCaprio.png', 'Im_RyanReynolds.png', 'Im_ElijahWood.png', 'Im_RyanGosling.png', 'Im_MattDamon.png'],diff,1,1.0751717999992252,12,0,
BECO2507,train,pos,120,pos120_id8_im13.bmp_pos120_id8_im21.bmp,['Im_RobertDowneyJr.png', 'Im_HughJackman.png', 'Im_KeanuReeves.png', 'Im_BenAffleck.png', 'Im_RobertPattinson.png', 'Im_LeonardoDiCaprio.png', 'Im_RyanReynolds.png', 'Im_ElijahWood.png', 'Im_RyanGosling.png', 'Im_MattDamon.png'],same,1,0.4416041000004043,13,0,
BECO2507,train,pos,0,pos0_id1_im4.bmp_pos0_id11_im2.bmp,['Im_RobertDowneyJr.png', 'Im_HughJackman.png', 'Im_KeanuReeves.png', 'Im_BenAffleck.png', 'Im_RobertPattinson.png', 'Im_LeonardoDiCaprio.png', 'Im_RyanReynolds.png', 'Im_ElijahWood.png', 'Im_RyanGosling.png', 'Im_MattDamon.png'],diff,1,0.41670999999769265,14,0,
BECO2507,train,pos,0,pos0_id11_im10.bmp_pos0_id11_im1.bmp,['Im_RobertDowneyJr.png', 'Im_HughJackman.png', 'Im_KeanuReeves.png', 'Im_BenAffleck.png', 'Im_RobertPattinson.png', 'Im_LeonardoDiCaprio.png', 'Im_RyanReynolds.png', 'Im_ElijahWood.png', 'Im_RyanGosling.png', 'Im_MattDamon.png'],diff,0,0.583475700001145,14,0,
BECO2507,train,pos,30,pos30_id1_im4.bmp_pos30_id11_im2.bmp,['Im_RobertDowneyJr.png', 'Im_HughJackman.png', 'Im_KeanuReeves.png', 'Im_BenAffleck.png', 'Im_RobertPattinson.png', 'Im_LeonardoDiCaprio.png', 'Im_RyanReynolds.png', 'Im_ElijahWood.png', 'Im_RyanGosling.png', 'Im_MattDamon.png'],diff,1,0.4166624999998021,15,0,
BECO2507,train,pos,150,pos150_id13_im10.bmp_pos150_id19_im8.bmp,['Im_RobertDowneyJr.png', 'Im_HughJackman.png', 'Im_KeanuReeves.png', 'Im_BenAffleck.png', 'Im_RobertPattinson.png', 'Im_LeonardoDiCaprio.png', 'Im_RyanReynolds.png', 'Im_ElijahWood.png', 'Im_RyanGosling.png', 'Im_MattDamon.png'],diff,1,0.4083989999999176,16,0,
BECO2507,train,pos,120,pos120_id1_im24.bmp_pos120_id1_im21.bmp,['Im_RobertDowneyJr.png', 'Im_HughJackman.png', 'Im_KeanuReeves.png', 'Im_BenAffleck.png', 'Im_RobertPattinson.png', 'Im_LeonardoDiCaprio.png', 'Im_RyanReynolds.png', 'Im_ElijahWood.png', 'Im_RyanGosling.png', 'Im_MattDamon.png'],same,1,0.40841100000034203,17,0,
BECO2507,train,pos,90,pos90_id11_im1.bmp_pos90_id11_im2.bmp,['Im_RobertDowneyJr.png', 'Im_HughJackman.png', 'Im_KeanuReeves.png', 'Im_BenAffleck.png', 'Im_RobertPattinson.png', 'Im_LeonardoDiCaprio.png', 'Im_RyanReynolds.png', 'Im_ElijahWood.png', 'Im_RyanGosling.png', 'Im_MattDamon.png'],same,1,0.4084145999986504,18,0,
BECO2507,train,pos,60,pos60_id20_im12.bmp_pos60_id20_im3.bmp,['Im_RobertDowneyJr.png', 'Im_HughJackman.png', 'Im_KeanuReeves.png', 'Im_BenAffleck.png', 'Im_RobertPattinson.png', 'Im_LeonardoDiCaprio.png', 'Im_RyanReynolds.png', 'Im_ElijahWood.png', 'Im_RyanGosling.png', 'Im_MattDamon.png'],same,1,0.4079079000002821,19,0,
BECO2507,train,pos,90,pos90_id19_im27.bmp_pos90_id19_im8.bmp,['Im_RobertDowneyJr.png', 'Im_HughJackman.png', 'Im_KeanuReeves.png', 'Im_BenAffleck.png', 'Im_RobertPattinson.png', 'Im_LeonardoDiCaprio.png', 'Im_RyanReynolds.png', 'Im_ElijahWood.png', 'Im_RyanGosling.png', 'Im_MattDamon.png'],same,1,0.42509380000046804,20,0,
BECO2507,train,pos,30,pos30_id19_im8.bmp_pos30_id19_im27.bmp,['Im_RobertDowneyJr.png', 'Im_HughJackman.png', 'Im_KeanuReeves.png', 'Im_BenAffleck.png', 'Im_RobertPattinson.png', 'Im_LeonardoDiCaprio.png', 'Im_RyanReynolds.png', 'Im_ElijahWood.png', 'Im_RyanGosling.png', 'Im_MattDamon.png'],same,1,0.4250978000018222,21,0,
BECO2507,train,pos,60,pos60_id11_im2.bmp_pos60_id11_im1.bmp,['Im_RobertDowneyJr.png', 'Im_HughJackman.png', 'Im_KeanuReeves.png', 'Im_BenAffleck.png', 'Im_RobertPattinson.png', 'Im_LeonardoDiCaprio.png', 'Im_RyanReynolds.png', 'Im_ElijahWood.png', 'Im_RyanGosling.png', 'Im_MattDamon.png'],same,1,0.40838649999932386,22,0,
BECO2507,train,neg,30,neg30_id11_im1.bmp_neg30_id20_im12.bmp,['Im_RobertDowneyJr.png', 'Im_HughJackman.png', 'Im_KeanuReeves.png', 'Im_BenAffleck.png', 'Im_RobertPattinson.png', 'Im_LeonardoDiCaprio.png', 'Im_RyanReynolds.png', 'Im_ElijahWood.png', 'Im_RyanGosling.png', 'Im_MattDamon.png'],same,0,0.4167312999998103,22,0,
BECO2507,train,neg,150,neg150_id11_im2.bmp_neg150_id11_im1.bmp,['Im_RobertDowneyJr.png', 'Im_HughJackman.png', 'Im_KeanuReeves.png', 'Im_BenAffleck.png', 'Im_RobertPattinson.png', 'Im_LeonardoDiCaprio.png', 'Im_RyanReynolds.png', 'Im_ElijahWood.png', 'Im_RyanGosling.png', 'Im_MattDamon.png'],same,1,0.41656940000029863,23,0,
BECO2507,train,neg,60,neg60_id8_im21.bmp_neg60_id20_im30.bmp,['Im_RobertDowneyJr.png', 'Im_HughJackman.png', 'Im_KeanuReeves.png', 'Im_BenAffleck.png', 'Im_RobertPattinson.png', 'Im_LeonardoDiCaprio.png', 'Im_RyanReynolds.png', 'Im_ElijahWood.png', 'Im_RyanGosling.png', 'Im_MattDamon.png'],same,0,0.4750887000009243,23,0,
BECO2507,train,neg,120,neg120_id1_im21.bmp_neg120_id1_im24.bmp,['Im_RobertDowneyJr.png', 'Im_HughJackman.png', 'Im_KeanuReeves.png', 'Im_BenAffleck.png', 'Im_RobertPattinson.png', 'Im_LeonardoDiCaprio.png', 'Im_RyanReynolds.png', 'Im_ElijahWood.png', 'Im_RyanGosling.png', 'Im_MattDamon.png'],same,1,0.5000910999988264,24,0,
BECO2507,train,neg,30,neg30_id19_im8.bmp_neg30_id14_im24.bmp,['Im_RobertDowneyJr.png', 'Im_HughJackman.png', 'Im_KeanuReeves.png', 'Im_BenAffleck.png', 'Im_RobertPattinson.png', 'Im_LeonardoDiCaprio.png', 'Im_RyanReynolds.png', 'Im_ElijahWood.png', 'Im_RyanGosling.png', 'Im_MattDamon.png'],same,0,0.40838439999788534,24,0,
BECO2507,train,neg,fs,negfs_id6_im18.bmp_negfs_id6_im19.bmp,['Im_RobertDowneyJr.png', 'Im_HughJackman.png', 'Im_KeanuReeves.png', 'Im_BenAffleck.png', 'Im_RobertPattinson.png', 'Im_LeonardoDiCaprio.png', 'Im_RyanReynolds.png', 'Im_ElijahWood.png', 'Im_RyanGosling.png', 'Im_MattDamon.png'],same,1,0.4250542999980098,25,0,
BECO2507,train,neg,90,neg90_id18_im19.bmp_neg90_id21_im22.bmp,['Im_RobertDowneyJr.png', 'Im_HughJackman.png', 'Im_KeanuReeves.png', 'Im_BenAffleck.png', 'Im_RobertPattinson.png', 'Im_LeonardoDiCaprio.png', 'Im_RyanReynolds.png', 'Im_ElijahWood.png', 'Im_RyanGosling.png', 'Im_MattDamon.png'],diff,1,0.5917584000017087,26,0,
BECO2507,train,neg,90,neg90_id19_im27.bmp_neg90_id19_im8.bmp,['Im_RobertDowneyJr.png', 'Im_HughJackman.png', 'Im_KeanuReeves.png', 'Im_BenAffleck.png', 'Im_RobertPattinson.png', 'Im_LeonardoDiCaprio.png', 'Im_RyanReynolds.png', 'Im_ElijahWood.png', 'Im_RyanGosling.png', 'Im_MattDamon.png'],same,1,0.42504529999860097,27,0,
BECO2507,train,neg,150,neg150_id14_im18.bmp_neg150_id14_im24.bmp,['Im_RobertDowneyJr.png', 'Im_HughJackman.png', 'Im_KeanuReeves.png', 'Im_BenAffleck.png', 'Im_RobertPattinson.png', 'Im_LeonardoDiCaprio.png', 'Im_RyanReynolds.png', 'Im_ElijahWood.png', 'Im_RyanGosling.png', 'Im_MattDamon.png'],same,1,0.4167261000002327,28,0,
BECO2507,train,neg,fs,negfs_id8_im20.bmp_negfs_id8_im13.bmp,['Im_RobertDowneyJr.png', 'Im_HughJackman.png', 'Im_KeanuReeves.png', 'Im_BenAffleck.png', 'Im_RobertPattinson.png', 'Im_LeonardoDiCaprio.png', 'Im_RyanReynolds.png', 'Im_ElijahWood.png', 'Im_RyanGosling.png', 'Im_MattDamon.png'],diff,0,0.4084327000018675,28,0,
BECO2507,train,neg,120,neg120_id11_im10.bmp_neg120_id20_im3.bmp,['Im_RobertDowneyJr.png', 'Im_HughJackman.png', 'Im_KeanuReeves.png', 'Im_BenAffleck.png', 'Im_RobertPattinson.png', 'Im_LeonardoDiCaprio.png', 'Im_RyanReynolds.png', 'Im_ElijahWood.png', 'Im_RyanGosling.png', 'Im_MattDamon.png'],same,0,0.42506199999843375,28,0,
BECO2507,train,neg,0,neg0_id21_im22.bmp_neg0_id21_im16.bmp,['Im_RobertDowneyJr.png', 'Im_HughJackman.png', 'Im_KeanuReeves.png', 'Im_BenAffleck.png', 'Im_RobertPattinson.png', 'Im_LeonardoDiCaprio.png', 'Im_RyanReynolds.png', 'Im_ElijahWood.png', 'Im_RyanGosling.png', 'Im_MattDamon.png'],same,1,0.7333576000019093,29,0,
BECO2507,train,neg,60,neg60_id13_im15.bmp_neg60_id18_im11.bmp,['Im_RobertDowneyJr.png', 'Im_HughJackman.png', 'Im_KeanuReeves.png', 'Im_BenAffleck.png', 'Im_RobertPattinson.png', 'Im_LeonardoDiCaprio.png', 'Im_RyanReynolds.png', 'Im_ElijahWood.png', 'Im_RyanGosling.png', 'Im_MattDamon.png'],same,0,0.5752085999993142,29,0,
BECO2507,train,neg,0,neg0_id19_im8.bmp_neg0_id19_im4.bmp,['Im_RobertDowneyJr.png', 'Im_HughJackman.png', 'Im_KeanuReeves.png', 'Im_BenAffleck.png', 'Im_RobertPattinson.png', 'Im_LeonardoDiCaprio.png', 'Im_RyanReynolds.png', 'Im_ElijahWood.png', 'Im_RyanGosling.png', 'Im_MattDamon.png'],same,1,0.45856929999717977,30,0,
BECO2507,train,inv,fs,posfs_id6_im12.bmp_posfs_id11_im1.bmp,['Im_RobertDowneyJr.png', 'Im_HughJackman.png', 'Im_KeanuReeves.png', 'Im_BenAffleck.png', 'Im_RobertPattinson.png', 'Im_LeonardoDiCaprio.png', 'Im_RyanReynolds.png', 'Im_ElijahWood.png', 'Im_RyanGosling.png', 'Im_MattDamon.png'],diff,1,0.4164716999985103,1,71.42857142857143,
BECO2507,train,inv,90,pos90_id14_im24.bmp_pos90_id19_im8.bmp,['Im_RobertDowneyJr.png', 'Im_HughJackman.png', 'Im_KeanuReeves.png', 'Im_BenAffleck.png', 'Im_RobertPattinson.png', 'Im_LeonardoDiCaprio.png', 'Im_RyanReynolds.png', 'Im_ElijahWood.png', 'Im_RyanGosling.png', 'Im_MattDamon.png'],diff,1,0.4250395999988541,2,71.42857142857143,
BECO2507,train,inv,0,pos0_id18_im19.bmp_pos0_id18_im11.bmp,['Im_RobertDowneyJr.png', 'Im_HughJackman.png', 'Im_KeanuReeves.png', 'Im_BenAffleck.png', 'Im_RobertPattinson.png', 'Im_LeonardoDiCaprio.png', 'Im_RyanReynolds.png', 'Im_ElijahWood.png', 'Im_RyanGosling.png', 'Im_MattDamon.png'],same,1,0.8085979999996198,3,71.42857142857143,
BECO2507,train,inv,fs,posfs_id6_im18.bmp_posfs_id6_im12.bmp,['Im_RobertDowneyJr.png', 'Im_HughJackman.png', 'Im_KeanuReeves.png', 'Im_BenAffleck.png', 'Im_RobertPattinson.png', 'Im_LeonardoDiCaprio.png', 'Im_RyanReynolds.png', 'Im_ElijahWood.png', 'Im_RyanGosling.png', 'Im_MattDamon.png'],same,1,0.499812900001416,4,71.42857142857143,
BECO2507,train,inv,60,pos60_id14_im16.bmp_pos60_id6_im19.bmp,['Im_RobertDowneyJr.png', 'Im_HughJackman.png', 'Im_KeanuReeves.png', 'Im_BenAffleck.png', 'Im_RobertPattinson.png', 'Im_LeonardoDiCaprio.png', 'Im_RyanReynolds.png', 'Im_ElijahWood.png', 'Im_RyanGosling.png', 'Im_MattDamon.png'],diff,1,0.4416340999996464,5,71.42857142857143,
BECO2507,train,inv,120,pos120_id1_im24.bmp_pos120_id6_im18.bmp,['Im_RobertDowneyJr.png', 'Im_HughJackman.png', 'Im_KeanuReeves.png', 'Im_BenAffleck.png', 'Im_RobertPattinson.png', 'Im_LeonardoDiCaprio.png', 'Im_RyanReynolds.png', 'Im_ElijahWood.png', 'Im_RyanGosling.png', 'Im_MattDamon.png'],same,0,0.4335016999975778,5,71.42857142857143,
BECO2507,train,inv,90,pos90_id13_im29.bmp_pos90_id11_im2.bmp,['Im_RobertDowneyJr.png', 'Im_HughJackman.png', 'Im_KeanuReeves.png', 'Im_BenAffleck.png', 'Im_RobertPattinson.png', 'Im_LeonardoDiCaprio.png', 'Im_RyanReynolds.png', 'Im_ElijahWood.png', 'Im_RyanGosling.png', 'Im_MattDamon.png'],same,0,0.58391489999849,5,71.42857142857143,
BECO2507,train,inv,60,pos60_id19_im4.bmp_pos60_id8_im20.bmp,['Im_RobertDowneyJr.png', 'Im_HughJackman.png', 'Im_KeanuReeves.png', 'Im_BenAffleck.png', 'Im_RobertPattinson.png', 'Im_LeonardoDiCaprio.png', 'Im_RyanReynolds.png', 'Im_ElijahWood.png', 'Im_RyanGosling.png', 'Im_MattDamon.png'],same,0,1.2836997999984305,5,71.42857142857143,
BECO2507,train,inv,120,pos120_id11_im2.bmp_pos120_id11_im10.bmp,['Im_RobertDowneyJr.png', 'Im_HughJackman.png', 'Im_KeanuReeves.png', 'Im_BenAffleck.png', 'Im_RobertPattinson.png', 'Im_LeonardoDiCaprio.png', 'Im_RyanReynolds.png', 'Im_ElijahWood.png', 'Im_RyanGosling.png', 'Im_MattDamon.png'],diff,0,0.6250305000030494,5,71.42857142857143,
BECO2507,train,inv,0,pos0_id8_im13.bmp_pos0_id14_im24.bmp,['Im_RobertDowneyJr.png', 'Im_HughJackman.png', 'Im_KeanuReeves.png', 'Im_BenAffleck.png', 'Im_RobertPattinson.png', 'Im_LeonardoDiCaprio.png', 'Im_RyanReynolds.png', 'Im_ElijahWood.png', 'Im_RyanGosling.png', 'Im_MattDamon.png'],diff,1,0.7666404999981751,6,71.42857142857143,
BECO2507,train,inv,150,pos150_id18_im11.bmp_pos150_id13_im15.bmp,['Im_RobertDowneyJr.png', 'Im_HughJackman.png', 'Im_KeanuReeves.png', 'Im_BenAffleck.png', 'Im_RobertPattinson.png', 'Im_LeonardoDiCaprio.png', 'Im_RyanReynolds.png', 'Im_ElijahWood.png', 'Im_RyanGosling.png', 'Im_MattDamon.png'],diff,1,0.9581347000021196,7,71.42857142857143,
BECO2507,train,inv,30,pos30_id20_im30.bmp_pos30_id8_im21.bmp,['Im_RobertDowneyJr.png', 'Im_HughJackman.png', 'Im_KeanuReeves.png', 'Im_BenAffleck.png', 'Im_RobertPattinson.png', 'Im_LeonardoDiCaprio.png', 'Im_RyanReynolds.png', 'Im_ElijahWood.png', 'Im_RyanGosling.png', 'Im_MattDamon.png'],diff,1,0.4250727000035113,8,71.42857142857143,
BECO2507,train,inv,30,pos30_id18_im11.bmp_pos30_id20_im30.bmp,['Im_RobertDowneyJr.png', 'Im_HughJackman.png', 'Im_KeanuReeves.png', 'Im_BenAffleck.png', 'Im_RobertPattinson.png', 'Im_LeonardoDiCaprio.png', 'Im_RyanReynolds.png', 'Im_ElijahWood.png', 'Im_RyanGosling.png', 'Im_MattDamon.png'],same,0,0.8584312000020873,8,71.42857142857143,
BECO2507,train,inv,150,pos150_id20_im3.bmp_pos150_id18_im19.bmp,['Im_RobertDowneyJr.png', 'Im_HughJackman.png', 'Im_KeanuReeves.png', 'Im_BenAffleck.png', 'Im_RobertPattinson.png', 'Im_LeonardoDiCaprio.png', 'Im_RyanReynolds.png', 'Im_ElijahWood.png', 'Im_RyanGosling.png', 'Im_MattDamon.png'],diff,1,0.4083589999972901,9,71.42857142857143,
BECO2507,train,neg,120,neg120_id13_im10.bmp_neg120_id19_im8.bmp,['Im_RobertDowneyJr.png', 'Im_HughJackman.png', 'Im_KeanuReeves.png', 'Im_BenAffleck.png', 'Im_RobertPattinson.png', 'Im_LeonardoDiCaprio.png', 'Im_RyanReynolds.png', 'Im_ElijahWood.png', 'Im_RyanGosling.png', 'Im_MattDamon.png'],same,0,0.6832198000010976,9,71.42857142857143,
BECO2507,train,neg,fs,negfs_id11_im2.bmp_negfs_id13_im29.bmp,['Im_RobertDowneyJr.png', 'Im_HughJackman.png', 'Im_KeanuReeves.png', 'Im_BenAffleck.png', 'Im_RobertPattinson.png', 'Im_LeonardoDiCaprio.png', 'Im_RyanReynolds.png', 'Im_ElijahWood.png', 'Im_RyanGosling.png', 'Im_MattDamon.png'],diff,1,0.4333790999990015,10,71.42857142857143,
BECO2507,train,neg,0,neg0_id8_im20.bmp_neg0_id1_im21.bmp,['Im_RobertDowneyJr.png', 'Im_HughJackman.png', 'Im_KeanuReeves.png', 'Im_BenAffleck.png', 'Im_RobertPattinson.png', 'Im_LeonardoDiCaprio.png', 'Im_RyanReynolds.png', 'Im_ElijahWood.png', 'Im_RyanGosling.png', 'Im_MattDamon.png'],diff,1,0.8583198999986053,11,71.42857142857143,
BECO2507,train,neg,30,neg30_id20_im30.bmp_neg30_id20_im3.bmp,['Im_RobertDowneyJr.png', 'Im_HughJackman.png', 'Im_KeanuReeves.png', 'Im_BenAffleck.png', 'Im_RobertPattinson.png', 'Im_LeonardoDiCaprio.png', 'Im_RyanReynolds.png', 'Im_ElijahWood.png', 'Im_RyanGosling.png', 'Im_MattDamon.png'],same,1,1.408332099999825,12,71.42857142857143,
BECO2507,train,neg,60,neg60_id20_im30.bmp_neg60_id20_im3.bmp,['Im_RobertDowneyJr.png', 'Im_HughJackman.png', 'Im_KeanuReeves.png', 'Im_BenAffleck.png', 'Im_RobertPattinson.png', 'Im_LeonardoDiCaprio.png', 'Im_RyanReynolds.png', 'Im_ElijahWood.png', 'Im_RyanGosling.png', 'Im_MattDamon.png'],same,1,0.4499853000015719,13,71.42857142857143,
BECO2507,train,neg,0,neg0_id8_im20.bmp_neg0_id8_im21.bmp,['Im_RobertDowneyJr.png', 'Im_HughJackman.png', 'Im_KeanuReeves.png', 'Im_BenAffleck.png', 'Im_RobertPattinson.png', 'Im_LeonardoDiCaprio.png', 'Im_RyanReynolds.png', 'Im_ElijahWood.png', 'Im_RyanGosling.png', 'Im_MattDamon.png'],diff,0,0.5667808999969566,13,71.42857142857143,
BECO2507,train,neg,90,neg90_id18_im19.bmp_neg90_id18_im18.bmp,['Im_RobertDowneyJr.png', 'Im_HughJackman.png', 'Im_KeanuReeves.png', 'Im_BenAffleck.png', 'Im_RobertPattinson.png', 'Im_LeonardoDiCaprio.png', 'Im_RyanReynolds.png', 'Im_ElijahWood.png', 'Im_RyanGosling.png', 'Im_MattDamon.png'],same,1,0.48323709999749553,14,71.42857142857143,
BECO2507,train,neg,30,neg30_id14_im16.bmp_neg30_id14_im18.bmp,['Im_RobertDowneyJr.png', 'Im_HughJackman.png', 'Im_KeanuReeves.png', 'Im_BenAffleck.png', 'Im_RobertPattinson.png', 'Im_LeonardoDiCaprio.png', 'Im_RyanReynolds.png', 'Im_ElijahWood.png', 'Im_RyanGosling.png', 'Im_MattDamon.png'],same,1,0.7090642999974079,15,71.42857142857143,
BECO2507,train,neg,90,neg90_id11_im10.bmp_neg90_id20_im3.bmp,['Im_RobertDowneyJr.png', 'Im_HughJackman.png', 'Im_KeanuReeves.png', 'Im_BenAffleck.png', 'Im_RobertPattinson.png', 'Im_LeonardoDiCaprio.png', 'Im_RyanReynolds.png', 'Im_ElijahWood.png', 'Im_RyanGosling.png', 'Im_MattDamon.png'],same,0,0.4167446999999811,15,71.42857142857143,
BECO2507,train,neg,120,neg120_id14_im24.bmp_neg120_id14_im18.bmp,['Im_RobertDowneyJr.png', 'Im_HughJackman.png', 'Im_KeanuReeves.png', 'Im_BenAffleck.png', 'Im_RobertPattinson.png', 'Im_LeonardoDiCaprio.png', 'Im_RyanReynolds.png', 'Im_ElijahWood.png', 'Im_RyanGosling.png', 'Im_MattDamon.png'],diff,0,0.8250183999989531,15,71.42857142857143,
BECO2507,train,neg,150,neg150_id21_im17.bmp_neg150_id21_im22.bmp,['Im_RobertDowneyJr.png', 'Im_HughJackman.png', 'Im_KeanuReeves.png', 'Im_BenAffleck.png', 'Im_RobertPattinson.png', 'Im_LeonardoDiCaprio.png', 'Im_RyanReynolds.png', 'Im_ElijahWood.png', 'Im_RyanGosling.png', 'Im_MattDamon.png'],same,1,0.4252133000009053,16,71.42857142857143,
BECO2507,train,neg,60,neg60_id1_im21.bmp_neg60_id1_im4.bmp,['Im_RobertDowneyJr.png', 'Im_HughJackman.png', 'Im_KeanuReeves.png', 'Im_BenAffleck.png', 'Im_RobertPattinson.png', 'Im_LeonardoDiCaprio.png', 'Im_RyanReynolds.png', 'Im_ElijahWood.png', 'Im_RyanGosling.png', 'Im_MattDamon.png'],same,1,0.44994429999860586,17,71.42857142857143,
BECO2507,train,neg,150,neg150_id13_im10.bmp_neg150_id13_im15.bmp,['Im_RobertDowneyJr.png', 'Im_HughJackman.png', 'Im_KeanuReeves.png', 'Im_BenAffleck.png', 'Im_RobertPattinson.png', 'Im_LeonardoDiCaprio.png', 'Im_RyanReynolds.png', 'Im_ElijahWood.png', 'Im_RyanGosling.png', 'Im_MattDamon.png'],same,1,0.5418204999987211,18,71.42857142857143,
BECO2507,train,neg,fs,negfs_id1_im21.bmp_negfs_id1_im4.bmp,['Im_RobertDowneyJr.png', 'Im_HughJackman.png', 'Im_KeanuReeves.png', 'Im_BenAffleck.png', 'Im_RobertPattinson.png', 'Im_LeonardoDiCaprio.png', 'Im_RyanReynolds.png', 'Im_ElijahWood.png', 'Im_RyanGosling.png', 'Im_MattDamon.png'],same,1,0.42500830000062706,19,71.42857142857143,
BECO2507,train,pos,120,pos120_id13_im15.bmp_pos120_id19_im27.bmp,['Im_RobertDowneyJr.png', 'Im_HughJackman.png', 'Im_KeanuReeves.png', 'Im_BenAffleck.png', 'Im_RobertPattinson.png', 'Im_LeonardoDiCaprio.png', 'Im_RyanReynolds.png', 'Im_ElijahWood.png', 'Im_RyanGosling.png', 'Im_MattDamon.png'],diff,1,0.42500570000265725,20,71.42857142857143,
BECO2507,train,pos,30,pos30_id13_im29.bmp_pos30_id13_im10.bmp,['Im_RobertDowneyJr.png', 'Im_HughJackman.png', 'Im_KeanuReeves.png', 'Im_BenAffleck.png', 'Im_RobertPattinson.png', 'Im_LeonardoDiCaprio.png', 'Im_RyanReynolds.png', 'Im_ElijahWood.png', 'Im_RyanGosling.png', 'Im_MattDamon.png'],same,1,0.4249811999980011,21,71.42857142857143,
BECO2507,train,pos,150,pos150_id11_im1.bmp_pos150_id11_im10.bmp,['Im_RobertDowneyJr.png', 'Im_HughJackman.png', 'Im_KeanuReeves.png', 'Im_BenAffleck.png', 'Im_RobertPattinson.png', 'Im_LeonardoDiCaprio.png', 'Im_RyanReynolds.png', 'Im_ElijahWood.png', 'Im_RyanGosling.png', 'Im_MattDamon.png'],same,1,0.4332006000004185,22,71.42857142857143,
BECO2507,train,pos,150,pos150_id8_im21.bmp_pos150_id19_im4.bmp,['Im_RobertDowneyJr.png', 'Im_HughJackman.png', 'Im_KeanuReeves.png', 'Im_BenAffleck.png', 'Im_RobertPattinson.png', 'Im_LeonardoDiCaprio.png', 'Im_RyanReynolds.png', 'Im_ElijahWood.png', 'Im_RyanGosling.png', 'Im_MattDamon.png'],diff,1,0.42506330000105663,23,71.42857142857143,
BECO2507,train,pos,0,pos0_id6_im18.bmp_pos0_id6_im12.bmp,['Im_RobertDowneyJr.png', 'Im_HughJackman.png', 'Im_KeanuReeves.png', 'Im_BenAffleck.png', 'Im_RobertPattinson.png', 'Im_LeonardoDiCaprio.png', 'Im_RyanReynolds.png', 'Im_ElijahWood.png', 'Im_RyanGosling.png', 'Im_MattDamon.png'],same,1,0.4250198999980057,24,71.42857142857143,
BECO2507,train,pos,fs,posfs_id14_im24.bmp_posfs_id19_im8.bmp,['Im_RobertDowneyJr.png', 'Im_HughJackman.png', 'Im_KeanuReeves.png', 'Im_BenAffleck.png', 'Im_RobertPattinson.png', 'Im_LeonardoDiCaprio.png', 'Im_RyanReynolds.png', 'Im_ElijahWood.png', 'Im_RyanGosling.png', 'Im_MattDamon.png'],diff,1,0.43323269999746117,25,71.42857142857143,
BECO2507,train,pos,90,pos90_id19_im8.bmp_pos90_id13_im10.bmp,['Im_RobertDowneyJr.png', 'Im_HughJackman.png', 'Im_KeanuReeves.png', 'Im_BenAffleck.png', 'Im_RobertPattinson.png', 'Im_LeonardoDiCaprio.png', 'Im_RyanReynolds.png', 'Im_ElijahWood.png', 'Im_RyanGosling.png', 'Im_MattDamon.png'],diff,1,0.4250782999988587,26,71.42857142857143,
BECO2507,train,pos,0,pos0_id18_im18.bmp_pos0_id11_im10.bmp,['Im_RobertDowneyJr.png', 'Im_HughJackman.png', 'Im_KeanuReeves.png', 'Im_BenAffleck.png', 'Im_RobertPattinson.png', 'Im_LeonardoDiCaprio.png', 'Im_RyanReynolds.png', 'Im_ElijahWood.png', 'Im_RyanGosling.png', 'Im_MattDamon.png'],diff,1,0.4335425999997824,27,71.42857142857143,
BECO2507,train,pos,30,pos30_id14_im16.bmp_pos30_id14_im18.bmp,['Im_RobertDowneyJr.png', 'Im_HughJackman.png', 'Im_KeanuReeves.png', 'Im_BenAffleck.png', 'Im_RobertPattinson.png', 'Im_LeonardoDiCaprio.png', 'Im_RyanReynolds.png', 'Im_ElijahWood.png', 'Im_RyanGosling.png', 'Im_MattDamon.png'],same,1,0.4249210999987554,28,71.42857142857143,
BECO2507,train,pos,120,pos120_id8_im21.bmp_pos120_id20_im30.bmp,['Im_RobertDowneyJr.png', 'Im_HughJackman.png', 'Im_KeanuReeves.png', 'Im_BenAffleck.png', 'Im_RobertPattinson.png', 'Im_LeonardoDiCaprio.png', 'Im_RyanReynolds.png', 'Im_ElijahWood.png', 'Im_RyanGosling.png', 'Im_MattDamon.png'],diff,1,0.41669809999802965,29,71.42857142857143,
BECO2507,train,pos,60,pos60_id19_im8.bmp_pos60_id19_im4.bmp,['Im_RobertDowneyJr.png', 'Im_HughJackman.png', 'Im_KeanuReeves.png', 'Im_BenAffleck.png', 'Im_RobertPattinson.png', 'Im_LeonardoDiCaprio.png', 'Im_RyanReynolds.png', 'Im_ElijahWood.png', 'Im_RyanGosling.png', 'Im_MattDamon.png'],same,1,0.4833857000012358,30,71.42857142857143,
BECO2507,train,pos,fs,posfs_id11_im1.bmp_posfs_id11_im2.bmp,['Im_RobertDowneyJr.png', 'Im_HughJackman.png', 'Im_KeanuReeves.png', 'Im_BenAffleck.png', 'Im_RobertPattinson.png', 'Im_LeonardoDiCaprio.png', 'Im_RyanReynolds.png', 'Im_ElijahWood.png', 'Im_RyanGosling.png', 'Im_MattDamon.png'],same,1,0.4083768999989843,31,71.42857142857143,
BECO2507,train,pos,60,pos60_id21_im16.bmp_pos60_id21_im17.bmp,['Im_RobertDowneyJr.png', 'Im_HughJackman.png', 'Im_KeanuReeves.png', 'Im_BenAffleck.png', 'Im_RobertPattinson.png', 'Im_LeonardoDiCaprio.png', 'Im_RyanReynolds.png', 'Im_ElijahWood.png', 'Im_RyanGosling.png', 'Im_MattDamon.png'],same,1,0.4165876000006392,32,71.42857142857143,
BECO2507,train,pos,90,pos90_id20_im30.bmp_pos90_id18_im11.bmp,['Im_RobertDowneyJr.png', 'Im_HughJackman.png', 'Im_KeanuReeves.png', 'Im_BenAffleck.png', 'Im_RobertPattinson.png', 'Im_LeonardoDiCaprio.png', 'Im_RyanReynolds.png', 'Im_ElijahWood.png', 'Im_RyanGosling.png', 'Im_MattDamon.png'],diff,1,0.40844840000136173,33,71.42857142857143,
BECO2507,train,inv,0,pos0_id18_im18.bmp_pos0_id18_im11.bmp,['Im_RobertDowneyJr.png', 'Im_HughJackman.png', 'Im_KeanuReeves.png', 'Im_BenAffleck.png', 'Im_RobertPattinson.png', 'Im_LeonardoDiCaprio.png', 'Im_RyanReynolds.png', 'Im_ElijahWood.png', 'Im_RyanGosling.png', 'Im_MattDamon.png'],same,1,0.4917310000018915,1,78.57142857142857,
BECO2507,train,inv,150,pos150_id13_im10.bmp_pos150_id13_im29.bmp,['Im_RobertDowneyJr.png', 'Im_HughJackman.png', 'Im_KeanuReeves.png', 'Im_BenAffleck.png', 'Im_RobertPattinson.png', 'Im_LeonardoDiCaprio.png', 'Im_RyanReynolds.png', 'Im_ElijahWood.png', 'Im_RyanGosling.png', 'Im_MattDamon.png'],same,1,0.7082111999989138,2,78.57142857142857,
BECO2507,train,inv,30,pos30_id1_im24.bmp_pos30_id1_im4.bmp,['Im_RobertDowneyJr.png', 'Im_HughJackman.png', 'Im_KeanuReeves.png', 'Im_BenAffleck.png', 'Im_RobertPattinson.png', 'Im_LeonardoDiCaprio.png', 'Im_RyanReynolds.png', 'Im_ElijahWood.png', 'Im_RyanGosling.png', 'Im_MattDamon.png'],same,1,0.42522639999879175,3,78.57142857142857,
BECO2507,train,inv,30,pos30_id21_im22.bmp_pos30_id18_im18.bmp,['Im_RobertDowneyJr.png', 'Im_HughJackman.png', 'Im_KeanuReeves.png', 'Im_BenAffleck.png', 'Im_RobertPattinson.png', 'Im_LeonardoDiCaprio.png', 'Im_RyanReynolds.png', 'Im_ElijahWood.png', 'Im_RyanGosling.png', 'Im_MattDamon.png'],diff,1,0.41679929999736487,4,78.57142857142857,
BECO2507,train,inv,0,pos0_id21_im17.bmp_pos0_id1_im4.bmp,['Im_RobertDowneyJr.png', 'Im_HughJackman.png', 'Im_KeanuReeves.png', 'Im_BenAffleck.png', 'Im_RobertPattinson.png', 'Im_LeonardoDiCaprio.png', 'Im_RyanReynolds.png', 'Im_ElijahWood.png', 'Im_RyanGosling.png', 'Im_MattDamon.png'],same,0,0.40841999999975087,4,78.57142857142857,
BECO2507,train,inv,90,pos90_id14_im16.bmp_pos90_id6_im19.bmp,['Im_RobertDowneyJr.png', 'Im_HughJackman.png', 'Im_KeanuReeves.png', 'Im_BenAffleck.png', 'Im_RobertPattinson.png', 'Im_LeonardoDiCaprio.png', 'Im_RyanReynolds.png', 'Im_ElijahWood.png', 'Im_RyanGosling.png', 'Im_MattDamon.png'],same,0,0.45840409999800613,4,78.57142857142857,
BECO2507,train,inv,fs,posfs_id14_im24.bmp_posfs_id14_im16.bmp,['Im_RobertDowneyJr.png', 'Im_HughJackman.png', 'Im_KeanuReeves.png', 'Im_BenAffleck.png', 'Im_RobertPattinson.png', 'Im_LeonardoDiCaprio.png', 'Im_RyanReynolds.png', 'Im_ElijahWood.png', 'Im_RyanGosling.png', 'Im_MattDamon.png'],same,1,0.5667111000002478,5,78.57142857142857,
BECO2507,train,inv,60,pos60_id11_im2.bmp_pos60_id11_im10.bmp,['Im_RobertDowneyJr.png', 'Im_HughJackman.png', 'Im_KeanuReeves.png', 'Im_BenAffleck.png', 'Im_RobertPattinson.png', 'Im_LeonardoDiCaprio.png', 'Im_RyanReynolds.png', 'Im_ElijahWood.png', 'Im_RyanGosling.png', 'Im_MattDamon.png'],diff,0,0.4249363999988418,5,78.57142857142857,
BECO2507,train,inv,120,pos120_id18_im18.bmp_pos120_id21_im22.bmp,['Im_RobertDowneyJr.png', 'Im_HughJackman.png', 'Im_KeanuReeves.png', 'Im_BenAffleck.png', 'Im_RobertPattinson.png', 'Im_LeonardoDiCaprio.png', 'Im_RyanReynolds.png', 'Im_ElijahWood.png', 'Im_RyanGosling.png', 'Im_MattDamon.png'],diff,1,0.7167592000005243,6,78.57142857142857,
BECO2507,train,inv,60,pos60_id18_im18.bmp_pos60_id18_im19.bmp,['Im_RobertDowneyJr.png', 'Im_HughJackman.png', 'Im_KeanuReeves.png', 'Im_BenAffleck.png', 'Im_RobertPattinson.png', 'Im_LeonardoDiCaprio.png', 'Im_RyanReynolds.png', 'Im_ElijahWood.png', 'Im_RyanGosling.png', 'Im_MattDamon.png'],same,1,0.47507779999796185,7,78.57142857142857,
BECO2507,train,inv,90,pos90_id18_im19.bmp_pos90_id18_im18.bmp,['Im_RobertDowneyJr.png', 'Im_HughJackman.png', 'Im_KeanuReeves.png', 'Im_BenAffleck.png', 'Im_RobertPattinson.png', 'Im_LeonardoDiCaprio.png', 'Im_RyanReynolds.png', 'Im_ElijahWood.png', 'Im_RyanGosling.png', 'Im_MattDamon.png'],same,1,0.550070199999027,8,78.57142857142857,
BECO2507,train,inv,fs,posfs_id6_im19.bmp_posfs_id6_im18.bmp,['Im_RobertDowneyJr.png', 'Im_HughJackman.png', 'Im_KeanuReeves.png', 'Im_BenAffleck.png', 'Im_RobertPattinson.png', 'Im_LeonardoDiCaprio.png', 'Im_RyanReynolds.png', 'Im_ElijahWood.png', 'Im_RyanGosling.png', 'Im_MattDamon.png'],same,1,0.41669700000056764,9,78.57142857142857,
BECO2507,train,inv,150,pos150_id18_im11.bmp_pos150_id18_im18.bmp,['Im_RobertDowneyJr.png', 'Im_HughJackman.png', 'Im_KeanuReeves.png', 'Im_BenAffleck.png', 'Im_RobertPattinson.png', 'Im_LeonardoDiCaprio.png', 'Im_RyanReynolds.png', 'Im_ElijahWood.png', 'Im_RyanGosling.png', 'Im_MattDamon.png'],same,1,0.42503239999859943,10,78.57142857142857,
BECO2507,train,inv,120,pos120_id6_im19.bmp_pos120_id6_im18.bmp,['Im_RobertDowneyJr.png', 'Im_HughJackman.png', 'Im_KeanuReeves.png', 'Im_BenAffleck.png', 'Im_RobertPattinson.png', 'Im_LeonardoDiCaprio.png', 'Im_RyanReynolds.png', 'Im_ElijahWood.png', 'Im_RyanGosling.png', 'Im_MattDamon.png'],same,1,0.6916763000008359,11,78.57142857142857,
BECO2507,train,pos,0,pos0_id14_im16.bmp_pos0_id14_im24.bmp,['Im_RobertDowneyJr.png', 'Im_HughJackman.png', 'Im_KeanuReeves.png', 'Im_BenAffleck.png', 'Im_RobertPattinson.png', 'Im_LeonardoDiCaprio.png', 'Im_RyanReynolds.png', 'Im_ElijahWood.png', 'Im_RyanGosling.png', 'Im_MattDamon.png'],same,1,0.4084111000011035,12,78.57142857142857,
BECO2507,train,pos,30,pos30_id13_im29.bmp_pos30_id13_im15.bmp,['Im_RobertDowneyJr.png', 'Im_HughJackman.png', 'Im_KeanuReeves.png', 'Im_BenAffleck.png', 'Im_RobertPattinson.png', 'Im_LeonardoDiCaprio.png', 'Im_RyanReynolds.png', 'Im_ElijahWood.png', 'Im_RyanGosling.png', 'Im_MattDamon.png'],same,1,0.42511779999767896,13,78.57142857142857,
BECO2507,train,pos,90,pos90_id1_im4.bmp_pos90_id11_im2.bmp,['Im_RobertDowneyJr.png', 'Im_HughJackman.png', 'Im_KeanuReeves.png', 'Im_BenAffleck.png', 'Im_RobertPattinson.png', 'Im_LeonardoDiCaprio.png', 'Im_RyanReynolds.png', 'Im_ElijahWood.png', 'Im_RyanGosling.png', 'Im_MattDamon.png'],diff,1,0.4251893000000564,14,78.57142857142857,
BECO2507,train,pos,0,pos0_id13_im29.bmp_pos0_id13_im15.bmp,['Im_RobertDowneyJr.png', 'Im_HughJackman.png', 'Im_KeanuReeves.png', 'Im_BenAffleck.png', 'Im_RobertPattinson.png', 'Im_LeonardoDiCaprio.png', 'Im_RyanReynolds.png', 'Im_ElijahWood.png', 'Im_RyanGosling.png', 'Im_MattDamon.png'],same,1,0.5669517999995151,15,78.57142857142857,
BECO2507,train,pos,30,pos30_id8_im20.bmp_pos30_id8_im13.bmp,['Im_RobertDowneyJr.png', 'Im_HughJackman.png', 'Im_KeanuReeves.png', 'Im_BenAffleck.png', 'Im_RobertPattinson.png', 'Im_LeonardoDiCaprio.png', 'Im_RyanReynolds.png', 'Im_ElijahWood.png', 'Im_RyanGosling.png', 'Im_MattDamon.png'],same,1,0.40841659999932745,16,78.57142857142857,
BECO2507,train,pos,60,pos60_id1_im4.bmp_pos60_id11_im2.bmp,['Im_RobertDowneyJr.png', 'Im_HughJackman.png', 'Im_KeanuReeves.png', 'Im_BenAffleck.png', 'Im_RobertPattinson.png', 'Im_LeonardoDiCaprio.png', 'Im_RyanReynolds.png', 'Im_ElijahWood.png', 'Im_RyanGosling.png', 'Im_MattDamon.png'],diff,1,0.40842029999839724,17,78.57142857142857,
BECO2507,train,pos,150,pos150_id21_im17.bmp_pos150_id21_im22.bmp,['Im_RobertDowneyJr.png', 'Im_HughJackman.png', 'Im_KeanuReeves.png', 'Im_BenAffleck.png', 'Im_RobertPattinson.png', 'Im_LeonardoDiCaprio.png', 'Im_RyanReynolds.png', 'Im_ElijahWood.png', 'Im_RyanGosling.png', 'Im_MattDamon.png'],diff,0,0.8252369000001636,17,78.57142857142857,
BECO2507,train,pos,150,pos150_id8_im20.bmp_pos150_id19_im4.bmp,['Im_RobertDowneyJr.png', 'Im_HughJackman.png', 'Im_KeanuReeves.png', 'Im_BenAffleck.png', 'Im_RobertPattinson.png', 'Im_LeonardoDiCaprio.png', 'Im_RyanReynolds.png', 'Im_ElijahWood.png', 'Im_RyanGosling.png', 'Im_MattDamon.png'],diff,1,0.42506259999936447,18,78.57142857142857,
BECO2507,train,pos,60,pos60_id1_im21.bmp_pos60_id1_im4.bmp,['Im_RobertDowneyJr.png', 'Im_HughJackman.png', 'Im_KeanuReeves.png', 'Im_BenAffleck.png', 'Im_RobertPattinson.png', 'Im_LeonardoDiCaprio.png', 'Im_RyanReynolds.png', 'Im_ElijahWood.png', 'Im_RyanGosling.png', 'Im_MattDamon.png'],same,1,0.4250562000015634,19,78.57142857142857,
BECO2507,train,pos,90,pos90_id8_im21.bmp_pos90_id8_im13.bmp,['Im_RobertDowneyJr.png', 'Im_HughJackman.png', 'Im_KeanuReeves.png', 'Im_BenAffleck.png', 'Im_RobertPattinson.png', 'Im_LeonardoDiCaprio.png', 'Im_RyanReynolds.png', 'Im_ElijahWood.png', 'Im_RyanGosling.png', 'Im_MattDamon.png'],same,1,0.4250285999987682,20,78.57142857142857,
BECO2507,train,pos,fs,posfs_id21_im17.bmp_posfs_id21_im22.bmp,['Im_RobertDowneyJr.png', 'Im_HughJackman.png', 'Im_KeanuReeves.png', 'Im_BenAffleck.png', 'Im_RobertPattinson.png', 'Im_LeonardoDiCaprio.png', 'Im_RyanReynolds.png', 'Im_ElijahWood.png', 'Im_RyanGosling.png', 'Im_MattDamon.png'],same,1,0.41667290000259527,21,78.57142857142857,
BECO2507,train,pos,120,pos120_id21_im16.bmp_pos120_id21_im22.bmp,['Im_RobertDowneyJr.png', 'Im_HughJackman.png', 'Im_KeanuReeves.png', 'Im_BenAffleck.png', 'Im_RobertPattinson.png', 'Im_LeonardoDiCaprio.png', 'Im_RyanReynolds.png', 'Im_ElijahWood.png', 'Im_RyanGosling.png', 'Im_MattDamon.png'],same,1,0.4249983000008797,22,78.57142857142857,
BECO2507,train,pos,fs,posfs_id6_im18.bmp_posfs_id6_im19.bmp,['Im_RobertDowneyJr.png', 'Im_HughJackman.png', 'Im_KeanuReeves.png', 'Im_BenAffleck.png', 'Im_RobertPattinson.png', 'Im_LeonardoDiCaprio.png', 'Im_RyanReynolds.png', 'Im_ElijahWood.png', 'Im_RyanGosling.png', 'Im_MattDamon.png'],same,1,0.4085166000004392,23,78.57142857142857,
BECO2507,train,pos,120,pos120_id20_im12.bmp_pos120_id20_im3.bmp,['Im_RobertDowneyJr.png', 'Im_HughJackman.png', 'Im_KeanuReeves.png', 'Im_BenAffleck.png', 'Im_RobertPattinson.png', 'Im_LeonardoDiCaprio.png', 'Im_RyanReynolds.png', 'Im_ElijahWood.png', 'Im_RyanGosling.png', 'Im_MattDamon.png'],same,1,0.4166905999991286,24,78.57142857142857,
BECO2507,train,neg,30,neg30_id21_im16.bmp_neg30_id19_im27.bmp,['Im_RobertDowneyJr.png', 'Im_HughJackman.png', 'Im_KeanuReeves.png', 'Im_BenAffleck.png', 'Im_RobertPattinson.png', 'Im_LeonardoDiCaprio.png', 'Im_RyanReynolds.png', 'Im_ElijahWood.png', 'Im_RyanGosling.png', 'Im_MattDamon.png'],same,0,0.42502930000046035,24,78.57142857142857,
BECO2507,train,neg,0,neg0_id21_im16.bmp_neg0_id19_im27.bmp,['Im_RobertDowneyJr.png', 'Im_HughJackman.png', 'Im_KeanuReeves.png', 'Im_BenAffleck.png', 'Im_RobertPattinson.png', 'Im_LeonardoDiCaprio.png', 'Im_RyanReynolds.png', 'Im_ElijahWood.png', 'Im_RyanGosling.png', 'Im_MattDamon.png'],same,0,0.4084114999968733,24,78.57142857142857,
BECO2507,train,neg,90,neg90_id19_im4.bmp_neg90_id8_im20.bmp,['Im_RobertDowneyJr.png', 'Im_HughJackman.png', 'Im_KeanuReeves.png', 'Im_BenAffleck.png', 'Im_RobertPattinson.png', 'Im_LeonardoDiCaprio.png', 'Im_RyanReynolds.png', 'Im_ElijahWood.png', 'Im_RyanGosling.png', 'Im_MattDamon.png'],diff,1,0.42505589999927906,25,78.57142857142857,
BECO2507,train,neg,120,neg120_id1_im24.bmp_neg120_id1_im4.bmp,['Im_RobertDowneyJr.png', 'Im_HughJackman.png', 'Im_KeanuReeves.png', 'Im_BenAffleck.png', 'Im_RobertPattinson.png', 'Im_LeonardoDiCaprio.png', 'Im_RyanReynolds.png', 'Im_ElijahWood.png', 'Im_RyanGosling.png', 'Im_MattDamon.png'],diff,0,0.5250583000015467,25,78.57142857142857,
BECO2507,train,neg,fs,negfs_id18_im11.bmp_negfs_id13_im15.bmp,['Im_RobertDowneyJr.png', 'Im_HughJackman.png', 'Im_KeanuReeves.png', 'Im_BenAffleck.png', 'Im_RobertPattinson.png', 'Im_LeonardoDiCaprio.png', 'Im_RyanReynolds.png', 'Im_ElijahWood.png', 'Im_RyanGosling.png', 'Im_MattDamon.png'],diff,1,0.43338669999866397,26,78.57142857142857,
BECO2507,train,neg,60,neg60_id1_im21.bmp_neg60_id1_im24.bmp,['Im_RobertDowneyJr.png', 'Im_HughJackman.png', 'Im_KeanuReeves.png', 'Im_BenAffleck.png', 'Im_RobertPattinson.png', 'Im_LeonardoDiCaprio.png', 'Im_RyanReynolds.png', 'Im_ElijahWood.png', 'Im_RyanGosling.png', 'Im_MattDamon.png'],diff,0,0.4751228999994055,26,78.57142857142857,
BECO2507,train,neg,90,neg90_id21_im16.bmp_neg90_id19_im27.bmp,['Im_RobertDowneyJr.png', 'Im_HughJackman.png', 'Im_KeanuReeves.png', 'Im_BenAffleck.png', 'Im_RobertPattinson.png', 'Im_LeonardoDiCaprio.png', 'Im_RyanReynolds.png', 'Im_ElijahWood.png', 'Im_RyanGosling.png', 'Im_MattDamon.png'],diff,1,0.6085994000022765,27,78.57142857142857,
BECO2507,train,neg,60,neg60_id21_im17.bmp_neg60_id21_im16.bmp,['Im_RobertDowneyJr.png', 'Im_HughJackman.png', 'Im_KeanuReeves.png', 'Im_BenAffleck.png', 'Im_RobertPattinson.png', 'Im_LeonardoDiCaprio.png', 'Im_RyanReynolds.png', 'Im_ElijahWood.png', 'Im_RyanGosling.png', 'Im_MattDamon.png'],same,1,0.5000585000016144,28,78.57142857142857,
BECO2507,train,neg,0,neg0_id20_im3.bmp_neg0_id20_im12.bmp,['Im_RobertDowneyJr.png', 'Im_HughJackman.png', 'Im_KeanuReeves.png', 'Im_BenAffleck.png', 'Im_RobertPattinson.png', 'Im_LeonardoDiCaprio.png', 'Im_RyanReynolds.png', 'Im_ElijahWood.png', 'Im_RyanGosling.png', 'Im_MattDamon.png'],same,1,0.8166598999996495,29,78.57142857142857,
BECO2507,train,neg,30,neg30_id13_im15.bmp_neg30_id13_im29.bmp,['Im_RobertDowneyJr.png', 'Im_HughJackman.png', 'Im_KeanuReeves.png', 'Im_BenAffleck.png', 'Im_RobertPattinson.png', 'Im_LeonardoDiCaprio.png', 'Im_RyanReynolds.png', 'Im_ElijahWood.png', 'Im_RyanGosling.png', 'Im_MattDamon.png'],same,1,0.808568300002662,30,78.57142857142857,
BECO2507,train,neg,150,neg150_id13_im10.bmp_neg150_id14_im18.bmp,['Im_RobertDowneyJr.png', 'Im_HughJackman.png', 'Im_KeanuReeves.png', 'Im_BenAffleck.png', 'Im_RobertPattinson.png', 'Im_LeonardoDiCaprio.png', 'Im_RyanReynolds.png', 'Im_ElijahWood.png', 'Im_RyanGosling.png', 'Im_MattDamon.png'],diff,1,0.5166371000013896,31,78.57142857142857,
BECO2507,train,neg,120,neg120_id19_im4.bmp_neg120_id8_im20.bmp,['Im_RobertDowneyJr.png', 'Im_HughJackman.png', 'Im_KeanuReeves.png', 'Im_BenAffleck.png', 'Im_RobertPattinson.png', 'Im_LeonardoDiCaprio.png', 'Im_RyanReynolds.png', 'Im_ElijahWood.png', 'Im_RyanGosling.png', 'Im_MattDamon.png'],diff,1,0.41672119999930146,32,78.57142857142857,
BECO2507,train,neg,fs,negfs_id20_im30.bmp_negfs_id8_im21.bmp,['Im_RobertDowneyJr.png', 'Im_HughJackman.png', 'Im_KeanuReeves.png', 'Im_BenAffleck.png', 'Im_RobertPattinson.png', 'Im_LeonardoDiCaprio.png', 'Im_RyanReynolds.png', 'Im_ElijahWood.png', 'Im_RyanGosling.png', 'Im_MattDamon.png'],diff,1,0.4250562999986869,33,78.57142857142857,
BECO2507,train,neg,150,neg150_id20_im30.bmp_neg150_id18_im11.bmp,['Im_RobertDowneyJr.png', 'Im_HughJackman.png', 'Im_KeanuReeves.png', 'Im_BenAffleck.png', 'Im_RobertPattinson.png', 'Im_LeonardoDiCaprio.png', 'Im_RyanReynolds.png', 'Im_ElijahWood.png', 'Im_RyanGosling.png', 'Im_MattDamon.png'],diff,1,0.42499400000087917,34,78.57142857142857,
BECO2507,0,inv,60,pos60_id18_im11.bmp_pos60_id18_im19.bmp,['Im_RobertDowneyJr.png', 'Im_HughJackman.png', 'Im_KeanuReeves.png', 'Im_BenAffleck.png', 'Im_RobertPattinson.png', 'Im_LeonardoDiCaprio.png', 'Im_RyanReynolds.png', 'Im_ElijahWood.png', 'Im_RyanGosling.png', 'Im_MattDamon.png'],diff,0,0.8332184000028064,0,0,
BECO2507,0,inv,90,pos90_id1_im4.bmp_pos90_id1_im24.bmp,['Im_RobertDowneyJr.png', 'Im_HughJackman.png', 'Im_KeanuReeves.png', 'Im_BenAffleck.png', 'Im_RobertPattinson.png', 'Im_LeonardoDiCaprio.png', 'Im_RyanReynolds.png', 'Im_ElijahWood.png', 'Im_RyanGosling.png', 'Im_MattDamon.png'],same,1,0.45861689999946975,1,0,
BECO2507,0,inv,0,pos0_id13_im10.bmp_pos0_id19_im8.bmp,['Im_RobertDowneyJr.png', 'Im_HughJackman.png', 'Im_KeanuReeves.png', 'Im_BenAffleck.png', 'Im_RobertPattinson.png', 'Im_LeonardoDiCaprio.png', 'Im_RyanReynolds.png', 'Im_ElijahWood.png', 'Im_RyanGosling.png', 'Im_MattDamon.png'],diff,1,0.5335482000009506,2,0,
BECO2507,0,inv,30,pos30_id21_im16.bmp_pos30_id6_im12.bmp,['Im_RobertDowneyJr.png', 'Im_HughJackman.png', 'Im_KeanuReeves.png', 'Im_BenAffleck.png', 'Im_RobertPattinson.png', 'Im_LeonardoDiCaprio.png', 'Im_RyanReynolds.png', 'Im_ElijahWood.png', 'Im_RyanGosling.png', 'Im_MattDamon.png'],diff,1,0.4084245000012743,3,0,
BECO2507,0,inv,30,pos30_id14_im24.bmp_pos30_id14_im18.bmp,['Im_RobertDowneyJr.png', 'Im_HughJackman.png', 'Im_KeanuReeves.png', 'Im_BenAffleck.png', 'Im_RobertPattinson.png', 'Im_LeonardoDiCaprio.png', 'Im_RyanReynolds.png', 'Im_ElijahWood.png', 'Im_RyanGosling.png', 'Im_MattDamon.png'],same,1,0.6167814999971597,4,0,
BECO2507,0,inv,fs,posfs_id8_im21.bmp_posfs_id20_im30.bmp,['Im_RobertDowneyJr.png', 'Im_HughJackman.png', 'Im_KeanuReeves.png', 'Im_BenAffleck.png', 'Im_RobertPattinson.png', 'Im_LeonardoDiCaprio.png', 'Im_RyanReynolds.png', 'Im_ElijahWood.png', 'Im_RyanGosling.png', 'Im_MattDamon.png'],diff,1,0.4333162999973865,5,0,
BECO2507,0,inv,fs,posfs_id13_im29.bmp_posfs_id11_im2.bmp,['Im_RobertDowneyJr.png', 'Im_HughJackman.png', 'Im_KeanuReeves.png', 'Im_BenAffleck.png', 'Im_RobertPattinson.png', 'Im_LeonardoDiCaprio.png', 'Im_RyanReynolds.png', 'Im_ElijahWood.png', 'Im_RyanGosling.png', 'Im_MattDamon.png'],diff,1,0.42506500000308733,6,0,
BECO2507,0,inv,0,pos0_id21_im17.bmp_pos0_id8_im13.bmp,['Im_RobertDowneyJr.png', 'Im_HughJackman.png', 'Im_KeanuReeves.png', 'Im_BenAffleck.png', 'Im_RobertPattinson.png', 'Im_LeonardoDiCaprio.png', 'Im_RyanReynolds.png', 'Im_ElijahWood.png', 'Im_RyanGosling.png', 'Im_MattDamon.png'],diff,1,0.42503709999800776,7,0,
BECO2507,0,inv,90,pos90_id14_im18.bmp_pos90_id14_im24.bmp,['Im_RobertDowneyJr.png', 'Im_HughJackman.png', 'Im_KeanuReeves.png', 'Im_BenAffleck.png', 'Im_RobertPattinson.png', 'Im_LeonardoDiCaprio.png', 'Im_RyanReynolds.png', 'Im_ElijahWood.png', 'Im_RyanGosling.png', 'Im_MattDamon.png'],same,1,0.4915641000006872,8,0,
BECO2507,0,inv,150,pos150_id21_im17.bmp_pos150_id21_im22.bmp,['Im_RobertDowneyJr.png', 'Im_HughJackman.png', 'Im_KeanuReeves.png', 'Im_BenAffleck.png', 'Im_RobertPattinson.png', 'Im_LeonardoDiCaprio.png', 'Im_RyanReynolds.png', 'Im_ElijahWood.png', 'Im_RyanGosling.png', 'Im_MattDamon.png'],same,1,0.425088500000129,9,0,
BECO2507,0,inv,150,pos150_id19_im8.bmp_pos150_id14_im24.bmp,['Im_RobertDowneyJr.png', 'Im_HughJackman.png', 'Im_KeanuReeves.png', 'Im_BenAffleck.png', 'Im_RobertPattinson.png', 'Im_LeonardoDiCaprio.png', 'Im_RyanReynolds.png', 'Im_ElijahWood.png', 'Im_RyanGosling.png', 'Im_MattDamon.png'],same,0,0.4168217000005825,9,0,
BECO2507,0,inv,120,pos120_id13_im10.bmp_pos120_id13_im15.bmp,['Im_RobertDowneyJr.png', 'Im_HughJackman.png', 'Im_KeanuReeves.png', 'Im_BenAffleck.png', 'Im_RobertPattinson.png', 'Im_LeonardoDiCaprio.png', 'Im_RyanReynolds.png', 'Im_ElijahWood.png', 'Im_RyanGosling.png', 'Im_MattDamon.png'],same,1,0.6002184999997553,10,0,
BECO2507,0,inv,120,pos120_id13_im15.bmp_pos120_id13_im29.bmp,['Im_RobertDowneyJr.png', 'Im_HughJackman.png', 'Im_KeanuReeves.png', 'Im_BenAffleck.png', 'Im_RobertPattinson.png', 'Im_LeonardoDiCaprio.png', 'Im_RyanReynolds.png', 'Im_ElijahWood.png', 'Im_RyanGosling.png', 'Im_MattDamon.png'],same,1,0.41666669999904116,11,0,
BECO2507,0,inv,60,pos60_id11_im2.bmp_pos60_id11_im1.bmp,['Im_RobertDowneyJr.png', 'Im_HughJackman.png', 'Im_KeanuReeves.png', 'Im_BenAffleck.png', 'Im_RobertPattinson.png', 'Im_LeonardoDiCaprio.png', 'Im_RyanReynolds.png', 'Im_ElijahWood.png', 'Im_RyanGosling.png', 'Im_MattDamon.png'],same,1,0.4250467000019853,12,0,
BECO2507,1,inv,90,pos90_id18_im11.bmp_pos90_id20_im30.bmp,['Im_RobertDowneyJr.png', 'Im_HughJackman.png', 'Im_KeanuReeves.png', 'Im_BenAffleck.png', 'Im_RobertPattinson.png', 'Im_LeonardoDiCaprio.png', 'Im_RyanReynolds.png', 'Im_ElijahWood.png', 'Im_RyanGosling.png', 'Im_MattDamon.png'],same,0,0.4249880999996094,12,0,
BECO2507,1,inv,30,pos30_id20_im12.bmp_pos30_id20_im30.bmp,['Im_RobertDowneyJr.png', 'Im_HughJackman.png', 'Im_KeanuReeves.png', 'Im_BenAffleck.png', 'Im_RobertPattinson.png', 'Im_LeonardoDiCaprio.png', 'Im_RyanReynolds.png', 'Im_ElijahWood.png', 'Im_RyanGosling.png', 'Im_MattDamon.png'],diff,0,0.6165951000002678,12,0,
BECO2507,1,inv,30,pos30_id8_im13.bmp_pos30_id8_im21.bmp,['Im_RobertDowneyJr.png', 'Im_HughJackman.png', 'Im_KeanuReeves.png', 'Im_BenAffleck.png', 'Im_RobertPattinson.png', 'Im_LeonardoDiCaprio.png', 'Im_RyanReynolds.png', 'Im_ElijahWood.png', 'Im_RyanGosling.png', 'Im_MattDamon.png'],same,1,0.8086423999993713,13,0,
BECO2507,1,inv,fs,posfs_id1_im24.bmp_posfs_id1_im4.bmp,['Im_RobertDowneyJr.png', 'Im_HughJackman.png', 'Im_KeanuReeves.png', 'Im_BenAffleck.png', 'Im_RobertPattinson.png', 'Im_LeonardoDiCaprio.png', 'Im_RyanReynolds.png', 'Im_ElijahWood.png', 'Im_RyanGosling.png', 'Im_MattDamon.png'],same,1,1.7001540999990539,14,0,
BECO2507,1,inv,0,pos0_id13_im29.bmp_pos0_id13_im15.bmp,['Im_RobertDowneyJr.png', 'Im_HughJackman.png', 'Im_KeanuReeves.png', 'Im_BenAffleck.png', 'Im_RobertPattinson.png', 'Im_LeonardoDiCaprio.png', 'Im_RyanReynolds.png', 'Im_ElijahWood.png', 'Im_RyanGosling.png', 'Im_MattDamon.png'],same,1,0.4084060999994108,15,0,
BECO2507,1,inv,60,pos60_id20_im30.bmp_pos60_id20_im3.bmp,['Im_RobertDowneyJr.png', 'Im_HughJackman.png', 'Im_KeanuReeves.png', 'Im_BenAffleck.png', 'Im_RobertPattinson.png', 'Im_LeonardoDiCaprio.png', 'Im_RyanReynolds.png', 'Im_ElijahWood.png', 'Im_RyanGosling.png', 'Im_MattDamon.png'],same,1,0.416734099999303,16,0,
BECO2507,1,inv,0,pos0_id19_im8.bmp_pos0_id19_im27.bmp,['Im_RobertDowneyJr.png', 'Im_HughJackman.png', 'Im_KeanuReeves.png', 'Im_BenAffleck.png', 'Im_RobertPattinson.png', 'Im_LeonardoDiCaprio.png', 'Im_RyanReynolds.png', 'Im_ElijahWood.png', 'Im_RyanGosling.png', 'Im_MattDamon.png'],same,1,0.41652410000097007,17,0,
BECO2507,1,inv,150,pos150_id20_im12.bmp_pos150_id20_im30.bmp,['Im_RobertDowneyJr.png', 'Im_HughJackman.png', 'Im_KeanuReeves.png', 'Im_BenAffleck.png', 'Im_RobertPattinson.png', 'Im_LeonardoDiCaprio.png', 'Im_RyanReynolds.png', 'Im_ElijahWood.png', 'Im_RyanGosling.png', 'Im_MattDamon.png'],same,1,0.41678549999778625,18,0,
BECO2507,1,inv,90,pos90_id18_im11.bmp_pos90_id18_im19.bmp,['Im_RobertDowneyJr.png', 'Im_HughJackman.png', 'Im_KeanuReeves.png', 'Im_BenAffleck.png', 'Im_RobertPattinson.png', 'Im_LeonardoDiCaprio.png', 'Im_RyanReynolds.png', 'Im_ElijahWood.png', 'Im_RyanGosling.png', 'Im_MattDamon.png'],same,1,0.4167736999988847,19,0,
BECO2507,1,inv,fs,posfs_id8_im20.bmp_posfs_id8_im21.bmp,['Im_RobertDowneyJr.png', 'Im_HughJackman.png', 'Im_KeanuReeves.png', 'Im_BenAffleck.png', 'Im_RobertPattinson.png', 'Im_LeonardoDiCaprio.png', 'Im_RyanReynolds.png', 'Im_ElijahWood.png', 'Im_RyanGosling.png', 'Im_MattDamon.png'],same,1,0.40844420000212267,20,0,
BECO2507,1,inv,60,pos60_id13_im15.bmp_pos60_id18_im11.bmp,['Im_RobertDowneyJr.png', 'Im_HughJackman.png', 'Im_KeanuReeves.png', 'Im_BenAffleck.png', 'Im_RobertPattinson.png', 'Im_LeonardoDiCaprio.png', 'Im_RyanReynolds.png', 'Im_ElijahWood.png', 'Im_RyanGosling.png', 'Im_MattDamon.png'],diff,1,0.48345379999955185,21,0,
BECO2507,1,inv,120,pos120_id19_im4.bmp_pos120_id19_im8.bmp,['Im_RobertDowneyJr.png', 'Im_HughJackman.png', 'Im_KeanuReeves.png', 'Im_BenAffleck.png', 'Im_RobertPattinson.png', 'Im_LeonardoDiCaprio.png', 'Im_RyanReynolds.png', 'Im_ElijahWood.png', 'Im_RyanGosling.png', 'Im_MattDamon.png'],same,1,0.416760099997191,22,0,
BECO2507,1,inv,120,pos120_id6_im12.bmp_pos120_id11_im1.bmp,['Im_RobertDowneyJr.png', 'Im_HughJackman.png', 'Im_KeanuReeves.png', 'Im_BenAffleck.png', 'Im_RobertPattinson.png', 'Im_LeonardoDiCaprio.png', 'Im_RyanReynolds.png', 'Im_ElijahWood.png', 'Im_RyanGosling.png', 'Im_MattDamon.png'],diff,1,0.40834520000134944,23,0,
BECO2507,1,inv,150,pos150_id8_im13.bmp_pos150_id21_im17.bmp,['Im_RobertDowneyJr.png', 'Im_HughJackman.png', 'Im_KeanuReeves.png', 'Im_BenAffleck.png', 'Im_RobertPattinson.png', 'Im_LeonardoDiCaprio.png', 'Im_RyanReynolds.png', 'Im_ElijahWood.png', 'Im_RyanGosling.png', 'Im_MattDamon.png'],diff,1,0.41655940000055125,24,0,
BECO2507,2,pos,0,pos0_id18_im11.bmp_pos0_id18_im18.bmp,['Im_RobertDowneyJr.png', 'Im_HughJackman.png', 'Im_KeanuReeves.png', 'Im_BenAffleck.png', 'Im_RobertPattinson.png', 'Im_LeonardoDiCaprio.png', 'Im_RyanReynolds.png', 'Im_ElijahWood.png', 'Im_RyanGosling.png', 'Im_MattDamon.png'],same,1,0.41659319999962463,25,0,
BECO2507,2,pos,90,pos90_id6_im18.bmp_pos90_id1_im24.bmp,['Im_RobertDowneyJr.png', 'Im_HughJackman.png', 'Im_KeanuReeves.png', 'Im_BenAffleck.png', 'Im_RobertPattinson.png', 'Im_LeonardoDiCaprio.png', 'Im_RyanReynolds.png', 'Im_ElijahWood.png', 'Im_RyanGosling.png', 'Im_MattDamon.png'],diff,1,0.40837159999864525,26,0,
BECO2507,2,pos,120,pos120_id6_im12.bmp_pos120_id21_im16.bmp,['Im_RobertDowneyJr.png', 'Im_HughJackman.png', 'Im_KeanuReeves.png', 'Im_BenAffleck.png', 'Im_RobertPattinson.png', 'Im_LeonardoDiCaprio.png', 'Im_RyanReynolds.png', 'Im_ElijahWood.png', 'Im_RyanGosling.png', 'Im_MattDamon.png'],diff,1,0.4085238000006939,27,0,
BECO2507,2,pos,fs,posfs_id1_im4.bmp_posfs_id11_im2.bmp,['Im_RobertDowneyJr.png', 'Im_HughJackman.png', 'Im_KeanuReeves.png', 'Im_BenAffleck.png', 'Im_RobertPattinson.png', 'Im_LeonardoDiCaprio.png', 'Im_RyanReynolds.png', 'Im_ElijahWood.png', 'Im_RyanGosling.png', 'Im_MattDamon.png'],diff,1,0.4333958999995957,28,0,
BECO2507,2,pos,fs,posfs_id19_im8.bmp_posfs_id19_im27.bmp,['Im_RobertDowneyJr.png', 'Im_HughJackman.png', 'Im_KeanuReeves.png', 'Im_BenAffleck.png', 'Im_RobertPattinson.png', 'Im_LeonardoDiCaprio.png', 'Im_RyanReynolds.png', 'Im_ElijahWood.png', 'Im_RyanGosling.png', 'Im_MattDamon.png'],same,1,0.675116500002332,29,0,
BECO2507,2,pos,30,pos30_id21_im16.bmp_pos30_id21_im17.bmp,['Im_RobertDowneyJr.png', 'Im_HughJackman.png', 'Im_KeanuReeves.png', 'Im_BenAffleck.png', 'Im_RobertPattinson.png', 'Im_LeonardoDiCaprio.png', 'Im_RyanReynolds.png', 'Im_ElijahWood.png', 'Im_RyanGosling.png', 'Im_MattDamon.png'],same,1,0.4166977999993833,30,0,
BECO2507,2,pos,120,pos120_id14_im18.bmp_pos120_id14_im24.bmp,['Im_RobertDowneyJr.png', 'Im_HughJackman.png', 'Im_KeanuReeves.png', 'Im_BenAffleck.png', 'Im_RobertPattinson.png', 'Im_LeonardoDiCaprio.png', 'Im_RyanReynolds.png', 'Im_ElijahWood.png', 'Im_RyanGosling.png', 'Im_MattDamon.png'],same,1,0.4250240000001213,31,0,
BECO2507,2,pos,60,pos60_id19_im4.bmp_pos60_id19_im27.bmp,['Im_RobertDowneyJr.png', 'Im_HughJackman.png', 'Im_KeanuReeves.png', 'Im_BenAffleck.png', 'Im_RobertPattinson.png', 'Im_LeonardoDiCaprio.png', 'Im_RyanReynolds.png', 'Im_ElijahWood.png', 'Im_RyanGosling.png', 'Im_MattDamon.png'],same,1,0.42505379999784054,32,0,
BECO2507,2,pos,60,pos60_id14_im18.bmp_pos60_id6_im18.bmp,['Im_RobertDowneyJr.png', 'Im_HughJackman.png', 'Im_KeanuReeves.png', 'Im_BenAffleck.png', 'Im_RobertPattinson.png', 'Im_LeonardoDiCaprio.png', 'Im_RyanReynolds.png', 'Im_ElijahWood.png', 'Im_RyanGosling.png', 'Im_MattDamon.png'],diff,1,0.4250618999976723,33,0,
BECO2507,2,pos,0,pos0_id14_im24.bmp_pos0_id19_im8.bmp,['Im_RobertDowneyJr.png', 'Im_HughJackman.png', 'Im_KeanuReeves.png', 'Im_BenAffleck.png', 'Im_RobertPattinson.png', 'Im_LeonardoDiCaprio.png', 'Im_RyanReynolds.png', 'Im_ElijahWood.png', 'Im_RyanGosling.png', 'Im_MattDamon.png'],diff,1,0.41673679999803426,34,0,
BECO2507,2,pos,150,pos150_id8_im20.bmp_pos150_id8_im21.bmp,['Im_RobertDowneyJr.png', 'Im_HughJackman.png', 'Im_KeanuReeves.png', 'Im_BenAffleck.png', 'Im_RobertPattinson.png', 'Im_LeonardoDiCaprio.png', 'Im_RyanReynolds.png', 'Im_ElijahWood.png', 'Im_RyanGosling.png', 'Im_MattDamon.png'],same,1,0.5751449999988836,35,0,
BECO2507,2,pos,90,pos90_id18_im18.bmp_pos90_id11_im10.bmp,['Im_RobertDowneyJr.png', 'Im_HughJackman.png', 'Im_KeanuReeves.png', 'Im_BenAffleck.png', 'Im_RobertPattinson.png', 'Im_LeonardoDiCaprio.png', 'Im_RyanReynolds.png', 'Im_ElijahWood.png', 'Im_RyanGosling.png', 'Im_MattDamon.png'],diff,1,0.42505330000130925,36,0,
BECO2507,2,pos,30,pos30_id14_im24.bmp_pos30_id8_im13.bmp,['Im_RobertDowneyJr.png', 'Im_HughJackman.png', 'Im_KeanuReeves.png', 'Im_BenAffleck.png', 'Im_RobertPattinson.png', 'Im_LeonardoDiCaprio.png', 'Im_RyanReynolds.png', 'Im_ElijahWood.png', 'Im_RyanGosling.png', 'Im_MattDamon.png'],diff,1,0.41669679999904474,37,0,
BECO2507,2,pos,150,pos150_id20_im30.bmp_pos150_id8_im21.bmp,['Im_RobertDowneyJr.png', 'Im_HughJackman.png', 'Im_KeanuReeves.png', 'Im_BenAffleck.png', 'Im_RobertPattinson.png', 'Im_LeonardoDiCaprio.png', 'Im_RyanReynolds.png', 'Im_ElijahWood.png', 'Im_RyanGosling.png', 'Im_MattDamon.png'],diff,1,0.4250663999991957,38,0,
BECO2507,3,neg,90,neg90_id8_im21.bmp_neg90_id20_im30.bmp,['Im_RobertDowneyJr.png', 'Im_HughJackman.png', 'Im_KeanuReeves.png', 'Im_BenAffleck.png', 'Im_RobertPattinson.png', 'Im_LeonardoDiCaprio.png', 'Im_RyanReynolds.png', 'Im_ElijahWood.png', 'Im_RyanGosling.png', 'Im_MattDamon.png'],diff,1,0.4252989999986312,1,90.47619047619048,
BECO2507,3,neg,0,neg0_id14_im18.bmp_neg0_id14_im16.bmp,['Im_RobertDowneyJr.png', 'Im_HughJackman.png', 'Im_KeanuReeves.png', 'Im_BenAffleck.png', 'Im_RobertPattinson.png', 'Im_LeonardoDiCaprio.png', 'Im_RyanReynolds.png', 'Im_ElijahWood.png', 'Im_RyanGosling.png', 'Im_MattDamon.png'],same,1,0.4084404000022914,2,90.47619047619048,
BECO2507,3,neg,30,neg30_id11_im1.bmp_neg30_id11_im2.bmp,['Im_RobertDowneyJr.png', 'Im_HughJackman.png', 'Im_KeanuReeves.png', 'Im_BenAffleck.png', 'Im_RobertPattinson.png', 'Im_LeonardoDiCaprio.png', 'Im_RyanReynolds.png', 'Im_ElijahWood.png', 'Im_RyanGosling.png', 'Im_MattDamon.png'],same,1,0.42535680000219145,3,90.47619047619048,
BECO2507,3,neg,30,neg30_id6_im19.bmp_neg30_id6_im18.bmp,['Im_RobertDowneyJr.png', 'Im_HughJackman.png', 'Im_KeanuReeves.png', 'Im_BenAffleck.png', 'Im_RobertPattinson.png', 'Im_LeonardoDiCaprio.png', 'Im_RyanReynolds.png', 'Im_ElijahWood.png', 'Im_RyanGosling.png', 'Im_MattDamon.png'],same,1,0.42518769999878714,4,90.47619047619048,
BECO2507,3,neg,fs,negfs_id8_im20.bmp_negfs_id1_im21.bmp,['Im_RobertDowneyJr.png', 'Im_HughJackman.png', 'Im_KeanuReeves.png', 'Im_BenAffleck.png', 'Im_RobertPattinson.png', 'Im_LeonardoDiCaprio.png', 'Im_RyanReynolds.png', 'Im_ElijahWood.png', 'Im_RyanGosling.png', 'Im_MattDamon.png'],diff,1,0.40843060000042897,5,90.47619047619048,
BECO2507,3,neg,60,neg60_id18_im18.bmp_neg60_id18_im19.bmp,['Im_RobertDowneyJr.png', 'Im_HughJackman.png', 'Im_KeanuReeves.png', 'Im_BenAffleck.png', 'Im_RobertPattinson.png', 'Im_LeonardoDiCaprio.png', 'Im_RyanReynolds.png', 'Im_ElijahWood.png', 'Im_RyanGosling.png', 'Im_MattDamon.png'],same,1,0.4668944000004558,6,90.47619047619048,
BECO2507,3,neg,150,neg150_id6_im19.bmp_neg150_id14_im16.bmp,['Im_RobertDowneyJr.png', 'Im_HughJackman.png', 'Im_KeanuReeves.png', 'Im_BenAffleck.png', 'Im_RobertPattinson.png', 'Im_LeonardoDiCaprio.png', 'Im_RyanReynolds.png', 'Im_ElijahWood.png', 'Im_RyanGosling.png', 'Im_MattDamon.png'],same,0,0.5002962999969895,6,90.47619047619048,
BECO2507,3,neg,fs,negfs_id18_im18.bmp_negfs_id18_im11.bmp,['Im_RobertDowneyJr.png', 'Im_HughJackman.png', 'Im_KeanuReeves.png', 'Im_BenAffleck.png', 'Im_RobertPattinson.png', 'Im_LeonardoDiCaprio.png', 'Im_RyanReynolds.png', 'Im_ElijahWood.png', 'Im_RyanGosling.png', 'Im_MattDamon.png'],same,1,0.4250969000022451,7,90.47619047619048,
BECO2507,3,neg,150,neg150_id6_im12.bmp_neg150_id6_im18.bmp,['Im_RobertDowneyJr.png', 'Im_HughJackman.png', 'Im_KeanuReeves.png', 'Im_BenAffleck.png', 'Im_RobertPattinson.png', 'Im_LeonardoDiCaprio.png', 'Im_RyanReynolds.png', 'Im_ElijahWood.png', 'Im_RyanGosling.png', 'Im_MattDamon.png'],diff,0,0.41684430000168504,7,90.47619047619048,
BECO2507,3,neg,0,neg0_id8_im13.bmp_neg0_id14_im24.bmp,['Im_RobertDowneyJr.png', 'Im_HughJackman.png', 'Im_KeanuReeves.png', 'Im_BenAffleck.png', 'Im_RobertPattinson.png', 'Im_LeonardoDiCaprio.png', 'Im_RyanReynolds.png', 'Im_ElijahWood.png', 'Im_RyanGosling.png', 'Im_MattDamon.png'],same,0,0.43316810000033,7,90.47619047619048,
BECO2507,3,neg,90,neg90_id21_im17.bmp_neg90_id21_im16.bmp,['Im_RobertDowneyJr.png', 'Im_HughJackman.png', 'Im_KeanuReeves.png', 'Im_BenAffleck.png', 'Im_RobertPattinson.png', 'Im_LeonardoDiCaprio.png', 'Im_RyanReynolds.png', 'Im_ElijahWood.png', 'Im_RyanGosling.png', 'Im_MattDamon.png'],same,1,1.1169126000022516,8,90.47619047619048,
BECO2507,3,neg,60,neg60_id8_im20.bmp_neg60_id1_im21.bmp,['Im_RobertDowneyJr.png', 'Im_HughJackman.png', 'Im_KeanuReeves.png', 'Im_BenAffleck.png', 'Im_RobertPattinson.png', 'Im_LeonardoDiCaprio.png', 'Im_RyanReynolds.png', 'Im_ElijahWood.png', 'Im_RyanGosling.png', 'Im_MattDamon.png'],diff,1,0.43321819999982836,9,90.47619047619048,
BECO2507,3,neg,120,neg120_id18_im11.bmp_neg120_id20_im30.bmp,['Im_RobertDowneyJr.png', 'Im_HughJackman.png', 'Im_KeanuReeves.png', 'Im_BenAffleck.png', 'Im_RobertPattinson.png', 'Im_LeonardoDiCaprio.png', 'Im_RyanReynolds.png', 'Im_ElijahWood.png', 'Im_RyanGosling.png', 'Im_MattDamon.png'],diff,1,0.41673530000116443,10,90.47619047619048,
BECO2507,3,neg,120,neg120_id8_im21.bmp_neg120_id8_im20.bmp,['Im_RobertDowneyJr.png', 'Im_HughJackman.png', 'Im_KeanuReeves.png', 'Im_BenAffleck.png', 'Im_RobertPattinson.png', 'Im_LeonardoDiCaprio.png', 'Im_RyanReynolds.png', 'Im_ElijahWood.png', 'Im_RyanGosling.png', 'Im_MattDamon.png'],same,1,0.5000648999994155,11,90.47619047619048,
BECO2507,4,pos,30,pos30_id14_im24.bmp_pos30_id14_im16.bmp,['Im_RobertDowneyJr.png', 'Im_HughJackman.png', 'Im_KeanuReeves.png', 'Im_BenAffleck.png', 'Im_RobertPattinson.png', 'Im_LeonardoDiCaprio.png', 'Im_RyanReynolds.png', 'Im_ElijahWood.png', 'Im_RyanGosling.png', 'Im_MattDamon.png'],same,1,0.416755700000067,12,90.47619047619048,
BECO2507,4,pos,90,pos90_id21_im22.bmp_pos90_id18_im18.bmp,['Im_RobertDowneyJr.png', 'Im_HughJackman.png', 'Im_KeanuReeves.png', 'Im_BenAffleck.png', 'Im_RobertPattinson.png', 'Im_LeonardoDiCaprio.png', 'Im_RyanReynolds.png', 'Im_ElijahWood.png', 'Im_RyanGosling.png', 'Im_MattDamon.png'],diff,1,0.4250818000000436,13,90.47619047619048,
BECO2507,4,pos,30,pos30_id14_im24.bmp_pos30_id14_im18.bmp,['Im_RobertDowneyJr.png', 'Im_HughJackman.png', 'Im_KeanuReeves.png', 'Im_BenAffleck.png', 'Im_RobertPattinson.png', 'Im_LeonardoDiCaprio.png', 'Im_RyanReynolds.png', 'Im_ElijahWood.png', 'Im_RyanGosling.png', 'Im_MattDamon.png'],same,1,0.4250955999996222,14,90.47619047619048,
BECO2507,4,pos,120,pos120_id18_im18.bmp_pos120_id18_im19.bmp,['Im_RobertDowneyJr.png', 'Im_HughJackman.png', 'Im_KeanuReeves.png', 'Im_BenAffleck.png', 'Im_RobertPattinson.png', 'Im_LeonardoDiCaprio.png', 'Im_RyanReynolds.png', 'Im_ElijahWood.png', 'Im_RyanGosling.png', 'Im_MattDamon.png'],same,1,0.41674240000065765,15,90.47619047619048,
BECO2507,4,pos,0,pos0_id20_im30.bmp_pos0_id20_im3.bmp,['Im_RobertDowneyJr.png', 'Im_HughJackman.png', 'Im_KeanuReeves.png', 'Im_BenAffleck.png', 'Im_RobertPattinson.png', 'Im_LeonardoDiCaprio.png', 'Im_RyanReynolds.png', 'Im_ElijahWood.png', 'Im_RyanGosling.png', 'Im_MattDamon.png'],same,1,0.5087128999984998,16,90.47619047619048,
BECO2507,4,pos,fs,posfs_id8_im20.bmp_posfs_id19_im4.bmp,['Im_RobertDowneyJr.png', 'Im_HughJackman.png', 'Im_KeanuReeves.png', 'Im_BenAffleck.png', 'Im_RobertPattinson.png', 'Im_LeonardoDiCaprio.png', 'Im_RyanReynolds.png', 'Im_ElijahWood.png', 'Im_RyanGosling.png', 'Im_MattDamon.png'],diff,1,0.41672290000133216,17,90.47619047619048,
BECO2507,4,pos,fs,posfs_id19_im27.bmp_posfs_id19_im4.bmp,['Im_RobertDowneyJr.png', 'Im_HughJackman.png', 'Im_KeanuReeves.png', 'Im_BenAffleck.png', 'Im_RobertPattinson.png', 'Im_LeonardoDiCaprio.png', 'Im_RyanReynolds.png', 'Im_ElijahWood.png', 'Im_RyanGosling.png', 'Im_MattDamon.png'],same,1,0.425074399998266,18,90.47619047619048,
BECO2507,4,pos,60,pos60_id21_im16.bmp_pos60_id19_im27.bmp,['Im_RobertDowneyJr.png', 'Im_HughJackman.png', 'Im_KeanuReeves.png', 'Im_BenAffleck.png', 'Im_RobertPattinson.png', 'Im_LeonardoDiCaprio.png', 'Im_RyanReynolds.png', 'Im_ElijahWood.png', 'Im_RyanGosling.png', 'Im_MattDamon.png'],diff,1,0.4167462000004889,19,90.47619047619048,
BECO2507,4,pos,60,pos60_id11_im2.bmp_pos60_id11_im10.bmp,['Im_RobertDowneyJr.png', 'Im_HughJackman.png', 'Im_KeanuReeves.png', 'Im_BenAffleck.png', 'Im_RobertPattinson.png', 'Im_LeonardoDiCaprio.png', 'Im_RyanReynolds.png', 'Im_ElijahWood.png', 'Im_RyanGosling.png', 'Im_MattDamon.png'],same,1,0.40842760000305134,20,90.47619047619048,
BECO2507,4,pos,0,pos0_id6_im12.bmp_pos0_id11_im1.bmp,['Im_RobertDowneyJr.png', 'Im_HughJackman.png', 'Im_KeanuReeves.png', 'Im_BenAffleck.png', 'Im_RobertPattinson.png', 'Im_LeonardoDiCaprio.png', 'Im_RyanReynolds.png', 'Im_ElijahWood.png', 'Im_RyanGosling.png', 'Im_MattDamon.png'],same,0,0.6082279999973252,20,90.47619047619048,
BECO2507,4,pos,150,pos150_id6_im18.bmp_pos150_id14_im18.bmp,['Im_RobertDowneyJr.png', 'Im_HughJackman.png', 'Im_KeanuReeves.png', 'Im_BenAffleck.png', 'Im_RobertPattinson.png', 'Im_LeonardoDiCaprio.png', 'Im_RyanReynolds.png', 'Im_ElijahWood.png', 'Im_RyanGosling.png', 'Im_MattDamon.png'],diff,1,0.408462999999756,21,90.47619047619048,
BECO2507,4,pos,150,pos150_id13_im29.bmp_pos150_id13_im10.bmp,['Im_RobertDowneyJr.png', 'Im_HughJackman.png', 'Im_KeanuReeves.png', 'Im_BenAffleck.png', 'Im_RobertPattinson.png', 'Im_LeonardoDiCaprio.png', 'Im_RyanReynolds.png', 'Im_ElijahWood.png', 'Im_RyanGosling.png', 'Im_MattDamon.png'],same,1,0.6418752999998105,22,90.47619047619048,
BECO2507,4,pos,120,pos120_id19_im27.bmp_pos120_id19_im4.bmp,['Im_RobertDowneyJr.png', 'Im_HughJackman.png', 'Im_KeanuReeves.png', 'Im_BenAffleck.png', 'Im_RobertPattinson.png', 'Im_LeonardoDiCaprio.png', 'Im_RyanReynolds.png', 'Im_ElijahWood.png', 'Im_RyanGosling.png', 'Im_MattDamon.png'],same,1,0.4249257999981637,23,90.47619047619048,
BECO2507,4,pos,90,pos90_id20_im3.bmp_pos90_id11_im10.bmp,['Im_RobertDowneyJr.png', 'Im_HughJackman.png', 'Im_KeanuReeves.png', 'Im_BenAffleck.png', 'Im_RobertPattinson.png', 'Im_LeonardoDiCaprio.png', 'Im_RyanReynolds.png', 'Im_ElijahWood.png', 'Im_RyanGosling.png', 'Im_MattDamon.png'],diff,1,0.42509289999725297,24,90.47619047619048,
BECO2507,5,neg,30,neg30_id19_im8.bmp_neg30_id19_im4.bmp,['Im_RobertDowneyJr.png', 'Im_HughJackman.png', 'Im_KeanuReeves.png', 'Im_BenAffleck.png', 'Im_RobertPattinson.png', 'Im_LeonardoDiCaprio.png', 'Im_RyanReynolds.png', 'Im_ElijahWood.png', 'Im_RyanGosling.png', 'Im_MattDamon.png'],same,1,0.4169039000007615,25,90.47619047619048,
BECO2507,5,neg,0,neg0_id1_im4.bmp_neg0_id1_im24.bmp,['Im_RobertDowneyJr.png', 'Im_HughJackman.png', 'Im_KeanuReeves.png', 'Im_BenAffleck.png', 'Im_RobertPattinson.png', 'Im_LeonardoDiCaprio.png', 'Im_RyanReynolds.png', 'Im_ElijahWood.png', 'Im_RyanGosling.png', 'Im_MattDamon.png'],same,1,0.4250581999986025,26,90.47619047619048,
BECO2507,5,neg,90,neg90_id1_im4.bmp_neg90_id1_im21.bmp,['Im_RobertDowneyJr.png', 'Im_HughJackman.png', 'Im_KeanuReeves.png', 'Im_BenAffleck.png', 'Im_RobertPattinson.png', 'Im_LeonardoDiCaprio.png', 'Im_RyanReynolds.png', 'Im_ElijahWood.png', 'Im_RyanGosling.png', 'Im_MattDamon.png'],same,1,0.6834656999999424,27,90.47619047619048,
BECO2507,5,neg,150,neg150_id1_im21.bmp_neg150_id1_im24.bmp,['Im_RobertDowneyJr.png', 'Im_HughJackman.png', 'Im_KeanuReeves.png', 'Im_BenAffleck.png', 'Im_RobertPattinson.png', 'Im_LeonardoDiCaprio.png', 'Im_RyanReynolds.png', 'Im_ElijahWood.png', 'Im_RyanGosling.png', 'Im_MattDamon.png'],same,1,0.4167205000012473,28,90.47619047619048,
BECO2507,5,neg,fs,negfs_id1_im4.bmp_negfs_id21_im17.bmp,['Im_RobertDowneyJr.png', 'Im_HughJackman.png', 'Im_KeanuReeves.png', 'Im_BenAffleck.png', 'Im_RobertPattinson.png', 'Im_LeonardoDiCaprio.png', 'Im_RyanReynolds.png', 'Im_ElijahWood.png', 'Im_RyanGosling.png', 'Im_MattDamon.png'],diff,1,0.4166966999982833,29,90.47619047619048,
BECO2507,5,neg,60,neg60_id6_im19.bmp_neg60_id14_im16.bmp,['Im_RobertDowneyJr.png', 'Im_HughJackman.png', 'Im_KeanuReeves.png', 'Im_BenAffleck.png', 'Im_RobertPattinson.png', 'Im_LeonardoDiCaprio.png', 'Im_RyanReynolds.png', 'Im_ElijahWood.png', 'Im_RyanGosling.png', 'Im_MattDamon.png'],diff,1,0.4085039000019606,30,90.47619047619048,
BECO2507,5,neg,120,neg120_id21_im16.bmp_neg120_id19_im27.bmp,['Im_RobertDowneyJr.png', 'Im_HughJackman.png', 'Im_KeanuReeves.png', 'Im_BenAffleck.png', 'Im_RobertPattinson.png', 'Im_LeonardoDiCaprio.png', 'Im_RyanReynolds.png', 'Im_ElijahWood.png', 'Im_RyanGosling.png', 'Im_MattDamon.png'],same,0,0.7002872000011848,30,90.47619047619048,
BECO2507,5,neg,fs,negfs_id8_im20.bmp_negfs_id8_im21.bmp,['Im_RobertDowneyJr.png', 'Im_HughJackman.png', 'Im_KeanuReeves.png', 'Im_BenAffleck.png', 'Im_RobertPattinson.png', 'Im_LeonardoDiCaprio.png', 'Im_RyanReynolds.png', 'Im_ElijahWood.png', 'Im_RyanGosling.png', 'Im_MattDamon.png'],same,1,0.4334100000014587,31,90.47619047619048,
BECO2507,5,neg,60,neg60_id1_im4.bmp_neg60_id1_im24.bmp,['Im_RobertDowneyJr.png', 'Im_HughJackman.png', 'Im_KeanuReeves.png', 'Im_BenAffleck.png', 'Im_RobertPattinson.png', 'Im_LeonardoDiCaprio.png', 'Im_RyanReynolds.png', 'Im_ElijahWood.png', 'Im_RyanGosling.png', 'Im_MattDamon.png'],same,1,0.41670349999913014,32,90.47619047619048,
BECO2507,5,neg,30,neg30_id13_im10.bmp_neg30_id19_im8.bmp,['Im_RobertDowneyJr.png', 'Im_HughJackman.png', 'Im_KeanuReeves.png', 'Im_BenAffleck.png', 'Im_RobertPattinson.png', 'Im_LeonardoDiCaprio.png', 'Im_RyanReynolds.png', 'Im_ElijahWood.png', 'Im_RyanGosling.png', 'Im_MattDamon.png'],same,0,0.8415777000009257,32,90.47619047619048,
BECO2507,5,neg,120,neg120_id21_im16.bmp_neg120_id6_im12.bmp,['Im_RobertDowneyJr.png', 'Im_HughJackman.png', 'Im_KeanuReeves.png', 'Im_BenAffleck.png', 'Im_RobertPattinson.png', 'Im_LeonardoDiCaprio.png', 'Im_RyanReynolds.png', 'Im_ElijahWood.png', 'Im_RyanGosling.png', 'Im_MattDamon.png'],diff,1,0.4167386000008264,33,90.47619047619048,
BECO2507,5,neg,0,neg0_id20_im30.bmp_neg0_id8_im21.bmp,['Im_RobertDowneyJr.png', 'Im_HughJackman.png', 'Im_KeanuReeves.png', 'Im_BenAffleck.png', 'Im_RobertPattinson.png', 'Im_LeonardoDiCaprio.png', 'Im_RyanReynolds.png', 'Im_ElijahWood.png', 'Im_RyanGosling.png', 'Im_MattDamon.png'],diff,1,0.43322079999779817,34,90.47619047619048,
BECO2507,5,neg,90,neg90_id11_im1.bmp_neg90_id11_im10.bmp,['Im_RobertDowneyJr.png', 'Im_HughJackman.png', 'Im_KeanuReeves.png', 'Im_BenAffleck.png', 'Im_RobertPattinson.png', 'Im_LeonardoDiCaprio.png', 'Im_RyanReynolds.png', 'Im_ElijahWood.png', 'Im_RyanGosling.png', 'Im_MattDamon.png'],same,1,1.0751614999971935,35,90.47619047619048,
BECO2507,5,neg,150,neg150_id20_im30.bmp_neg150_id8_im21.bmp,['Im_RobertDowneyJr.png', 'Im_HughJackman.png', 'Im_KeanuReeves.png', 'Im_BenAffleck.png', 'Im_RobertPattinson.png', 'Im_LeonardoDiCaprio.png', 'Im_RyanReynolds.png', 'Im_ElijahWood.png', 'Im_RyanGosling.png', 'Im_MattDamon.png'],diff,1,0.40831290000278386,36,90.47619047619048,
BECO2507,6,inv,30,pos30_id1_im24.bmp_pos30_id6_im18.bmp,['Im_RobertDowneyJr.png', 'Im_HughJackman.png', 'Im_KeanuReeves.png', 'Im_BenAffleck.png', 'Im_RobertPattinson.png', 'Im_LeonardoDiCaprio.png', 'Im_RyanReynolds.png', 'Im_ElijahWood.png', 'Im_RyanGosling.png', 'Im_MattDamon.png'],diff,1,0.43343169999934616,1,85.71428571428571,
BECO2507,6,inv,60,pos60_id11_im1.bmp_pos60_id6_im12.bmp,['Im_RobertDowneyJr.png', 'Im_HughJackman.png', 'Im_KeanuReeves.png', 'Im_BenAffleck.png', 'Im_RobertPattinson.png', 'Im_LeonardoDiCaprio.png', 'Im_RyanReynolds.png', 'Im_ElijahWood.png', 'Im_RyanGosling.png', 'Im_MattDamon.png'],diff,1,0.8499913000014203,2,85.71428571428571,
BECO2507,6,inv,fs,posfs_id21_im16.bmp_posfs_id21_im22.bmp,['Im_RobertDowneyJr.png', 'Im_HughJackman.png', 'Im_KeanuReeves.png', 'Im_BenAffleck.png', 'Im_RobertPattinson.png', 'Im_LeonardoDiCaprio.png', 'Im_RyanReynolds.png', 'Im_ElijahWood.png', 'Im_RyanGosling.png', 'Im_MattDamon.png'],same,1,0.4583431999999448,3,85.71428571428571,
BECO2507,6,inv,60,pos60_id19_im27.bmp_pos60_id19_im8.bmp,['Im_RobertDowneyJr.png', 'Im_HughJackman.png', 'Im_KeanuReeves.png', 'Im_BenAffleck.png', 'Im_RobertPattinson.png', 'Im_LeonardoDiCaprio.png', 'Im_RyanReynolds.png', 'Im_ElijahWood.png', 'Im_RyanGosling.png', 'Im_MattDamon.png'],same,1,0.4167383999993035,4,85.71428571428571,
BECO2507,6,inv,150,pos150_id8_im13.bmp_pos150_id14_im24.bmp,['Im_RobertDowneyJr.png', 'Im_HughJackman.png', 'Im_KeanuReeves.png', 'Im_BenAffleck.png', 'Im_RobertPattinson.png', 'Im_LeonardoDiCaprio.png', 'Im_RyanReynolds.png', 'Im_ElijahWood.png', 'Im_RyanGosling.png', 'Im_MattDamon.png'],diff,1,0.4749354999985371,5,85.71428571428571,
BECO2507,6,inv,150,pos150_id1_im21.bmp_pos150_id1_im24.bmp,['Im_RobertDowneyJr.png', 'Im_HughJackman.png', 'Im_KeanuReeves.png', 'Im_BenAffleck.png', 'Im_RobertPattinson.png', 'Im_LeonardoDiCaprio.png', 'Im_RyanReynolds.png', 'Im_ElijahWood.png', 'Im_RyanGosling.png', 'Im_MattDamon.png'],same,1,0.45015170000260696,6,85.71428571428571,
BECO2507,6,inv,fs,posfs_id21_im17.bmp_posfs_id21_im22.bmp,['Im_RobertDowneyJr.png', 'Im_HughJackman.png', 'Im_KeanuReeves.png', 'Im_BenAffleck.png', 'Im_RobertPattinson.png', 'Im_LeonardoDiCaprio.png', 'Im_RyanReynolds.png', 'Im_ElijahWood.png', 'Im_RyanGosling.png', 'Im_MattDamon.png'],same,1,0.4250785000003816,7,85.71428571428571,
BECO2507,6,inv,0,pos0_id14_im24.bmp_pos0_id14_im16.bmp,['Im_RobertDowneyJr.png', 'Im_HughJackman.png', 'Im_KeanuReeves.png', 'Im_BenAffleck.png', 'Im_RobertPattinson.png', 'Im_LeonardoDiCaprio.png', 'Im_RyanReynolds.png', 'Im_ElijahWood.png', 'Im_RyanGosling.png', 'Im_MattDamon.png'],same,1,0.42506259999936447,8,85.71428571428571,
BECO2507,6,inv,120,pos120_id18_im18.bmp_pos120_id11_im10.bmp,['Im_RobertDowneyJr.png', 'Im_HughJackman.png', 'Im_KeanuReeves.png', 'Im_BenAffleck.png', 'Im_RobertPattinson.png', 'Im_LeonardoDiCaprio.png', 'Im_RyanReynolds.png', 'Im_ElijahWood.png', 'Im_RyanGosling.png', 'Im_MattDamon.png'],same,0,1.1834172999988368,8,85.71428571428571,
BECO2507,6,inv,30,pos30_id19_im27.bmp_pos30_id19_im4.bmp,['Im_RobertDowneyJr.png', 'Im_HughJackman.png', 'Im_KeanuReeves.png', 'Im_BenAffleck.png', 'Im_RobertPattinson.png', 'Im_LeonardoDiCaprio.png', 'Im_RyanReynolds.png', 'Im_ElijahWood.png', 'Im_RyanGosling.png', 'Im_MattDamon.png'],same,1,0.4083987999983947,9,85.71428571428571,
BECO2507,6,inv,0,pos0_id1_im24.bmp_pos0_id1_im21.bmp,['Im_RobertDowneyJr.png', 'Im_HughJackman.png', 'Im_KeanuReeves.png', 'Im_BenAffleck.png', 'Im_RobertPattinson.png', 'Im_LeonardoDiCaprio.png', 'Im_RyanReynolds.png', 'Im_ElijahWood.png', 'Im_RyanGosling.png', 'Im_MattDamon.png'],same,1,0.4084059000015259,10,85.71428571428571,
BECO2507,6,inv,90,pos90_id8_im13.bmp_pos90_id21_im17.bmp,['Im_RobertDowneyJr.png', 'Im_HughJackman.png', 'Im_KeanuReeves.png', 'Im_BenAffleck.png', 'Im_RobertPattinson.png', 'Im_LeonardoDiCaprio.png', 'Im_RyanReynolds.png', 'Im_ElijahWood.png', 'Im_RyanGosling.png', 'Im_MattDamon.png'],same,0,0.4167264999996405,10,85.71428571428571,
BECO2507,6,inv,90,pos90_id1_im4.bmp_pos90_id11_im2.bmp,['Im_RobertDowneyJr.png', 'Im_HughJackman.png', 'Im_KeanuReeves.png', 'Im_BenAffleck.png', 'Im_RobertPattinson.png', 'Im_LeonardoDiCaprio.png', 'Im_RyanReynolds.png', 'Im_ElijahWood.png', 'Im_RyanGosling.png', 'Im_MattDamon.png'],same,0,0.9250240000001213,10,85.71428571428571,
BECO2507,6,inv,120,pos120_id11_im10.bmp_pos120_id20_im3.bmp,['Im_RobertDowneyJr.png', 'Im_HughJackman.png', 'Im_KeanuReeves.png', 'Im_BenAffleck.png', 'Im_RobertPattinson.png', 'Im_LeonardoDiCaprio.png', 'Im_RyanReynolds.png', 'Im_ElijahWood.png', 'Im_RyanGosling.png', 'Im_MattDamon.png'],diff,1,0.41646010000113165,11,85.71428571428571,
BECO2507,7,neg,120,neg120_id18_im18.bmp_neg120_id21_im22.bmp,['Im_RobertDowneyJr.png', 'Im_HughJackman.png', 'Im_KeanuReeves.png', 'Im_BenAffleck.png', 'Im_RobertPattinson.png', 'Im_LeonardoDiCaprio.png', 'Im_RyanReynolds.png', 'Im_ElijahWood.png', 'Im_RyanGosling.png', 'Im_MattDamon.png'],diff,1,0.41678999999930966,12,85.71428571428571,
BECO2507,7,neg,90,neg90_id11_im10.bmp_neg90_id11_im2.bmp,['Im_RobertDowneyJr.png', 'Im_HughJackman.png', 'Im_KeanuReeves.png', 'Im_BenAffleck.png', 'Im_RobertPattinson.png', 'Im_LeonardoDiCaprio.png', 'Im_RyanReynolds.png', 'Im_ElijahWood.png', 'Im_RyanGosling.png', 'Im_MattDamon.png'],diff,0,0.7252702999976464,12,85.71428571428571,
BECO2507,7,neg,30,neg30_id20_im30.bmp_neg30_id18_im11.bmp,['Im_RobertDowneyJr.png', 'Im_HughJackman.png', 'Im_KeanuReeves.png', 'Im_BenAffleck.png', 'Im_RobertPattinson.png', 'Im_LeonardoDiCaprio.png', 'Im_RyanReynolds.png', 'Im_ElijahWood.png', 'Im_RyanGosling.png', 'Im_MattDamon.png'],same,0,0.7169759999997041,12,85.71428571428571,
BECO2507,7,neg,90,neg90_id14_im18.bmp_neg90_id14_im24.bmp,['Im_RobertDowneyJr.png', 'Im_HughJackman.png', 'Im_KeanuReeves.png', 'Im_BenAffleck.png', 'Im_RobertPattinson.png', 'Im_LeonardoDiCaprio.png', 'Im_RyanReynolds.png', 'Im_ElijahWood.png', 'Im_RyanGosling.png', 'Im_MattDamon.png'],same,1,0.42498580000028596,13,85.71428571428571,
BECO2507,7,neg,0,neg0_id11_im10.bmp_neg0_id18_im18.bmp,['Im_RobertDowneyJr.png', 'Im_HughJackman.png', 'Im_KeanuReeves.png', 'Im_BenAffleck.png', 'Im_RobertPattinson.png', 'Im_LeonardoDiCaprio.png', 'Im_RyanReynolds.png', 'Im_ElijahWood.png', 'Im_RyanGosling.png', 'Im_MattDamon.png'],same,0,0.4167543999974441,13,85.71428571428571,
BECO2507,7,neg,0,neg0_id19_im4.bmp_neg0_id19_im27.bmp,['Im_RobertDowneyJr.png', 'Im_HughJackman.png', 'Im_KeanuReeves.png', 'Im_BenAffleck.png', 'Im_RobertPattinson.png', 'Im_LeonardoDiCaprio.png', 'Im_RyanReynolds.png', 'Im_ElijahWood.png', 'Im_RyanGosling.png', 'Im_MattDamon.png'],same,1,1.1584466000022076,14,85.71428571428571,
BECO2507,7,neg,fs,negfs_id19_im27.bmp_negfs_id21_im16.bmp,['Im_RobertDowneyJr.png', 'Im_HughJackman.png', 'Im_KeanuReeves.png', 'Im_BenAffleck.png', 'Im_RobertPattinson.png', 'Im_LeonardoDiCaprio.png', 'Im_RyanReynolds.png', 'Im_ElijahWood.png', 'Im_RyanGosling.png', 'Im_MattDamon.png'],same,0,0.550480099998822,14,85.71428571428571,
BECO2507,7,neg,60,neg60_id19_im8.bmp_neg60_id13_im10.bmp,['Im_RobertDowneyJr.png', 'Im_HughJackman.png', 'Im_KeanuReeves.png', 'Im_BenAffleck.png', 'Im_RobertPattinson.png', 'Im_LeonardoDiCaprio.png', 'Im_RyanReynolds.png', 'Im_ElijahWood.png', 'Im_RyanGosling.png', 'Im_MattDamon.png'],same,0,1.1251601000003575,14,85.71428571428571,
BECO2507,7,neg,120,neg120_id14_im18.bmp_neg120_id6_im18.bmp,['Im_RobertDowneyJr.png', 'Im_HughJackman.png', 'Im_KeanuReeves.png', 'Im_BenAffleck.png', 'Im_RobertPattinson.png', 'Im_LeonardoDiCaprio.png', 'Im_RyanReynolds.png', 'Im_ElijahWood.png', 'Im_RyanGosling.png', 'Im_MattDamon.png'],same,0,1.1836281999967468,14,85.71428571428571,
BECO2507,7,neg,150,neg150_id6_im18.bmp_neg150_id6_im19.bmp,['Im_RobertDowneyJr.png', 'Im_HughJackman.png', 'Im_KeanuReeves.png', 'Im_BenAffleck.png', 'Im_RobertPattinson.png', 'Im_LeonardoDiCaprio.png', 'Im_RyanReynolds.png', 'Im_ElijahWood.png', 'Im_RyanGosling.png', 'Im_MattDamon.png'],same,1,0.616932299999462,15,85.71428571428571,
BECO2507,7,neg,30,neg30_id18_im18.bmp_neg30_id18_im11.bmp,['Im_RobertDowneyJr.png', 'Im_HughJackman.png', 'Im_KeanuReeves.png', 'Im_BenAffleck.png', 'Im_RobertPattinson.png', 'Im_LeonardoDiCaprio.png', 'Im_RyanReynolds.png', 'Im_ElijahWood.png', 'Im_RyanGosling.png', 'Im_MattDamon.png'],same,1,0.40859370000180206,16,85.71428571428571,
BECO2507,7,neg,fs,negfs_id6_im12.bmp_negfs_id6_im19.bmp,['Im_RobertDowneyJr.png', 'Im_HughJackman.png', 'Im_KeanuReeves.png', 'Im_BenAffleck.png', 'Im_RobertPattinson.png', 'Im_LeonardoDiCaprio.png', 'Im_RyanReynolds.png', 'Im_ElijahWood.png', 'Im_RyanGosling.png', 'Im_MattDamon.png'],same,1,0.41677229999913834,17,85.71428571428571,
BECO2507,7,neg,60,neg60_id11_im2.bmp_neg60_id1_im4.bmp,['Im_RobertDowneyJr.png', 'Im_HughJackman.png', 'Im_KeanuReeves.png', 'Im_BenAffleck.png', 'Im_RobertPattinson.png', 'Im_LeonardoDiCaprio.png', 'Im_RyanReynolds.png', 'Im_ElijahWood.png', 'Im_RyanGosling.png', 'Im_MattDamon.png'],same,0,1.3084707000016351,17,85.71428571428571,
BECO2507,7,neg,150,neg150_id19_im4.bmp_neg150_id19_im27.bmp,['Im_RobertDowneyJr.png', 'Im_HughJackman.png', 'Im_KeanuReeves.png', 'Im_BenAffleck.png', 'Im_RobertPattinson.png', 'Im_LeonardoDiCaprio.png', 'Im_RyanReynolds.png', 'Im_ElijahWood.png', 'Im_RyanGosling.png', 'Im_MattDamon.png'],same,1,0.6334086999995634,18,85.71428571428571,
BECO2507,8,pos,90,pos90_id13_im29.bmp_pos90_id13_im15.bmp,['Im_RobertDowneyJr.png', 'Im_HughJackman.png', 'Im_KeanuReeves.png', 'Im_BenAffleck.png', 'Im_RobertPattinson.png', 'Im_LeonardoDiCaprio.png', 'Im_RyanReynolds.png', 'Im_ElijahWood.png', 'Im_RyanGosling.png', 'Im_MattDamon.png'],same,1,0.42513169999801903,19,85.71428571428571,
BECO2507,8,pos,30,pos30_id11_im1.bmp_pos30_id20_im12.bmp,['Im_RobertDowneyJr.png', 'Im_HughJackman.png', 'Im_KeanuReeves.png', 'Im_BenAffleck.png', 'Im_RobertPattinson.png', 'Im_LeonardoDiCaprio.png', 'Im_RyanReynolds.png', 'Im_ElijahWood.png', 'Im_RyanGosling.png', 'Im_MattDamon.png'],diff,1,0.4168137000015122,20,85.71428571428571,
BECO2507,8,pos,fs,posfs_id1_im21.bmp_posfs_id14_im16.bmp,['Im_RobertDowneyJr.png', 'Im_HughJackman.png', 'Im_KeanuReeves.png', 'Im_BenAffleck.png', 'Im_RobertPattinson.png', 'Im_LeonardoDiCaprio.png', 'Im_RyanReynolds.png', 'Im_ElijahWood.png', 'Im_RyanGosling.png', 'Im_MattDamon.png'],diff,1,0.40841249999721185,21,85.71428571428571,
BECO2507,8,pos,90,pos90_id6_im18.bmp_pos90_id14_im18.bmp,['Im_RobertDowneyJr.png', 'Im_HughJackman.png', 'Im_KeanuReeves.png', 'Im_BenAffleck.png', 'Im_RobertPattinson.png', 'Im_LeonardoDiCaprio.png', 'Im_RyanReynolds.png', 'Im_ElijahWood.png', 'Im_RyanGosling.png', 'Im_MattDamon.png'],diff,1,0.42505140000139363,22,85.71428571428571,
BECO2507,8,pos,150,pos150_id1_im24.bmp_pos150_id6_im18.bmp,['Im_RobertDowneyJr.png', 'Im_HughJackman.png', 'Im_KeanuReeves.png', 'Im_BenAffleck.png', 'Im_RobertPattinson.png', 'Im_LeonardoDiCaprio.png', 'Im_RyanReynolds.png', 'Im_ElijahWood.png', 'Im_RyanGosling.png', 'Im_MattDamon.png'],diff,1,0.41652090000206954,23,85.71428571428571,
BECO2507,8,pos,150,pos150_id13_im15.bmp_pos150_id13_im10.bmp,['Im_RobertDowneyJr.png', 'Im_HughJackman.png', 'Im_KeanuReeves.png', 'Im_BenAffleck.png', 'Im_RobertPattinson.png', 'Im_LeonardoDiCaprio.png', 'Im_RyanReynolds.png', 'Im_ElijahWood.png', 'Im_RyanGosling.png', 'Im_MattDamon.png'],same,1,0.4334855000015523,24,85.71428571428571,
BECO2507,8,pos,120,pos120_id6_im19.bmp_pos120_id6_im12.bmp,['Im_RobertDowneyJr.png', 'Im_HughJackman.png', 'Im_KeanuReeves.png', 'Im_BenAffleck.png', 'Im_RobertPattinson.png', 'Im_LeonardoDiCaprio.png', 'Im_RyanReynolds.png', 'Im_ElijahWood.png', 'Im_RyanGosling.png', 'Im_MattDamon.png'],same,1,0.5586301999974239,25,85.71428571428571,
BECO2507,8,pos,0,pos0_id19_im8.bmp_pos0_id19_im27.bmp,['Im_RobertDowneyJr.png', 'Im_HughJackman.png', 'Im_KeanuReeves.png', 'Im_BenAffleck.png', 'Im_RobertPattinson.png', 'Im_LeonardoDiCaprio.png', 'Im_RyanReynolds.png', 'Im_ElijahWood.png', 'Im_RyanGosling.png', 'Im_MattDamon.png'],same,1,0.42510980000224663,26,85.71428571428571,
BECO2507,8,pos,60,pos60_id13_im10.bmp_pos60_id14_im18.bmp,['Im_RobertDowneyJr.png', 'Im_HughJackman.png', 'Im_KeanuReeves.png', 'Im_BenAffleck.png', 'Im_RobertPattinson.png', 'Im_LeonardoDiCaprio.png', 'Im_RyanReynolds.png', 'Im_ElijahWood.png', 'Im_RyanGosling.png', 'Im_MattDamon.png'],diff,1,0.43427779999910854,27,85.71428571428571,
BECO2507,8,pos,fs,posfs_id19_im8.bmp_posfs_id19_im4.bmp,['Im_RobertDowneyJr.png', 'Im_HughJackman.png', 'Im_KeanuReeves.png', 'Im_BenAffleck.png', 'Im_RobertPattinson.png', 'Im_LeonardoDiCaprio.png', 'Im_RyanReynolds.png', 'Im_ElijahWood.png', 'Im_RyanGosling.png', 'Im_MattDamon.png'],same,1,0.43335469999874476,28,85.71428571428571,
BECO2507,8,pos,30,pos30_id21_im17.bmp_pos30_id1_im4.bmp,['Im_RobertDowneyJr.png', 'Im_HughJackman.png', 'Im_KeanuReeves.png', 'Im_BenAffleck.png', 'Im_RobertPattinson.png', 'Im_LeonardoDiCaprio.png', 'Im_RyanReynolds.png', 'Im_ElijahWood.png', 'Im_RyanGosling.png', 'Im_MattDamon.png'],diff,1,0.6916056000009121,29,85.71428571428571,
BECO2507,8,pos,0,pos0_id18_im19.bmp_pos0_id20_im3.bmp,['Im_RobertDowneyJr.png', 'Im_HughJackman.png', 'Im_KeanuReeves.png', 'Im_BenAffleck.png', 'Im_RobertPattinson.png', 'Im_LeonardoDiCaprio.png', 'Im_RyanReynolds.png', 'Im_ElijahWood.png', 'Im_RyanGosling.png', 'Im_MattDamon.png'],diff,1,0.4167502999989665,30,85.71428571428571,
BECO2507,8,pos,120,pos120_id20_im3.bmp_pos120_id18_im19.bmp,['Im_RobertDowneyJr.png', 'Im_HughJackman.png', 'Im_KeanuReeves.png', 'Im_BenAffleck.png', 'Im_RobertPattinson.png', 'Im_LeonardoDiCaprio.png', 'Im_RyanReynolds.png', 'Im_ElijahWood.png', 'Im_RyanGosling.png', 'Im_MattDamon.png'],diff,1,0.4251743999993778,31,85.71428571428571,
BECO2507,8,pos,60,pos60_id1_im4.bmp_pos60_id1_im24.bmp,['Im_RobertDowneyJr.png', 'Im_HughJackman.png', 'Im_KeanuReeves.png', 'Im_BenAffleck.png', 'Im_RobertPattinson.png', 'Im_LeonardoDiCaprio.png', 'Im_RyanReynolds.png', 'Im_ElijahWood.png', 'Im_RyanGosling.png', 'Im_MattDamon.png'],same,1,0.49166999999943073,32,85.71428571428571,
BECO2507,9,inv,0,pos0_id11_im10.bmp_pos0_id11_im1.bmp,['Im_RobertDowneyJr.png', 'Im_HughJackman.png', 'Im_KeanuReeves.png', 'Im_BenAffleck.png', 'Im_RobertPattinson.png', 'Im_LeonardoDiCaprio.png', 'Im_RyanReynolds.png', 'Im_ElijahWood.png', 'Im_RyanGosling.png', 'Im_MattDamon.png'],same,1,0.5334772999995039,1,76.19047619047619,
BECO2507,9,inv,60,pos60_id14_im24.bmp_pos60_id14_im18.bmp,['Im_RobertDowneyJr.png', 'Im_HughJackman.png', 'Im_KeanuReeves.png', 'Im_BenAffleck.png', 'Im_RobertPattinson.png', 'Im_LeonardoDiCaprio.png', 'Im_RyanReynolds.png', 'Im_ElijahWood.png', 'Im_RyanGosling.png', 'Im_MattDamon.png'],same,1,0.583767899999657,2,76.19047619047619,
BECO2507,9,inv,150,pos150_id8_im21.bmp_pos150_id20_im30.bmp,['Im_RobertDowneyJr.png', 'Im_HughJackman.png', 'Im_KeanuReeves.png', 'Im_BenAffleck.png', 'Im_RobertPattinson.png', 'Im_LeonardoDiCaprio.png', 'Im_RyanReynolds.png', 'Im_ElijahWood.png', 'Im_RyanGosling.png', 'Im_MattDamon.png'],diff,1,0.4249688000018068,3,76.19047619047619,
BECO2507,9,inv,120,pos120_id18_im19.bmp_pos120_id18_im18.bmp,['Im_RobertDowneyJr.png', 'Im_HughJackman.png', 'Im_KeanuReeves.png', 'Im_BenAffleck.png', 'Im_RobertPattinson.png', 'Im_LeonardoDiCaprio.png', 'Im_RyanReynolds.png', 'Im_ElijahWood.png', 'Im_RyanGosling.png', 'Im_MattDamon.png'],same,1,0.75840529999914,4,76.19047619047619,
BECO2507,9,inv,0,pos0_id13_im15.bmp_pos0_id18_im11.bmp,['Im_RobertDowneyJr.png', 'Im_HughJackman.png', 'Im_KeanuReeves.png', 'Im_BenAffleck.png', 'Im_RobertPattinson.png', 'Im_LeonardoDiCaprio.png', 'Im_RyanReynolds.png', 'Im_ElijahWood.png', 'Im_RyanGosling.png', 'Im_MattDamon.png'],diff,1,0.4500583999979426,5,76.19047619047619,
BECO2507,9,inv,fs,posfs_id18_im19.bmp_posfs_id21_im22.bmp,['Im_RobertDowneyJr.png', 'Im_HughJackman.png', 'Im_KeanuReeves.png', 'Im_BenAffleck.png', 'Im_RobertPattinson.png', 'Im_LeonardoDiCaprio.png', 'Im_RyanReynolds.png', 'Im_ElijahWood.png', 'Im_RyanGosling.png', 'Im_MattDamon.png'],diff,1,0.42514010000013513,6,76.19047619047619,
BECO2507,9,inv,60,pos60_id19_im27.bmp_pos60_id19_im4.bmp,['Im_RobertDowneyJr.png', 'Im_HughJackman.png', 'Im_KeanuReeves.png', 'Im_BenAffleck.png', 'Im_RobertPattinson.png', 'Im_LeonardoDiCaprio.png', 'Im_RyanReynolds.png', 'Im_ElijahWood.png', 'Im_RyanGosling.png', 'Im_MattDamon.png'],same,1,0.5834854999993695,7,76.19047619047619,
BECO2507,9,inv,90,pos90_id13_im29.bmp_pos90_id13_im15.bmp,['Im_RobertDowneyJr.png', 'Im_HughJackman.png', 'Im_KeanuReeves.png', 'Im_BenAffleck.png', 'Im_RobertPattinson.png', 'Im_LeonardoDiCaprio.png', 'Im_RyanReynolds.png', 'Im_ElijahWood.png', 'Im_RyanGosling.png', 'Im_MattDamon.png'],same,1,1.333342800000537,8,76.19047619047619,
BECO2507,9,inv,fs,posfs_id6_im19.bmp_posfs_id6_im12.bmp,['Im_RobertDowneyJr.png', 'Im_HughJackman.png', 'Im_KeanuReeves.png', 'Im_BenAffleck.png', 'Im_RobertPattinson.png', 'Im_LeonardoDiCaprio.png', 'Im_RyanReynolds.png', 'Im_ElijahWood.png', 'Im_RyanGosling.png', 'Im_MattDamon.png'],same,1,0.4250560000000405,9,76.19047619047619,
BECO2507,9,inv,150,pos150_id20_im12.bmp_pos150_id13_im29.bmp,['Im_RobertDowneyJr.png', 'Im_HughJackman.png', 'Im_KeanuReeves.png', 'Im_BenAffleck.png', 'Im_RobertPattinson.png', 'Im_LeonardoDiCaprio.png', 'Im_RyanReynolds.png', 'Im_ElijahWood.png', 'Im_RyanGosling.png', 'Im_MattDamon.png'],diff,1,0.41695120000076713,10,76.19047619047619,
BECO2507,9,inv,30,pos30_id19_im27.bmp_pos30_id13_im15.bmp,['Im_RobertDowneyJr.png', 'Im_HughJackman.png', 'Im_KeanuReeves.png', 'Im_BenAffleck.png', 'Im_RobertPattinson.png', 'Im_LeonardoDiCaprio.png', 'Im_RyanReynolds.png', 'Im_ElijahWood.png', 'Im_RyanGosling.png', 'Im_MattDamon.png'],same,0,0.48314939999909257,10,76.19047619047619,
BECO2507,9,inv,120,pos120_id6_im18.bmp_pos120_id14_im18.bmp,['Im_RobertDowneyJr.png', 'Im_HughJackman.png', 'Im_KeanuReeves.png', 'Im_BenAffleck.png', 'Im_RobertPattinson.png', 'Im_LeonardoDiCaprio.png', 'Im_RyanReynolds.png', 'Im_ElijahWood.png', 'Im_RyanGosling.png', 'Im_MattDamon.png'],diff,1,1.108630800001265,11,76.19047619047619,
BECO2507,9,inv,30,pos30_id19_im8.bmp_pos30_id13_im10.bmp,['Im_RobertDowneyJr.png', 'Im_HughJackman.png', 'Im_KeanuReeves.png', 'Im_BenAffleck.png', 'Im_RobertPattinson.png', 'Im_LeonardoDiCaprio.png', 'Im_RyanReynolds.png', 'Im_ElijahWood.png', 'Im_RyanGosling.png', 'Im_MattDamon.png'],same,0,0.4251661000016611,11,76.19047619047619,
BECO2507,9,inv,90,pos90_id8_im21.bmp_pos90_id8_im13.bmp,['Im_RobertDowneyJr.png', 'Im_HughJackman.png', 'Im_KeanuReeves.png', 'Im_BenAffleck.png', 'Im_RobertPattinson.png', 'Im_LeonardoDiCaprio.png', 'Im_RyanReynolds.png', 'Im_ElijahWood.png', 'Im_RyanGosling.png', 'Im_MattDamon.png'],same,1,0.42531610000150977,12,76.19047619047619,
BECO2507,10,inv,0,pos0_id1_im24.bmp_pos0_id6_im19.bmp,['Im_RobertDowneyJr.png', 'Im_HughJackman.png', 'Im_KeanuReeves.png', 'Im_BenAffleck.png', 'Im_RobertPattinson.png', 'Im_LeonardoDiCaprio.png', 'Im_RyanReynolds.png', 'Im_ElijahWood.png', 'Im_RyanGosling.png', 'Im_MattDamon.png'],same,0,0.9249841000018932,12,76.19047619047619,
BECO2507,10,inv,90,pos90_id11_im10.bmp_pos90_id11_im2.bmp,['Im_RobertDowneyJr.png', 'Im_HughJackman.png', 'Im_KeanuReeves.png', 'Im_BenAffleck.png', 'Im_RobertPattinson.png', 'Im_LeonardoDiCaprio.png', 'Im_RyanReynolds.png', 'Im_ElijahWood.png', 'Im_RyanGosling.png', 'Im_MattDamon.png'],same,1,0.8085940999990271,13,76.19047619047619,
BECO2507,10,inv,30,pos30_id6_im19.bmp_pos30_id6_im18.bmp,['Im_RobertDowneyJr.png', 'Im_HughJackman.png', 'Im_KeanuReeves.png', 'Im_BenAffleck.png', 'Im_RobertPattinson.png', 'Im_LeonardoDiCaprio.png', 'Im_RyanReynolds.png', 'Im_ElijahWood.png', 'Im_RyanGosling.png', 'Im_MattDamon.png'],same,1,0.40840810000008787,14,76.19047619047619,
BECO2507,10,inv,90,pos90_id11_im1.bmp_pos90_id11_im2.bmp,['Im_RobertDowneyJr.png', 'Im_HughJackman.png', 'Im_KeanuReeves.png', 'Im_BenAffleck.png', 'Im_RobertPattinson.png', 'Im_LeonardoDiCaprio.png', 'Im_RyanReynolds.png', 'Im_ElijahWood.png', 'Im_RyanGosling.png', 'Im_MattDamon.png'],same,1,0.541671300001326,15,76.19047619047619,
BECO2507,10,inv,60,pos60_id8_im20.bmp_pos60_id8_im13.bmp,['Im_RobertDowneyJr.png', 'Im_HughJackman.png', 'Im_KeanuReeves.png', 'Im_BenAffleck.png', 'Im_RobertPattinson.png', 'Im_LeonardoDiCaprio.png', 'Im_RyanReynolds.png', 'Im_ElijahWood.png', 'Im_RyanGosling.png', 'Im_MattDamon.png'],same,1,0.7501861000018835,16,76.19047619047619,
BECO2507,10,inv,0,pos0_id13_im15.bmp_pos0_id19_im27.bmp,['Im_RobertDowneyJr.png', 'Im_HughJackman.png', 'Im_KeanuReeves.png', 'Im_BenAffleck.png', 'Im_RobertPattinson.png', 'Im_LeonardoDiCaprio.png', 'Im_RyanReynolds.png', 'Im_ElijahWood.png', 'Im_RyanGosling.png', 'Im_MattDamon.png'],diff,1,0.6669150000016089,17,76.19047619047619,
BECO2507,10,inv,120,pos120_id1_im24.bmp_pos120_id1_im21.bmp,['Im_RobertDowneyJr.png', 'Im_HughJackman.png', 'Im_KeanuReeves.png', 'Im_BenAffleck.png', 'Im_RobertPattinson.png', 'Im_LeonardoDiCaprio.png', 'Im_RyanReynolds.png', 'Im_ElijahWood.png', 'Im_RyanGosling.png', 'Im_MattDamon.png'],diff,0,0.42515110000022105,17,76.19047619047619,
BECO2507,10,inv,30,pos30_id20_im12.bmp_pos30_id20_im3.bmp,['Im_RobertDowneyJr.png', 'Im_HughJackman.png', 'Im_KeanuReeves.png', 'Im_BenAffleck.png', 'Im_RobertPattinson.png', 'Im_LeonardoDiCaprio.png', 'Im_RyanReynolds.png', 'Im_ElijahWood.png', 'Im_RyanGosling.png', 'Im_MattDamon.png'],same,1,0.43358989999978803,18,76.19047619047619,
BECO2507,10,inv,120,pos120_id21_im16.bmp_pos120_id21_im17.bmp,['Im_RobertDowneyJr.png', 'Im_HughJackman.png', 'Im_KeanuReeves.png', 'Im_BenAffleck.png', 'Im_RobertPattinson.png', 'Im_LeonardoDiCaprio.png', 'Im_RyanReynolds.png', 'Im_ElijahWood.png', 'Im_RyanGosling.png', 'Im_MattDamon.png'],diff,0,1.0416979999972682,18,76.19047619047619,
BECO2507,10,inv,fs,posfs_id13_im29.bmp_posfs_id13_im15.bmp,['Im_RobertDowneyJr.png', 'Im_HughJackman.png', 'Im_KeanuReeves.png', 'Im_BenAffleck.png', 'Im_RobertPattinson.png', 'Im_LeonardoDiCaprio.png', 'Im_RyanReynolds.png', 'Im_ElijahWood.png', 'Im_RyanGosling.png', 'Im_MattDamon.png'],same,1,0.40844880000076955,19,76.19047619047619,
BECO2507,10,inv,fs,posfs_id20_im30.bmp_posfs_id18_im11.bmp,['Im_RobertDowneyJr.png', 'Im_HughJackman.png', 'Im_KeanuReeves.png', 'Im_BenAffleck.png', 'Im_RobertPattinson.png', 'Im_LeonardoDiCaprio.png', 'Im_RyanReynolds.png', 'Im_ElijahWood.png', 'Im_RyanGosling.png', 'Im_MattDamon.png'],diff,1,0.4167386000008264,20,76.19047619047619,
BECO2507,10,inv,150,pos150_id1_im4.bmp_pos150_id21_im17.bmp,['Im_RobertDowneyJr.png', 'Im_HughJackman.png', 'Im_KeanuReeves.png', 'Im_BenAffleck.png', 'Im_RobertPattinson.png', 'Im_LeonardoDiCaprio.png', 'Im_RyanReynolds.png', 'Im_ElijahWood.png', 'Im_RyanGosling.png', 'Im_MattDamon.png'],diff,1,0.8836112999997567,21,76.19047619047619,
BECO2507,10,inv,150,pos150_id11_im1.bmp_pos150_id6_im12.bmp,['Im_RobertDowneyJr.png', 'Im_HughJackman.png', 'Im_KeanuReeves.png', 'Im_BenAffleck.png', 'Im_RobertPattinson.png', 'Im_LeonardoDiCaprio.png', 'Im_RyanReynolds.png', 'Im_ElijahWood.png', 'Im_RyanGosling.png', 'Im_MattDamon.png'],diff,1,0.4333139000009396,22,76.19047619047619,
BECO2507,10,inv,60,pos60_id8_im20.bmp_pos60_id8_im21.bmp,['Im_RobertDowneyJr.png', 'Im_HughJackman.png', 'Im_KeanuReeves.png', 'Im_BenAffleck.png', 'Im_RobertPattinson.png', 'Im_LeonardoDiCaprio.png', 'Im_RyanReynolds.png', 'Im_ElijahWood.png', 'Im_RyanGosling.png', 'Im_MattDamon.png'],same,1,0.4167331999997259,23,76.19047619047619,
BECO2507,11,neg,fs,negfs_id18_im18.bmp_negfs_id11_im10.bmp,['Im_RobertDowneyJr.png', 'Im_HughJackman.png', 'Im_KeanuReeves.png', 'Im_BenAffleck.png', 'Im_RobertPattinson.png', 'Im_LeonardoDiCaprio.png', 'Im_RyanReynolds.png', 'Im_ElijahWood.png', 'Im_RyanGosling.png', 'Im_MattDamon.png'],diff,1,0.4250399999982619,24,76.19047619047619,
BECO2507,11,neg,0,neg0_id18_im18.bmp_neg0_id21_im22.bmp,['Im_RobertDowneyJr.png', 'Im_HughJackman.png', 'Im_KeanuReeves.png', 'Im_BenAffleck.png', 'Im_RobertPattinson.png', 'Im_LeonardoDiCaprio.png', 'Im_RyanReynolds.png', 'Im_ElijahWood.png', 'Im_RyanGosling.png', 'Im_MattDamon.png'],same,0,0.42522039999676053,24,76.19047619047619,
BECO2507,11,neg,30,neg30_id8_im13.bmp_neg30_id8_im20.bmp,['Im_RobertDowneyJr.png', 'Im_HughJackman.png', 'Im_KeanuReeves.png', 'Im_BenAffleck.png', 'Im_RobertPattinson.png', 'Im_LeonardoDiCaprio.png', 'Im_RyanReynolds.png', 'Im_ElijahWood.png', 'Im_RyanGosling.png', 'Im_MattDamon.png'],same,1,0.5833755999992718,25,76.19047619047619,
BECO2507,11,neg,fs,negfs_id14_im16.bmp_negfs_id14_im24.bmp,['Im_RobertDowneyJr.png', 'Im_HughJackman.png', 'Im_KeanuReeves.png', 'Im_BenAffleck.png', 'Im_RobertPattinson.png', 'Im_LeonardoDiCaprio.png', 'Im_RyanReynolds.png', 'Im_ElijahWood.png', 'Im_RyanGosling.png', 'Im_MattDamon.png'],same,1,0.6334932000027038,26,76.19047619047619,
BECO2507,11,neg,60,neg60_id1_im4.bmp_neg60_id21_im17.bmp,['Im_RobertDowneyJr.png', 'Im_HughJackman.png', 'Im_KeanuReeves.png', 'Im_BenAffleck.png', 'Im_RobertPattinson.png', 'Im_LeonardoDiCaprio.png', 'Im_RyanReynolds.png', 'Im_ElijahWood.png', 'Im_RyanGosling.png', 'Im_MattDamon.png'],same,0,0.6499633000021277,26,76.19047619047619,
BECO2507,11,neg,150,neg150_id18_im18.bmp_neg150_id21_im22.bmp,['Im_RobertDowneyJr.png', 'Im_HughJackman.png', 'Im_KeanuReeves.png', 'Im_BenAffleck.png', 'Im_RobertPattinson.png', 'Im_LeonardoDiCaprio.png', 'Im_RyanReynolds.png', 'Im_ElijahWood.png', 'Im_RyanGosling.png', 'Im_MattDamon.png'],diff,1,0.7832063999994716,27,76.19047619047619,
BECO2507,11,neg,0,neg0_id20_im12.bmp_neg0_id20_im30.bmp,['Im_RobertDowneyJr.png', 'Im_HughJackman.png', 'Im_KeanuReeves.png', 'Im_BenAffleck.png', 'Im_RobertPattinson.png', 'Im_LeonardoDiCaprio.png', 'Im_RyanReynolds.png', 'Im_ElijahWood.png', 'Im_RyanGosling.png', 'Im_MattDamon.png'],same,1,0.7333455000007234,28,76.19047619047619,
BECO2507,11,neg,60,neg60_id6_im12.bmp_neg60_id6_im18.bmp,['Im_RobertDowneyJr.png', 'Im_HughJackman.png', 'Im_KeanuReeves.png', 'Im_BenAffleck.png', 'Im_RobertPattinson.png', 'Im_LeonardoDiCaprio.png', 'Im_RyanReynolds.png', 'Im_ElijahWood.png', 'Im_RyanGosling.png', 'Im_MattDamon.png'],diff,0,0.575064000000566,28,76.19047619047619,
BECO2507,11,neg,30,neg30_id19_im4.bmp_neg30_id8_im21.bmp,['Im_RobertDowneyJr.png', 'Im_HughJackman.png', 'Im_KeanuReeves.png', 'Im_BenAffleck.png', 'Im_RobertPattinson.png', 'Im_LeonardoDiCaprio.png', 'Im_RyanReynolds.png', 'Im_ElijahWood.png', 'Im_RyanGosling.png', 'Im_MattDamon.png'],diff,1,1.1250959000026342,29,76.19047619047619,
BECO2507,11,neg,150,neg150_id19_im8.bmp_neg150_id19_im4.bmp,['Im_RobertDowneyJr.png', 'Im_HughJackman.png', 'Im_KeanuReeves.png', 'Im_BenAffleck.png', 'Im_RobertPattinson.png', 'Im_LeonardoDiCaprio.png', 'Im_RyanReynolds.png', 'Im_ElijahWood.png', 'Im_RyanGosling.png', 'Im_MattDamon.png'],same,1,0.42504600000029313,30,76.19047619047619,
BECO2507,11,neg,90,neg90_id8_im13.bmp_neg90_id8_im21.bmp,['Im_RobertDowneyJr.png', 'Im_HughJackman.png', 'Im_KeanuReeves.png', 'Im_BenAffleck.png', 'Im_RobertPattinson.png', 'Im_LeonardoDiCaprio.png', 'Im_RyanReynolds.png', 'Im_ElijahWood.png', 'Im_RyanGosling.png', 'Im_MattDamon.png'],diff,0,0.4165802999996231,30,76.19047619047619,
BECO2507,11,neg,90,neg90_id21_im16.bmp_neg90_id6_im12.bmp,['Im_RobertDowneyJr.png', 'Im_HughJackman.png', 'Im_KeanuReeves.png', 'Im_BenAffleck.png', 'Im_RobertPattinson.png', 'Im_LeonardoDiCaprio.png', 'Im_RyanReynolds.png', 'Im_ElijahWood.png', 'Im_RyanGosling.png', 'Im_MattDamon.png'],diff,1,0.4167755999988003,31,76.19047619047619,
BECO2507,11,neg,120,neg120_id1_im21.bmp_neg120_id8_im20.bmp,['Im_RobertDowneyJr.png', 'Im_HughJackman.png', 'Im_KeanuReeves.png', 'Im_BenAffleck.png', 'Im_RobertPattinson.png', 'Im_LeonardoDiCaprio.png', 'Im_RyanReynolds.png', 'Im_ElijahWood.png', 'Im_RyanGosling.png', 'Im_MattDamon.png'],diff,1,0.9419662000000244,32,76.19047619047619,
BECO2507,11,neg,120,neg120_id19_im27.bmp_neg120_id19_im8.bmp,['Im_RobertDowneyJr.png', 'Im_HughJackman.png', 'Im_KeanuReeves.png', 'Im_BenAffleck.png', 'Im_RobertPattinson.png', 'Im_LeonardoDiCaprio.png', 'Im_RyanReynolds.png', 'Im_ElijahWood.png', 'Im_RyanGosling.png', 'Im_MattDamon.png'],same,1,0.633744899998419,33,76.19047619047619,
BECO2507,12,pos,90,pos90_id14_im24.bmp_pos90_id14_im18.bmp,['Im_RobertDowneyJr.png', 'Im_HughJackman.png', 'Im_KeanuReeves.png', 'Im_BenAffleck.png', 'Im_RobertPattinson.png', 'Im_LeonardoDiCaprio.png', 'Im_RyanReynolds.png', 'Im_ElijahWood.png', 'Im_RyanGosling.png', 'Im_MattDamon.png'],same,1,0.4667192000015348,1,78.57142857142857,
BECO2507,12,pos,150,pos150_id18_im11.bmp_pos150_id18_im19.bmp,['Im_RobertDowneyJr.png', 'Im_HughJackman.png', 'Im_KeanuReeves.png', 'Im_BenAffleck.png', 'Im_RobertPattinson.png', 'Im_LeonardoDiCaprio.png', 'Im_RyanReynolds.png', 'Im_ElijahWood.png', 'Im_RyanGosling.png', 'Im_MattDamon.png'],same,1,0.41659639999852516,2,78.57142857142857,
BECO2507,12,pos,120,pos120_id21_im17.bmp_pos120_id1_im4.bmp,['Im_RobertDowneyJr.png', 'Im_HughJackman.png', 'Im_KeanuReeves.png', 'Im_BenAffleck.png', 'Im_RobertPattinson.png', 'Im_LeonardoDiCaprio.png', 'Im_RyanReynolds.png', 'Im_ElijahWood.png', 'Im_RyanGosling.png', 'Im_MattDamon.png'],diff,1,0.42506159999902593,3,78.57142857142857,
BECO2507,12,pos,60,pos60_id19_im4.bmp_pos60_id8_im21.bmp,['Im_RobertDowneyJr.png', 'Im_HughJackman.png', 'Im_KeanuReeves.png', 'Im_BenAffleck.png', 'Im_RobertPattinson.png', 'Im_LeonardoDiCaprio.png', 'Im_RyanReynolds.png', 'Im_ElijahWood.png', 'Im_RyanGosling.png', 'Im_MattDamon.png'],diff,1,0.42506069999944884,4,78.57142857142857,
BECO2507,12,pos,0,pos0_id18_im19.bmp_pos0_id18_im11.bmp,['Im_RobertDowneyJr.png', 'Im_HughJackman.png', 'Im_KeanuReeves.png', 'Im_BenAffleck.png', 'Im_RobertPattinson.png', 'Im_LeonardoDiCaprio.png', 'Im_RyanReynolds.png', 'Im_ElijahWood.png', 'Im_RyanGosling.png', 'Im_MattDamon.png'],same,1,0.4333777000028931,5,78.57142857142857,
