Sujet,Trial,Condition,Filter,Imname,Actor0,Actor1,Actor2,Actor3,Actor4,Actor5,Actor6,Actor7,Actor8,Actor9,Answer,Accu,RT,Score,Scoreperc, 
BRMA1708,train,inv,60,pos60_id21_im16.bmp_pos60_id16_im19.bmp,['Im_DanielCraig.png', 'Im_LeonardoDiCaprio.png', 'Im_HughJackman.png', 'Im_RyanReynolds.png', 'Im_GeorgeClooney.png', 'Im_DanielRadcliffe.png', 'Im_OrlandoBloom.png', 'Im_RobertDowneyJr.png', 'Im_RobertPattinson.png', 'Im_KeanuReeves.png'],same,0,0.6833339999999453,0,0,
BRMA1708,train,inv,150,pos150_id7_im15.bmp_pos150_id21_im17.bmp,['Im_DanielCraig.png', 'Im_LeonardoDiCaprio.png', 'Im_HughJackman.png', 'Im_RyanReynolds.png', 'Im_GeorgeClooney.png', 'Im_DanielRadcliffe.png', 'Im_OrlandoBloom.png', 'Im_RobertDowneyJr.png', 'Im_RobertPattinson.png', 'Im_KeanuReeves.png'],diff,1,0.3998258999999962,1,0,
BRMA1708,train,inv,120,pos120_id4_im20.bmp_pos120_id11_im10.bmp,['Im_DanielCraig.png', 'Im_LeonardoDiCaprio.png', 'Im_HughJackman.png', 'Im_RyanReynolds.png', 'Im_GeorgeClooney.png', 'Im_DanielRadcliffe.png', 'Im_OrlandoBloom.png', 'Im_RobertDowneyJr.png', 'Im_RobertPattinson.png', 'Im_KeanuReeves.png'],same,0,0.41679229999999734,1,0,
BRMA1708,train,inv,90,pos90_id18_im18.bmp_pos90_id5_im20.bmp,['Im_DanielCraig.png', 'Im_LeonardoDiCaprio.png', 'Im_HughJackman.png', 'Im_RyanReynolds.png', 'Im_GeorgeClooney.png', 'Im_DanielRadcliffe.png', 'Im_OrlandoBloom.png', 'Im_RobertDowneyJr.png', 'Im_RobertPattinson.png', 'Im_KeanuReeves.png'],diff,1,0.5833163999999442,2,0,
BRMA1708,train,inv,120,pos120_id18_im11.bmp_pos120_id18_im18.bmp,['Im_DanielCraig.png', 'Im_LeonardoDiCaprio.png', 'Im_HughJackman.png', 'Im_RyanReynolds.png', 'Im_GeorgeClooney.png', 'Im_DanielRadcliffe.png', 'Im_OrlandoBloom.png', 'Im_RobertDowneyJr.png', 'Im_RobertPattinson.png', 'Im_KeanuReeves.png'],same,1,0.8501139999999623,3,0,
BRMA1708,train,inv,fs,posfs_id11_im10.bmp_posfs_id11_im1.bmp,['Im_DanielCraig.png', 'Im_LeonardoDiCaprio.png', 'Im_HughJackman.png', 'Im_RyanReynolds.png', 'Im_GeorgeClooney.png', 'Im_DanielRadcliffe.png', 'Im_OrlandoBloom.png', 'Im_RobertDowneyJr.png', 'Im_RobertPattinson.png', 'Im_KeanuReeves.png'],same,1,0.40853260000005776,4,0,
BRMA1708,train,inv,30,pos30_id13_im10.bmp_pos30_id16_im2.bmp,['Im_DanielCraig.png', 'Im_LeonardoDiCaprio.png', 'Im_HughJackman.png', 'Im_RyanReynolds.png', 'Im_GeorgeClooney.png', 'Im_DanielRadcliffe.png', 'Im_OrlandoBloom.png', 'Im_RobertDowneyJr.png', 'Im_RobertPattinson.png', 'Im_KeanuReeves.png'],same,0,0.9834806000000071,4,0,
BRMA1708,train,inv,60,pos60_id8_im20.bmp_pos60_id21_im16.bmp,['Im_DanielCraig.png', 'Im_LeonardoDiCaprio.png', 'Im_HughJackman.png', 'Im_RyanReynolds.png', 'Im_GeorgeClooney.png', 'Im_DanielRadcliffe.png', 'Im_OrlandoBloom.png', 'Im_RobertDowneyJr.png', 'Im_RobertPattinson.png', 'Im_KeanuReeves.png'],same,0,0.4750017999999727,4,0,
BRMA1708,train,inv,0,pos0_id8_im13.bmp_pos0_id16_im3.bmp,['Im_DanielCraig.png', 'Im_LeonardoDiCaprio.png', 'Im_HughJackman.png', 'Im_RyanReynolds.png', 'Im_GeorgeClooney.png', 'Im_DanielRadcliffe.png', 'Im_OrlandoBloom.png', 'Im_RobertDowneyJr.png', 'Im_RobertPattinson.png', 'Im_KeanuReeves.png'],same,0,1.2835440999999719,4,0,
BRMA1708,train,inv,90,pos90_id8_im13.bmp_pos90_id16_im3.bmp,['Im_DanielCraig.png', 'Im_LeonardoDiCaprio.png', 'Im_HughJackman.png', 'Im_RyanReynolds.png', 'Im_GeorgeClooney.png', 'Im_DanielRadcliffe.png', 'Im_OrlandoBloom.png', 'Im_RobertDowneyJr.png', 'Im_RobertPattinson.png', 'Im_KeanuReeves.png'],diff,1,0.5668256000000156,5,0,
BRMA1708,train,inv,fs,posfs_id19_im27.bmp_posfs_id19_im4.bmp,['Im_DanielCraig.png', 'Im_LeonardoDiCaprio.png', 'Im_HughJackman.png', 'Im_RyanReynolds.png', 'Im_GeorgeClooney.png', 'Im_DanielRadcliffe.png', 'Im_OrlandoBloom.png', 'Im_RobertDowneyJr.png', 'Im_RobertPattinson.png', 'Im_KeanuReeves.png'],same,1,0.39970610000000306,6,0,
BRMA1708,train,inv,150,pos150_id4_im7.bmp_pos150_id18_im11.bmp,['Im_DanielCraig.png', 'Im_LeonardoDiCaprio.png', 'Im_HughJackman.png', 'Im_RyanReynolds.png', 'Im_GeorgeClooney.png', 'Im_DanielRadcliffe.png', 'Im_OrlandoBloom.png', 'Im_RobertDowneyJr.png', 'Im_RobertPattinson.png', 'Im_KeanuReeves.png'],same,0,0.4083801000000449,6,0,
BRMA1708,train,inv,30,pos30_id11_im10.bmp_pos30_id18_im18.bmp,['Im_DanielCraig.png', 'Im_LeonardoDiCaprio.png', 'Im_HughJackman.png', 'Im_RyanReynolds.png', 'Im_GeorgeClooney.png', 'Im_DanielRadcliffe.png', 'Im_OrlandoBloom.png', 'Im_RobertDowneyJr.png', 'Im_RobertPattinson.png', 'Im_KeanuReeves.png'],diff,1,0.433178400000088,7,0,
BRMA1708,train,inv,0,pos0_id7_im26.bmp_pos0_id16_im19.bmp,['Im_DanielCraig.png', 'Im_LeonardoDiCaprio.png', 'Im_HughJackman.png', 'Im_RyanReynolds.png', 'Im_GeorgeClooney.png', 'Im_DanielRadcliffe.png', 'Im_OrlandoBloom.png', 'Im_RobertDowneyJr.png', 'Im_RobertPattinson.png', 'Im_KeanuReeves.png'],diff,1,0.4165404000000308,8,0,
BRMA1708,train,inv,150,pos150_id19_im27.bmp_pos150_id13_im15.bmp,['Im_DanielCraig.png', 'Im_LeonardoDiCaprio.png', 'Im_HughJackman.png', 'Im_RyanReynolds.png', 'Im_GeorgeClooney.png', 'Im_DanielRadcliffe.png', 'Im_OrlandoBloom.png', 'Im_RobertDowneyJr.png', 'Im_RobertPattinson.png', 'Im_KeanuReeves.png'],diff,1,0.5250326000000314,9,0,
BRMA1708,train,inv,0,pos0_id16_im3.bmp_pos0_id16_im2.bmp,['Im_DanielCraig.png', 'Im_LeonardoDiCaprio.png', 'Im_HughJackman.png', 'Im_RyanReynolds.png', 'Im_GeorgeClooney.png', 'Im_DanielRadcliffe.png', 'Im_OrlandoBloom.png', 'Im_RobertDowneyJr.png', 'Im_RobertPattinson.png', 'Im_KeanuReeves.png'],diff,0,0.4165239000000156,9,0,
BRMA1708,train,inv,90,pos90_id16_im2.bmp_pos90_id16_im19.bmp,['Im_DanielCraig.png', 'Im_LeonardoDiCaprio.png', 'Im_HughJackman.png', 'Im_RyanReynolds.png', 'Im_GeorgeClooney.png', 'Im_DanielRadcliffe.png', 'Im_OrlandoBloom.png', 'Im_RobertDowneyJr.png', 'Im_RobertPattinson.png', 'Im_KeanuReeves.png'],diff,0,0.5167762999999468,9,0,
BRMA1708,train,inv,0,pos0_id7_im26.bmp_pos0_id21_im17.bmp,['Im_DanielCraig.png', 'Im_LeonardoDiCaprio.png', 'Im_HughJackman.png', 'Im_RyanReynolds.png', 'Im_GeorgeClooney.png', 'Im_DanielRadcliffe.png', 'Im_OrlandoBloom.png', 'Im_RobertDowneyJr.png', 'Im_RobertPattinson.png', 'Im_KeanuReeves.png'],diff,1,0.4585971999999856,10,0,
BRMA1708,train,inv,60,pos60_id18_im11.bmp_pos60_id13_im15.bmp,['Im_DanielCraig.png', 'Im_LeonardoDiCaprio.png', 'Im_HughJackman.png', 'Im_RyanReynolds.png', 'Im_GeorgeClooney.png', 'Im_DanielRadcliffe.png', 'Im_OrlandoBloom.png', 'Im_RobertDowneyJr.png', 'Im_RobertPattinson.png', 'Im_KeanuReeves.png'],diff,1,0.5669579999999996,11,0,
BRMA1708,train,inv,fs,posfs_id21_im16.bmp_posfs_id21_im17.bmp,['Im_DanielCraig.png', 'Im_LeonardoDiCaprio.png', 'Im_HughJackman.png', 'Im_RyanReynolds.png', 'Im_GeorgeClooney.png', 'Im_DanielRadcliffe.png', 'Im_OrlandoBloom.png', 'Im_RobertDowneyJr.png', 'Im_RobertPattinson.png', 'Im_KeanuReeves.png'],same,1,0.39976720000004207,12,0,
BRMA1708,train,inv,fs,posfs_id11_im10.bmp_posfs_id18_im18.bmp,['Im_DanielCraig.png', 'Im_LeonardoDiCaprio.png', 'Im_HughJackman.png', 'Im_RyanReynolds.png', 'Im_GeorgeClooney.png', 'Im_DanielRadcliffe.png', 'Im_OrlandoBloom.png', 'Im_RobertDowneyJr.png', 'Im_RobertPattinson.png', 'Im_KeanuReeves.png'],diff,1,0.4169990999999982,13,0,
BRMA1708,train,inv,150,pos150_id19_im8.bmp_pos150_id19_im4.bmp,['Im_DanielCraig.png', 'Im_LeonardoDiCaprio.png', 'Im_HughJackman.png', 'Im_RyanReynolds.png', 'Im_GeorgeClooney.png', 'Im_DanielRadcliffe.png', 'Im_OrlandoBloom.png', 'Im_RobertDowneyJr.png', 'Im_RobertPattinson.png', 'Im_KeanuReeves.png'],same,1,0.716662499999984,14,0,
BRMA1708,train,inv,60,pos60_id7_im15.bmp_pos60_id7_im14.bmp,['Im_DanielCraig.png', 'Im_LeonardoDiCaprio.png', 'Im_HughJackman.png', 'Im_RyanReynolds.png', 'Im_GeorgeClooney.png', 'Im_DanielRadcliffe.png', 'Im_OrlandoBloom.png', 'Im_RobertDowneyJr.png', 'Im_RobertPattinson.png', 'Im_KeanuReeves.png'],same,1,0.4665734000000157,15,0,
BRMA1708,train,inv,120,pos120_id13_im15.bmp_pos120_id13_im29.bmp,['Im_DanielCraig.png', 'Im_LeonardoDiCaprio.png', 'Im_HughJackman.png', 'Im_RyanReynolds.png', 'Im_GeorgeClooney.png', 'Im_DanielRadcliffe.png', 'Im_OrlandoBloom.png', 'Im_RobertDowneyJr.png', 'Im_RobertPattinson.png', 'Im_KeanuReeves.png'],diff,0,1.2000523000000385,15,0,
BRMA1708,train,inv,30,pos30_id18_im11.bmp_pos30_id18_im19.bmp,['Im_DanielCraig.png', 'Im_LeonardoDiCaprio.png', 'Im_HughJackman.png', 'Im_RyanReynolds.png', 'Im_GeorgeClooney.png', 'Im_DanielRadcliffe.png', 'Im_OrlandoBloom.png', 'Im_RobertDowneyJr.png', 'Im_RobertPattinson.png', 'Im_KeanuReeves.png'],same,1,0.5583963000000267,16,0,
BRMA1708,train,inv,120,pos120_id11_im2.bmp_pos120_id13_im29.bmp,['Im_DanielCraig.png', 'Im_LeonardoDiCaprio.png', 'Im_HughJackman.png', 'Im_RyanReynolds.png', 'Im_GeorgeClooney.png', 'Im_DanielRadcliffe.png', 'Im_OrlandoBloom.png', 'Im_RobertDowneyJr.png', 'Im_RobertPattinson.png', 'Im_KeanuReeves.png'],diff,1,0.9831831000000193,17,0,
BRMA1708,train,inv,90,pos90_id11_im10.bmp_pos90_id18_im18.bmp,['Im_DanielCraig.png', 'Im_LeonardoDiCaprio.png', 'Im_HughJackman.png', 'Im_RyanReynolds.png', 'Im_GeorgeClooney.png', 'Im_DanielRadcliffe.png', 'Im_OrlandoBloom.png', 'Im_RobertDowneyJr.png', 'Im_RobertPattinson.png', 'Im_KeanuReeves.png'],diff,1,0.7086621999999352,18,0,
BRMA1708,train,inv,30,pos30_id7_im26.bmp_pos30_id16_im19.bmp,['Im_DanielCraig.png', 'Im_LeonardoDiCaprio.png', 'Im_HughJackman.png', 'Im_RyanReynolds.png', 'Im_GeorgeClooney.png', 'Im_DanielRadcliffe.png', 'Im_OrlandoBloom.png', 'Im_RobertDowneyJr.png', 'Im_RobertPattinson.png', 'Im_KeanuReeves.png'],diff,1,0.5998782000000347,19,0,
BRMA1708,train,pos,120,pos120_id8_im20.bmp_pos120_id8_im13.bmp,['Im_DanielCraig.png', 'Im_LeonardoDiCaprio.png', 'Im_HughJackman.png', 'Im_RyanReynolds.png', 'Im_GeorgeClooney.png', 'Im_DanielRadcliffe.png', 'Im_OrlandoBloom.png', 'Im_RobertDowneyJr.png', 'Im_RobertPattinson.png', 'Im_KeanuReeves.png'],same,1,0.40835759999993115,20,0,
BRMA1708,train,pos,120,pos120_id5_im1.bmp_pos120_id7_im14.bmp,['Im_DanielCraig.png', 'Im_LeonardoDiCaprio.png', 'Im_HughJackman.png', 'Im_RyanReynolds.png', 'Im_GeorgeClooney.png', 'Im_DanielRadcliffe.png', 'Im_OrlandoBloom.png', 'Im_RobertDowneyJr.png', 'Im_RobertPattinson.png', 'Im_KeanuReeves.png'],diff,1,0.4083524000000125,21,0,
BRMA1708,train,pos,0,pos0_id11_im10.bmp_pos0_id11_im1.bmp,['Im_DanielCraig.png', 'Im_LeonardoDiCaprio.png', 'Im_HughJackman.png', 'Im_RyanReynolds.png', 'Im_GeorgeClooney.png', 'Im_DanielRadcliffe.png', 'Im_OrlandoBloom.png', 'Im_RobertDowneyJr.png', 'Im_RobertPattinson.png', 'Im_KeanuReeves.png'],same,1,0.7833158999999341,22,0,
BRMA1708,train,pos,0,pos0_id18_im19.bmp_pos0_id4_im20.bmp,['Im_DanielCraig.png', 'Im_LeonardoDiCaprio.png', 'Im_HughJackman.png', 'Im_RyanReynolds.png', 'Im_GeorgeClooney.png', 'Im_DanielRadcliffe.png', 'Im_OrlandoBloom.png', 'Im_RobertDowneyJr.png', 'Im_RobertPattinson.png', 'Im_KeanuReeves.png'],diff,1,0.4167654999999968,23,0,
BRMA1708,train,pos,90,pos90_id7_im26.bmp_pos90_id7_im15.bmp,['Im_DanielCraig.png', 'Im_LeonardoDiCaprio.png', 'Im_HughJackman.png', 'Im_RyanReynolds.png', 'Im_GeorgeClooney.png', 'Im_DanielRadcliffe.png', 'Im_OrlandoBloom.png', 'Im_RobertDowneyJr.png', 'Im_RobertPattinson.png', 'Im_KeanuReeves.png'],diff,0,0.7669524000000365,23,0,
BRMA1708,train,pos,150,pos150_id8_im20.bmp_pos150_id8_im13.bmp,['Im_DanielCraig.png', 'Im_LeonardoDiCaprio.png', 'Im_HughJackman.png', 'Im_RyanReynolds.png', 'Im_GeorgeClooney.png', 'Im_DanielRadcliffe.png', 'Im_OrlandoBloom.png', 'Im_RobertDowneyJr.png', 'Im_RobertPattinson.png', 'Im_KeanuReeves.png'],same,1,0.41653199999996104,24,0,
BRMA1708,train,pos,fs,posfs_id16_im3.bmp_posfs_id8_im13.bmp,['Im_DanielCraig.png', 'Im_LeonardoDiCaprio.png', 'Im_HughJackman.png', 'Im_RyanReynolds.png', 'Im_GeorgeClooney.png', 'Im_DanielRadcliffe.png', 'Im_OrlandoBloom.png', 'Im_RobertDowneyJr.png', 'Im_RobertPattinson.png', 'Im_KeanuReeves.png'],diff,1,0.4167008000000578,25,0,
BRMA1708,train,pos,30,pos30_id5_im1.bmp_pos30_id5_im10.bmp,['Im_DanielCraig.png', 'Im_LeonardoDiCaprio.png', 'Im_HughJackman.png', 'Im_RyanReynolds.png', 'Im_GeorgeClooney.png', 'Im_DanielRadcliffe.png', 'Im_OrlandoBloom.png', 'Im_RobertDowneyJr.png', 'Im_RobertPattinson.png', 'Im_KeanuReeves.png'],same,1,0.4083738000000494,26,0,
BRMA1708,train,pos,fs,posfs_id13_im29.bmp_posfs_id13_im15.bmp,['Im_DanielCraig.png', 'Im_LeonardoDiCaprio.png', 'Im_HughJackman.png', 'Im_RyanReynolds.png', 'Im_GeorgeClooney.png', 'Im_DanielRadcliffe.png', 'Im_OrlandoBloom.png', 'Im_RobertDowneyJr.png', 'Im_RobertPattinson.png', 'Im_KeanuReeves.png'],same,1,0.5082316000000446,27,0,
BRMA1708,train,pos,60,pos60_id7_im26.bmp_pos60_id16_im19.bmp,['Im_DanielCraig.png', 'Im_LeonardoDiCaprio.png', 'Im_HughJackman.png', 'Im_RyanReynolds.png', 'Im_GeorgeClooney.png', 'Im_DanielRadcliffe.png', 'Im_OrlandoBloom.png', 'Im_RobertDowneyJr.png', 'Im_RobertPattinson.png', 'Im_KeanuReeves.png'],diff,1,1.2668345999999246,28,0,
BRMA1708,train,pos,60,pos60_id7_im14.bmp_pos60_id5_im1.bmp,['Im_DanielCraig.png', 'Im_LeonardoDiCaprio.png', 'Im_HughJackman.png', 'Im_RyanReynolds.png', 'Im_GeorgeClooney.png', 'Im_DanielRadcliffe.png', 'Im_OrlandoBloom.png', 'Im_RobertDowneyJr.png', 'Im_RobertPattinson.png', 'Im_KeanuReeves.png'],diff,1,1.3167481000000407,29,0,
BRMA1708,train,pos,150,pos150_id8_im20.bmp_pos150_id8_im21.bmp,['Im_DanielCraig.png', 'Im_LeonardoDiCaprio.png', 'Im_HughJackman.png', 'Im_RyanReynolds.png', 'Im_GeorgeClooney.png', 'Im_DanielRadcliffe.png', 'Im_OrlandoBloom.png', 'Im_RobertDowneyJr.png', 'Im_RobertPattinson.png', 'Im_KeanuReeves.png'],same,1,0.39970069999992575,30,0,
BRMA1708,train,pos,90,pos90_id11_im1.bmp_pos90_id11_im2.bmp,['Im_DanielCraig.png', 'Im_LeonardoDiCaprio.png', 'Im_HughJackman.png', 'Im_RyanReynolds.png', 'Im_GeorgeClooney.png', 'Im_DanielRadcliffe.png', 'Im_OrlandoBloom.png', 'Im_RobertDowneyJr.png', 'Im_RobertPattinson.png', 'Im_KeanuReeves.png'],same,1,0.4084292000000005,31,0,
BRMA1708,train,pos,30,pos30_id11_im1.bmp_pos30_id4_im15.bmp,['Im_DanielCraig.png', 'Im_LeonardoDiCaprio.png', 'Im_HughJackman.png', 'Im_RyanReynolds.png', 'Im_GeorgeClooney.png', 'Im_DanielRadcliffe.png', 'Im_OrlandoBloom.png', 'Im_RobertDowneyJr.png', 'Im_RobertPattinson.png', 'Im_KeanuReeves.png'],diff,1,0.5169390000000931,32,0,
BRMA1708,train,neg,60,neg60_id21_im17.bmp_neg60_id21_im16.bmp,['Im_DanielCraig.png', 'Im_LeonardoDiCaprio.png', 'Im_HughJackman.png', 'Im_RyanReynolds.png', 'Im_GeorgeClooney.png', 'Im_DanielRadcliffe.png', 'Im_OrlandoBloom.png', 'Im_RobertDowneyJr.png', 'Im_RobertPattinson.png', 'Im_KeanuReeves.png'],diff,0,1.1502047999999832,0,76.19047619047619,
BRMA1708,train,neg,0,neg0_id13_im15.bmp_neg0_id13_im10.bmp,['Im_DanielCraig.png', 'Im_LeonardoDiCaprio.png', 'Im_HughJackman.png', 'Im_RyanReynolds.png', 'Im_GeorgeClooney.png', 'Im_DanielRadcliffe.png', 'Im_OrlandoBloom.png', 'Im_RobertDowneyJr.png', 'Im_RobertPattinson.png', 'Im_KeanuReeves.png'],same,1,0.5337610000000268,1,76.19047619047619,
BRMA1708,train,neg,120,neg120_id16_im19.bmp_neg120_id16_im2.bmp,['Im_DanielCraig.png', 'Im_LeonardoDiCaprio.png', 'Im_HughJackman.png', 'Im_RyanReynolds.png', 'Im_GeorgeClooney.png', 'Im_DanielRadcliffe.png', 'Im_OrlandoBloom.png', 'Im_RobertDowneyJr.png', 'Im_RobertPattinson.png', 'Im_KeanuReeves.png'],same,1,0.3998403000000508,2,76.19047619047619,
BRMA1708,train,neg,90,neg90_id18_im18.bmp_neg90_id5_im20.bmp,['Im_DanielCraig.png', 'Im_LeonardoDiCaprio.png', 'Im_HughJackman.png', 'Im_RyanReynolds.png', 'Im_GeorgeClooney.png', 'Im_DanielRadcliffe.png', 'Im_OrlandoBloom.png', 'Im_RobertDowneyJr.png', 'Im_RobertPattinson.png', 'Im_KeanuReeves.png'],diff,1,0.41674569999997857,3,76.19047619047619,
BRMA1708,train,neg,60,neg60_id18_im19.bmp_neg60_id18_im11.bmp,['Im_DanielCraig.png', 'Im_LeonardoDiCaprio.png', 'Im_HughJackman.png', 'Im_RyanReynolds.png', 'Im_GeorgeClooney.png', 'Im_DanielRadcliffe.png', 'Im_OrlandoBloom.png', 'Im_RobertDowneyJr.png', 'Im_RobertPattinson.png', 'Im_KeanuReeves.png'],same,1,0.5079328000000487,4,76.19047619047619,
BRMA1708,train,neg,120,neg120_id7_im26.bmp_neg120_id21_im17.bmp,['Im_DanielCraig.png', 'Im_LeonardoDiCaprio.png', 'Im_HughJackman.png', 'Im_RyanReynolds.png', 'Im_GeorgeClooney.png', 'Im_DanielRadcliffe.png', 'Im_OrlandoBloom.png', 'Im_RobertDowneyJr.png', 'Im_RobertPattinson.png', 'Im_KeanuReeves.png'],diff,1,0.4167115999999851,5,76.19047619047619,
BRMA1708,train,neg,fs,negfs_id5_im20.bmp_negfs_id5_im10.bmp,['Im_DanielCraig.png', 'Im_LeonardoDiCaprio.png', 'Im_HughJackman.png', 'Im_RyanReynolds.png', 'Im_GeorgeClooney.png', 'Im_DanielRadcliffe.png', 'Im_OrlandoBloom.png', 'Im_RobertDowneyJr.png', 'Im_RobertPattinson.png', 'Im_KeanuReeves.png'],same,1,0.41665929999999207,6,76.19047619047619,
BRMA1708,train,neg,90,neg90_id4_im20.bmp_neg90_id11_im10.bmp,['Im_DanielCraig.png', 'Im_LeonardoDiCaprio.png', 'Im_HughJackman.png', 'Im_RyanReynolds.png', 'Im_GeorgeClooney.png', 'Im_DanielRadcliffe.png', 'Im_OrlandoBloom.png', 'Im_RobertDowneyJr.png', 'Im_RobertPattinson.png', 'Im_KeanuReeves.png'],same,0,0.43335000000001855,6,76.19047619047619,
BRMA1708,train,neg,0,neg0_id7_im26.bmp_neg0_id7_im15.bmp,['Im_DanielCraig.png', 'Im_LeonardoDiCaprio.png', 'Im_HughJackman.png', 'Im_RyanReynolds.png', 'Im_GeorgeClooney.png', 'Im_DanielRadcliffe.png', 'Im_OrlandoBloom.png', 'Im_RobertDowneyJr.png', 'Im_RobertPattinson.png', 'Im_KeanuReeves.png'],same,1,0.45857699999999113,7,76.19047619047619,
BRMA1708,train,neg,150,neg150_id21_im17.bmp_neg150_id21_im22.bmp,['Im_DanielCraig.png', 'Im_LeonardoDiCaprio.png', 'Im_HughJackman.png', 'Im_RyanReynolds.png', 'Im_GeorgeClooney.png', 'Im_DanielRadcliffe.png', 'Im_OrlandoBloom.png', 'Im_RobertDowneyJr.png', 'Im_RobertPattinson.png', 'Im_KeanuReeves.png'],same,1,0.4168422999999848,8,76.19047619047619,
BRMA1708,train,neg,fs,negfs_id19_im27.bmp_negfs_id13_im15.bmp,['Im_DanielCraig.png', 'Im_LeonardoDiCaprio.png', 'Im_HughJackman.png', 'Im_RyanReynolds.png', 'Im_GeorgeClooney.png', 'Im_DanielRadcliffe.png', 'Im_OrlandoBloom.png', 'Im_RobertDowneyJr.png', 'Im_RobertPattinson.png', 'Im_KeanuReeves.png'],diff,1,0.8251161999999113,9,76.19047619047619,
BRMA1708,train,neg,30,neg30_id8_im20.bmp_neg30_id19_im4.bmp,['Im_DanielCraig.png', 'Im_LeonardoDiCaprio.png', 'Im_HughJackman.png', 'Im_RyanReynolds.png', 'Im_GeorgeClooney.png', 'Im_DanielRadcliffe.png', 'Im_OrlandoBloom.png', 'Im_RobertDowneyJr.png', 'Im_RobertPattinson.png', 'Im_KeanuReeves.png'],diff,1,0.592152800000008,10,76.19047619047619,
BRMA1708,train,neg,30,neg30_id8_im20.bmp_neg30_id21_im16.bmp,['Im_DanielCraig.png', 'Im_LeonardoDiCaprio.png', 'Im_HughJackman.png', 'Im_RyanReynolds.png', 'Im_GeorgeClooney.png', 'Im_DanielRadcliffe.png', 'Im_OrlandoBloom.png', 'Im_RobertDowneyJr.png', 'Im_RobertPattinson.png', 'Im_KeanuReeves.png'],diff,1,0.5000601000000415,11,76.19047619047619,
BRMA1708,train,neg,150,neg150_id13_im29.bmp_neg150_id11_im2.bmp,['Im_DanielCraig.png', 'Im_LeonardoDiCaprio.png', 'Im_HughJackman.png', 'Im_RyanReynolds.png', 'Im_GeorgeClooney.png', 'Im_DanielRadcliffe.png', 'Im_OrlandoBloom.png', 'Im_RobertDowneyJr.png', 'Im_RobertPattinson.png', 'Im_KeanuReeves.png'],diff,1,0.4000579999999445,12,76.19047619047619,
BRMA1708,train,inv,150,pos150_id13_im29.bmp_pos150_id13_im15.bmp,['Im_DanielCraig.png', 'Im_LeonardoDiCaprio.png', 'Im_HughJackman.png', 'Im_RyanReynolds.png', 'Im_GeorgeClooney.png', 'Im_DanielRadcliffe.png', 'Im_OrlandoBloom.png', 'Im_RobertDowneyJr.png', 'Im_RobertPattinson.png', 'Im_KeanuReeves.png'],diff,0,0.5751725000000079,12,76.19047619047619,
BRMA1708,train,inv,60,pos60_id19_im4.bmp_pos60_id19_im8.bmp,['Im_DanielCraig.png', 'Im_LeonardoDiCaprio.png', 'Im_HughJackman.png', 'Im_RyanReynolds.png', 'Im_GeorgeClooney.png', 'Im_DanielRadcliffe.png', 'Im_OrlandoBloom.png', 'Im_RobertDowneyJr.png', 'Im_RobertPattinson.png', 'Im_KeanuReeves.png'],diff,0,0.4252883000000338,12,76.19047619047619,
BRMA1708,train,inv,120,pos120_id8_im13.bmp_pos120_id5_im10.bmp,['Im_DanielCraig.png', 'Im_LeonardoDiCaprio.png', 'Im_HughJackman.png', 'Im_RyanReynolds.png', 'Im_GeorgeClooney.png', 'Im_DanielRadcliffe.png', 'Im_OrlandoBloom.png', 'Im_RobertDowneyJr.png', 'Im_RobertPattinson.png', 'Im_KeanuReeves.png'],same,0,0.41674619999992046,12,76.19047619047619,
BRMA1708,train,inv,fs,posfs_id21_im16.bmp_posfs_id16_im19.bmp,['Im_DanielCraig.png', 'Im_LeonardoDiCaprio.png', 'Im_HughJackman.png', 'Im_RyanReynolds.png', 'Im_GeorgeClooney.png', 'Im_DanielRadcliffe.png', 'Im_OrlandoBloom.png', 'Im_RobertDowneyJr.png', 'Im_RobertPattinson.png', 'Im_KeanuReeves.png'],diff,1,0.4166496999999936,13,76.19047619047619,
BRMA1708,train,inv,60,pos60_id5_im1.bmp_pos60_id5_im10.bmp,['Im_DanielCraig.png', 'Im_LeonardoDiCaprio.png', 'Im_HughJackman.png', 'Im_RyanReynolds.png', 'Im_GeorgeClooney.png', 'Im_DanielRadcliffe.png', 'Im_OrlandoBloom.png', 'Im_RobertDowneyJr.png', 'Im_RobertPattinson.png', 'Im_KeanuReeves.png'],same,1,0.416605699999991,14,76.19047619047619,
BRMA1708,train,inv,0,pos0_id21_im17.bmp_pos0_id7_im15.bmp,['Im_DanielCraig.png', 'Im_LeonardoDiCaprio.png', 'Im_HughJackman.png', 'Im_RyanReynolds.png', 'Im_GeorgeClooney.png', 'Im_DanielRadcliffe.png', 'Im_OrlandoBloom.png', 'Im_RobertDowneyJr.png', 'Im_RobertPattinson.png', 'Im_KeanuReeves.png'],diff,1,0.41659089999996013,15,76.19047619047619,
BRMA1708,train,inv,30,pos30_id13_im15.bmp_pos30_id13_im10.bmp,['Im_DanielCraig.png', 'Im_LeonardoDiCaprio.png', 'Im_HughJackman.png', 'Im_RyanReynolds.png', 'Im_GeorgeClooney.png', 'Im_DanielRadcliffe.png', 'Im_OrlandoBloom.png', 'Im_RobertDowneyJr.png', 'Im_RobertPattinson.png', 'Im_KeanuReeves.png'],diff,0,0.6002561000000242,15,76.19047619047619,
BRMA1708,train,inv,120,pos120_id5_im1.bmp_pos120_id5_im20.bmp,['Im_DanielCraig.png', 'Im_LeonardoDiCaprio.png', 'Im_HughJackman.png', 'Im_RyanReynolds.png', 'Im_GeorgeClooney.png', 'Im_DanielRadcliffe.png', 'Im_OrlandoBloom.png', 'Im_RobertDowneyJr.png', 'Im_RobertPattinson.png', 'Im_KeanuReeves.png'],same,1,0.4085296999999173,16,76.19047619047619,
BRMA1708,train,inv,150,pos150_id18_im19.bmp_pos150_id4_im20.bmp,['Im_DanielCraig.png', 'Im_LeonardoDiCaprio.png', 'Im_HughJackman.png', 'Im_RyanReynolds.png', 'Im_GeorgeClooney.png', 'Im_DanielRadcliffe.png', 'Im_OrlandoBloom.png', 'Im_RobertDowneyJr.png', 'Im_RobertPattinson.png', 'Im_KeanuReeves.png'],diff,1,0.41685230000007323,17,76.19047619047619,
BRMA1708,train,inv,30,pos30_id21_im16.bmp_pos30_id16_im19.bmp,['Im_DanielCraig.png', 'Im_LeonardoDiCaprio.png', 'Im_HughJackman.png', 'Im_RyanReynolds.png', 'Im_GeorgeClooney.png', 'Im_DanielRadcliffe.png', 'Im_OrlandoBloom.png', 'Im_RobertDowneyJr.png', 'Im_RobertPattinson.png', 'Im_KeanuReeves.png'],diff,1,0.5085043999999925,18,76.19047619047619,
BRMA1708,train,inv,90,pos90_id5_im1.bmp_pos90_id5_im10.bmp,['Im_DanielCraig.png', 'Im_LeonardoDiCaprio.png', 'Im_HughJackman.png', 'Im_RyanReynolds.png', 'Im_GeorgeClooney.png', 'Im_DanielRadcliffe.png', 'Im_OrlandoBloom.png', 'Im_RobertDowneyJr.png', 'Im_RobertPattinson.png', 'Im_KeanuReeves.png'],same,1,0.41677100000003975,19,76.19047619047619,
BRMA1708,train,inv,fs,posfs_id16_im19.bmp_posfs_id7_im26.bmp,['Im_DanielCraig.png', 'Im_LeonardoDiCaprio.png', 'Im_HughJackman.png', 'Im_RyanReynolds.png', 'Im_GeorgeClooney.png', 'Im_DanielRadcliffe.png', 'Im_OrlandoBloom.png', 'Im_RobertDowneyJr.png', 'Im_RobertPattinson.png', 'Im_KeanuReeves.png'],diff,1,0.3998790000000554,20,76.19047619047619,
BRMA1708,train,inv,90,pos90_id19_im4.bmp_pos90_id19_im27.bmp,['Im_DanielCraig.png', 'Im_LeonardoDiCaprio.png', 'Im_HughJackman.png', 'Im_RyanReynolds.png', 'Im_GeorgeClooney.png', 'Im_DanielRadcliffe.png', 'Im_OrlandoBloom.png', 'Im_RobertDowneyJr.png', 'Im_RobertPattinson.png', 'Im_KeanuReeves.png'],same,1,0.5585708000000977,21,76.19047619047619,
BRMA1708,train,inv,0,pos0_id18_im11.bmp_pos0_id18_im18.bmp,['Im_DanielCraig.png', 'Im_LeonardoDiCaprio.png', 'Im_HughJackman.png', 'Im_RyanReynolds.png', 'Im_GeorgeClooney.png', 'Im_DanielRadcliffe.png', 'Im_OrlandoBloom.png', 'Im_RobertDowneyJr.png', 'Im_RobertPattinson.png', 'Im_KeanuReeves.png'],same,1,0.6000237000000652,22,76.19047619047619,
BRMA1708,train,neg,150,neg150_id5_im20.bmp_neg150_id5_im10.bmp,['Im_DanielCraig.png', 'Im_LeonardoDiCaprio.png', 'Im_HughJackman.png', 'Im_RyanReynolds.png', 'Im_GeorgeClooney.png', 'Im_DanielRadcliffe.png', 'Im_OrlandoBloom.png', 'Im_RobertDowneyJr.png', 'Im_RobertPattinson.png', 'Im_KeanuReeves.png'],same,1,0.5750596000000314,23,76.19047619047619,
BRMA1708,train,neg,150,neg150_id16_im3.bmp_neg150_id16_im19.bmp,['Im_DanielCraig.png', 'Im_LeonardoDiCaprio.png', 'Im_HughJackman.png', 'Im_RyanReynolds.png', 'Im_GeorgeClooney.png', 'Im_DanielRadcliffe.png', 'Im_OrlandoBloom.png', 'Im_RobertDowneyJr.png', 'Im_RobertPattinson.png', 'Im_KeanuReeves.png'],same,1,0.6667901000000711,24,76.19047619047619,
BRMA1708,train,neg,120,neg120_id7_im15.bmp_neg120_id16_im2.bmp,['Im_DanielCraig.png', 'Im_LeonardoDiCaprio.png', 'Im_HughJackman.png', 'Im_RyanReynolds.png', 'Im_GeorgeClooney.png', 'Im_DanielRadcliffe.png', 'Im_OrlandoBloom.png', 'Im_RobertDowneyJr.png', 'Im_RobertPattinson.png', 'Im_KeanuReeves.png'],diff,1,0.41672510000012153,25,76.19047619047619,
BRMA1708,train,neg,0,neg0_id7_im26.bmp_neg0_id7_im14.bmp,['Im_DanielCraig.png', 'Im_LeonardoDiCaprio.png', 'Im_HughJackman.png', 'Im_RyanReynolds.png', 'Im_GeorgeClooney.png', 'Im_DanielRadcliffe.png', 'Im_OrlandoBloom.png', 'Im_RobertDowneyJr.png', 'Im_RobertPattinson.png', 'Im_KeanuReeves.png'],same,1,0.7001619000000119,26,76.19047619047619,
BRMA1708,train,neg,fs,negfs_id5_im1.bmp_negfs_id7_im14.bmp,['Im_DanielCraig.png', 'Im_LeonardoDiCaprio.png', 'Im_HughJackman.png', 'Im_RyanReynolds.png', 'Im_GeorgeClooney.png', 'Im_DanielRadcliffe.png', 'Im_OrlandoBloom.png', 'Im_RobertDowneyJr.png', 'Im_RobertPattinson.png', 'Im_KeanuReeves.png'],diff,1,0.4168733000001339,27,76.19047619047619,
BRMA1708,train,neg,90,neg90_id5_im10.bmp_neg90_id8_im13.bmp,['Im_DanielCraig.png', 'Im_LeonardoDiCaprio.png', 'Im_HughJackman.png', 'Im_RyanReynolds.png', 'Im_GeorgeClooney.png', 'Im_DanielRadcliffe.png', 'Im_OrlandoBloom.png', 'Im_RobertDowneyJr.png', 'Im_RobertPattinson.png', 'Im_KeanuReeves.png'],diff,1,0.7504206999999496,28,76.19047619047619,
BRMA1708,train,neg,60,neg60_id8_im13.bmp_neg60_id8_im20.bmp,['Im_DanielCraig.png', 'Im_LeonardoDiCaprio.png', 'Im_HughJackman.png', 'Im_RyanReynolds.png', 'Im_GeorgeClooney.png', 'Im_DanielRadcliffe.png', 'Im_OrlandoBloom.png', 'Im_RobertDowneyJr.png', 'Im_RobertPattinson.png', 'Im_KeanuReeves.png'],same,1,0.42502379999996265,29,76.19047619047619,
BRMA1708,train,neg,90,neg90_id5_im20.bmp_neg90_id5_im1.bmp,['Im_DanielCraig.png', 'Im_LeonardoDiCaprio.png', 'Im_HughJackman.png', 'Im_RyanReynolds.png', 'Im_GeorgeClooney.png', 'Im_DanielRadcliffe.png', 'Im_OrlandoBloom.png', 'Im_RobertDowneyJr.png', 'Im_RobertPattinson.png', 'Im_KeanuReeves.png'],same,1,0.4083972000000813,30,76.19047619047619,
BRMA1708,train,neg,fs,negfs_id16_im2.bmp_negfs_id16_im3.bmp,['Im_DanielCraig.png', 'Im_LeonardoDiCaprio.png', 'Im_HughJackman.png', 'Im_RyanReynolds.png', 'Im_GeorgeClooney.png', 'Im_DanielRadcliffe.png', 'Im_OrlandoBloom.png', 'Im_RobertDowneyJr.png', 'Im_RobertPattinson.png', 'Im_KeanuReeves.png'],same,1,0.41655219999984183,31,76.19047619047619,
BRMA1708,train,neg,30,neg30_id5_im20.bmp_neg30_id5_im1.bmp,['Im_DanielCraig.png', 'Im_LeonardoDiCaprio.png', 'Im_HughJackman.png', 'Im_RyanReynolds.png', 'Im_GeorgeClooney.png', 'Im_DanielRadcliffe.png', 'Im_OrlandoBloom.png', 'Im_RobertDowneyJr.png', 'Im_RobertPattinson.png', 'Im_KeanuReeves.png'],same,1,0.41660030000002735,32,76.19047619047619,
BRMA1708,train,neg,0,neg0_id16_im2.bmp_neg0_id16_im19.bmp,['Im_DanielCraig.png', 'Im_LeonardoDiCaprio.png', 'Im_HughJackman.png', 'Im_RyanReynolds.png', 'Im_GeorgeClooney.png', 'Im_DanielRadcliffe.png', 'Im_OrlandoBloom.png', 'Im_RobertDowneyJr.png', 'Im_RobertPattinson.png', 'Im_KeanuReeves.png'],same,1,0.650415300000077,33,76.19047619047619,
BRMA1708,train,neg,60,neg60_id16_im2.bmp_neg60_id16_im19.bmp,['Im_DanielCraig.png', 'Im_LeonardoDiCaprio.png', 'Im_HughJackman.png', 'Im_RyanReynolds.png', 'Im_GeorgeClooney.png', 'Im_DanielRadcliffe.png', 'Im_OrlandoBloom.png', 'Im_RobertDowneyJr.png', 'Im_RobertPattinson.png', 'Im_KeanuReeves.png'],same,1,0.4167092000000139,34,76.19047619047619,
BRMA1708,train,neg,30,neg30_id11_im10.bmp_neg30_id4_im20.bmp,['Im_DanielCraig.png', 'Im_LeonardoDiCaprio.png', 'Im_HughJackman.png', 'Im_RyanReynolds.png', 'Im_GeorgeClooney.png', 'Im_DanielRadcliffe.png', 'Im_OrlandoBloom.png', 'Im_RobertDowneyJr.png', 'Im_RobertPattinson.png', 'Im_KeanuReeves.png'],diff,1,0.40826739999988604,35,76.19047619047619,
BRMA1708,train,neg,120,neg120_id8_im20.bmp_neg120_id21_im16.bmp,['Im_DanielCraig.png', 'Im_LeonardoDiCaprio.png', 'Im_HughJackman.png', 'Im_RyanReynolds.png', 'Im_GeorgeClooney.png', 'Im_DanielRadcliffe.png', 'Im_OrlandoBloom.png', 'Im_RobertDowneyJr.png', 'Im_RobertPattinson.png', 'Im_KeanuReeves.png'],diff,1,0.40831390000016654,36,76.19047619047619,
BRMA1708,0,inv,30,pos30_id11_im2.bmp_pos30_id11_im10.bmp,['Im_DanielCraig.png', 'Im_LeonardoDiCaprio.png', 'Im_HughJackman.png', 'Im_RyanReynolds.png', 'Im_GeorgeClooney.png', 'Im_DanielRadcliffe.png', 'Im_OrlandoBloom.png', 'Im_RobertDowneyJr.png', 'Im_RobertPattinson.png', 'Im_KeanuReeves.png'],same,1,0.40841789999990397,1,0,
BRMA1708,0,inv,90,pos90_id18_im11.bmp_pos90_id18_im18.bmp,['Im_DanielCraig.png', 'Im_LeonardoDiCaprio.png', 'Im_HughJackman.png', 'Im_RyanReynolds.png', 'Im_GeorgeClooney.png', 'Im_DanielRadcliffe.png', 'Im_OrlandoBloom.png', 'Im_RobertDowneyJr.png', 'Im_RobertPattinson.png', 'Im_KeanuReeves.png'],diff,0,0.4085179999999582,1,0,
BRMA1708,0,inv,0,pos0_id11_im1.bmp_pos0_id11_im10.bmp,['Im_DanielCraig.png', 'Im_LeonardoDiCaprio.png', 'Im_HughJackman.png', 'Im_RyanReynolds.png', 'Im_GeorgeClooney.png', 'Im_DanielRadcliffe.png', 'Im_OrlandoBloom.png', 'Im_RobertDowneyJr.png', 'Im_RobertPattinson.png', 'Im_KeanuReeves.png'],same,1,1.0587219999999888,2,0,
BRMA1708,0,inv,120,pos120_id11_im10.bmp_pos120_id11_im1.bmp,['Im_DanielCraig.png', 'Im_LeonardoDiCaprio.png', 'Im_HughJackman.png', 'Im_RyanReynolds.png', 'Im_GeorgeClooney.png', 'Im_DanielRadcliffe.png', 'Im_OrlandoBloom.png', 'Im_RobertDowneyJr.png', 'Im_RobertPattinson.png', 'Im_KeanuReeves.png'],same,1,0.45856149999985973,3,0,
BRMA1708,0,inv,150,pos150_id21_im22.bmp_pos150_id5_im10.bmp,['Im_DanielCraig.png', 'Im_LeonardoDiCaprio.png', 'Im_HughJackman.png', 'Im_RyanReynolds.png', 'Im_GeorgeClooney.png', 'Im_DanielRadcliffe.png', 'Im_OrlandoBloom.png', 'Im_RobertDowneyJr.png', 'Im_RobertPattinson.png', 'Im_KeanuReeves.png'],diff,1,0.40831840000009834,4,0,
BRMA1708,0,inv,30,pos30_id16_im3.bmp_pos30_id16_im2.bmp,['Im_DanielCraig.png', 'Im_LeonardoDiCaprio.png', 'Im_HughJackman.png', 'Im_RyanReynolds.png', 'Im_GeorgeClooney.png', 'Im_DanielRadcliffe.png', 'Im_OrlandoBloom.png', 'Im_RobertDowneyJr.png', 'Im_RobertPattinson.png', 'Im_KeanuReeves.png'],same,1,0.4084636000000046,5,0,
BRMA1708,0,inv,60,pos60_id16_im3.bmp_pos60_id8_im13.bmp,['Im_DanielCraig.png', 'Im_LeonardoDiCaprio.png', 'Im_HughJackman.png', 'Im_RyanReynolds.png', 'Im_GeorgeClooney.png', 'Im_DanielRadcliffe.png', 'Im_OrlandoBloom.png', 'Im_RobertDowneyJr.png', 'Im_RobertPattinson.png', 'Im_KeanuReeves.png'],diff,1,0.40855489999989913,6,0,
BRMA1708,0,inv,0,pos0_id19_im4.bmp_pos0_id8_im21.bmp,['Im_DanielCraig.png', 'Im_LeonardoDiCaprio.png', 'Im_HughJackman.png', 'Im_RyanReynolds.png', 'Im_GeorgeClooney.png', 'Im_DanielRadcliffe.png', 'Im_OrlandoBloom.png', 'Im_RobertDowneyJr.png', 'Im_RobertPattinson.png', 'Im_KeanuReeves.png'],same,0,0.458217999999988,6,0,
BRMA1708,0,inv,150,pos150_id7_im15.bmp_pos150_id7_im26.bmp,['Im_DanielCraig.png', 'Im_LeonardoDiCaprio.png', 'Im_HughJackman.png', 'Im_RyanReynolds.png', 'Im_GeorgeClooney.png', 'Im_DanielRadcliffe.png', 'Im_OrlandoBloom.png', 'Im_RobertDowneyJr.png', 'Im_RobertPattinson.png', 'Im_KeanuReeves.png'],same,1,0.40837069999997766,7,0,
BRMA1708,0,inv,90,pos90_id4_im7.bmp_pos90_id18_im11.bmp,['Im_DanielCraig.png', 'Im_LeonardoDiCaprio.png', 'Im_HughJackman.png', 'Im_RyanReynolds.png', 'Im_GeorgeClooney.png', 'Im_DanielRadcliffe.png', 'Im_OrlandoBloom.png', 'Im_RobertDowneyJr.png', 'Im_RobertPattinson.png', 'Im_KeanuReeves.png'],diff,1,0.616963799999894,8,0,
BRMA1708,0,inv,60,pos60_id4_im7.bmp_pos60_id4_im20.bmp,['Im_DanielCraig.png', 'Im_LeonardoDiCaprio.png', 'Im_HughJackman.png', 'Im_RyanReynolds.png', 'Im_GeorgeClooney.png', 'Im_DanielRadcliffe.png', 'Im_OrlandoBloom.png', 'Im_RobertDowneyJr.png', 'Im_RobertPattinson.png', 'Im_KeanuReeves.png'],same,1,0.40010770000003504,9,0,
BRMA1708,0,inv,fs,posfs_id19_im4.bmp_posfs_id19_im8.bmp,['Im_DanielCraig.png', 'Im_LeonardoDiCaprio.png', 'Im_HughJackman.png', 'Im_RyanReynolds.png', 'Im_GeorgeClooney.png', 'Im_DanielRadcliffe.png', 'Im_OrlandoBloom.png', 'Im_RobertDowneyJr.png', 'Im_RobertPattinson.png', 'Im_KeanuReeves.png'],same,1,0.41679419999991296,10,0,
BRMA1708,0,inv,120,pos120_id21_im16.bmp_pos120_id8_im20.bmp,['Im_DanielCraig.png', 'Im_LeonardoDiCaprio.png', 'Im_HughJackman.png', 'Im_RyanReynolds.png', 'Im_GeorgeClooney.png', 'Im_DanielRadcliffe.png', 'Im_OrlandoBloom.png', 'Im_RobertDowneyJr.png', 'Im_RobertPattinson.png', 'Im_KeanuReeves.png'],diff,1,0.47541369999999006,11,0,
BRMA1708,0,inv,fs,posfs_id19_im4.bmp_posfs_id8_im21.bmp,['Im_DanielCraig.png', 'Im_LeonardoDiCaprio.png', 'Im_HughJackman.png', 'Im_RyanReynolds.png', 'Im_GeorgeClooney.png', 'Im_DanielRadcliffe.png', 'Im_OrlandoBloom.png', 'Im_RobertDowneyJr.png', 'Im_RobertPattinson.png', 'Im_KeanuReeves.png'],diff,1,0.40837729999998373,12,0,
BRMA1708,1,inv,60,pos60_id16_im3.bmp_pos60_id16_im2.bmp,['Im_DanielCraig.png', 'Im_LeonardoDiCaprio.png', 'Im_HughJackman.png', 'Im_RyanReynolds.png', 'Im_GeorgeClooney.png', 'Im_DanielRadcliffe.png', 'Im_OrlandoBloom.png', 'Im_RobertDowneyJr.png', 'Im_RobertPattinson.png', 'Im_KeanuReeves.png'],diff,0,0.4169156999998904,12,0,
BRMA1708,1,inv,30,pos30_id21_im22.bmp_pos30_id21_im16.bmp,['Im_DanielCraig.png', 'Im_LeonardoDiCaprio.png', 'Im_HughJackman.png', 'Im_RyanReynolds.png', 'Im_GeorgeClooney.png', 'Im_DanielRadcliffe.png', 'Im_OrlandoBloom.png', 'Im_RobertDowneyJr.png', 'Im_RobertPattinson.png', 'Im_KeanuReeves.png'],same,1,0.4168076999999357,13,0,
BRMA1708,1,inv,fs,posfs_id4_im20.bmp_posfs_id11_im10.bmp,['Im_DanielCraig.png', 'Im_LeonardoDiCaprio.png', 'Im_HughJackman.png', 'Im_RyanReynolds.png', 'Im_GeorgeClooney.png', 'Im_DanielRadcliffe.png', 'Im_OrlandoBloom.png', 'Im_RobertDowneyJr.png', 'Im_RobertPattinson.png', 'Im_KeanuReeves.png'],diff,1,0.4250523000000612,14,0,
BRMA1708,1,inv,0,pos0_id5_im20.bmp_pos0_id18_im19.bmp,['Im_DanielCraig.png', 'Im_LeonardoDiCaprio.png', 'Im_HughJackman.png', 'Im_RyanReynolds.png', 'Im_GeorgeClooney.png', 'Im_DanielRadcliffe.png', 'Im_OrlandoBloom.png', 'Im_RobertDowneyJr.png', 'Im_RobertPattinson.png', 'Im_KeanuReeves.png'],diff,1,0.41659260000005816,15,0,
BRMA1708,1,inv,60,pos60_id18_im19.bmp_pos60_id18_im11.bmp,['Im_DanielCraig.png', 'Im_LeonardoDiCaprio.png', 'Im_HughJackman.png', 'Im_RyanReynolds.png', 'Im_GeorgeClooney.png', 'Im_DanielRadcliffe.png', 'Im_OrlandoBloom.png', 'Im_RobertDowneyJr.png', 'Im_RobertPattinson.png', 'Im_KeanuReeves.png'],diff,0,0.4251793999999336,15,0,
BRMA1708,1,inv,90,pos90_id4_im15.bmp_pos90_id4_im20.bmp,['Im_DanielCraig.png', 'Im_LeonardoDiCaprio.png', 'Im_HughJackman.png', 'Im_RyanReynolds.png', 'Im_GeorgeClooney.png', 'Im_DanielRadcliffe.png', 'Im_OrlandoBloom.png', 'Im_RobertDowneyJr.png', 'Im_RobertPattinson.png', 'Im_KeanuReeves.png'],same,1,0.4250555000000986,16,0,
BRMA1708,1,inv,150,pos150_id7_im15.bmp_pos150_id7_im14.bmp,['Im_DanielCraig.png', 'Im_LeonardoDiCaprio.png', 'Im_HughJackman.png', 'Im_RyanReynolds.png', 'Im_GeorgeClooney.png', 'Im_DanielRadcliffe.png', 'Im_OrlandoBloom.png', 'Im_RobertDowneyJr.png', 'Im_RobertPattinson.png', 'Im_KeanuReeves.png'],same,1,0.533513700000185,17,0,
BRMA1708,1,inv,0,pos0_id16_im3.bmp_pos0_id19_im8.bmp,['Im_DanielCraig.png', 'Im_LeonardoDiCaprio.png', 'Im_HughJackman.png', 'Im_RyanReynolds.png', 'Im_GeorgeClooney.png', 'Im_DanielRadcliffe.png', 'Im_OrlandoBloom.png', 'Im_RobertDowneyJr.png', 'Im_RobertPattinson.png', 'Im_KeanuReeves.png'],same,0,0.6085468000001129,17,0,
BRMA1708,1,inv,30,pos30_id13_im10.bmp_pos30_id19_im8.bmp,['Im_DanielCraig.png', 'Im_LeonardoDiCaprio.png', 'Im_HughJackman.png', 'Im_RyanReynolds.png', 'Im_GeorgeClooney.png', 'Im_DanielRadcliffe.png', 'Im_OrlandoBloom.png', 'Im_RobertDowneyJr.png', 'Im_RobertPattinson.png', 'Im_KeanuReeves.png'],diff,1,0.4251099999999042,18,0,
BRMA1708,1,inv,150,pos150_id21_im16.bmp_pos150_id8_im20.bmp,['Im_DanielCraig.png', 'Im_LeonardoDiCaprio.png', 'Im_HughJackman.png', 'Im_RyanReynolds.png', 'Im_GeorgeClooney.png', 'Im_DanielRadcliffe.png', 'Im_OrlandoBloom.png', 'Im_RobertDowneyJr.png', 'Im_RobertPattinson.png', 'Im_KeanuReeves.png'],diff,1,0.4250868999999966,19,0,
BRMA1708,1,inv,120,pos120_id5_im10.bmp_pos120_id5_im1.bmp,['Im_DanielCraig.png', 'Im_LeonardoDiCaprio.png', 'Im_HughJackman.png', 'Im_RyanReynolds.png', 'Im_GeorgeClooney.png', 'Im_DanielRadcliffe.png', 'Im_OrlandoBloom.png', 'Im_RobertDowneyJr.png', 'Im_RobertPattinson.png', 'Im_KeanuReeves.png'],same,1,0.4167334999999639,20,0,
BRMA1708,1,inv,90,pos90_id19_im4.bmp_pos90_id8_im21.bmp,['Im_DanielCraig.png', 'Im_LeonardoDiCaprio.png', 'Im_HughJackman.png', 'Im_RyanReynolds.png', 'Im_GeorgeClooney.png', 'Im_DanielRadcliffe.png', 'Im_OrlandoBloom.png', 'Im_RobertDowneyJr.png', 'Im_RobertPattinson.png', 'Im_KeanuReeves.png'],diff,1,0.41685819999997875,21,0,
BRMA1708,1,inv,fs,posfs_id16_im2.bmp_posfs_id16_im3.bmp,['Im_DanielCraig.png', 'Im_LeonardoDiCaprio.png', 'Im_HughJackman.png', 'Im_RyanReynolds.png', 'Im_GeorgeClooney.png', 'Im_DanielRadcliffe.png', 'Im_OrlandoBloom.png', 'Im_RobertDowneyJr.png', 'Im_RobertPattinson.png', 'Im_KeanuReeves.png'],same,1,0.4085178000000269,22,0,
BRMA1708,1,inv,120,pos120_id13_im10.bmp_pos120_id16_im2.bmp,['Im_DanielCraig.png', 'Im_LeonardoDiCaprio.png', 'Im_HughJackman.png', 'Im_RyanReynolds.png', 'Im_GeorgeClooney.png', 'Im_DanielRadcliffe.png', 'Im_OrlandoBloom.png', 'Im_RobertDowneyJr.png', 'Im_RobertPattinson.png', 'Im_KeanuReeves.png'],diff,1,0.6332411999999294,23,0,
BRMA1708,2,pos,90,pos90_id18_im11.bmp_pos90_id13_im15.bmp,['Im_DanielCraig.png', 'Im_LeonardoDiCaprio.png', 'Im_HughJackman.png', 'Im_RyanReynolds.png', 'Im_GeorgeClooney.png', 'Im_DanielRadcliffe.png', 'Im_OrlandoBloom.png', 'Im_RobertDowneyJr.png', 'Im_RobertPattinson.png', 'Im_KeanuReeves.png'],diff,1,0.41685069999994084,24,0,
BRMA1708,2,pos,60,pos60_id21_im16.bmp_pos60_id21_im17.bmp,['Im_DanielCraig.png', 'Im_LeonardoDiCaprio.png', 'Im_HughJackman.png', 'Im_RyanReynolds.png', 'Im_GeorgeClooney.png', 'Im_DanielRadcliffe.png', 'Im_OrlandoBloom.png', 'Im_RobertDowneyJr.png', 'Im_RobertPattinson.png', 'Im_KeanuReeves.png'],same,1,0.42507399999999507,25,0,
BRMA1708,2,pos,120,pos120_id18_im18.bmp_pos120_id11_im10.bmp,['Im_DanielCraig.png', 'Im_LeonardoDiCaprio.png', 'Im_HughJackman.png', 'Im_RyanReynolds.png', 'Im_GeorgeClooney.png', 'Im_DanielRadcliffe.png', 'Im_OrlandoBloom.png', 'Im_RobertDowneyJr.png', 'Im_RobertPattinson.png', 'Im_KeanuReeves.png'],diff,1,0.42508780000002844,26,0,
BRMA1708,2,pos,120,pos120_id5_im1.bmp_pos120_id5_im10.bmp,['Im_DanielCraig.png', 'Im_LeonardoDiCaprio.png', 'Im_HughJackman.png', 'Im_RyanReynolds.png', 'Im_GeorgeClooney.png', 'Im_DanielRadcliffe.png', 'Im_OrlandoBloom.png', 'Im_RobertDowneyJr.png', 'Im_RobertPattinson.png', 'Im_KeanuReeves.png'],same,1,0.40845070000000305,27,0,
BRMA1708,2,pos,0,pos0_id4_im7.bmp_pos0_id8_im21.bmp,['Im_DanielCraig.png', 'Im_LeonardoDiCaprio.png', 'Im_HughJackman.png', 'Im_RyanReynolds.png', 'Im_GeorgeClooney.png', 'Im_DanielRadcliffe.png', 'Im_OrlandoBloom.png', 'Im_RobertDowneyJr.png', 'Im_RobertPattinson.png', 'Im_KeanuReeves.png'],diff,1,0.4167363999999907,28,0,
BRMA1708,2,pos,fs,posfs_id18_im11.bmp_posfs_id18_im18.bmp,['Im_DanielCraig.png', 'Im_LeonardoDiCaprio.png', 'Im_HughJackman.png', 'Im_RyanReynolds.png', 'Im_GeorgeClooney.png', 'Im_DanielRadcliffe.png', 'Im_OrlandoBloom.png', 'Im_RobertDowneyJr.png', 'Im_RobertPattinson.png', 'Im_KeanuReeves.png'],same,1,0.4165957000000162,29,0,
BRMA1708,2,pos,60,pos60_id8_im20.bmp_pos60_id19_im4.bmp,['Im_DanielCraig.png', 'Im_LeonardoDiCaprio.png', 'Im_HughJackman.png', 'Im_RyanReynolds.png', 'Im_GeorgeClooney.png', 'Im_DanielRadcliffe.png', 'Im_OrlandoBloom.png', 'Im_RobertDowneyJr.png', 'Im_RobertPattinson.png', 'Im_KeanuReeves.png'],diff,1,0.416539099999909,30,0,
BRMA1708,2,pos,fs,posfs_id7_im15.bmp_posfs_id16_im2.bmp,['Im_DanielCraig.png', 'Im_LeonardoDiCaprio.png', 'Im_HughJackman.png', 'Im_RyanReynolds.png', 'Im_GeorgeClooney.png', 'Im_DanielRadcliffe.png', 'Im_OrlandoBloom.png', 'Im_RobertDowneyJr.png', 'Im_RobertPattinson.png', 'Im_KeanuReeves.png'],diff,1,0.416773300000159,31,0,
BRMA1708,2,pos,150,pos150_id8_im13.bmp_pos150_id16_im3.bmp,['Im_DanielCraig.png', 'Im_LeonardoDiCaprio.png', 'Im_HughJackman.png', 'Im_RyanReynolds.png', 'Im_GeorgeClooney.png', 'Im_DanielRadcliffe.png', 'Im_OrlandoBloom.png', 'Im_RobertDowneyJr.png', 'Im_RobertPattinson.png', 'Im_KeanuReeves.png'],diff,1,0.41678330000013375,32,0,
BRMA1708,2,pos,30,pos30_id11_im1.bmp_pos30_id11_im2.bmp,['Im_DanielCraig.png', 'Im_LeonardoDiCaprio.png', 'Im_HughJackman.png', 'Im_RyanReynolds.png', 'Im_GeorgeClooney.png', 'Im_DanielRadcliffe.png', 'Im_OrlandoBloom.png', 'Im_RobertDowneyJr.png', 'Im_RobertPattinson.png', 'Im_KeanuReeves.png'],same,1,0.4084593000000041,33,0,
BRMA1708,2,pos,90,pos90_id11_im2.bmp_pos90_id11_im10.bmp,['Im_DanielCraig.png', 'Im_LeonardoDiCaprio.png', 'Im_HughJackman.png', 'Im_RyanReynolds.png', 'Im_GeorgeClooney.png', 'Im_DanielRadcliffe.png', 'Im_OrlandoBloom.png', 'Im_RobertDowneyJr.png', 'Im_RobertPattinson.png', 'Im_KeanuReeves.png'],same,1,0.425063899999941,34,0,
BRMA1708,2,pos,0,pos0_id11_im10.bmp_pos0_id11_im2.bmp,['Im_DanielCraig.png', 'Im_LeonardoDiCaprio.png', 'Im_HughJackman.png', 'Im_RyanReynolds.png', 'Im_GeorgeClooney.png', 'Im_DanielRadcliffe.png', 'Im_OrlandoBloom.png', 'Im_RobertDowneyJr.png', 'Im_RobertPattinson.png', 'Im_KeanuReeves.png'],same,1,0.41674090000014985,35,0,
BRMA1708,2,pos,150,pos150_id19_im8.bmp_pos150_id19_im27.bmp,['Im_DanielCraig.png', 'Im_LeonardoDiCaprio.png', 'Im_HughJackman.png', 'Im_RyanReynolds.png', 'Im_GeorgeClooney.png', 'Im_DanielRadcliffe.png', 'Im_OrlandoBloom.png', 'Im_RobertDowneyJr.png', 'Im_RobertPattinson.png', 'Im_KeanuReeves.png'],same,1,0.4252389000000676,36,0,
BRMA1708,2,pos,30,pos30_id13_im29.bmp_pos30_id11_im2.bmp,['Im_DanielCraig.png', 'Im_LeonardoDiCaprio.png', 'Im_HughJackman.png', 'Im_RyanReynolds.png', 'Im_GeorgeClooney.png', 'Im_DanielRadcliffe.png', 'Im_OrlandoBloom.png', 'Im_RobertDowneyJr.png', 'Im_RobertPattinson.png', 'Im_KeanuReeves.png'],diff,1,0.40834339999992153,37,0,
BRMA1708,3,neg,fs,negfs_id8_im20.bmp_negfs_id21_im16.bmp,['Im_DanielCraig.png', 'Im_LeonardoDiCaprio.png', 'Im_HughJackman.png', 'Im_RyanReynolds.png', 'Im_GeorgeClooney.png', 'Im_DanielRadcliffe.png', 'Im_OrlandoBloom.png', 'Im_RobertDowneyJr.png', 'Im_RobertPattinson.png', 'Im_KeanuReeves.png'],diff,1,0.4165513999998893,1,88.0952380952381,
BRMA1708,3,neg,0,neg0_id13_im29.bmp_neg0_id11_im2.bmp,['Im_DanielCraig.png', 'Im_LeonardoDiCaprio.png', 'Im_HughJackman.png', 'Im_RyanReynolds.png', 'Im_GeorgeClooney.png', 'Im_DanielRadcliffe.png', 'Im_OrlandoBloom.png', 'Im_RobertDowneyJr.png', 'Im_RobertPattinson.png', 'Im_KeanuReeves.png'],diff,1,0.6171360999999251,2,88.0952380952381,
BRMA1708,3,neg,90,neg90_id18_im11.bmp_neg90_id18_im19.bmp,['Im_DanielCraig.png', 'Im_LeonardoDiCaprio.png', 'Im_HughJackman.png', 'Im_RyanReynolds.png', 'Im_GeorgeClooney.png', 'Im_DanielRadcliffe.png', 'Im_OrlandoBloom.png', 'Im_RobertDowneyJr.png', 'Im_RobertPattinson.png', 'Im_KeanuReeves.png'],same,1,0.4332678000000669,3,88.0952380952381,
BRMA1708,3,neg,90,neg90_id11_im2.bmp_neg90_id11_im1.bmp,['Im_DanielCraig.png', 'Im_LeonardoDiCaprio.png', 'Im_HughJackman.png', 'Im_RyanReynolds.png', 'Im_GeorgeClooney.png', 'Im_DanielRadcliffe.png', 'Im_OrlandoBloom.png', 'Im_RobertDowneyJr.png', 'Im_RobertPattinson.png', 'Im_KeanuReeves.png'],diff,0,0.4167840999998589,3,88.0952380952381,
BRMA1708,3,neg,120,neg120_id5_im20.bmp_neg120_id5_im1.bmp,['Im_DanielCraig.png', 'Im_LeonardoDiCaprio.png', 'Im_HughJackman.png', 'Im_RyanReynolds.png', 'Im_GeorgeClooney.png', 'Im_DanielRadcliffe.png', 'Im_OrlandoBloom.png', 'Im_RobertDowneyJr.png', 'Im_RobertPattinson.png', 'Im_KeanuReeves.png'],same,1,0.4166924999999537,4,88.0952380952381,
BRMA1708,3,neg,30,neg30_id5_im10.bmp_neg30_id21_im22.bmp,['Im_DanielCraig.png', 'Im_LeonardoDiCaprio.png', 'Im_HughJackman.png', 'Im_RyanReynolds.png', 'Im_GeorgeClooney.png', 'Im_DanielRadcliffe.png', 'Im_OrlandoBloom.png', 'Im_RobertDowneyJr.png', 'Im_RobertPattinson.png', 'Im_KeanuReeves.png'],diff,1,0.4249369999999999,5,88.0952380952381,
BRMA1708,3,neg,fs,negfs_id13_im10.bmp_negfs_id19_im8.bmp,['Im_DanielCraig.png', 'Im_LeonardoDiCaprio.png', 'Im_HughJackman.png', 'Im_RyanReynolds.png', 'Im_GeorgeClooney.png', 'Im_DanielRadcliffe.png', 'Im_OrlandoBloom.png', 'Im_RobertDowneyJr.png', 'Im_RobertPattinson.png', 'Im_KeanuReeves.png'],diff,1,0.4252681999998913,6,88.0952380952381,
BRMA1708,3,neg,60,neg60_id11_im2.bmp_neg60_id11_im10.bmp,['Im_DanielCraig.png', 'Im_LeonardoDiCaprio.png', 'Im_HughJackman.png', 'Im_RyanReynolds.png', 'Im_GeorgeClooney.png', 'Im_DanielRadcliffe.png', 'Im_OrlandoBloom.png', 'Im_RobertDowneyJr.png', 'Im_RobertPattinson.png', 'Im_KeanuReeves.png'],same,1,0.4168030999999246,7,88.0952380952381,
BRMA1708,3,neg,150,neg150_id16_im3.bmp_neg150_id16_im2.bmp,['Im_DanielCraig.png', 'Im_LeonardoDiCaprio.png', 'Im_HughJackman.png', 'Im_RyanReynolds.png', 'Im_GeorgeClooney.png', 'Im_DanielRadcliffe.png', 'Im_OrlandoBloom.png', 'Im_RobertDowneyJr.png', 'Im_RobertPattinson.png', 'Im_KeanuReeves.png'],same,1,0.42508329999986927,8,88.0952380952381,
BRMA1708,3,neg,60,neg60_id18_im19.bmp_neg60_id4_im20.bmp,['Im_DanielCraig.png', 'Im_LeonardoDiCaprio.png', 'Im_HughJackman.png', 'Im_RyanReynolds.png', 'Im_GeorgeClooney.png', 'Im_DanielRadcliffe.png', 'Im_OrlandoBloom.png', 'Im_RobertDowneyJr.png', 'Im_RobertPattinson.png', 'Im_KeanuReeves.png'],diff,1,0.42508649999990666,9,88.0952380952381,
BRMA1708,3,neg,120,neg120_id16_im3.bmp_neg120_id16_im2.bmp,['Im_DanielCraig.png', 'Im_LeonardoDiCaprio.png', 'Im_HughJackman.png', 'Im_RyanReynolds.png', 'Im_GeorgeClooney.png', 'Im_DanielRadcliffe.png', 'Im_OrlandoBloom.png', 'Im_RobertDowneyJr.png', 'Im_RobertPattinson.png', 'Im_KeanuReeves.png'],same,1,0.41671649999989313,10,88.0952380952381,
BRMA1708,3,neg,0,neg0_id19_im27.bmp_neg0_id5_im1.bmp,['Im_DanielCraig.png', 'Im_LeonardoDiCaprio.png', 'Im_HughJackman.png', 'Im_RyanReynolds.png', 'Im_GeorgeClooney.png', 'Im_DanielRadcliffe.png', 'Im_OrlandoBloom.png', 'Im_RobertDowneyJr.png', 'Im_RobertPattinson.png', 'Im_KeanuReeves.png'],diff,1,0.40845020000006116,11,88.0952380952381,
BRMA1708,3,neg,150,neg150_id18_im18.bmp_neg150_id18_im11.bmp,['Im_DanielCraig.png', 'Im_LeonardoDiCaprio.png', 'Im_HughJackman.png', 'Im_RyanReynolds.png', 'Im_GeorgeClooney.png', 'Im_DanielRadcliffe.png', 'Im_OrlandoBloom.png', 'Im_RobertDowneyJr.png', 'Im_RobertPattinson.png', 'Im_KeanuReeves.png'],same,1,0.5584066999999777,12,88.0952380952381,
BRMA1708,3,neg,30,neg30_id21_im17.bmp_neg30_id21_im16.bmp,['Im_DanielCraig.png', 'Im_LeonardoDiCaprio.png', 'Im_HughJackman.png', 'Im_RyanReynolds.png', 'Im_GeorgeClooney.png', 'Im_DanielRadcliffe.png', 'Im_OrlandoBloom.png', 'Im_RobertDowneyJr.png', 'Im_RobertPattinson.png', 'Im_KeanuReeves.png'],same,1,0.42525130000012723,13,88.0952380952381,
BRMA1708,4,pos,fs,posfs_id5_im10.bmp_posfs_id5_im1.bmp,['Im_DanielCraig.png', 'Im_LeonardoDiCaprio.png', 'Im_HughJackman.png', 'Im_RyanReynolds.png', 'Im_GeorgeClooney.png', 'Im_DanielRadcliffe.png', 'Im_OrlandoBloom.png', 'Im_RobertDowneyJr.png', 'Im_RobertPattinson.png', 'Im_KeanuReeves.png'],same,1,0.4252238999999918,14,88.0952380952381,
BRMA1708,4,pos,120,pos120_id21_im16.bmp_pos120_id16_im19.bmp,['Im_DanielCraig.png', 'Im_LeonardoDiCaprio.png', 'Im_HughJackman.png', 'Im_RyanReynolds.png', 'Im_GeorgeClooney.png', 'Im_DanielRadcliffe.png', 'Im_OrlandoBloom.png', 'Im_RobertDowneyJr.png', 'Im_RobertPattinson.png', 'Im_KeanuReeves.png'],diff,1,0.4168019999999615,15,88.0952380952381,
BRMA1708,4,pos,30,pos30_id4_im7.bmp_pos30_id4_im15.bmp,['Im_DanielCraig.png', 'Im_LeonardoDiCaprio.png', 'Im_HughJackman.png', 'Im_RyanReynolds.png', 'Im_GeorgeClooney.png', 'Im_DanielRadcliffe.png', 'Im_OrlandoBloom.png', 'Im_RobertDowneyJr.png', 'Im_RobertPattinson.png', 'Im_KeanuReeves.png'],same,1,0.6250234999999975,16,88.0952380952381,
BRMA1708,4,pos,60,pos60_id13_im10.bmp_pos60_id16_im2.bmp,['Im_DanielCraig.png', 'Im_LeonardoDiCaprio.png', 'Im_HughJackman.png', 'Im_RyanReynolds.png', 'Im_GeorgeClooney.png', 'Im_DanielRadcliffe.png', 'Im_OrlandoBloom.png', 'Im_RobertDowneyJr.png', 'Im_RobertPattinson.png', 'Im_KeanuReeves.png'],diff,1,0.4249251999999615,17,88.0952380952381,
BRMA1708,4,pos,60,pos60_id11_im2.bmp_pos60_id11_im1.bmp,['Im_DanielCraig.png', 'Im_LeonardoDiCaprio.png', 'Im_HughJackman.png', 'Im_RyanReynolds.png', 'Im_GeorgeClooney.png', 'Im_DanielRadcliffe.png', 'Im_OrlandoBloom.png', 'Im_RobertDowneyJr.png', 'Im_RobertPattinson.png', 'Im_KeanuReeves.png'],same,1,0.4167747999999847,18,88.0952380952381,
BRMA1708,4,pos,90,pos90_id11_im2.bmp_pos90_id21_im22.bmp,['Im_DanielCraig.png', 'Im_LeonardoDiCaprio.png', 'Im_HughJackman.png', 'Im_RyanReynolds.png', 'Im_GeorgeClooney.png', 'Im_DanielRadcliffe.png', 'Im_OrlandoBloom.png', 'Im_RobertDowneyJr.png', 'Im_RobertPattinson.png', 'Im_KeanuReeves.png'],diff,1,0.4168006999998397,19,88.0952380952381,
BRMA1708,4,pos,30,pos30_id18_im19.bmp_pos30_id18_im11.bmp,['Im_DanielCraig.png', 'Im_LeonardoDiCaprio.png', 'Im_HughJackman.png', 'Im_RyanReynolds.png', 'Im_GeorgeClooney.png', 'Im_DanielRadcliffe.png', 'Im_OrlandoBloom.png', 'Im_RobertDowneyJr.png', 'Im_RobertPattinson.png', 'Im_KeanuReeves.png'],diff,0,0.41675320000013016,19,88.0952380952381,
BRMA1708,4,pos,150,pos150_id13_im29.bmp_pos150_id13_im15.bmp,['Im_DanielCraig.png', 'Im_LeonardoDiCaprio.png', 'Im_HughJackman.png', 'Im_RyanReynolds.png', 'Im_GeorgeClooney.png', 'Im_DanielRadcliffe.png', 'Im_OrlandoBloom.png', 'Im_RobertDowneyJr.png', 'Im_RobertPattinson.png', 'Im_KeanuReeves.png'],diff,0,0.42507499999987886,19,88.0952380952381,
BRMA1708,4,pos,fs,posfs_id21_im22.bmp_posfs_id5_im10.bmp,['Im_DanielCraig.png', 'Im_LeonardoDiCaprio.png', 'Im_HughJackman.png', 'Im_RyanReynolds.png', 'Im_GeorgeClooney.png', 'Im_DanielRadcliffe.png', 'Im_OrlandoBloom.png', 'Im_RobertDowneyJr.png', 'Im_RobertPattinson.png', 'Im_KeanuReeves.png'],diff,1,0.42507960000011735,20,88.0952380952381,
BRMA1708,4,pos,120,pos120_id13_im15.bmp_pos120_id13_im10.bmp,['Im_DanielCraig.png', 'Im_LeonardoDiCaprio.png', 'Im_HughJackman.png', 'Im_RyanReynolds.png', 'Im_GeorgeClooney.png', 'Im_DanielRadcliffe.png', 'Im_OrlandoBloom.png', 'Im_RobertDowneyJr.png', 'Im_RobertPattinson.png', 'Im_KeanuReeves.png'],same,1,0.42497210000010455,21,88.0952380952381,
BRMA1708,4,pos,150,pos150_id13_im10.bmp_pos150_id19_im8.bmp,['Im_DanielCraig.png', 'Im_LeonardoDiCaprio.png', 'Im_HughJackman.png', 'Im_RyanReynolds.png', 'Im_GeorgeClooney.png', 'Im_DanielRadcliffe.png', 'Im_OrlandoBloom.png', 'Im_RobertDowneyJr.png', 'Im_RobertPattinson.png', 'Im_KeanuReeves.png'],diff,1,0.424948699999959,22,88.0952380952381,
BRMA1708,4,pos,0,pos0_id19_im4.bmp_pos0_id19_im27.bmp,['Im_DanielCraig.png', 'Im_LeonardoDiCaprio.png', 'Im_HughJackman.png', 'Im_RyanReynolds.png', 'Im_GeorgeClooney.png', 'Im_DanielRadcliffe.png', 'Im_OrlandoBloom.png', 'Im_RobertDowneyJr.png', 'Im_RobertPattinson.png', 'Im_KeanuReeves.png'],same,1,0.40858939999998256,23,88.0952380952381,
BRMA1708,4,pos,90,pos90_id18_im19.bmp_pos90_id18_im11.bmp,['Im_DanielCraig.png', 'Im_LeonardoDiCaprio.png', 'Im_HughJackman.png', 'Im_RyanReynolds.png', 'Im_GeorgeClooney.png', 'Im_DanielRadcliffe.png', 'Im_OrlandoBloom.png', 'Im_RobertDowneyJr.png', 'Im_RobertPattinson.png', 'Im_KeanuReeves.png'],same,1,0.4416810999998688,24,88.0952380952381,
BRMA1708,4,pos,0,pos0_id11_im2.bmp_pos0_id21_im22.bmp,['Im_DanielCraig.png', 'Im_LeonardoDiCaprio.png', 'Im_HughJackman.png', 'Im_RyanReynolds.png', 'Im_GeorgeClooney.png', 'Im_DanielRadcliffe.png', 'Im_OrlandoBloom.png', 'Im_RobertDowneyJr.png', 'Im_RobertPattinson.png', 'Im_KeanuReeves.png'],same,0,0.9751029999999901,24,88.0952380952381,
BRMA1708,5,neg,90,neg90_id18_im19.bmp_neg90_id4_im20.bmp,['Im_DanielCraig.png', 'Im_LeonardoDiCaprio.png', 'Im_HughJackman.png', 'Im_RyanReynolds.png', 'Im_GeorgeClooney.png', 'Im_DanielRadcliffe.png', 'Im_OrlandoBloom.png', 'Im_RobertDowneyJr.png', 'Im_RobertPattinson.png', 'Im_KeanuReeves.png'],diff,1,0.8504666999999699,25,88.0952380952381,
BRMA1708,5,neg,60,neg60_id11_im1.bmp_neg60_id4_im15.bmp,['Im_DanielCraig.png', 'Im_LeonardoDiCaprio.png', 'Im_HughJackman.png', 'Im_RyanReynolds.png', 'Im_GeorgeClooney.png', 'Im_DanielRadcliffe.png', 'Im_OrlandoBloom.png', 'Im_RobertDowneyJr.png', 'Im_RobertPattinson.png', 'Im_KeanuReeves.png'],diff,1,0.4083114000000023,26,88.0952380952381,
BRMA1708,5,neg,fs,negfs_id11_im10.bmp_negfs_id11_im1.bmp,['Im_DanielCraig.png', 'Im_LeonardoDiCaprio.png', 'Im_HughJackman.png', 'Im_RyanReynolds.png', 'Im_GeorgeClooney.png', 'Im_DanielRadcliffe.png', 'Im_OrlandoBloom.png', 'Im_RobertDowneyJr.png', 'Im_RobertPattinson.png', 'Im_KeanuReeves.png'],same,1,0.4168809999998757,27,88.0952380952381,
BRMA1708,5,neg,120,neg120_id5_im10.bmp_neg120_id5_im20.bmp,['Im_DanielCraig.png', 'Im_LeonardoDiCaprio.png', 'Im_HughJackman.png', 'Im_RyanReynolds.png', 'Im_GeorgeClooney.png', 'Im_DanielRadcliffe.png', 'Im_OrlandoBloom.png', 'Im_RobertDowneyJr.png', 'Im_RobertPattinson.png', 'Im_KeanuReeves.png'],diff,0,0.41673820000005435,27,88.0952380952381,
BRMA1708,5,neg,0,neg0_id21_im17.bmp_neg0_id21_im16.bmp,['Im_DanielCraig.png', 'Im_LeonardoDiCaprio.png', 'Im_HughJackman.png', 'Im_RyanReynolds.png', 'Im_GeorgeClooney.png', 'Im_DanielRadcliffe.png', 'Im_OrlandoBloom.png', 'Im_RobertDowneyJr.png', 'Im_RobertPattinson.png', 'Im_KeanuReeves.png'],same,1,0.40822000000002845,28,88.0952380952381,
BRMA1708,5,neg,30,neg30_id4_im15.bmp_neg30_id4_im7.bmp,['Im_DanielCraig.png', 'Im_LeonardoDiCaprio.png', 'Im_HughJackman.png', 'Im_RyanReynolds.png', 'Im_GeorgeClooney.png', 'Im_DanielRadcliffe.png', 'Im_OrlandoBloom.png', 'Im_RobertDowneyJr.png', 'Im_RobertPattinson.png', 'Im_KeanuReeves.png'],same,1,0.4084104999999454,29,88.0952380952381,
BRMA1708,5,neg,90,neg90_id19_im4.bmp_neg90_id19_im8.bmp,['Im_DanielCraig.png', 'Im_LeonardoDiCaprio.png', 'Im_HughJackman.png', 'Im_RyanReynolds.png', 'Im_GeorgeClooney.png', 'Im_DanielRadcliffe.png', 'Im_OrlandoBloom.png', 'Im_RobertDowneyJr.png', 'Im_RobertPattinson.png', 'Im_KeanuReeves.png'],diff,0,1.1834071999999196,29,88.0952380952381,
BRMA1708,5,neg,120,neg120_id4_im7.bmp_neg120_id4_im20.bmp,['Im_DanielCraig.png', 'Im_LeonardoDiCaprio.png', 'Im_HughJackman.png', 'Im_RyanReynolds.png', 'Im_GeorgeClooney.png', 'Im_DanielRadcliffe.png', 'Im_OrlandoBloom.png', 'Im_RobertDowneyJr.png', 'Im_RobertPattinson.png', 'Im_KeanuReeves.png'],same,1,0.42491850000010345,30,88.0952380952381,
BRMA1708,5,neg,0,neg0_id19_im4.bmp_neg0_id8_im20.bmp,['Im_DanielCraig.png', 'Im_LeonardoDiCaprio.png', 'Im_HughJackman.png', 'Im_RyanReynolds.png', 'Im_GeorgeClooney.png', 'Im_DanielRadcliffe.png', 'Im_OrlandoBloom.png', 'Im_RobertDowneyJr.png', 'Im_RobertPattinson.png', 'Im_KeanuReeves.png'],diff,1,0.5502771000001303,31,88.0952380952381,
BRMA1708,5,neg,150,neg150_id21_im16.bmp_neg150_id21_im22.bmp,['Im_DanielCraig.png', 'Im_LeonardoDiCaprio.png', 'Im_HughJackman.png', 'Im_RyanReynolds.png', 'Im_GeorgeClooney.png', 'Im_DanielRadcliffe.png', 'Im_OrlandoBloom.png', 'Im_RobertDowneyJr.png', 'Im_RobertPattinson.png', 'Im_KeanuReeves.png'],same,1,0.4166999000001397,32,88.0952380952381,
BRMA1708,5,neg,150,neg150_id8_im20.bmp_neg150_id8_im21.bmp,['Im_DanielCraig.png', 'Im_LeonardoDiCaprio.png', 'Im_HughJackman.png', 'Im_RyanReynolds.png', 'Im_GeorgeClooney.png', 'Im_DanielRadcliffe.png', 'Im_OrlandoBloom.png', 'Im_RobertDowneyJr.png', 'Im_RobertPattinson.png', 'Im_KeanuReeves.png'],same,1,0.4500680999999531,33,88.0952380952381,
BRMA1708,5,neg,30,neg30_id11_im1.bmp_neg30_id11_im2.bmp,['Im_DanielCraig.png', 'Im_LeonardoDiCaprio.png', 'Im_HughJackman.png', 'Im_RyanReynolds.png', 'Im_GeorgeClooney.png', 'Im_DanielRadcliffe.png', 'Im_OrlandoBloom.png', 'Im_RobertDowneyJr.png', 'Im_RobertPattinson.png', 'Im_KeanuReeves.png'],same,1,0.42530200000010154,34,88.0952380952381,
BRMA1708,5,neg,fs,negfs_id4_im7.bmp_negfs_id18_im11.bmp,['Im_DanielCraig.png', 'Im_LeonardoDiCaprio.png', 'Im_HughJackman.png', 'Im_RyanReynolds.png', 'Im_GeorgeClooney.png', 'Im_DanielRadcliffe.png', 'Im_OrlandoBloom.png', 'Im_RobertDowneyJr.png', 'Im_RobertPattinson.png', 'Im_KeanuReeves.png'],diff,1,0.4167184999998881,35,88.0952380952381,
BRMA1708,5,neg,60,neg60_id8_im13.bmp_neg60_id5_im10.bmp,['Im_DanielCraig.png', 'Im_LeonardoDiCaprio.png', 'Im_HughJackman.png', 'Im_RyanReynolds.png', 'Im_GeorgeClooney.png', 'Im_DanielRadcliffe.png', 'Im_OrlandoBloom.png', 'Im_RobertDowneyJr.png', 'Im_RobertPattinson.png', 'Im_KeanuReeves.png'],diff,1,0.4169315000001461,36,88.0952380952381,
BRMA1708,6,inv,150,pos150_id18_im18.bmp_pos150_id11_im10.bmp,['Im_DanielCraig.png', 'Im_LeonardoDiCaprio.png', 'Im_HughJackman.png', 'Im_RyanReynolds.png', 'Im_GeorgeClooney.png', 'Im_DanielRadcliffe.png', 'Im_OrlandoBloom.png', 'Im_RobertDowneyJr.png', 'Im_RobertPattinson.png', 'Im_KeanuReeves.png'],same,0,0.42503880000003846,0,85.71428571428571,
BRMA1708,6,inv,120,pos120_id7_im26.bmp_pos120_id21_im17.bmp,['Im_DanielCraig.png', 'Im_LeonardoDiCaprio.png', 'Im_HughJackman.png', 'Im_RyanReynolds.png', 'Im_GeorgeClooney.png', 'Im_DanielRadcliffe.png', 'Im_OrlandoBloom.png', 'Im_RobertDowneyJr.png', 'Im_RobertPattinson.png', 'Im_KeanuReeves.png'],diff,1,0.41697720000001937,1,85.71428571428571,
BRMA1708,6,inv,30,pos30_id18_im11.bmp_pos30_id4_im7.bmp,['Im_DanielCraig.png', 'Im_LeonardoDiCaprio.png', 'Im_HughJackman.png', 'Im_RyanReynolds.png', 'Im_GeorgeClooney.png', 'Im_DanielRadcliffe.png', 'Im_OrlandoBloom.png', 'Im_RobertDowneyJr.png', 'Im_RobertPattinson.png', 'Im_KeanuReeves.png'],diff,1,0.40851229999998395,2,85.71428571428571,
BRMA1708,6,inv,90,pos90_id16_im3.bmp_pos90_id16_im2.bmp,['Im_DanielCraig.png', 'Im_LeonardoDiCaprio.png', 'Im_HughJackman.png', 'Im_RyanReynolds.png', 'Im_GeorgeClooney.png', 'Im_DanielRadcliffe.png', 'Im_OrlandoBloom.png', 'Im_RobertDowneyJr.png', 'Im_RobertPattinson.png', 'Im_KeanuReeves.png'],diff,0,0.45839999999998327,2,85.71428571428571,
BRMA1708,6,inv,90,pos90_id13_im29.bmp_pos90_id13_im15.bmp,['Im_DanielCraig.png', 'Im_LeonardoDiCaprio.png', 'Im_HughJackman.png', 'Im_RyanReynolds.png', 'Im_GeorgeClooney.png', 'Im_DanielRadcliffe.png', 'Im_OrlandoBloom.png', 'Im_RobertDowneyJr.png', 'Im_RobertPattinson.png', 'Im_KeanuReeves.png'],same,1,1.2084841000000779,3,85.71428571428571,
BRMA1708,6,inv,60,pos60_id8_im20.bmp_pos60_id19_im4.bmp,['Im_DanielCraig.png', 'Im_LeonardoDiCaprio.png', 'Im_HughJackman.png', 'Im_RyanReynolds.png', 'Im_GeorgeClooney.png', 'Im_DanielRadcliffe.png', 'Im_OrlandoBloom.png', 'Im_RobertDowneyJr.png', 'Im_RobertPattinson.png', 'Im_KeanuReeves.png'],diff,1,0.42510700000002544,4,85.71428571428571,
BRMA1708,6,inv,fs,posfs_id8_im20.bmp_posfs_id21_im16.bmp,['Im_DanielCraig.png', 'Im_LeonardoDiCaprio.png', 'Im_HughJackman.png', 'Im_RyanReynolds.png', 'Im_GeorgeClooney.png', 'Im_DanielRadcliffe.png', 'Im_OrlandoBloom.png', 'Im_RobertDowneyJr.png', 'Im_RobertPattinson.png', 'Im_KeanuReeves.png'],diff,1,0.5333639000000403,5,85.71428571428571,
BRMA1708,6,inv,60,pos60_id5_im1.bmp_pos60_id7_im14.bmp,['Im_DanielCraig.png', 'Im_LeonardoDiCaprio.png', 'Im_HughJackman.png', 'Im_RyanReynolds.png', 'Im_GeorgeClooney.png', 'Im_DanielRadcliffe.png', 'Im_OrlandoBloom.png', 'Im_RobertDowneyJr.png', 'Im_RobertPattinson.png', 'Im_KeanuReeves.png'],diff,1,0.4168188999999529,6,85.71428571428571,
BRMA1708,6,inv,150,pos150_id21_im22.bmp_pos150_id21_im17.bmp,['Im_DanielCraig.png', 'Im_LeonardoDiCaprio.png', 'Im_HughJackman.png', 'Im_RyanReynolds.png', 'Im_GeorgeClooney.png', 'Im_DanielRadcliffe.png', 'Im_OrlandoBloom.png', 'Im_RobertDowneyJr.png', 'Im_RobertPattinson.png', 'Im_KeanuReeves.png'],same,1,0.4334049999999934,7,85.71428571428571,
BRMA1708,6,inv,0,pos0_id19_im27.bmp_pos0_id5_im1.bmp,['Im_DanielCraig.png', 'Im_LeonardoDiCaprio.png', 'Im_HughJackman.png', 'Im_RyanReynolds.png', 'Im_GeorgeClooney.png', 'Im_DanielRadcliffe.png', 'Im_OrlandoBloom.png', 'Im_RobertDowneyJr.png', 'Im_RobertPattinson.png', 'Im_KeanuReeves.png'],diff,1,1.1670788999999786,8,85.71428571428571,
BRMA1708,6,inv,fs,posfs_id18_im19.bmp_posfs_id4_im20.bmp,['Im_DanielCraig.png', 'Im_LeonardoDiCaprio.png', 'Im_HughJackman.png', 'Im_RyanReynolds.png', 'Im_GeorgeClooney.png', 'Im_DanielRadcliffe.png', 'Im_OrlandoBloom.png', 'Im_RobertDowneyJr.png', 'Im_RobertPattinson.png', 'Im_KeanuReeves.png'],diff,1,0.4247599000000264,9,85.71428571428571,
BRMA1708,6,inv,120,pos120_id4_im20.bmp_pos120_id18_im19.bmp,['Im_DanielCraig.png', 'Im_LeonardoDiCaprio.png', 'Im_HughJackman.png', 'Im_RyanReynolds.png', 'Im_GeorgeClooney.png', 'Im_DanielRadcliffe.png', 'Im_OrlandoBloom.png', 'Im_RobertDowneyJr.png', 'Im_RobertPattinson.png', 'Im_KeanuReeves.png'],diff,1,0.4501400999999987,10,85.71428571428571,
BRMA1708,6,inv,30,pos30_id7_im14.bmp_pos30_id5_im1.bmp,['Im_DanielCraig.png', 'Im_LeonardoDiCaprio.png', 'Im_HughJackman.png', 'Im_RyanReynolds.png', 'Im_GeorgeClooney.png', 'Im_DanielRadcliffe.png', 'Im_OrlandoBloom.png', 'Im_RobertDowneyJr.png', 'Im_RobertPattinson.png', 'Im_KeanuReeves.png'],diff,1,0.42507900000009613,11,85.71428571428571,
BRMA1708,6,inv,0,pos0_id11_im2.bmp_pos0_id11_im10.bmp,['Im_DanielCraig.png', 'Im_LeonardoDiCaprio.png', 'Im_HughJackman.png', 'Im_RyanReynolds.png', 'Im_GeorgeClooney.png', 'Im_DanielRadcliffe.png', 'Im_OrlandoBloom.png', 'Im_RobertDowneyJr.png', 'Im_RobertPattinson.png', 'Im_KeanuReeves.png'],same,1,0.4668302999998559,12,85.71428571428571,
BRMA1708,7,pos,150,pos150_id8_im21.bmp_pos150_id4_im7.bmp,['Im_DanielCraig.png', 'Im_LeonardoDiCaprio.png', 'Im_HughJackman.png', 'Im_RyanReynolds.png', 'Im_GeorgeClooney.png', 'Im_DanielRadcliffe.png', 'Im_OrlandoBloom.png', 'Im_RobertDowneyJr.png', 'Im_RobertPattinson.png', 'Im_KeanuReeves.png'],diff,1,0.40833969999994224,13,85.71428571428571,
BRMA1708,7,pos,60,pos60_id19_im27.bmp_pos60_id19_im8.bmp,['Im_DanielCraig.png', 'Im_LeonardoDiCaprio.png', 'Im_HughJackman.png', 'Im_RyanReynolds.png', 'Im_GeorgeClooney.png', 'Im_DanielRadcliffe.png', 'Im_OrlandoBloom.png', 'Im_RobertDowneyJr.png', 'Im_RobertPattinson.png', 'Im_KeanuReeves.png'],same,1,0.4252070999998523,14,85.71428571428571,
BRMA1708,7,pos,30,pos30_id8_im21.bmp_pos30_id19_im4.bmp,['Im_DanielCraig.png', 'Im_LeonardoDiCaprio.png', 'Im_HughJackman.png', 'Im_RyanReynolds.png', 'Im_GeorgeClooney.png', 'Im_DanielRadcliffe.png', 'Im_OrlandoBloom.png', 'Im_RobertDowneyJr.png', 'Im_RobertPattinson.png', 'Im_KeanuReeves.png'],diff,1,0.4334062000000358,15,85.71428571428571,
BRMA1708,7,pos,fs,posfs_id8_im20.bmp_posfs_id21_im16.bmp,['Im_DanielCraig.png', 'Im_LeonardoDiCaprio.png', 'Im_HughJackman.png', 'Im_RyanReynolds.png', 'Im_GeorgeClooney.png', 'Im_DanielRadcliffe.png', 'Im_OrlandoBloom.png', 'Im_RobertDowneyJr.png', 'Im_RobertPattinson.png', 'Im_KeanuReeves.png'],diff,1,0.42509270000005017,16,85.71428571428571,
BRMA1708,7,pos,0,pos0_id18_im11.bmp_pos0_id18_im18.bmp,['Im_DanielCraig.png', 'Im_LeonardoDiCaprio.png', 'Im_HughJackman.png', 'Im_RyanReynolds.png', 'Im_GeorgeClooney.png', 'Im_DanielRadcliffe.png', 'Im_OrlandoBloom.png', 'Im_RobertDowneyJr.png', 'Im_RobertPattinson.png', 'Im_KeanuReeves.png'],same,1,0.4334375999999338,17,85.71428571428571,
BRMA1708,7,pos,120,pos120_id7_im15.bmp_pos120_id16_im2.bmp,['Im_DanielCraig.png', 'Im_LeonardoDiCaprio.png', 'Im_HughJackman.png', 'Im_RyanReynolds.png', 'Im_GeorgeClooney.png', 'Im_DanielRadcliffe.png', 'Im_OrlandoBloom.png', 'Im_RobertDowneyJr.png', 'Im_RobertPattinson.png', 'Im_KeanuReeves.png'],diff,1,0.4251804999998967,18,85.71428571428571,
BRMA1708,7,pos,30,pos30_id11_im1.bmp_pos30_id11_im10.bmp,['Im_DanielCraig.png', 'Im_LeonardoDiCaprio.png', 'Im_HughJackman.png', 'Im_RyanReynolds.png', 'Im_GeorgeClooney.png', 'Im_DanielRadcliffe.png', 'Im_OrlandoBloom.png', 'Im_RobertDowneyJr.png', 'Im_RobertPattinson.png', 'Im_KeanuReeves.png'],same,1,0.4250720000000001,19,85.71428571428571,
BRMA1708,7,pos,fs,posfs_id8_im20.bmp_posfs_id8_im13.bmp,['Im_DanielCraig.png', 'Im_LeonardoDiCaprio.png', 'Im_HughJackman.png', 'Im_RyanReynolds.png', 'Im_GeorgeClooney.png', 'Im_DanielRadcliffe.png', 'Im_OrlandoBloom.png', 'Im_RobertDowneyJr.png', 'Im_RobertPattinson.png', 'Im_KeanuReeves.png'],same,1,0.41670990000011443,20,85.71428571428571,
BRMA1708,7,pos,0,pos0_id11_im10.bmp_pos0_id4_im20.bmp,['Im_DanielCraig.png', 'Im_LeonardoDiCaprio.png', 'Im_HughJackman.png', 'Im_RyanReynolds.png', 'Im_GeorgeClooney.png', 'Im_DanielRadcliffe.png', 'Im_OrlandoBloom.png', 'Im_RobertDowneyJr.png', 'Im_RobertPattinson.png', 'Im_KeanuReeves.png'],diff,1,0.4167410000000018,21,85.71428571428571,
BRMA1708,7,pos,90,pos90_id5_im20.bmp_pos90_id18_im18.bmp,['Im_DanielCraig.png', 'Im_LeonardoDiCaprio.png', 'Im_HughJackman.png', 'Im_RyanReynolds.png', 'Im_GeorgeClooney.png', 'Im_DanielRadcliffe.png', 'Im_OrlandoBloom.png', 'Im_RobertDowneyJr.png', 'Im_RobertPattinson.png', 'Im_KeanuReeves.png'],diff,1,0.48341419999997015,22,85.71428571428571,
BRMA1708,7,pos,90,pos90_id21_im22.bmp_pos90_id21_im17.bmp,['Im_DanielCraig.png', 'Im_LeonardoDiCaprio.png', 'Im_HughJackman.png', 'Im_RyanReynolds.png', 'Im_GeorgeClooney.png', 'Im_DanielRadcliffe.png', 'Im_OrlandoBloom.png', 'Im_RobertDowneyJr.png', 'Im_RobertPattinson.png', 'Im_KeanuReeves.png'],same,1,0.5751617000000806,23,85.71428571428571,
BRMA1708,7,pos,60,pos60_id5_im10.bmp_pos60_id21_im22.bmp,['Im_DanielCraig.png', 'Im_LeonardoDiCaprio.png', 'Im_HughJackman.png', 'Im_RyanReynolds.png', 'Im_GeorgeClooney.png', 'Im_DanielRadcliffe.png', 'Im_OrlandoBloom.png', 'Im_RobertDowneyJr.png', 'Im_RobertPattinson.png', 'Im_KeanuReeves.png'],diff,1,0.42507979999982126,24,85.71428571428571,
BRMA1708,7,pos,150,pos150_id18_im19.bmp_pos150_id5_im20.bmp,['Im_DanielCraig.png', 'Im_LeonardoDiCaprio.png', 'Im_HughJackman.png', 'Im_RyanReynolds.png', 'Im_GeorgeClooney.png', 'Im_DanielRadcliffe.png', 'Im_OrlandoBloom.png', 'Im_RobertDowneyJr.png', 'Im_RobertPattinson.png', 'Im_KeanuReeves.png'],diff,1,0.4167092000000139,25,85.71428571428571,
BRMA1708,7,pos,120,pos120_id13_im29.bmp_pos120_id4_im15.bmp,['Im_DanielCraig.png', 'Im_LeonardoDiCaprio.png', 'Im_HughJackman.png', 'Im_RyanReynolds.png', 'Im_GeorgeClooney.png', 'Im_DanielRadcliffe.png', 'Im_OrlandoBloom.png', 'Im_RobertDowneyJr.png', 'Im_RobertPattinson.png', 'Im_KeanuReeves.png'],diff,1,0.6336060000000998,26,85.71428571428571,
BRMA1708,8,inv,90,pos90_id19_im4.bmp_pos90_id19_im8.bmp,['Im_DanielCraig.png', 'Im_LeonardoDiCaprio.png', 'Im_HughJackman.png', 'Im_RyanReynolds.png', 'Im_GeorgeClooney.png', 'Im_DanielRadcliffe.png', 'Im_OrlandoBloom.png', 'Im_RobertDowneyJr.png', 'Im_RobertPattinson.png', 'Im_KeanuReeves.png'],diff,0,2.2917065000001458,26,85.71428571428571,
BRMA1708,8,inv,0,pos0_id7_im14.bmp_pos0_id7_im15.bmp,['Im_DanielCraig.png', 'Im_LeonardoDiCaprio.png', 'Im_HughJackman.png', 'Im_RyanReynolds.png', 'Im_GeorgeClooney.png', 'Im_DanielRadcliffe.png', 'Im_OrlandoBloom.png', 'Im_RobertDowneyJr.png', 'Im_RobertPattinson.png', 'Im_KeanuReeves.png'],diff,0,1.4335215000000971,26,85.71428571428571,
BRMA1708,8,inv,120,pos120_id8_im20.bmp_pos120_id19_im4.bmp,['Im_DanielCraig.png', 'Im_LeonardoDiCaprio.png', 'Im_HughJackman.png', 'Im_RyanReynolds.png', 'Im_GeorgeClooney.png', 'Im_DanielRadcliffe.png', 'Im_OrlandoBloom.png', 'Im_RobertDowneyJr.png', 'Im_RobertPattinson.png', 'Im_KeanuReeves.png'],diff,1,0.42525430000000597,27,85.71428571428571,
BRMA1708,8,inv,120,pos120_id5_im1.bmp_pos120_id19_im27.bmp,['Im_DanielCraig.png', 'Im_LeonardoDiCaprio.png', 'Im_HughJackman.png', 'Im_RyanReynolds.png', 'Im_GeorgeClooney.png', 'Im_DanielRadcliffe.png', 'Im_OrlandoBloom.png', 'Im_RobertDowneyJr.png', 'Im_RobertPattinson.png', 'Im_KeanuReeves.png'],diff,1,0.42504410000015014,28,85.71428571428571,
BRMA1708,8,inv,fs,posfs_id11_im2.bmp_posfs_id11_im10.bmp,['Im_DanielCraig.png', 'Im_LeonardoDiCaprio.png', 'Im_HughJackman.png', 'Im_RyanReynolds.png', 'Im_GeorgeClooney.png', 'Im_DanielRadcliffe.png', 'Im_OrlandoBloom.png', 'Im_RobertDowneyJr.png', 'Im_RobertPattinson.png', 'Im_KeanuReeves.png'],same,1,0.4334781000000021,29,85.71428571428571,
BRMA1708,8,inv,60,pos60_id21_im17.bmp_pos60_id7_im26.bmp,['Im_DanielCraig.png', 'Im_LeonardoDiCaprio.png', 'Im_HughJackman.png', 'Im_RyanReynolds.png', 'Im_GeorgeClooney.png', 'Im_DanielRadcliffe.png', 'Im_OrlandoBloom.png', 'Im_RobertDowneyJr.png', 'Im_RobertPattinson.png', 'Im_KeanuReeves.png'],diff,1,0.8584148999998433,30,85.71428571428571,
BRMA1708,8,inv,60,pos60_id8_im20.bmp_pos60_id8_im13.bmp,['Im_DanielCraig.png', 'Im_LeonardoDiCaprio.png', 'Im_HughJackman.png', 'Im_RyanReynolds.png', 'Im_GeorgeClooney.png', 'Im_DanielRadcliffe.png', 'Im_OrlandoBloom.png', 'Im_RobertDowneyJr.png', 'Im_RobertPattinson.png', 'Im_KeanuReeves.png'],same,1,0.43336330000011003,31,85.71428571428571,
BRMA1708,8,inv,150,pos150_id16_im2.bmp_pos150_id7_im15.bmp,['Im_DanielCraig.png', 'Im_LeonardoDiCaprio.png', 'Im_HughJackman.png', 'Im_RyanReynolds.png', 'Im_GeorgeClooney.png', 'Im_DanielRadcliffe.png', 'Im_OrlandoBloom.png', 'Im_RobertDowneyJr.png', 'Im_RobertPattinson.png', 'Im_KeanuReeves.png'],diff,1,0.4250716999999895,32,85.71428571428571,
BRMA1708,8,inv,90,pos90_id16_im19.bmp_pos90_id7_im26.bmp,['Im_DanielCraig.png', 'Im_LeonardoDiCaprio.png', 'Im_HughJackman.png', 'Im_RyanReynolds.png', 'Im_GeorgeClooney.png', 'Im_DanielRadcliffe.png', 'Im_OrlandoBloom.png', 'Im_RobertDowneyJr.png', 'Im_RobertPattinson.png', 'Im_KeanuReeves.png'],diff,1,0.4584216999999171,33,85.71428571428571,
BRMA1708,8,inv,30,pos30_id18_im19.bmp_pos30_id5_im20.bmp,['Im_DanielCraig.png', 'Im_LeonardoDiCaprio.png', 'Im_HughJackman.png', 'Im_RyanReynolds.png', 'Im_GeorgeClooney.png', 'Im_DanielRadcliffe.png', 'Im_OrlandoBloom.png', 'Im_RobertDowneyJr.png', 'Im_RobertPattinson.png', 'Im_KeanuReeves.png'],diff,1,0.4250408000000334,34,85.71428571428571,
BRMA1708,8,inv,fs,posfs_id21_im17.bmp_posfs_id21_im22.bmp,['Im_DanielCraig.png', 'Im_LeonardoDiCaprio.png', 'Im_HughJackman.png', 'Im_RyanReynolds.png', 'Im_GeorgeClooney.png', 'Im_DanielRadcliffe.png', 'Im_OrlandoBloom.png', 'Im_RobertDowneyJr.png', 'Im_RobertPattinson.png', 'Im_KeanuReeves.png'],diff,0,0.42529770000010103,34,85.71428571428571,
BRMA1708,8,inv,30,pos30_id4_im20.bmp_pos30_id4_im7.bmp,['Im_DanielCraig.png', 'Im_LeonardoDiCaprio.png', 'Im_HughJackman.png', 'Im_RyanReynolds.png', 'Im_GeorgeClooney.png', 'Im_DanielRadcliffe.png', 'Im_OrlandoBloom.png', 'Im_RobertDowneyJr.png', 'Im_RobertPattinson.png', 'Im_KeanuReeves.png'],same,1,0.4416007999998328,35,85.71428571428571,
BRMA1708,8,inv,0,pos0_id18_im19.bmp_pos0_id18_im11.bmp,['Im_DanielCraig.png', 'Im_LeonardoDiCaprio.png', 'Im_HughJackman.png', 'Im_RyanReynolds.png', 'Im_GeorgeClooney.png', 'Im_DanielRadcliffe.png', 'Im_OrlandoBloom.png', 'Im_RobertDowneyJr.png', 'Im_RobertPattinson.png', 'Im_KeanuReeves.png'],same,1,0.4168414999999186,36,85.71428571428571,
BRMA1708,8,inv,150,pos150_id5_im1.bmp_pos150_id5_im20.bmp,['Im_DanielCraig.png', 'Im_LeonardoDiCaprio.png', 'Im_HughJackman.png', 'Im_RyanReynolds.png', 'Im_GeorgeClooney.png', 'Im_DanielRadcliffe.png', 'Im_OrlandoBloom.png', 'Im_RobertDowneyJr.png', 'Im_RobertPattinson.png', 'Im_KeanuReeves.png'],diff,0,0.43339179999998123,36,85.71428571428571,
BRMA1708,9,neg,fs,negfs_id18_im18.bmp_negfs_id18_im19.bmp,['Im_DanielCraig.png', 'Im_LeonardoDiCaprio.png', 'Im_HughJackman.png', 'Im_RyanReynolds.png', 'Im_GeorgeClooney.png', 'Im_DanielRadcliffe.png', 'Im_OrlandoBloom.png', 'Im_RobertDowneyJr.png', 'Im_RobertPattinson.png', 'Im_KeanuReeves.png'],same,1,0.42502760000002127,1,85.71428571428571,
BRMA1708,9,neg,150,neg150_id18_im18.bmp_neg150_id18_im19.bmp,['Im_DanielCraig.png', 'Im_LeonardoDiCaprio.png', 'Im_HughJackman.png', 'Im_RyanReynolds.png', 'Im_GeorgeClooney.png', 'Im_DanielRadcliffe.png', 'Im_OrlandoBloom.png', 'Im_RobertDowneyJr.png', 'Im_RobertPattinson.png', 'Im_KeanuReeves.png'],same,1,0.40844319999996515,2,85.71428571428571,
BRMA1708,9,neg,fs,negfs_id21_im17.bmp_negfs_id21_im22.bmp,['Im_DanielCraig.png', 'Im_LeonardoDiCaprio.png', 'Im_HughJackman.png', 'Im_RyanReynolds.png', 'Im_GeorgeClooney.png', 'Im_DanielRadcliffe.png', 'Im_OrlandoBloom.png', 'Im_RobertDowneyJr.png', 'Im_RobertPattinson.png', 'Im_KeanuReeves.png'],same,1,0.7832322000001568,3,85.71428571428571,
BRMA1708,9,neg,60,neg60_id19_im8.bmp_neg60_id13_im10.bmp,['Im_DanielCraig.png', 'Im_LeonardoDiCaprio.png', 'Im_HughJackman.png', 'Im_RyanReynolds.png', 'Im_GeorgeClooney.png', 'Im_DanielRadcliffe.png', 'Im_OrlandoBloom.png', 'Im_RobertDowneyJr.png', 'Im_RobertPattinson.png', 'Im_KeanuReeves.png'],diff,1,0.4834677000001193,4,85.71428571428571,
BRMA1708,9,neg,30,neg30_id13_im10.bmp_neg30_id16_im2.bmp,['Im_DanielCraig.png', 'Im_LeonardoDiCaprio.png', 'Im_HughJackman.png', 'Im_RyanReynolds.png', 'Im_GeorgeClooney.png', 'Im_DanielRadcliffe.png', 'Im_OrlandoBloom.png', 'Im_RobertDowneyJr.png', 'Im_RobertPattinson.png', 'Im_KeanuReeves.png'],diff,1,0.5502696000000924,5,85.71428571428571,
BRMA1708,9,neg,120,neg120_id5_im10.bmp_neg120_id8_im13.bmp,['Im_DanielCraig.png', 'Im_LeonardoDiCaprio.png', 'Im_HughJackman.png', 'Im_RyanReynolds.png', 'Im_GeorgeClooney.png', 'Im_DanielRadcliffe.png', 'Im_OrlandoBloom.png', 'Im_RobertDowneyJr.png', 'Im_RobertPattinson.png', 'Im_KeanuReeves.png'],diff,1,0.4415621000000556,6,85.71428571428571,
BRMA1708,9,neg,0,neg0_id19_im8.bmp_neg0_id19_im4.bmp,['Im_DanielCraig.png', 'Im_LeonardoDiCaprio.png', 'Im_HughJackman.png', 'Im_RyanReynolds.png', 'Im_GeorgeClooney.png', 'Im_DanielRadcliffe.png', 'Im_OrlandoBloom.png', 'Im_RobertDowneyJr.png', 'Im_RobertPattinson.png', 'Im_KeanuReeves.png'],diff,0,0.5166506999999001,6,85.71428571428571,
BRMA1708,9,neg,90,neg90_id19_im27.bmp_neg90_id19_im8.bmp,['Im_DanielCraig.png', 'Im_LeonardoDiCaprio.png', 'Im_HughJackman.png', 'Im_RyanReynolds.png', 'Im_GeorgeClooney.png', 'Im_DanielRadcliffe.png', 'Im_OrlandoBloom.png', 'Im_RobertDowneyJr.png', 'Im_RobertPattinson.png', 'Im_KeanuReeves.png'],same,1,0.4919601999999941,7,85.71428571428571,
BRMA1708,9,neg,150,neg150_id19_im4.bmp_neg150_id19_im27.bmp,['Im_DanielCraig.png', 'Im_LeonardoDiCaprio.png', 'Im_HughJackman.png', 'Im_RyanReynolds.png', 'Im_GeorgeClooney.png', 'Im_DanielRadcliffe.png', 'Im_OrlandoBloom.png', 'Im_RobertDowneyJr.png', 'Im_RobertPattinson.png', 'Im_KeanuReeves.png'],same,1,0.4167671000000155,8,85.71428571428571,
BRMA1708,9,neg,30,neg30_id19_im4.bmp_neg30_id19_im8.bmp,['Im_DanielCraig.png', 'Im_LeonardoDiCaprio.png', 'Im_HughJackman.png', 'Im_RyanReynolds.png', 'Im_GeorgeClooney.png', 'Im_DanielRadcliffe.png', 'Im_OrlandoBloom.png', 'Im_RobertDowneyJr.png', 'Im_RobertPattinson.png', 'Im_KeanuReeves.png'],same,1,0.41676250000000437,9,85.71428571428571,
BRMA1708,9,neg,120,neg120_id13_im10.bmp_neg120_id13_im29.bmp,['Im_DanielCraig.png', 'Im_LeonardoDiCaprio.png', 'Im_HughJackman.png', 'Im_RyanReynolds.png', 'Im_GeorgeClooney.png', 'Im_DanielRadcliffe.png', 'Im_OrlandoBloom.png', 'Im_RobertDowneyJr.png', 'Im_RobertPattinson.png', 'Im_KeanuReeves.png'],same,1,0.6587657000000036,10,85.71428571428571,
BRMA1708,9,neg,0,neg0_id16_im3.bmp_neg0_id16_im2.bmp,['Im_DanielCraig.png', 'Im_LeonardoDiCaprio.png', 'Im_HughJackman.png', 'Im_RyanReynolds.png', 'Im_GeorgeClooney.png', 'Im_DanielRadcliffe.png', 'Im_OrlandoBloom.png', 'Im_RobertDowneyJr.png', 'Im_RobertPattinson.png', 'Im_KeanuReeves.png'],same,1,0.425156300000026,11,85.71428571428571,
BRMA1708,9,neg,60,neg60_id21_im16.bmp_neg60_id8_im20.bmp,['Im_DanielCraig.png', 'Im_LeonardoDiCaprio.png', 'Im_HughJackman.png', 'Im_RyanReynolds.png', 'Im_GeorgeClooney.png', 'Im_DanielRadcliffe.png', 'Im_OrlandoBloom.png', 'Im_RobertDowneyJr.png', 'Im_RobertPattinson.png', 'Im_KeanuReeves.png'],diff,1,0.666935199999898,12,85.71428571428571,
BRMA1708,9,neg,90,neg90_id18_im19.bmp_neg90_id5_im20.bmp,['Im_DanielCraig.png', 'Im_LeonardoDiCaprio.png', 'Im_HughJackman.png', 'Im_RyanReynolds.png', 'Im_GeorgeClooney.png', 'Im_DanielRadcliffe.png', 'Im_OrlandoBloom.png', 'Im_RobertDowneyJr.png', 'Im_RobertPattinson.png', 'Im_KeanuReeves.png'],diff,1,0.8164931000001161,13,85.71428571428571,
BRMA1708,10,neg,90,neg90_id13_im15.bmp_neg90_id18_im11.bmp,['Im_DanielCraig.png', 'Im_LeonardoDiCaprio.png', 'Im_HughJackman.png', 'Im_RyanReynolds.png', 'Im_GeorgeClooney.png', 'Im_DanielRadcliffe.png', 'Im_OrlandoBloom.png', 'Im_RobertDowneyJr.png', 'Im_RobertPattinson.png', 'Im_KeanuReeves.png'],diff,1,0.7335370000000694,14,85.71428571428571,
BRMA1708,10,neg,90,neg90_id11_im1.bmp_neg90_id11_im10.bmp,['Im_DanielCraig.png', 'Im_LeonardoDiCaprio.png', 'Im_HughJackman.png', 'Im_RyanReynolds.png', 'Im_GeorgeClooney.png', 'Im_DanielRadcliffe.png', 'Im_OrlandoBloom.png', 'Im_RobertDowneyJr.png', 'Im_RobertPattinson.png', 'Im_KeanuReeves.png'],diff,0,0.6418734999999742,14,85.71428571428571,
BRMA1708,10,neg,30,neg30_id13_im29.bmp_neg30_id11_im2.bmp,['Im_DanielCraig.png', 'Im_LeonardoDiCaprio.png', 'Im_HughJackman.png', 'Im_RyanReynolds.png', 'Im_GeorgeClooney.png', 'Im_DanielRadcliffe.png', 'Im_OrlandoBloom.png', 'Im_RobertDowneyJr.png', 'Im_RobertPattinson.png', 'Im_KeanuReeves.png'],diff,1,0.4168764999999439,15,85.71428571428571,
BRMA1708,10,neg,150,neg150_id13_im15.bmp_neg150_id18_im11.bmp,['Im_DanielCraig.png', 'Im_LeonardoDiCaprio.png', 'Im_HughJackman.png', 'Im_RyanReynolds.png', 'Im_GeorgeClooney.png', 'Im_DanielRadcliffe.png', 'Im_OrlandoBloom.png', 'Im_RobertDowneyJr.png', 'Im_RobertPattinson.png', 'Im_KeanuReeves.png'],diff,1,0.4249675000000934,16,85.71428571428571,
BRMA1708,10,neg,fs,negfs_id5_im10.bmp_negfs_id5_im1.bmp,['Im_DanielCraig.png', 'Im_LeonardoDiCaprio.png', 'Im_HughJackman.png', 'Im_RyanReynolds.png', 'Im_GeorgeClooney.png', 'Im_DanielRadcliffe.png', 'Im_OrlandoBloom.png', 'Im_RobertDowneyJr.png', 'Im_RobertPattinson.png', 'Im_KeanuReeves.png'],same,1,0.41666220000001886,17,85.71428571428571,
BRMA1708,10,neg,0,neg0_id13_im29.bmp_neg0_id13_im10.bmp,['Im_DanielCraig.png', 'Im_LeonardoDiCaprio.png', 'Im_HughJackman.png', 'Im_RyanReynolds.png', 'Im_GeorgeClooney.png', 'Im_DanielRadcliffe.png', 'Im_OrlandoBloom.png', 'Im_RobertDowneyJr.png', 'Im_RobertPattinson.png', 'Im_KeanuReeves.png'],same,1,0.4754365000001144,18,85.71428571428571,
BRMA1708,10,neg,fs,negfs_id13_im29.bmp_negfs_id11_im2.bmp,['Im_DanielCraig.png', 'Im_LeonardoDiCaprio.png', 'Im_HughJackman.png', 'Im_RyanReynolds.png', 'Im_GeorgeClooney.png', 'Im_DanielRadcliffe.png', 'Im_OrlandoBloom.png', 'Im_RobertDowneyJr.png', 'Im_RobertPattinson.png', 'Im_KeanuReeves.png'],diff,1,0.4169216000000233,19,85.71428571428571,
BRMA1708,10,neg,120,neg120_id16_im19.bmp_neg120_id7_im26.bmp,['Im_DanielCraig.png', 'Im_LeonardoDiCaprio.png', 'Im_HughJackman.png', 'Im_RyanReynolds.png', 'Im_GeorgeClooney.png', 'Im_DanielRadcliffe.png', 'Im_OrlandoBloom.png', 'Im_RobertDowneyJr.png', 'Im_RobertPattinson.png', 'Im_KeanuReeves.png'],diff,1,0.42511480000007396,20,85.71428571428571,
BRMA1708,10,neg,60,neg60_id5_im1.bmp_neg60_id19_im27.bmp,['Im_DanielCraig.png', 'Im_LeonardoDiCaprio.png', 'Im_HughJackman.png', 'Im_RyanReynolds.png', 'Im_GeorgeClooney.png', 'Im_DanielRadcliffe.png', 'Im_OrlandoBloom.png', 'Im_RobertDowneyJr.png', 'Im_RobertPattinson.png', 'Im_KeanuReeves.png'],diff,1,0.8501499999999851,21,85.71428571428571,
BRMA1708,10,neg,150,neg150_id21_im22.bmp_neg150_id11_im2.bmp,['Im_DanielCraig.png', 'Im_LeonardoDiCaprio.png', 'Im_HughJackman.png', 'Im_RyanReynolds.png', 'Im_GeorgeClooney.png', 'Im_DanielRadcliffe.png', 'Im_OrlandoBloom.png', 'Im_RobertDowneyJr.png', 'Im_RobertPattinson.png', 'Im_KeanuReeves.png'],diff,1,0.4249159000000873,22,85.71428571428571,
BRMA1708,10,neg,30,neg30_id21_im22.bmp_neg30_id11_im2.bmp,['Im_DanielCraig.png', 'Im_LeonardoDiCaprio.png', 'Im_HughJackman.png', 'Im_RyanReynolds.png', 'Im_GeorgeClooney.png', 'Im_DanielRadcliffe.png', 'Im_OrlandoBloom.png', 'Im_RobertDowneyJr.png', 'Im_RobertPattinson.png', 'Im_KeanuReeves.png'],diff,1,0.4335856000000149,23,85.71428571428571,
BRMA1708,10,neg,0,neg0_id11_im2.bmp_neg0_id11_im10.bmp,['Im_DanielCraig.png', 'Im_LeonardoDiCaprio.png', 'Im_HughJackman.png', 'Im_RyanReynolds.png', 'Im_GeorgeClooney.png', 'Im_DanielRadcliffe.png', 'Im_OrlandoBloom.png', 'Im_RobertDowneyJr.png', 'Im_RobertPattinson.png', 'Im_KeanuReeves.png'],diff,0,0.8417002000001048,23,85.71428571428571,
BRMA1708,10,neg,120,neg120_id5_im1.bmp_neg120_id5_im10.bmp,['Im_DanielCraig.png', 'Im_LeonardoDiCaprio.png', 'Im_HughJackman.png', 'Im_RyanReynolds.png', 'Im_GeorgeClooney.png', 'Im_DanielRadcliffe.png', 'Im_OrlandoBloom.png', 'Im_RobertDowneyJr.png', 'Im_RobertPattinson.png', 'Im_KeanuReeves.png'],same,1,0.4250787999999375,24,85.71428571428571,
BRMA1708,10,neg,60,neg60_id4_im15.bmp_neg60_id13_im29.bmp,['Im_DanielCraig.png', 'Im_LeonardoDiCaprio.png', 'Im_HughJackman.png', 'Im_RyanReynolds.png', 'Im_GeorgeClooney.png', 'Im_DanielRadcliffe.png', 'Im_OrlandoBloom.png', 'Im_RobertDowneyJr.png', 'Im_RobertPattinson.png', 'Im_KeanuReeves.png'],diff,1,0.4251487999999881,25,85.71428571428571,
BRMA1708,11,inv,60,pos60_id16_im19.bmp_pos60_id16_im2.bmp,['Im_DanielCraig.png', 'Im_LeonardoDiCaprio.png', 'Im_HughJackman.png', 'Im_RyanReynolds.png', 'Im_GeorgeClooney.png', 'Im_DanielRadcliffe.png', 'Im_OrlandoBloom.png', 'Im_RobertDowneyJr.png', 'Im_RobertPattinson.png', 'Im_KeanuReeves.png'],same,1,0.4167207000000417,26,85.71428571428571,
BRMA1708,11,inv,fs,posfs_id19_im27.bmp_posfs_id19_im8.bmp,['Im_DanielCraig.png', 'Im_LeonardoDiCaprio.png', 'Im_HughJackman.png', 'Im_RyanReynolds.png', 'Im_GeorgeClooney.png', 'Im_DanielRadcliffe.png', 'Im_OrlandoBloom.png', 'Im_RobertDowneyJr.png', 'Im_RobertPattinson.png', 'Im_KeanuReeves.png'],same,1,0.40839649999998073,27,85.71428571428571,
BRMA1708,11,inv,60,pos60_id5_im20.bmp_pos60_id5_im1.bmp,['Im_DanielCraig.png', 'Im_LeonardoDiCaprio.png', 'Im_HughJackman.png', 'Im_RyanReynolds.png', 'Im_GeorgeClooney.png', 'Im_DanielRadcliffe.png', 'Im_OrlandoBloom.png', 'Im_RobertDowneyJr.png', 'Im_RobertPattinson.png', 'Im_KeanuReeves.png'],same,1,0.42499809999981153,28,85.71428571428571,
BRMA1708,11,inv,30,pos30_id13_im29.bmp_pos30_id4_im15.bmp,['Im_DanielCraig.png', 'Im_LeonardoDiCaprio.png', 'Im_HughJackman.png', 'Im_RyanReynolds.png', 'Im_GeorgeClooney.png', 'Im_DanielRadcliffe.png', 'Im_OrlandoBloom.png', 'Im_RobertDowneyJr.png', 'Im_RobertPattinson.png', 'Im_KeanuReeves.png'],diff,1,0.5665884000000005,29,85.71428571428571,
BRMA1708,11,inv,120,pos120_id19_im8.bmp_pos120_id19_im4.bmp,['Im_DanielCraig.png', 'Im_LeonardoDiCaprio.png', 'Im_HughJackman.png', 'Im_RyanReynolds.png', 'Im_GeorgeClooney.png', 'Im_DanielRadcliffe.png', 'Im_OrlandoBloom.png', 'Im_RobertDowneyJr.png', 'Im_RobertPattinson.png', 'Im_KeanuReeves.png'],same,1,0.4251623000000109,30,85.71428571428571,
BRMA1708,11,inv,90,pos90_id8_im13.bmp_pos90_id5_im10.bmp,['Im_DanielCraig.png', 'Im_LeonardoDiCaprio.png', 'Im_HughJackman.png', 'Im_RyanReynolds.png', 'Im_GeorgeClooney.png', 'Im_DanielRadcliffe.png', 'Im_OrlandoBloom.png', 'Im_RobertDowneyJr.png', 'Im_RobertPattinson.png', 'Im_KeanuReeves.png'],diff,1,0.4251136000000315,31,85.71428571428571,
BRMA1708,11,inv,0,pos0_id19_im4.bmp_pos0_id19_im27.bmp,['Im_DanielCraig.png', 'Im_LeonardoDiCaprio.png', 'Im_HughJackman.png', 'Im_RyanReynolds.png', 'Im_GeorgeClooney.png', 'Im_DanielRadcliffe.png', 'Im_OrlandoBloom.png', 'Im_RobertDowneyJr.png', 'Im_RobertPattinson.png', 'Im_KeanuReeves.png'],same,1,0.9417660999999953,32,85.71428571428571,
BRMA1708,11,inv,30,pos30_id19_im8.bmp_pos30_id19_im4.bmp,['Im_DanielCraig.png', 'Im_LeonardoDiCaprio.png', 'Im_HughJackman.png', 'Im_RyanReynolds.png', 'Im_GeorgeClooney.png', 'Im_DanielRadcliffe.png', 'Im_OrlandoBloom.png', 'Im_RobertDowneyJr.png', 'Im_RobertPattinson.png', 'Im_KeanuReeves.png'],same,1,2.1001233000001776,33,85.71428571428571,
BRMA1708,11,inv,120,pos120_id13_im29.bmp_pos120_id4_im15.bmp,['Im_DanielCraig.png', 'Im_LeonardoDiCaprio.png', 'Im_HughJackman.png', 'Im_RyanReynolds.png', 'Im_GeorgeClooney.png', 'Im_DanielRadcliffe.png', 'Im_OrlandoBloom.png', 'Im_RobertDowneyJr.png', 'Im_RobertPattinson.png', 'Im_KeanuReeves.png'],diff,1,0.45003849999989143,34,85.71428571428571,
BRMA1708,11,inv,150,pos150_id13_im10.bmp_pos150_id13_im29.bmp,['Im_DanielCraig.png', 'Im_LeonardoDiCaprio.png', 'Im_HughJackman.png', 'Im_RyanReynolds.png', 'Im_GeorgeClooney.png', 'Im_DanielRadcliffe.png', 'Im_OrlandoBloom.png', 'Im_RobertDowneyJr.png', 'Im_RobertPattinson.png', 'Im_KeanuReeves.png'],diff,0,0.41666060000011385,34,85.71428571428571,
BRMA1708,11,inv,fs,posfs_id18_im18.bmp_posfs_id18_im19.bmp,['Im_DanielCraig.png', 'Im_LeonardoDiCaprio.png', 'Im_HughJackman.png', 'Im_RyanReynolds.png', 'Im_GeorgeClooney.png', 'Im_DanielRadcliffe.png', 'Im_OrlandoBloom.png', 'Im_RobertDowneyJr.png', 'Im_RobertPattinson.png', 'Im_KeanuReeves.png'],same,1,1.04162099999985,35,85.71428571428571,
BRMA1708,11,inv,0,pos0_id18_im18.bmp_pos0_id18_im19.bmp,['Im_DanielCraig.png', 'Im_LeonardoDiCaprio.png', 'Im_HughJackman.png', 'Im_RyanReynolds.png', 'Im_GeorgeClooney.png', 'Im_DanielRadcliffe.png', 'Im_OrlandoBloom.png', 'Im_RobertDowneyJr.png', 'Im_RobertPattinson.png', 'Im_KeanuReeves.png'],diff,0,0.6419895000001361,35,85.71428571428571,
BRMA1708,11,inv,90,pos90_id5_im1.bmp_pos90_id19_im27.bmp,['Im_DanielCraig.png', 'Im_LeonardoDiCaprio.png', 'Im_HughJackman.png', 'Im_RyanReynolds.png', 'Im_GeorgeClooney.png', 'Im_DanielRadcliffe.png', 'Im_OrlandoBloom.png', 'Im_RobertDowneyJr.png', 'Im_RobertPattinson.png', 'Im_KeanuReeves.png'],diff,1,0.442652599999974,36,85.71428571428571,
BRMA1708,11,inv,150,pos150_id4_im7.bmp_pos150_id4_im15.bmp,['Im_DanielCraig.png', 'Im_LeonardoDiCaprio.png', 'Im_HughJackman.png', 'Im_RyanReynolds.png', 'Im_GeorgeClooney.png', 'Im_DanielRadcliffe.png', 'Im_OrlandoBloom.png', 'Im_RobertDowneyJr.png', 'Im_RobertPattinson.png', 'Im_KeanuReeves.png'],same,1,0.4167626000000837,37,85.71428571428571,
BRMA1708,12,pos,60,pos60_id8_im13.bmp_pos60_id5_im10.bmp,['Im_DanielCraig.png', 'Im_LeonardoDiCaprio.png', 'Im_HughJackman.png', 'Im_RyanReynolds.png', 'Im_GeorgeClooney.png', 'Im_DanielRadcliffe.png', 'Im_OrlandoBloom.png', 'Im_RobertDowneyJr.png', 'Im_RobertPattinson.png', 'Im_KeanuReeves.png'],diff,1,0.5503367000001163,1,88.0952380952381,
BRMA1708,12,pos,0,pos0_id21_im17.bmp_pos0_id21_im16.bmp,['Im_DanielCraig.png', 'Im_LeonardoDiCaprio.png', 'Im_HughJackman.png', 'Im_RyanReynolds.png', 'Im_GeorgeClooney.png', 'Im_DanielRadcliffe.png', 'Im_OrlandoBloom.png', 'Im_RobertDowneyJr.png', 'Im_RobertPattinson.png', 'Im_KeanuReeves.png'],same,1,0.5002140000001418,2,88.0952380952381,
BRMA1708,12,pos,30,pos30_id5_im20.bmp_pos30_id18_im18.bmp,['Im_DanielCraig.png', 'Im_LeonardoDiCaprio.png', 'Im_HughJackman.png', 'Im_RyanReynolds.png', 'Im_GeorgeClooney.png', 'Im_DanielRadcliffe.png', 'Im_OrlandoBloom.png', 'Im_RobertDowneyJr.png', 'Im_RobertPattinson.png', 'Im_KeanuReeves.png'],diff,1,0.6005526999999802,3,88.0952380952381,
BRMA1708,12,pos,120,pos120_id8_im21.bmp_pos120_id8_im13.bmp,['Im_DanielCraig.png', 'Im_LeonardoDiCaprio.png', 'Im_HughJackman.png', 'Im_RyanReynolds.png', 'Im_GeorgeClooney.png', 'Im_DanielRadcliffe.png', 'Im_OrlandoBloom.png', 'Im_RobertDowneyJr.png', 'Im_RobertPattinson.png', 'Im_KeanuReeves.png'],same,1,0.4333415999999488,4,88.0952380952381,
BRMA1708,12,pos,120,pos120_id19_im8.bmp_pos120_id16_im3.bmp,['Im_DanielCraig.png', 'Im_LeonardoDiCaprio.png', 'Im_HughJackman.png', 'Im_RyanReynolds.png', 'Im_GeorgeClooney.png', 'Im_DanielRadcliffe.png', 'Im_OrlandoBloom.png', 'Im_RobertDowneyJr.png', 'Im_RobertPattinson.png', 'Im_KeanuReeves.png'],diff,1,0.4504824999999073,5,88.0952380952381,
BRMA1708,12,pos,150,pos150_id21_im17.bmp_pos150_id7_im15.bmp,['Im_DanielCraig.png', 'Im_LeonardoDiCaprio.png', 'Im_HughJackman.png', 'Im_RyanReynolds.png', 'Im_GeorgeClooney.png', 'Im_DanielRadcliffe.png', 'Im_OrlandoBloom.png', 'Im_RobertDowneyJr.png', 'Im_RobertPattinson.png', 'Im_KeanuReeves.png'],diff,1,0.4164327000000867,6,88.0952380952381,
BRMA1708,12,pos,60,pos60_id5_im20.bmp_pos60_id18_im18.bmp,['Im_DanielCraig.png', 'Im_LeonardoDiCaprio.png', 'Im_HughJackman.png', 'Im_RyanReynolds.png', 'Im_GeorgeClooney.png', 'Im_DanielRadcliffe.png', 'Im_OrlandoBloom.png', 'Im_RobertDowneyJr.png', 'Im_RobertPattinson.png', 'Im_KeanuReeves.png'],diff,1,0.42527910000012525,7,88.0952380952381,
BRMA1708,12,pos,fs,posfs_id21_im16.bmp_posfs_id16_im19.bmp,['Im_DanielCraig.png', 'Im_LeonardoDiCaprio.png', 'Im_HughJackman.png', 'Im_RyanReynolds.png', 'Im_GeorgeClooney.png', 'Im_DanielRadcliffe.png', 'Im_OrlandoBloom.png', 'Im_RobertDowneyJr.png', 'Im_RobertPattinson.png', 'Im_KeanuReeves.png'],diff,1,1.0420014999999694,8,88.0952380952381,
BRMA1708,12,pos,0,pos0_id19_im8.bmp_pos0_id19_im27.bmp,['Im_DanielCraig.png', 'Im_LeonardoDiCaprio.png', 'Im_HughJackman.png', 'Im_RyanReynolds.png', 'Im_GeorgeClooney.png', 'Im_DanielRadcliffe.png', 'Im_OrlandoBloom.png', 'Im_RobertDowneyJr.png', 'Im_RobertPattinson.png', 'Im_KeanuReeves.png'],same,1,0.4172370999999657,9,88.0952380952381,
BRMA1708,12,pos,90,pos90_id21_im16.bmp_pos90_id21_im17.bmp,['Im_DanielCraig.png', 'Im_LeonardoDiCaprio.png', 'Im_HughJackman.png', 'Im_RyanReynolds.png', 'Im_GeorgeClooney.png', 'Im_DanielRadcliffe.png', 'Im_OrlandoBloom.png', 'Im_RobertDowneyJr.png', 'Im_RobertPattinson.png', 'Im_KeanuReeves.png'],same,1,0.42554519999998774,10,88.0952380952381,
BRMA1708,12,pos,fs,posfs_id8_im21.bmp_posfs_id4_im7.bmp,['Im_DanielCraig.png', 'Im_LeonardoDiCaprio.png', 'Im_HughJackman.png', 'Im_RyanReynolds.png', 'Im_GeorgeClooney.png', 'Im_DanielRadcliffe.png', 'Im_OrlandoBloom.png', 'Im_RobertDowneyJr.png', 'Im_RobertPattinson.png', 'Im_KeanuReeves.png'],diff,1,0.625471300000072,11,88.0952380952381,
BRMA1708,12,pos,30,pos30_id4_im7.bmp_pos30_id18_im11.bmp,['Im_DanielCraig.png', 'Im_LeonardoDiCaprio.png', 'Im_HughJackman.png', 'Im_RyanReynolds.png', 'Im_GeorgeClooney.png', 'Im_DanielRadcliffe.png', 'Im_OrlandoBloom.png', 'Im_RobertDowneyJr.png', 'Im_RobertPattinson.png', 'Im_KeanuReeves.png'],diff,1,0.41665919999991274,12,88.0952380952381,
BRMA1708,12,pos,90,pos90_id13_im15.bmp_pos90_id13_im29.bmp,['Im_DanielCraig.png', 'Im_LeonardoDiCaprio.png', 'Im_HughJackman.png', 'Im_RyanReynolds.png', 'Im_GeorgeClooney.png', 'Im_DanielRadcliffe.png', 'Im_OrlandoBloom.png', 'Im_RobertDowneyJr.png', 'Im_RobertPattinson.png', 'Im_KeanuReeves.png'],same,1,0.4168064000000413,13,88.0952380952381,
BRMA1708,12,pos,150,pos150_id18_im19.bmp_pos150_id18_im11.bmp,['Im_DanielCraig.png', 'Im_LeonardoDiCaprio.png', 'Im_HughJackman.png', 'Im_RyanReynolds.png', 'Im_GeorgeClooney.png', 'Im_DanielRadcliffe.png', 'Im_OrlandoBloom.png', 'Im_RobertDowneyJr.png', 'Im_RobertPattinson.png', 'Im_KeanuReeves.png'],same,1,0.4083797999999206,14,88.0952380952381,
BRMA1708,13,neg,30,neg30_id8_im21.bmp_neg30_id19_im4.bmp,['Im_DanielCraig.png', 'Im_LeonardoDiCaprio.png', 'Im_HughJackman.png', 'Im_RyanReynolds.png', 'Im_GeorgeClooney.png', 'Im_DanielRadcliffe.png', 'Im_OrlandoBloom.png', 'Im_RobertDowneyJr.png', 'Im_RobertPattinson.png', 'Im_KeanuReeves.png'],diff,1,1.6422314999999799,15,88.0952380952381,
BRMA1708,13,neg,60,neg60_id16_im2.bmp_neg60_id16_im3.bmp,['Im_DanielCraig.png', 'Im_LeonardoDiCaprio.png', 'Im_HughJackman.png', 'Im_RyanReynolds.png', 'Im_GeorgeClooney.png', 'Im_DanielRadcliffe.png', 'Im_OrlandoBloom.png', 'Im_RobertDowneyJr.png', 'Im_RobertPattinson.png', 'Im_KeanuReeves.png'],same,1,0.4168150999998943,16,88.0952380952381,
BRMA1708,13,neg,30,neg30_id21_im17.bmp_neg30_id21_im22.bmp,['Im_DanielCraig.png', 'Im_LeonardoDiCaprio.png', 'Im_HughJackman.png', 'Im_RyanReynolds.png', 'Im_GeorgeClooney.png', 'Im_DanielRadcliffe.png', 'Im_OrlandoBloom.png', 'Im_RobertDowneyJr.png', 'Im_RobertPattinson.png', 'Im_KeanuReeves.png'],same,1,0.4251991999999518,17,88.0952380952381,
BRMA1708,13,neg,90,neg90_id7_im26.bmp_neg90_id16_im19.bmp,['Im_DanielCraig.png', 'Im_LeonardoDiCaprio.png', 'Im_HughJackman.png', 'Im_RyanReynolds.png', 'Im_GeorgeClooney.png', 'Im_DanielRadcliffe.png', 'Im_OrlandoBloom.png', 'Im_RobertDowneyJr.png', 'Im_RobertPattinson.png', 'Im_KeanuReeves.png'],diff,1,0.42492809999998826,18,88.0952380952381,
BRMA1708,13,neg,0,neg0_id19_im4.bmp_neg0_id19_im27.bmp,['Im_DanielCraig.png', 'Im_LeonardoDiCaprio.png', 'Im_HughJackman.png', 'Im_RyanReynolds.png', 'Im_GeorgeClooney.png', 'Im_DanielRadcliffe.png', 'Im_OrlandoBloom.png', 'Im_RobertDowneyJr.png', 'Im_RobertPattinson.png', 'Im_KeanuReeves.png'],same,1,0.41689580000002024,19,88.0952380952381,
BRMA1708,13,neg,150,neg150_id4_im20.bmp_neg150_id11_im10.bmp,['Im_DanielCraig.png', 'Im_LeonardoDiCaprio.png', 'Im_HughJackman.png', 'Im_RyanReynolds.png', 'Im_GeorgeClooney.png', 'Im_DanielRadcliffe.png', 'Im_OrlandoBloom.png', 'Im_RobertDowneyJr.png', 'Im_RobertPattinson.png', 'Im_KeanuReeves.png'],diff,1,0.42507460000024366,20,88.0952380952381,
BRMA1708,13,neg,150,neg150_id7_im15.bmp_neg150_id21_im17.bmp,['Im_DanielCraig.png', 'Im_LeonardoDiCaprio.png', 'Im_HughJackman.png', 'Im_RyanReynolds.png', 'Im_GeorgeClooney.png', 'Im_DanielRadcliffe.png', 'Im_OrlandoBloom.png', 'Im_RobertDowneyJr.png', 'Im_RobertPattinson.png', 'Im_KeanuReeves.png'],diff,1,0.4167410000000018,21,88.0952380952381,
BRMA1708,13,neg,60,neg60_id18_im18.bmp_neg60_id18_im11.bmp,['Im_DanielCraig.png', 'Im_LeonardoDiCaprio.png', 'Im_HughJackman.png', 'Im_RyanReynolds.png', 'Im_GeorgeClooney.png', 'Im_DanielRadcliffe.png', 'Im_OrlandoBloom.png', 'Im_RobertDowneyJr.png', 'Im_RobertPattinson.png', 'Im_KeanuReeves.png'],same,1,0.6171027999998842,22,88.0952380952381,
BRMA1708,13,neg,120,neg120_id11_im1.bmp_neg120_id11_im10.bmp,['Im_DanielCraig.png', 'Im_LeonardoDiCaprio.png', 'Im_HughJackman.png', 'Im_RyanReynolds.png', 'Im_GeorgeClooney.png', 'Im_DanielRadcliffe.png', 'Im_OrlandoBloom.png', 'Im_RobertDowneyJr.png', 'Im_RobertPattinson.png', 'Im_KeanuReeves.png'],diff,0,0.4167634000000362,22,88.0952380952381,
BRMA1708,13,neg,120,neg120_id18_im11.bmp_neg120_id18_im19.bmp,['Im_DanielCraig.png', 'Im_LeonardoDiCaprio.png', 'Im_HughJackman.png', 'Im_RyanReynolds.png', 'Im_GeorgeClooney.png', 'Im_DanielRadcliffe.png', 'Im_OrlandoBloom.png', 'Im_RobertDowneyJr.png', 'Im_RobertPattinson.png', 'Im_KeanuReeves.png'],same,1,0.6667898000000605,23,88.0952380952381,
BRMA1708,13,neg,90,neg90_id16_im2.bmp_neg90_id16_im3.bmp,['Im_DanielCraig.png', 'Im_LeonardoDiCaprio.png', 'Im_HughJackman.png', 'Im_RyanReynolds.png', 'Im_GeorgeClooney.png', 'Im_DanielRadcliffe.png', 'Im_OrlandoBloom.png', 'Im_RobertDowneyJr.png', 'Im_RobertPattinson.png', 'Im_KeanuReeves.png'],same,1,0.5002134000001206,24,88.0952380952381,
BRMA1708,13,neg,0,neg0_id18_im18.bmp_neg0_id11_im10.bmp,['Im_DanielCraig.png', 'Im_LeonardoDiCaprio.png', 'Im_HughJackman.png', 'Im_RyanReynolds.png', 'Im_GeorgeClooney.png', 'Im_DanielRadcliffe.png', 'Im_OrlandoBloom.png', 'Im_RobertDowneyJr.png', 'Im_RobertPattinson.png', 'Im_KeanuReeves.png'],diff,1,0.5167669000002206,25,88.0952380952381,
BRMA1708,13,neg,fs,negfs_id4_im20.bmp_negfs_id4_im15.bmp,['Im_DanielCraig.png', 'Im_LeonardoDiCaprio.png', 'Im_HughJackman.png', 'Im_RyanReynolds.png', 'Im_GeorgeClooney.png', 'Im_DanielRadcliffe.png', 'Im_OrlandoBloom.png', 'Im_RobertDowneyJr.png', 'Im_RobertPattinson.png', 'Im_KeanuReeves.png'],same,1,0.4670322000001761,26,88.0952380952381,
BRMA1708,13,neg,fs,negfs_id7_im26.bmp_negfs_id16_im19.bmp,['Im_DanielCraig.png', 'Im_LeonardoDiCaprio.png', 'Im_HughJackman.png', 'Im_RyanReynolds.png', 'Im_GeorgeClooney.png', 'Im_DanielRadcliffe.png', 'Im_OrlandoBloom.png', 'Im_RobertDowneyJr.png', 'Im_RobertPattinson.png', 'Im_KeanuReeves.png'],diff,1,0.7248497999999017,27,88.0952380952381,
BRMA1708,14,inv,150,pos150_id4_im20.bmp_pos150_id11_im10.bmp,['Im_DanielCraig.png', 'Im_LeonardoDiCaprio.png', 'Im_HughJackman.png', 'Im_RyanReynolds.png', 'Im_GeorgeClooney.png', 'Im_DanielRadcliffe.png', 'Im_OrlandoBloom.png', 'Im_RobertDowneyJr.png', 'Im_RobertPattinson.png', 'Im_KeanuReeves.png'],diff,1,0.4167776999997841,28,88.0952380952381,
BRMA1708,14,inv,120,pos120_id18_im18.bmp_pos120_id18_im19.bmp,['Im_DanielCraig.png', 'Im_LeonardoDiCaprio.png', 'Im_HughJackman.png', 'Im_RyanReynolds.png', 'Im_GeorgeClooney.png', 'Im_DanielRadcliffe.png', 'Im_OrlandoBloom.png', 'Im_RobertDowneyJr.png', 'Im_RobertPattinson.png', 'Im_KeanuReeves.png'],same,1,0.8253421999997954,29,88.0952380952381,
BRMA1708,14,inv,150,pos150_id16_im19.bmp_pos150_id16_im2.bmp,['Im_DanielCraig.png', 'Im_LeonardoDiCaprio.png', 'Im_HughJackman.png', 'Im_RyanReynolds.png', 'Im_GeorgeClooney.png', 'Im_DanielRadcliffe.png', 'Im_OrlandoBloom.png', 'Im_RobertDowneyJr.png', 'Im_RobertPattinson.png', 'Im_KeanuReeves.png'],same,1,0.43364530000008017,30,88.0952380952381,
BRMA1708,14,inv,30,pos30_id19_im27.bmp_pos30_id5_im1.bmp,['Im_DanielCraig.png', 'Im_LeonardoDiCaprio.png', 'Im_HughJackman.png', 'Im_RyanReynolds.png', 'Im_GeorgeClooney.png', 'Im_DanielRadcliffe.png', 'Im_OrlandoBloom.png', 'Im_RobertDowneyJr.png', 'Im_RobertPattinson.png', 'Im_KeanuReeves.png'],diff,1,0.4167385999999169,31,88.0952380952381,
BRMA1708,14,inv,120,pos120_id16_im19.bmp_pos120_id21_im16.bmp,['Im_DanielCraig.png', 'Im_LeonardoDiCaprio.png', 'Im_HughJackman.png', 'Im_RyanReynolds.png', 'Im_GeorgeClooney.png', 'Im_DanielRadcliffe.png', 'Im_OrlandoBloom.png', 'Im_RobertDowneyJr.png', 'Im_RobertPattinson.png', 'Im_KeanuReeves.png'],diff,1,0.41676649999999427,32,88.0952380952381,
BRMA1708,14,inv,60,pos60_id5_im1.bmp_pos60_id19_im27.bmp,['Im_DanielCraig.png', 'Im_LeonardoDiCaprio.png', 'Im_HughJackman.png', 'Im_RyanReynolds.png', 'Im_GeorgeClooney.png', 'Im_DanielRadcliffe.png', 'Im_OrlandoBloom.png', 'Im_RobertDowneyJr.png', 'Im_RobertPattinson.png', 'Im_KeanuReeves.png'],diff,1,0.7502917000001617,33,88.0952380952381,
BRMA1708,14,inv,90,pos90_id18_im18.bmp_pos90_id18_im19.bmp,['Im_DanielCraig.png', 'Im_LeonardoDiCaprio.png', 'Im_HughJackman.png', 'Im_RyanReynolds.png', 'Im_GeorgeClooney.png', 'Im_DanielRadcliffe.png', 'Im_OrlandoBloom.png', 'Im_RobertDowneyJr.png', 'Im_RobertPattinson.png', 'Im_KeanuReeves.png'],same,1,0.5335418999998183,34,88.0952380952381,
BRMA1708,14,inv,30,pos30_id8_im20.bmp_pos30_id8_im13.bmp,['Im_DanielCraig.png', 'Im_LeonardoDiCaprio.png', 'Im_HughJackman.png', 'Im_RyanReynolds.png', 'Im_GeorgeClooney.png', 'Im_DanielRadcliffe.png', 'Im_OrlandoBloom.png', 'Im_RobertDowneyJr.png', 'Im_RobertPattinson.png', 'Im_KeanuReeves.png'],same,1,0.42507889999978943,35,88.0952380952381,
BRMA1708,14,inv,0,pos0_id19_im4.bmp_pos0_id19_im8.bmp,['Im_DanielCraig.png', 'Im_LeonardoDiCaprio.png', 'Im_HughJackman.png', 'Im_RyanReynolds.png', 'Im_GeorgeClooney.png', 'Im_DanielRadcliffe.png', 'Im_OrlandoBloom.png', 'Im_RobertDowneyJr.png', 'Im_RobertPattinson.png', 'Im_KeanuReeves.png'],diff,0,0.4416197000000466,35,88.0952380952381,
BRMA1708,14,inv,fs,posfs_id19_im8.bmp_posfs_id16_im3.bmp,['Im_DanielCraig.png', 'Im_LeonardoDiCaprio.png', 'Im_HughJackman.png', 'Im_RyanReynolds.png', 'Im_GeorgeClooney.png', 'Im_DanielRadcliffe.png', 'Im_OrlandoBloom.png', 'Im_RobertDowneyJr.png', 'Im_RobertPattinson.png', 'Im_KeanuReeves.png'],diff,1,0.4416137999996863,36,88.0952380952381,
