Sujet,Trial,Condition,Filter,Imname,Actor0,Actor1,Actor2,Actor3,Actor4,Actor5,Actor6,Actor7,Actor8,Actor9,Answer,Accu,RT,Score,Scoreperc, 
_,posfs_DanielCraig_im15.bmp,DanielCraig,BenAffleck,BenAffleck,MattDamon,BenStiller,HughJackman,,,,,posfs_DanielCraig_im15.bmp,2.531829800000196,
_,posfs_RobertDowneyJr_im19.bmp,RobertDowneyJr,DanielRadcliffe,DanielRadcliffe,DanielCraig,PatrickDempsey,BenStiller,,,,,posfs_RobertDowneyJr_im19.bmp,2.3165530000005674,
_,posfs_RobertPattinson_im30.bmp,RobertPattinson,DanielRadcliffe,DanielRadcliffe,DanielCraig,BenAffleck,JustinTimberlake,,,,,posfs_RobertPattinson_im30.bmp,1.3096195000007356,
_,posfs_DanielCraig_im8.bmp,DanielCraig,RobertPattinson,RobertPattinson,BenAffleck,BenStiller,LeonardoDiCaprio,,,,,posfs_DanielCraig_im8.bmp,2.1998849999999948,
_,posfs_BenAffleck_im24.bmp,BenAffleck,OrlandoBloom,OrlandoBloom,DanielRadcliffe,MattDamon,GeorgeClooney,,,,,4,1.3658198000002812,
_,posfs_RobertDowneyJr_im18.bmp,RobertDowneyJr,MattDamon,MattDamon,BradPitt,GeorgeClooney,JustinTimberlake,,,,,posfs_RobertDowneyJr_im18.bmp,1.2450185999996393,
_,posfs_MattDamon_im24.bmp,MattDamon,RobertDowneyJr,RobertDowneyJr,BradPitt,HughJackman,RobertPattinson,,,,,1,1.6648842000004151,
_,posfs_DanielCraig_im7.bmp,DanielCraig,BenAffleck,BenAffleck,KeanuReeves,PatrickDempsey,DanielRadcliffe,,,,,posfs_DanielCraig_im7.bmp,0.9403791000004276,
_,posfs_KeanuReeves_im10.bmp,KeanuReeves,MattDamon,MattDamon,OrlandoBloom,PatrickDempsey,LeonardoDiCaprio,,,,,posfs_KeanuReeves_im10.bmp,2.1486474000003,
_,posfs_OrlandoBloom_im2.bmp,OrlandoBloom,BenAffleck,BenAffleck,RyanGosling,MattDamon,RobertDowneyJr,,,,,posfs_OrlandoBloom_im2.bmp,1.7481888000002073,
_,posfs_OrlandoBloom_im30.bmp,OrlandoBloom,JustinTimberlake,JustinTimberlake,BradPitt,KeanuReeves,RyanGosling,,,,,posfs_OrlandoBloom_im30.bmp,0.8689518000001044,
_,posfs_KeanuReeves_im2.bmp,KeanuReeves,HughJackman,HughJackman,GeorgeClooney,RobertPattinson,BenStiller,,,,,posfs_KeanuReeves_im2.bmp,1.5521214000000327,
_,posfs_ElijahWood_im19.bmp,ElijahWood,PatrickDempsey,PatrickDempsey,RyanReynolds,BenAffleck,OrlandoBloom,,,,,0,4.71936259999984,
_,posfs_JustinTimberlake_im18.bmp,JustinTimberlake,ElijahWood,ElijahWood,RyanGosling,DanielRadcliffe,LeonardoDiCaprio,,,,,1,4.936953700000231,
_,posfs_OrlandoBloom_im3.bmp,OrlandoBloom,RobertPattinson,RobertPattinson,RyanReynolds,RyanGosling,RobertDowneyJr,,,,,posfs_OrlandoBloom_im3.bmp,2.250504799999362,
_,posfs_LeonardoDiCaprio_im10.bmp,LeonardoDiCaprio,BenStiller,BenStiller,RyanGosling,PatrickDempsey,RobertPattinson,,,,,posfs_LeonardoDiCaprio_im10.bmp,1.622483199999806,
_,posfs_RobertPattinson_im8.bmp,RobertPattinson,DanielRadcliffe,DanielRadcliffe,OrlandoBloom,MattDamon,RyanGosling,,,,,posfs_RobertPattinson_im8.bmp,1.0834040999998251,
_,posfs_PatrickDempsey_im8.bmp,PatrickDempsey,BenStiller,BenStiller,MattDamon,BradPitt,RyanGosling,,,,,4,6.094338599999901,
_,posfs_BradPitt_im14.bmp,BradPitt,MattDamon,MattDamon,DanielCraig,OrlandoBloom,LeonardoDiCaprio,,,,,posfs_BradPitt_im14.bmp,2.224816999999348,
_,posfs_HughJackman_im20.bmp,HughJackman,JustinTimberlake,JustinTimberlake,RyanReynolds,DanielCraig,OrlandoBloom,,,,,posfs_HughJackman_im20.bmp,3.517382200000611,
_,posfs_DanielRadcliffe_im1.bmp,DanielRadcliffe,BradPitt,BradPitt,LeonardoDiCaprio,BenStiller,RobertPattinson,,,,,posfs_DanielRadcliffe_im1.bmp,1.678359300000011,
_,posfs_ElijahWood_im23.bmp,ElijahWood,BenAffleck,BenAffleck,RyanGosling,BenStiller,RobertDowneyJr,,,,,4,8.177135199999611,
_,posfs_BradPitt_im6.bmp,BradPitt,RyanGosling,RyanGosling,RobertDowneyJr,OrlandoBloom,HughJackman,,,,,posfs_BradPitt_im6.bmp,2.031534100000499,
_,posfs_LeonardoDiCaprio_im29.bmp,LeonardoDiCaprio,RobertDowneyJr,RobertDowneyJr,PatrickDempsey,OrlandoBloom,DanielCraig,,,,,posfs_LeonardoDiCaprio_im29.bmp,1.188423700000385,
_,posfs_RyanGosling_im12.bmp,RyanGosling,PatrickDempsey,PatrickDempsey,RyanReynolds,BradPitt,DanielCraig,,,,,4,3.2666080999997575,
_,posfs_DanielRadcliffe_im8.bmp,DanielRadcliffe,MattDamon,MattDamon,PatrickDempsey,RyanReynolds,RobertDowneyJr,,,,,posfs_DanielRadcliffe_im8.bmp,2.7176190999998653,
_,posfs_RyanReynolds_im16.bmp,RyanReynolds,OrlandoBloom,OrlandoBloom,RobertPattinson,RyanGosling,LeonardoDiCaprio,,,,,posfs_RyanReynolds_im16.bmp,2.055381099999977,
_,posfs_MattDamon_im9.bmp,MattDamon,BradPitt,BradPitt,HughJackman,DanielCraig,LeonardoDiCaprio,,,,,posfs_MattDamon_im9.bmp,2.162857499999518,
_,posfs_BenStiller_im3.bmp,BenStiller,ElijahWood,ElijahWood,JustinTimberlake,BradPitt,RobertDowneyJr,,,,,posfs_BenStiller_im3.bmp,2.7948206999999456,
_,posfs_GeorgeClooney_im26.bmp,GeorgeClooney,LeonardoDiCaprio,LeonardoDiCaprio,RobertPattinson,BenAffleck,ElijahWood,,,,,posfs_GeorgeClooney_im26.bmp,1.2573199999997087,
_,posfs_JustinTimberlake_im1.bmp,JustinTimberlake,BenAffleck,BenAffleck,ElijahWood,PatrickDempsey,HughJackman,,,,,4,2.2611666000002515,
_,posfs_GeorgeClooney_im14.bmp,GeorgeClooney,KeanuReeves,KeanuReeves,LeonardoDiCaprio,PatrickDempsey,RobertPattinson,,,,,posfs_GeorgeClooney_im14.bmp,1.7284036000000924,
_,posfs_RobertPattinson_im4.bmp,RobertPattinson,DanielRadcliffe,DanielRadcliffe,RyanGosling,MattDamon,ElijahWood,,,,,posfs_RobertPattinson_im4.bmp,1.8251459000002797,
_,posfs_HughJackman_im21.bmp,HughJackman,OrlandoBloom,OrlandoBloom,GeorgeClooney,RyanGosling,BradPitt,,,,,posfs_HughJackman_im21.bmp,2.549991500000033,
_,posfs_HughJackman_im13.bmp,HughJackman,BradPitt,BradPitt,PatrickDempsey,MattDamon,RobertPattinson,,,,,posfs_HughJackman_im13.bmp,1.670344300000579,
_,posfs_KeanuReeves_im1.bmp,KeanuReeves,LeonardoDiCaprio,LeonardoDiCaprio,BradPitt,JustinTimberlake,RobertPattinson,,,,,posfs_KeanuReeves_im1.bmp,2.202120599999944,
_,posfs_DanielRadcliffe_im20.bmp,DanielRadcliffe,GeorgeClooney,GeorgeClooney,ElijahWood,RobertPattinson,KeanuReeves,,,,,posfs_DanielRadcliffe_im20.bmp,2.0318661999999676,
_,posfs_MattDamon_im18.bmp,MattDamon,DanielCraig,DanielCraig,PatrickDempsey,DanielRadcliffe,ElijahWood,,,,,posfs_MattDamon_im18.bmp,2.4685600000002523,
_,posfs_OrlandoBloom_im19.bmp,OrlandoBloom,ElijahWood,ElijahWood,DanielCraig,PatrickDempsey,LeonardoDiCaprio,,,,,posfs_OrlandoBloom_im19.bmp,2.4075904000001174,
_,posfs_PatrickDempsey_im9.bmp,PatrickDempsey,HughJackman,HughJackman,RobertDowneyJr,KeanuReeves,BenAffleck,,,,,4,3.5413519999992786,
_,posfs_RyanGosling_im3.bmp,RyanGosling,RobertPattinson,RobertPattinson,PatrickDempsey,DanielCraig,JustinTimberlake,,,,,4,0.9938709999996718,
_,posfs_BenAffleck_im21.bmp,BenAffleck,RyanGosling,RyanGosling,GeorgeClooney,ElijahWood,BradPitt,,,,,4,0.5548403000002509,
_,posfs_DanielCraig_im20.bmp,DanielCraig,BenStiller,BenStiller,BradPitt,LeonardoDiCaprio,OrlandoBloom,,,,,posfs_DanielCraig_im20.bmp,0.8838863999999376,
_,posfs_LeonardoDiCaprio_im24.bmp,LeonardoDiCaprio,DanielCraig,DanielCraig,BradPitt,PatrickDempsey,RyanGosling,,,,,posfs_LeonardoDiCaprio_im24.bmp,2.135386099999778,
_,posfs_GeorgeClooney_im23.bmp,GeorgeClooney,BenAffleck,BenAffleck,MattDamon,OrlandoBloom,KeanuReeves,,,,,posfs_GeorgeClooney_im23.bmp,1.4877439000001687,
_,posfs_DanielRadcliffe_im10.bmp,DanielRadcliffe,LeonardoDiCaprio,LeonardoDiCaprio,KeanuReeves,ElijahWood,MattDamon,,,,,posfs_DanielRadcliffe_im10.bmp,2.553655200000321,
_,posfs_JustinTimberlake_im17.bmp,JustinTimberlake,MattDamon,MattDamon,LeonardoDiCaprio,ElijahWood,GeorgeClooney,,,,,4,2.9690473000000566,
_,posfs_HughJackman_im18.bmp,HughJackman,LeonardoDiCaprio,LeonardoDiCaprio,BradPitt,RyanGosling,DanielRadcliffe,,,,,posfs_HughJackman_im18.bmp,2.495649699999376,
_,posfs_KeanuReeves_im8.bmp,KeanuReeves,BenAffleck,BenAffleck,LeonardoDiCaprio,RyanGosling,GeorgeClooney,,,,,posfs_KeanuReeves_im8.bmp,2.225646699999743,
_,posfs_GeorgeClooney_im15.bmp,GeorgeClooney,JustinTimberlake,JustinTimberlake,DanielRadcliffe,DanielCraig,BenAffleck,,,,,posfs_GeorgeClooney_im15.bmp,1.7743702999996458,
_,posfs_ElijahWood_im12.bmp,ElijahWood,DanielRadcliffe,DanielRadcliffe,RobertDowneyJr,GeorgeClooney,BenStiller,,,,,3,2.325382100000752,
_,posfs_PatrickDempsey_im16.bmp,PatrickDempsey,BradPitt,BradPitt,DanielCraig,DanielRadcliffe,LeonardoDiCaprio,,,,,posfs_PatrickDempsey_im16.bmp,4.094266500000231,
_,posfs_RyanGosling_im25.bmp,RyanGosling,DanielCraig,DanielCraig,KeanuReeves,BradPitt,MattDamon,,,,,posfs_RyanGosling_im25.bmp,3.856565000000046,
_,posfs_BradPitt_im8.bmp,BradPitt,BenStiller,BenStiller,BenAffleck,OrlandoBloom,RobertPattinson,,,,,posfs_BradPitt_im8.bmp,1.6513196999994761,
_,posfs_BenAffleck_im4.bmp,BenAffleck,BenStiller,BenStiller,KeanuReeves,ElijahWood,PatrickDempsey,,,,,2,3.766962499999863,
_,posfs_BenStiller_im2.bmp,BenStiller,RobertDowneyJr,RobertDowneyJr,GeorgeClooney,DanielCraig,RyanReynolds,,,,,posfs_BenStiller_im2.bmp,5.310889000000316,
_,posfs_RyanReynolds_im17.bmp,RyanReynolds,PatrickDempsey,PatrickDempsey,ElijahWood,BenStiller,BradPitt,,,,,posfs_RyanReynolds_im17.bmp,2.1687770999997156,
_,posfs_MattDamon_im16.bmp,MattDamon,LeonardoDiCaprio,LeonardoDiCaprio,RyanGosling,KeanuReeves,BenStiller,,,,,posfs_MattDamon_im16.bmp,2.816024199999447,
_,posfs_BenStiller_im16.bmp,BenStiller,KeanuReeves,KeanuReeves,MattDamon,JustinTimberlake,BenAffleck,,,,,3,3.3888074000005872,
_,posfs_ElijahWood_im18.bmp,ElijahWood,PatrickDempsey,PatrickDempsey,JustinTimberlake,RobertPattinson,RobertDowneyJr,,,,,0,2.8833370000002105,
_,posfs_BenAffleck_im8.bmp,BenAffleck,OrlandoBloom,OrlandoBloom,RobertPattinson,RyanReynolds,MattDamon,,,,,posfs_BenAffleck_im8.bmp,2.709290599999804,
_,posfs_BenStiller_im7.bmp,BenStiller,LeonardoDiCaprio,LeonardoDiCaprio,RyanGosling,DanielCraig,PatrickDempsey,,,,,4,1.9908124000003227,
_,posfs_JustinTimberlake_im4.bmp,JustinTimberlake,BenStiller,BenStiller,RobertDowneyJr,OrlandoBloom,PatrickDempsey,,,,,4,0.5885502999999517,
_,posfs_RyanGosling_im30.bmp,RyanGosling,RyanReynolds,RyanReynolds,DanielCraig,PatrickDempsey,RobertPattinson,,,,,posfs_RyanGosling_im30.bmp,3.666718800000126,
_,posfs_LeonardoDiCaprio_im15.bmp,LeonardoDiCaprio,RobertPattinson,RobertPattinson,DanielCraig,BradPitt,DanielRadcliffe,,,,,posfs_LeonardoDiCaprio_im15.bmp,0.9738446000001204,
_,posfs_RobertDowneyJr_im11.bmp,RobertDowneyJr,HughJackman,HughJackman,RyanGosling,JustinTimberlake,BenStiller,,,,,posfs_RobertDowneyJr_im11.bmp,1.3081019000001106,
_,posfs_RyanReynolds_im22.bmp,RyanReynolds,JustinTimberlake,JustinTimberlake,BradPitt,KeanuReeves,LeonardoDiCaprio,,,,,posfs_RyanReynolds_im22.bmp,2.1739047000000937,
_,posfs_BradPitt_im17.bmp,BradPitt,PatrickDempsey,PatrickDempsey,LeonardoDiCaprio,JustinTimberlake,HughJackman,,,,,4,0.9876475000000937,
_,posfs_RobertPattinson_im27.bmp,RobertPattinson,RyanReynolds,RyanReynolds,OrlandoBloom,MattDamon,KeanuReeves,,,,,posfs_RobertPattinson_im27.bmp,2.6185230999999476,
_,posfs_PatrickDempsey_im14.bmp,PatrickDempsey,KeanuReeves,KeanuReeves,RobertDowneyJr,HughJackman,RyanReynolds,,,,,4,2.9115051999997377,
_,posfs_RobertDowneyJr_im4.bmp,RobertDowneyJr,RyanGosling,RyanGosling,BradPitt,HughJackman,ElijahWood,,,,,posfs_RobertDowneyJr_im4.bmp,1.3442253000002893,
_,posfs_RyanReynolds_im3.bmp,RyanReynolds,BenAffleck,BenAffleck,DanielCraig,MattDamon,OrlandoBloom,,,,,posfs_RyanReynolds_im3.bmp,2.1448852999992596,
train,pos,fs,posfs_id7_im26.bmp_posfs_id7_im15.bmp,['Im_DanielCraig.png', 'Im_OrlandoBloom.png', 'Im_KeanuReeves.png', 'Im_DanielRadcliffe.png', 'Im_RobertPattinson.png', 'Im_GeorgeClooney.png', 'Im_HughJackman.png', 'Im_RobertDowneyJr.png', 'Im_RyanReynolds.png', 'Im_LeonardoDiCaprio.png'],same,1,0.9666410999998334,1,0,
train,pos,fs,posfs_id11_im10.bmp_posfs_id11_im1.bmp,['Im_DanielCraig.png', 'Im_OrlandoBloom.png', 'Im_KeanuReeves.png', 'Im_DanielRadcliffe.png', 'Im_RobertPattinson.png', 'Im_GeorgeClooney.png', 'Im_HughJackman.png', 'Im_RobertDowneyJr.png', 'Im_RyanReynolds.png', 'Im_LeonardoDiCaprio.png'],diff,0,0.9167573000004268,1,0,
train,pos,fs,posfs_id5_im10.bmp_posfs_id8_im13.bmp,['Im_DanielCraig.png', 'Im_OrlandoBloom.png', 'Im_KeanuReeves.png', 'Im_DanielRadcliffe.png', 'Im_RobertPattinson.png', 'Im_GeorgeClooney.png', 'Im_HughJackman.png', 'Im_RobertDowneyJr.png', 'Im_RyanReynolds.png', 'Im_LeonardoDiCaprio.png'],diff,1,0.8169182999999975,2,0,
train,pos,fs,posfs_id18_im19.bmp_posfs_id18_im18.bmp,['Im_DanielCraig.png', 'Im_OrlandoBloom.png', 'Im_KeanuReeves.png', 'Im_DanielRadcliffe.png', 'Im_RobertPattinson.png', 'Im_GeorgeClooney.png', 'Im_HughJackman.png', 'Im_RobertDowneyJr.png', 'Im_RyanReynolds.png', 'Im_LeonardoDiCaprio.png'],same,1,1.008418299999903,3,0,
train,pos,fs,posfs_id4_im7.bmp_posfs_id4_im20.bmp,['Im_DanielCraig.png', 'Im_OrlandoBloom.png', 'Im_KeanuReeves.png', 'Im_DanielRadcliffe.png', 'Im_RobertPattinson.png', 'Im_GeorgeClooney.png', 'Im_HughJackman.png', 'Im_RobertDowneyJr.png', 'Im_RyanReynolds.png', 'Im_LeonardoDiCaprio.png'],same,1,0.8586586999999781,4,0,
train,pos,fs,posfs_id13_im29.bmp_posfs_id11_im2.bmp,['Im_DanielCraig.png', 'Im_OrlandoBloom.png', 'Im_KeanuReeves.png', 'Im_DanielRadcliffe.png', 'Im_RobertPattinson.png', 'Im_GeorgeClooney.png', 'Im_HughJackman.png', 'Im_RobertDowneyJr.png', 'Im_RyanReynolds.png', 'Im_LeonardoDiCaprio.png'],diff,1,0.7668285999998261,5,0,
train,pos,fs,posfs_id19_im8.bmp_posfs_id19_im4.bmp,['Im_DanielCraig.png', 'Im_OrlandoBloom.png', 'Im_KeanuReeves.png', 'Im_DanielRadcliffe.png', 'Im_RobertPattinson.png', 'Im_GeorgeClooney.png', 'Im_HughJackman.png', 'Im_RobertDowneyJr.png', 'Im_RyanReynolds.png', 'Im_LeonardoDiCaprio.png'],same,1,0.9999558999998044,6,0,
train,pos,fs,posfs_id8_im20.bmp_posfs_id19_im4.bmp,['Im_DanielCraig.png', 'Im_OrlandoBloom.png', 'Im_KeanuReeves.png', 'Im_DanielRadcliffe.png', 'Im_RobertPattinson.png', 'Im_GeorgeClooney.png', 'Im_HughJackman.png', 'Im_RobertDowneyJr.png', 'Im_RyanReynolds.png', 'Im_LeonardoDiCaprio.png'],same,0,0.9919883000002301,6,0,
train,pos,fs,posfs_id11_im2.bmp_posfs_id21_im22.bmp,['Im_DanielCraig.png', 'Im_OrlandoBloom.png', 'Im_KeanuReeves.png', 'Im_DanielRadcliffe.png', 'Im_RobertPattinson.png', 'Im_GeorgeClooney.png', 'Im_HughJackman.png', 'Im_RobertDowneyJr.png', 'Im_RyanReynolds.png', 'Im_LeonardoDiCaprio.png'],diff,1,0.8417120000003706,7,0,
train,pos,fs,posfs_id8_im21.bmp_posfs_id8_im20.bmp,['Im_DanielCraig.png', 'Im_OrlandoBloom.png', 'Im_KeanuReeves.png', 'Im_DanielRadcliffe.png', 'Im_RobertPattinson.png', 'Im_GeorgeClooney.png', 'Im_HughJackman.png', 'Im_RobertDowneyJr.png', 'Im_RyanReynolds.png', 'Im_LeonardoDiCaprio.png'],same,1,0.8332500999995318,8,0,
train,pos,fs,posfs_id7_im26.bmp_posfs_id21_im17.bmp,['Im_DanielCraig.png', 'Im_OrlandoBloom.png', 'Im_KeanuReeves.png', 'Im_DanielRadcliffe.png', 'Im_RobertPattinson.png', 'Im_GeorgeClooney.png', 'Im_HughJackman.png', 'Im_RobertDowneyJr.png', 'Im_RyanReynolds.png', 'Im_LeonardoDiCaprio.png'],diff,1,0.825145099999645,9,0,
train,pos,fs,posfs_id8_im21.bmp_posfs_id19_im4.bmp,['Im_DanielCraig.png', 'Im_OrlandoBloom.png', 'Im_KeanuReeves.png', 'Im_DanielRadcliffe.png', 'Im_RobertPattinson.png', 'Im_GeorgeClooney.png', 'Im_HughJackman.png', 'Im_RobertDowneyJr.png', 'Im_RyanReynolds.png', 'Im_LeonardoDiCaprio.png'],diff,1,0.7752572999997938,10,0,
train,pos,fs,posfs_id13_im29.bmp_posfs_id13_im10.bmp,['Im_DanielCraig.png', 'Im_OrlandoBloom.png', 'Im_KeanuReeves.png', 'Im_DanielRadcliffe.png', 'Im_RobertPattinson.png', 'Im_GeorgeClooney.png', 'Im_HughJackman.png', 'Im_RobertDowneyJr.png', 'Im_RyanReynolds.png', 'Im_LeonardoDiCaprio.png'],diff,0,1.208491899999899,10,0,
train,pos,fs,posfs_id16_im19.bmp_posfs_id16_im2.bmp,['Im_DanielCraig.png', 'Im_OrlandoBloom.png', 'Im_KeanuReeves.png', 'Im_DanielRadcliffe.png', 'Im_RobertPattinson.png', 'Im_GeorgeClooney.png', 'Im_HughJackman.png', 'Im_RobertDowneyJr.png', 'Im_RyanReynolds.png', 'Im_LeonardoDiCaprio.png'],diff,0,0.9085316000000603,10,0,
train,pos,fs,posfs_id19_im8.bmp_posfs_id19_im27.bmp,['Im_DanielCraig.png', 'Im_OrlandoBloom.png', 'Im_KeanuReeves.png', 'Im_DanielRadcliffe.png', 'Im_RobertPattinson.png', 'Im_GeorgeClooney.png', 'Im_HughJackman.png', 'Im_RobertDowneyJr.png', 'Im_RyanReynolds.png', 'Im_LeonardoDiCaprio.png'],same,1,0.7585397999991983,11,0,
train,pos,fs,posfs_id18_im11.bmp_posfs_id13_im15.bmp,['Im_DanielCraig.png', 'Im_OrlandoBloom.png', 'Im_KeanuReeves.png', 'Im_DanielRadcliffe.png', 'Im_RobertPattinson.png', 'Im_GeorgeClooney.png', 'Im_HughJackman.png', 'Im_RobertDowneyJr.png', 'Im_RyanReynolds.png', 'Im_LeonardoDiCaprio.png'],diff,1,0.7004160999995293,12,0,
train,pos,fs,posfs_id18_im18.bmp_posfs_id18_im11.bmp,['Im_DanielCraig.png', 'Im_OrlandoBloom.png', 'Im_KeanuReeves.png', 'Im_DanielRadcliffe.png', 'Im_RobertPattinson.png', 'Im_GeorgeClooney.png', 'Im_HughJackman.png', 'Im_RobertDowneyJr.png', 'Im_RyanReynolds.png', 'Im_LeonardoDiCaprio.png'],same,1,1.0416764000001422,13,0,
train,pos,fs,posfs_id7_im15.bmp_posfs_id16_im2.bmp,['Im_DanielCraig.png', 'Im_OrlandoBloom.png', 'Im_KeanuReeves.png', 'Im_DanielRadcliffe.png', 'Im_RobertPattinson.png', 'Im_GeorgeClooney.png', 'Im_HughJackman.png', 'Im_RobertDowneyJr.png', 'Im_RyanReynolds.png', 'Im_LeonardoDiCaprio.png'],diff,1,0.6665657000003193,14,0,
train,pos,fs,posfs_id5_im10.bmp_posfs_id5_im1.bmp,['Im_DanielCraig.png', 'Im_OrlandoBloom.png', 'Im_KeanuReeves.png', 'Im_DanielRadcliffe.png', 'Im_RobertPattinson.png', 'Im_GeorgeClooney.png', 'Im_HughJackman.png', 'Im_RobertDowneyJr.png', 'Im_RyanReynolds.png', 'Im_LeonardoDiCaprio.png'],same,1,0.699769799999558,15,0,
train,pos,fs,posfs_id5_im10.bmp_posfs_id21_im22.bmp,['Im_DanielCraig.png', 'Im_OrlandoBloom.png', 'Im_KeanuReeves.png', 'Im_DanielRadcliffe.png', 'Im_RobertPattinson.png', 'Im_GeorgeClooney.png', 'Im_HughJackman.png', 'Im_RobertDowneyJr.png', 'Im_RyanReynolds.png', 'Im_LeonardoDiCaprio.png'],diff,1,0.6916708999997354,16,0,
train,pos,fs,posfs_id21_im16.bmp_posfs_id8_im20.bmp,['Im_DanielCraig.png', 'Im_OrlandoBloom.png', 'Im_KeanuReeves.png', 'Im_DanielRadcliffe.png', 'Im_RobertPattinson.png', 'Im_GeorgeClooney.png', 'Im_HughJackman.png', 'Im_RobertDowneyJr.png', 'Im_RyanReynolds.png', 'Im_LeonardoDiCaprio.png'],same,0,0.6499395999999251,0,80.0,
train,pos,fs,posfs_id8_im20.bmp_posfs_id8_im13.bmp,['Im_DanielCraig.png', 'Im_OrlandoBloom.png', 'Im_KeanuReeves.png', 'Im_DanielRadcliffe.png', 'Im_RobertPattinson.png', 'Im_GeorgeClooney.png', 'Im_HughJackman.png', 'Im_RobertDowneyJr.png', 'Im_RyanReynolds.png', 'Im_LeonardoDiCaprio.png'],same,1,0.6919261000002734,1,80.0,
train,pos,fs,posfs_id16_im19.bmp_posfs_id21_im16.bmp,['Im_DanielCraig.png', 'Im_OrlandoBloom.png', 'Im_KeanuReeves.png', 'Im_DanielRadcliffe.png', 'Im_RobertPattinson.png', 'Im_GeorgeClooney.png', 'Im_HughJackman.png', 'Im_RobertDowneyJr.png', 'Im_RyanReynolds.png', 'Im_LeonardoDiCaprio.png'],diff,1,0.8499966999997923,2,80.0,
train,pos,fs,posfs_id4_im7.bmp_posfs_id8_im21.bmp,['Im_DanielCraig.png', 'Im_OrlandoBloom.png', 'Im_KeanuReeves.png', 'Im_DanielRadcliffe.png', 'Im_RobertPattinson.png', 'Im_GeorgeClooney.png', 'Im_HughJackman.png', 'Im_RobertDowneyJr.png', 'Im_RyanReynolds.png', 'Im_LeonardoDiCaprio.png'],diff,1,0.7336764000001494,3,80.0,
train,pos,fs,posfs_id11_im1.bmp_posfs_id11_im2.bmp,['Im_DanielCraig.png', 'Im_OrlandoBloom.png', 'Im_KeanuReeves.png', 'Im_DanielRadcliffe.png', 'Im_RobertPattinson.png', 'Im_GeorgeClooney.png', 'Im_HughJackman.png', 'Im_RobertDowneyJr.png', 'Im_RyanReynolds.png', 'Im_LeonardoDiCaprio.png'],same,1,0.8831787999997687,4,80.0,
train,pos,fs,posfs_id11_im10.bmp_posfs_id4_im20.bmp,['Im_DanielCraig.png', 'Im_OrlandoBloom.png', 'Im_KeanuReeves.png', 'Im_DanielRadcliffe.png', 'Im_RobertPattinson.png', 'Im_GeorgeClooney.png', 'Im_HughJackman.png', 'Im_RobertDowneyJr.png', 'Im_RyanReynolds.png', 'Im_LeonardoDiCaprio.png'],diff,1,0.6837073999995482,5,80.0,
train,pos,fs,posfs_id13_im29.bmp_posfs_id4_im15.bmp,['Im_DanielCraig.png', 'Im_OrlandoBloom.png', 'Im_KeanuReeves.png', 'Im_DanielRadcliffe.png', 'Im_RobertPattinson.png', 'Im_GeorgeClooney.png', 'Im_HughJackman.png', 'Im_RobertDowneyJr.png', 'Im_RyanReynolds.png', 'Im_LeonardoDiCaprio.png'],diff,1,0.9083211000006486,6,80.0,
train,pos,fs,posfs_id19_im4.bmp_posfs_id19_im27.bmp,['Im_DanielCraig.png', 'Im_OrlandoBloom.png', 'Im_KeanuReeves.png', 'Im_DanielRadcliffe.png', 'Im_RobertPattinson.png', 'Im_GeorgeClooney.png', 'Im_HughJackman.png', 'Im_RobertDowneyJr.png', 'Im_RyanReynolds.png', 'Im_LeonardoDiCaprio.png'],same,1,0.7168148000000656,7,80.0,
train,pos,fs,posfs_id13_im10.bmp_posfs_id19_im8.bmp,['Im_DanielCraig.png', 'Im_OrlandoBloom.png', 'Im_KeanuReeves.png', 'Im_DanielRadcliffe.png', 'Im_RobertPattinson.png', 'Im_GeorgeClooney.png', 'Im_HughJackman.png', 'Im_RobertDowneyJr.png', 'Im_RyanReynolds.png', 'Im_LeonardoDiCaprio.png'],diff,1,0.7916938999997001,8,80.0,
train,pos,fs,posfs_id5_im10.bmp_posfs_id5_im20.bmp,['Im_DanielCraig.png', 'Im_OrlandoBloom.png', 'Im_KeanuReeves.png', 'Im_DanielRadcliffe.png', 'Im_RobertPattinson.png', 'Im_GeorgeClooney.png', 'Im_HughJackman.png', 'Im_RobertDowneyJr.png', 'Im_RyanReynolds.png', 'Im_LeonardoDiCaprio.png'],same,1,0.6501392000000124,9,80.0,
train,pos,fs,posfs_id11_im2.bmp_posfs_id11_im10.bmp,['Im_DanielCraig.png', 'Im_OrlandoBloom.png', 'Im_KeanuReeves.png', 'Im_DanielRadcliffe.png', 'Im_RobertPattinson.png', 'Im_GeorgeClooney.png', 'Im_HughJackman.png', 'Im_RobertDowneyJr.png', 'Im_RyanReynolds.png', 'Im_LeonardoDiCaprio.png'],same,1,1.208446699999513,10,80.0,
train,pos,fs,posfs_id13_im10.bmp_posfs_id16_im2.bmp,['Im_DanielCraig.png', 'Im_OrlandoBloom.png', 'Im_KeanuReeves.png', 'Im_DanielRadcliffe.png', 'Im_RobertPattinson.png', 'Im_GeorgeClooney.png', 'Im_HughJackman.png', 'Im_RobertDowneyJr.png', 'Im_RyanReynolds.png', 'Im_LeonardoDiCaprio.png'],diff,1,0.7249727000007624,11,80.0,
train,pos,fs,posfs_id13_im29.bmp_posfs_id13_im15.bmp,['Im_DanielCraig.png', 'Im_OrlandoBloom.png', 'Im_KeanuReeves.png', 'Im_DanielRadcliffe.png', 'Im_RobertPattinson.png', 'Im_GeorgeClooney.png', 'Im_HughJackman.png', 'Im_RobertDowneyJr.png', 'Im_RyanReynolds.png', 'Im_LeonardoDiCaprio.png'],same,1,0.6665735999995377,12,80.0,
train,pos,fs,posfs_id16_im3.bmp_posfs_id8_im13.bmp,['Im_DanielCraig.png', 'Im_OrlandoBloom.png', 'Im_KeanuReeves.png', 'Im_DanielRadcliffe.png', 'Im_RobertPattinson.png', 'Im_GeorgeClooney.png', 'Im_HughJackman.png', 'Im_RobertDowneyJr.png', 'Im_RyanReynolds.png', 'Im_LeonardoDiCaprio.png'],diff,1,0.8504157999996096,13,80.0,
train,pos,fs,posfs_id7_im14.bmp_posfs_id11_im1.bmp,['Im_DanielCraig.png', 'Im_OrlandoBloom.png', 'Im_KeanuReeves.png', 'Im_DanielRadcliffe.png', 'Im_RobertPattinson.png', 'Im_GeorgeClooney.png', 'Im_HughJackman.png', 'Im_RobertDowneyJr.png', 'Im_RyanReynolds.png', 'Im_LeonardoDiCaprio.png'],diff,1,1.341980400000466,14,80.0,
train,pos,fs,posfs_id11_im1.bmp_posfs_id4_im15.bmp,['Im_DanielCraig.png', 'Im_OrlandoBloom.png', 'Im_KeanuReeves.png', 'Im_DanielRadcliffe.png', 'Im_RobertPattinson.png', 'Im_GeorgeClooney.png', 'Im_HughJackman.png', 'Im_RobertDowneyJr.png', 'Im_RyanReynolds.png', 'Im_LeonardoDiCaprio.png'],diff,1,0.8583159999998315,15,80.0,
train,pos,fs,posfs_id4_im7.bmp_posfs_id18_im11.bmp,['Im_DanielCraig.png', 'Im_OrlandoBloom.png', 'Im_KeanuReeves.png', 'Im_DanielRadcliffe.png', 'Im_RobertPattinson.png', 'Im_GeorgeClooney.png', 'Im_HughJackman.png', 'Im_RobertDowneyJr.png', 'Im_RyanReynolds.png', 'Im_LeonardoDiCaprio.png'],diff,1,1.5666289000000688,16,80.0,
train,pos,fs,posfs_id4_im7.bmp_posfs_id4_im15.bmp,['Im_DanielCraig.png', 'Im_OrlandoBloom.png', 'Im_KeanuReeves.png', 'Im_DanielRadcliffe.png', 'Im_RobertPattinson.png', 'Im_GeorgeClooney.png', 'Im_HughJackman.png', 'Im_RobertDowneyJr.png', 'Im_RyanReynolds.png', 'Im_LeonardoDiCaprio.png'],same,1,0.5914921000003233,17,80.0,
train,pos,fs,posfs_id4_im20.bmp_posfs_id4_im15.bmp,['Im_DanielCraig.png', 'Im_OrlandoBloom.png', 'Im_KeanuReeves.png', 'Im_DanielRadcliffe.png', 'Im_RobertPattinson.png', 'Im_GeorgeClooney.png', 'Im_HughJackman.png', 'Im_RobertDowneyJr.png', 'Im_RyanReynolds.png', 'Im_LeonardoDiCaprio.png'],same,1,0.6085792000003494,18,80.0,
train,pos,fs,posfs_id21_im17.bmp_posfs_id21_im22.bmp,['Im_DanielCraig.png', 'Im_OrlandoBloom.png', 'Im_KeanuReeves.png', 'Im_DanielRadcliffe.png', 'Im_RobertPattinson.png', 'Im_GeorgeClooney.png', 'Im_HughJackman.png', 'Im_RobertDowneyJr.png', 'Im_RyanReynolds.png', 'Im_LeonardoDiCaprio.png'],same,1,0.6668879999997444,19,80.0,
train,inv,fs,posfs_id18_im18.bmp_posfs_id18_im19.bmp,['Im_DanielCraig.png', 'Im_OrlandoBloom.png', 'Im_KeanuReeves.png', 'Im_DanielRadcliffe.png', 'Im_RobertPattinson.png', 'Im_GeorgeClooney.png', 'Im_HughJackman.png', 'Im_RobertDowneyJr.png', 'Im_RyanReynolds.png', 'Im_LeonardoDiCaprio.png'],same,1,0.4251240000003236,1,0,
train,neg,fs,negfs_id13_im10.bmp_negfs_id13_im29.bmp,['Im_DanielCraig.png', 'Im_OrlandoBloom.png', 'Im_KeanuReeves.png', 'Im_DanielRadcliffe.png', 'Im_RobertPattinson.png', 'Im_GeorgeClooney.png', 'Im_HughJackman.png', 'Im_RobertDowneyJr.png', 'Im_RyanReynolds.png', 'Im_LeonardoDiCaprio.png'],same,1,0.4251123000003645,2,0,
train,neg,fs,negfs_id13_im29.bmp_negfs_id4_im15.bmp,['Im_DanielCraig.png', 'Im_OrlandoBloom.png', 'Im_KeanuReeves.png', 'Im_DanielRadcliffe.png', 'Im_RobertPattinson.png', 'Im_GeorgeClooney.png', 'Im_HughJackman.png', 'Im_RobertDowneyJr.png', 'Im_RyanReynolds.png', 'Im_LeonardoDiCaprio.png'],diff,1,0.4251663000004555,3,0,
train,neg,fs,negfs_id16_im2.bmp_negfs_id7_im15.bmp,['Im_DanielCraig.png', 'Im_OrlandoBloom.png', 'Im_KeanuReeves.png', 'Im_DanielRadcliffe.png', 'Im_RobertPattinson.png', 'Im_GeorgeClooney.png', 'Im_HughJackman.png', 'Im_RobertDowneyJr.png', 'Im_RyanReynolds.png', 'Im_LeonardoDiCaprio.png'],diff,1,0.4250702999997884,4,0,
train,inv,fs,posfs_id8_im13.bmp_posfs_id5_im10.bmp,['Im_DanielCraig.png', 'Im_OrlandoBloom.png', 'Im_KeanuReeves.png', 'Im_DanielRadcliffe.png', 'Im_RobertPattinson.png', 'Im_GeorgeClooney.png', 'Im_HughJackman.png', 'Im_RobertDowneyJr.png', 'Im_RyanReynolds.png', 'Im_LeonardoDiCaprio.png'],diff,1,0.5917974999993021,5,0,
train,neg,fs,negfs_id8_im13.bmp_negfs_id8_im21.bmp,['Im_DanielCraig.png', 'Im_OrlandoBloom.png', 'Im_KeanuReeves.png', 'Im_DanielRadcliffe.png', 'Im_RobertPattinson.png', 'Im_GeorgeClooney.png', 'Im_HughJackman.png', 'Im_RobertDowneyJr.png', 'Im_RyanReynolds.png', 'Im_LeonardoDiCaprio.png'],same,1,0.7751277000006667,6,0,
train,inv,fs,posfs_id13_im29.bmp_posfs_id11_im2.bmp,['Im_DanielCraig.png', 'Im_OrlandoBloom.png', 'Im_KeanuReeves.png', 'Im_DanielRadcliffe.png', 'Im_RobertPattinson.png', 'Im_GeorgeClooney.png', 'Im_HughJackman.png', 'Im_RobertDowneyJr.png', 'Im_RyanReynolds.png', 'Im_LeonardoDiCaprio.png'],diff,1,0.516706699999304,7,0,
train,neg,fs,negfs_id16_im19.bmp_negfs_id7_im26.bmp,['Im_DanielCraig.png', 'Im_OrlandoBloom.png', 'Im_KeanuReeves.png', 'Im_DanielRadcliffe.png', 'Im_RobertPattinson.png', 'Im_GeorgeClooney.png', 'Im_HughJackman.png', 'Im_RobertDowneyJr.png', 'Im_RyanReynolds.png', 'Im_LeonardoDiCaprio.png'],diff,1,0.45848190000015165,8,0,
train,neg,fs,negfs_id18_im19.bmp_negfs_id5_im20.bmp,['Im_DanielCraig.png', 'Im_OrlandoBloom.png', 'Im_KeanuReeves.png', 'Im_DanielRadcliffe.png', 'Im_RobertPattinson.png', 'Im_GeorgeClooney.png', 'Im_HughJackman.png', 'Im_RobertDowneyJr.png', 'Im_RyanReynolds.png', 'Im_LeonardoDiCaprio.png'],diff,1,0.5418708999995943,9,0,
train,inv,fs,posfs_id8_im13.bmp_posfs_id16_im3.bmp,['Im_DanielCraig.png', 'Im_OrlandoBloom.png', 'Im_KeanuReeves.png', 'Im_DanielRadcliffe.png', 'Im_RobertPattinson.png', 'Im_GeorgeClooney.png', 'Im_HughJackman.png', 'Im_RobertDowneyJr.png', 'Im_RyanReynolds.png', 'Im_LeonardoDiCaprio.png'],diff,1,0.6667709999992439,10,0,
train,pos,fs,posfs_id7_im26.bmp_posfs_id16_im19.bmp,['Im_DanielCraig.png', 'Im_OrlandoBloom.png', 'Im_KeanuReeves.png', 'Im_DanielRadcliffe.png', 'Im_RobertPattinson.png', 'Im_GeorgeClooney.png', 'Im_HughJackman.png', 'Im_RobertDowneyJr.png', 'Im_RyanReynolds.png', 'Im_LeonardoDiCaprio.png'],diff,1,0.43338149999999587,11,0,
train,neg,fs,negfs_id13_im15.bmp_negfs_id19_im27.bmp,['Im_DanielCraig.png', 'Im_OrlandoBloom.png', 'Im_KeanuReeves.png', 'Im_DanielRadcliffe.png', 'Im_RobertPattinson.png', 'Im_GeorgeClooney.png', 'Im_HughJackman.png', 'Im_RobertDowneyJr.png', 'Im_RyanReynolds.png', 'Im_LeonardoDiCaprio.png'],diff,1,0.541966699999648,12,0,
train,pos,fs,posfs_id8_im20.bmp_posfs_id8_im13.bmp,['Im_DanielCraig.png', 'Im_OrlandoBloom.png', 'Im_KeanuReeves.png', 'Im_DanielRadcliffe.png', 'Im_RobertPattinson.png', 'Im_GeorgeClooney.png', 'Im_HughJackman.png', 'Im_RobertDowneyJr.png', 'Im_RyanReynolds.png', 'Im_LeonardoDiCaprio.png'],same,1,0.43321340000056807,13,0,
train,neg,fs,negfs_id4_im7.bmp_negfs_id4_im15.bmp,['Im_DanielCraig.png', 'Im_OrlandoBloom.png', 'Im_KeanuReeves.png', 'Im_DanielRadcliffe.png', 'Im_RobertPattinson.png', 'Im_GeorgeClooney.png', 'Im_HughJackman.png', 'Im_RobertDowneyJr.png', 'Im_RyanReynolds.png', 'Im_LeonardoDiCaprio.png'],same,1,0.591932899999847,14,0,
train,neg,fs,negfs_id16_im2.bmp_negfs_id16_im19.bmp,['Im_DanielCraig.png', 'Im_OrlandoBloom.png', 'Im_KeanuReeves.png', 'Im_DanielRadcliffe.png', 'Im_RobertPattinson.png', 'Im_GeorgeClooney.png', 'Im_HughJackman.png', 'Im_RobertDowneyJr.png', 'Im_RyanReynolds.png', 'Im_LeonardoDiCaprio.png'],same,1,0.47527760000048147,15,0,
train,pos,fs,posfs_id5_im20.bmp_posfs_id5_im10.bmp,['Im_DanielCraig.png', 'Im_OrlandoBloom.png', 'Im_KeanuReeves.png', 'Im_DanielRadcliffe.png', 'Im_RobertPattinson.png', 'Im_GeorgeClooney.png', 'Im_HughJackman.png', 'Im_RobertDowneyJr.png', 'Im_RyanReynolds.png', 'Im_LeonardoDiCaprio.png'],same,1,0.40844790000028297,16,0,
train,inv,fs,posfs_id8_im20.bmp_posfs_id19_im4.bmp,['Im_DanielCraig.png', 'Im_OrlandoBloom.png', 'Im_KeanuReeves.png', 'Im_DanielRadcliffe.png', 'Im_RobertPattinson.png', 'Im_GeorgeClooney.png', 'Im_HughJackman.png', 'Im_RobertDowneyJr.png', 'Im_RyanReynolds.png', 'Im_LeonardoDiCaprio.png'],diff,1,0.41669980000006035,17,0,
train,inv,fs,posfs_id16_im2.bmp_posfs_id16_im19.bmp,['Im_DanielCraig.png', 'Im_OrlandoBloom.png', 'Im_KeanuReeves.png', 'Im_DanielRadcliffe.png', 'Im_RobertPattinson.png', 'Im_GeorgeClooney.png', 'Im_HughJackman.png', 'Im_RobertDowneyJr.png', 'Im_RyanReynolds.png', 'Im_LeonardoDiCaprio.png'],diff,0,0.4165692000005947,17,0,
train,inv,fs,posfs_id13_im29.bmp_posfs_id13_im10.bmp,['Im_DanielCraig.png', 'Im_OrlandoBloom.png', 'Im_KeanuReeves.png', 'Im_DanielRadcliffe.png', 'Im_RobertPattinson.png', 'Im_GeorgeClooney.png', 'Im_HughJackman.png', 'Im_RobertDowneyJr.png', 'Im_RyanReynolds.png', 'Im_LeonardoDiCaprio.png'],diff,0,0.42485339999984717,17,0,
train,neg,fs,negfs_id16_im2.bmp_negfs_id13_im10.bmp,['Im_DanielCraig.png', 'Im_OrlandoBloom.png', 'Im_KeanuReeves.png', 'Im_DanielRadcliffe.png', 'Im_RobertPattinson.png', 'Im_GeorgeClooney.png', 'Im_HughJackman.png', 'Im_RobertDowneyJr.png', 'Im_RyanReynolds.png', 'Im_LeonardoDiCaprio.png'],diff,1,0.4667325999998866,18,0,
BRMA1708,train,inv,60,pos60_id16_im2.bmp_pos60_id16_im3.bmp,['Im_DanielCraig.png', 'Im_OrlandoBloom.png', 'Im_KeanuReeves.png', 'Im_DanielRadcliffe.png', 'Im_RobertPattinson.png', 'Im_GeorgeClooney.png', 'Im_HughJackman.png', 'Im_RobertDowneyJr.png', 'Im_RyanReynolds.png', 'Im_LeonardoDiCaprio.png'],diff,0,1.0084941999994044,0,0,
BRMA1708,train,inv,30,pos30_id21_im16.bmp_pos30_id21_im22.bmp,['Im_DanielCraig.png', 'Im_OrlandoBloom.png', 'Im_KeanuReeves.png', 'Im_DanielRadcliffe.png', 'Im_RobertPattinson.png', 'Im_GeorgeClooney.png', 'Im_HughJackman.png', 'Im_RobertDowneyJr.png', 'Im_RyanReynolds.png', 'Im_LeonardoDiCaprio.png'],same,1,0.4249896000001172,1,0,
BRMA1708,train,inv,fs,posfs_id4_im20.bmp_posfs_id11_im10.bmp,['Im_DanielCraig.png', 'Im_OrlandoBloom.png', 'Im_KeanuReeves.png', 'Im_DanielRadcliffe.png', 'Im_RobertPattinson.png', 'Im_GeorgeClooney.png', 'Im_HughJackman.png', 'Im_RobertDowneyJr.png', 'Im_RyanReynolds.png', 'Im_LeonardoDiCaprio.png'],diff,1,0.41668549999940296,2,0,
BRMA1708,train,inv,0,pos0_id5_im20.bmp_pos0_id18_im19.bmp,['Im_DanielCraig.png', 'Im_OrlandoBloom.png', 'Im_KeanuReeves.png', 'Im_DanielRadcliffe.png', 'Im_RobertPattinson.png', 'Im_GeorgeClooney.png', 'Im_HughJackman.png', 'Im_RobertDowneyJr.png', 'Im_RyanReynolds.png', 'Im_LeonardoDiCaprio.png'],diff,1,0.40858339999977034,3,0,
BRMA1708,train,inv,60,pos60_id18_im11.bmp_pos60_id18_im19.bmp,['Im_DanielCraig.png', 'Im_OrlandoBloom.png', 'Im_KeanuReeves.png', 'Im_DanielRadcliffe.png', 'Im_RobertPattinson.png', 'Im_GeorgeClooney.png', 'Im_HughJackman.png', 'Im_RobertDowneyJr.png', 'Im_RyanReynolds.png', 'Im_LeonardoDiCaprio.png'],diff,0,0.5417100000004211,3,0,
BRMA1708,train,inv,90,pos90_id4_im20.bmp_pos90_id4_im15.bmp,['Im_DanielCraig.png', 'Im_OrlandoBloom.png', 'Im_KeanuReeves.png', 'Im_DanielRadcliffe.png', 'Im_RobertPattinson.png', 'Im_GeorgeClooney.png', 'Im_HughJackman.png', 'Im_RobertDowneyJr.png', 'Im_RyanReynolds.png', 'Im_LeonardoDiCaprio.png'],same,1,0.4165320000001884,4,0,
BRMA1708,train,inv,150,pos150_id7_im15.bmp_pos150_id7_im14.bmp,['Im_DanielCraig.png', 'Im_OrlandoBloom.png', 'Im_KeanuReeves.png', 'Im_DanielRadcliffe.png', 'Im_RobertPattinson.png', 'Im_GeorgeClooney.png', 'Im_HughJackman.png', 'Im_RobertDowneyJr.png', 'Im_RyanReynolds.png', 'Im_LeonardoDiCaprio.png'],diff,0,0.4249171999999817,4,0,
BRMA1708,train,inv,0,pos0_id19_im8.bmp_pos0_id16_im3.bmp,['Im_DanielCraig.png', 'Im_OrlandoBloom.png', 'Im_KeanuReeves.png', 'Im_DanielRadcliffe.png', 'Im_RobertPattinson.png', 'Im_GeorgeClooney.png', 'Im_HughJackman.png', 'Im_RobertDowneyJr.png', 'Im_RyanReynolds.png', 'Im_LeonardoDiCaprio.png'],diff,1,0.5751799999998184,5,0,
BRMA1708,train,inv,30,pos30_id13_im10.bmp_pos30_id19_im8.bmp,['Im_DanielCraig.png', 'Im_OrlandoBloom.png', 'Im_KeanuReeves.png', 'Im_DanielRadcliffe.png', 'Im_RobertPattinson.png', 'Im_GeorgeClooney.png', 'Im_HughJackman.png', 'Im_RobertDowneyJr.png', 'Im_RyanReynolds.png', 'Im_LeonardoDiCaprio.png'],diff,1,0.5417674000000261,6,0,
BRMA1708,train,inv,150,pos150_id8_im20.bmp_pos150_id21_im16.bmp,['Im_DanielCraig.png', 'Im_OrlandoBloom.png', 'Im_KeanuReeves.png', 'Im_DanielRadcliffe.png', 'Im_RobertPattinson.png', 'Im_GeorgeClooney.png', 'Im_HughJackman.png', 'Im_RobertDowneyJr.png', 'Im_RyanReynolds.png', 'Im_LeonardoDiCaprio.png'],diff,1,0.4335209000000759,7,0,
BRMA1708,train,inv,120,pos120_id5_im1.bmp_pos120_id5_im10.bmp,['Im_DanielCraig.png', 'Im_OrlandoBloom.png', 'Im_KeanuReeves.png', 'Im_DanielRadcliffe.png', 'Im_RobertPattinson.png', 'Im_GeorgeClooney.png', 'Im_HughJackman.png', 'Im_RobertDowneyJr.png', 'Im_RyanReynolds.png', 'Im_LeonardoDiCaprio.png'],same,1,0.42514219999975467,8,0,
BRMA1708,train,inv,90,pos90_id8_im21.bmp_pos90_id19_im4.bmp,['Im_DanielCraig.png', 'Im_OrlandoBloom.png', 'Im_KeanuReeves.png', 'Im_DanielRadcliffe.png', 'Im_RobertPattinson.png', 'Im_GeorgeClooney.png', 'Im_HughJackman.png', 'Im_RobertDowneyJr.png', 'Im_RyanReynolds.png', 'Im_LeonardoDiCaprio.png'],same,0,0.42495710000002873,8,0,
BRMA1708,train,inv,fs,posfs_id16_im2.bmp_posfs_id16_im3.bmp,['Im_DanielCraig.png', 'Im_OrlandoBloom.png', 'Im_KeanuReeves.png', 'Im_DanielRadcliffe.png', 'Im_RobertPattinson.png', 'Im_GeorgeClooney.png', 'Im_HughJackman.png', 'Im_RobertDowneyJr.png', 'Im_RyanReynolds.png', 'Im_LeonardoDiCaprio.png'],same,1,1.0415973999997732,9,0,
BRMA1708,train,inv,120,pos120_id13_im10.bmp_pos120_id16_im2.bmp,['Im_DanielCraig.png', 'Im_OrlandoBloom.png', 'Im_KeanuReeves.png', 'Im_DanielRadcliffe.png', 'Im_RobertPattinson.png', 'Im_GeorgeClooney.png', 'Im_HughJackman.png', 'Im_RobertDowneyJr.png', 'Im_RyanReynolds.png', 'Im_LeonardoDiCaprio.png'],diff,1,0.5418023000001995,10,0,
BRMA1708,train,pos,90,pos90_id13_im15.bmp_pos90_id18_im11.bmp,['Im_DanielCraig.png', 'Im_OrlandoBloom.png', 'Im_KeanuReeves.png', 'Im_DanielRadcliffe.png', 'Im_RobertPattinson.png', 'Im_GeorgeClooney.png', 'Im_HughJackman.png', 'Im_RobertDowneyJr.png', 'Im_RyanReynolds.png', 'Im_LeonardoDiCaprio.png'],diff,1,0.9252020999992965,11,0,
BRMA1708,train,pos,60,pos60_id21_im17.bmp_pos60_id21_im16.bmp,['Im_DanielCraig.png', 'Im_OrlandoBloom.png', 'Im_KeanuReeves.png', 'Im_DanielRadcliffe.png', 'Im_RobertPattinson.png', 'Im_GeorgeClooney.png', 'Im_HughJackman.png', 'Im_RobertDowneyJr.png', 'Im_RyanReynolds.png', 'Im_LeonardoDiCaprio.png'],same,1,0.4335265999998228,12,0,
BRMA1708,train,pos,120,pos120_id18_im18.bmp_pos120_id11_im10.bmp,['Im_DanielCraig.png', 'Im_OrlandoBloom.png', 'Im_KeanuReeves.png', 'Im_DanielRadcliffe.png', 'Im_RobertPattinson.png', 'Im_GeorgeClooney.png', 'Im_HughJackman.png', 'Im_RobertDowneyJr.png', 'Im_RyanReynolds.png', 'Im_LeonardoDiCaprio.png'],diff,1,0.41684579999946436,13,0,
BRMA1708,train,pos,120,pos120_id5_im10.bmp_pos120_id5_im1.bmp,['Im_DanielCraig.png', 'Im_OrlandoBloom.png', 'Im_KeanuReeves.png', 'Im_DanielRadcliffe.png', 'Im_RobertPattinson.png', 'Im_GeorgeClooney.png', 'Im_HughJackman.png', 'Im_RobertDowneyJr.png', 'Im_RyanReynolds.png', 'Im_LeonardoDiCaprio.png'],same,1,0.6500817999994979,14,0,
BRMA1708,train,pos,0,pos0_id8_im21.bmp_pos0_id4_im7.bmp,['Im_DanielCraig.png', 'Im_OrlandoBloom.png', 'Im_KeanuReeves.png', 'Im_DanielRadcliffe.png', 'Im_RobertPattinson.png', 'Im_GeorgeClooney.png', 'Im_HughJackman.png', 'Im_RobertDowneyJr.png', 'Im_RyanReynolds.png', 'Im_LeonardoDiCaprio.png'],diff,1,0.8250321000004988,15,0,
BRMA1708,train,pos,fs,posfs_id18_im18.bmp_posfs_id18_im11.bmp,['Im_DanielCraig.png', 'Im_OrlandoBloom.png', 'Im_KeanuReeves.png', 'Im_DanielRadcliffe.png', 'Im_RobertPattinson.png', 'Im_GeorgeClooney.png', 'Im_HughJackman.png', 'Im_RobertDowneyJr.png', 'Im_RyanReynolds.png', 'Im_LeonardoDiCaprio.png'],same,1,0.4251762999992934,16,0,
BRMA1708,train,pos,60,pos60_id8_im20.bmp_pos60_id19_im4.bmp,['Im_DanielCraig.png', 'Im_OrlandoBloom.png', 'Im_KeanuReeves.png', 'Im_DanielRadcliffe.png', 'Im_RobertPattinson.png', 'Im_GeorgeClooney.png', 'Im_HughJackman.png', 'Im_RobertDowneyJr.png', 'Im_RyanReynolds.png', 'Im_LeonardoDiCaprio.png'],diff,1,1.2082353000005241,17,0,
BRMA1708,train,pos,fs,posfs_id16_im2.bmp_posfs_id7_im15.bmp,['Im_DanielCraig.png', 'Im_OrlandoBloom.png', 'Im_KeanuReeves.png', 'Im_DanielRadcliffe.png', 'Im_RobertPattinson.png', 'Im_GeorgeClooney.png', 'Im_HughJackman.png', 'Im_RobertDowneyJr.png', 'Im_RyanReynolds.png', 'Im_LeonardoDiCaprio.png'],diff,1,0.4500179999995453,18,0,
BRMA1708,train,pos,150,pos150_id16_im3.bmp_pos150_id8_im13.bmp,['Im_DanielCraig.png', 'Im_OrlandoBloom.png', 'Im_KeanuReeves.png', 'Im_DanielRadcliffe.png', 'Im_RobertPattinson.png', 'Im_GeorgeClooney.png', 'Im_HughJackman.png', 'Im_RobertDowneyJr.png', 'Im_RyanReynolds.png', 'Im_LeonardoDiCaprio.png'],diff,1,0.4499906999999439,19,0,
BRMA1708,train,pos,30,pos30_id11_im1.bmp_pos30_id11_im2.bmp,['Im_DanielCraig.png', 'Im_OrlandoBloom.png', 'Im_KeanuReeves.png', 'Im_DanielRadcliffe.png', 'Im_RobertPattinson.png', 'Im_GeorgeClooney.png', 'Im_HughJackman.png', 'Im_RobertDowneyJr.png', 'Im_RyanReynolds.png', 'Im_LeonardoDiCaprio.png'],same,1,0.433546700000079,20,0,
BRMA1708,train,pos,90,pos90_id11_im10.bmp_pos90_id11_im2.bmp,['Im_DanielCraig.png', 'Im_OrlandoBloom.png', 'Im_KeanuReeves.png', 'Im_DanielRadcliffe.png', 'Im_RobertPattinson.png', 'Im_GeorgeClooney.png', 'Im_HughJackman.png', 'Im_RobertDowneyJr.png', 'Im_RyanReynolds.png', 'Im_LeonardoDiCaprio.png'],same,1,0.6751320999992458,21,0,
BRMA1708,train,pos,0,pos0_id11_im2.bmp_pos0_id11_im10.bmp,['Im_DanielCraig.png', 'Im_OrlandoBloom.png', 'Im_KeanuReeves.png', 'Im_DanielRadcliffe.png', 'Im_RobertPattinson.png', 'Im_GeorgeClooney.png', 'Im_HughJackman.png', 'Im_RobertDowneyJr.png', 'Im_RyanReynolds.png', 'Im_LeonardoDiCaprio.png'],same,1,0.41654660000040167,22,0,
BRMA1708,train,pos,150,pos150_id19_im27.bmp_pos150_id19_im8.bmp,['Im_DanielCraig.png', 'Im_OrlandoBloom.png', 'Im_KeanuReeves.png', 'Im_DanielRadcliffe.png', 'Im_RobertPattinson.png', 'Im_GeorgeClooney.png', 'Im_HughJackman.png', 'Im_RobertDowneyJr.png', 'Im_RyanReynolds.png', 'Im_LeonardoDiCaprio.png'],same,1,0.4166917000002286,23,0,
BRMA1708,train,pos,30,pos30_id11_im2.bmp_pos30_id13_im29.bmp,['Im_DanielCraig.png', 'Im_OrlandoBloom.png', 'Im_KeanuReeves.png', 'Im_DanielRadcliffe.png', 'Im_RobertPattinson.png', 'Im_GeorgeClooney.png', 'Im_HughJackman.png', 'Im_RobertDowneyJr.png', 'Im_RyanReynolds.png', 'Im_LeonardoDiCaprio.png'],diff,1,0.42502869999952964,24,0,
BRMA1708,train,neg,fs,negfs_id8_im20.bmp_negfs_id21_im16.bmp,['Im_DanielCraig.png', 'Im_OrlandoBloom.png', 'Im_KeanuReeves.png', 'Im_DanielRadcliffe.png', 'Im_RobertPattinson.png', 'Im_GeorgeClooney.png', 'Im_HughJackman.png', 'Im_RobertDowneyJr.png', 'Im_RyanReynolds.png', 'Im_LeonardoDiCaprio.png'],diff,1,0.4249664000008124,25,0,
BRMA1708,train,neg,0,neg0_id11_im2.bmp_neg0_id13_im29.bmp,['Im_DanielCraig.png', 'Im_OrlandoBloom.png', 'Im_KeanuReeves.png', 'Im_DanielRadcliffe.png', 'Im_RobertPattinson.png', 'Im_GeorgeClooney.png', 'Im_HughJackman.png', 'Im_RobertDowneyJr.png', 'Im_RyanReynolds.png', 'Im_LeonardoDiCaprio.png'],diff,1,0.625372100000277,26,0,
BRMA1708,train,neg,90,neg90_id18_im19.bmp_neg90_id18_im11.bmp,['Im_DanielCraig.png', 'Im_OrlandoBloom.png', 'Im_KeanuReeves.png', 'Im_DanielRadcliffe.png', 'Im_RobertPattinson.png', 'Im_GeorgeClooney.png', 'Im_HughJackman.png', 'Im_RobertDowneyJr.png', 'Im_RyanReynolds.png', 'Im_LeonardoDiCaprio.png'],same,1,0.5998429000001124,27,0,
BRMA1708,train,neg,90,neg90_id11_im2.bmp_neg90_id11_im1.bmp,['Im_DanielCraig.png', 'Im_OrlandoBloom.png', 'Im_KeanuReeves.png', 'Im_DanielRadcliffe.png', 'Im_RobertPattinson.png', 'Im_GeorgeClooney.png', 'Im_HughJackman.png', 'Im_RobertDowneyJr.png', 'Im_RyanReynolds.png', 'Im_LeonardoDiCaprio.png'],diff,0,0.4085013000003528,27,0,
BRMA1708,train,neg,120,neg120_id5_im20.bmp_neg120_id5_im1.bmp,['Im_DanielCraig.png', 'Im_OrlandoBloom.png', 'Im_KeanuReeves.png', 'Im_DanielRadcliffe.png', 'Im_RobertPattinson.png', 'Im_GeorgeClooney.png', 'Im_HughJackman.png', 'Im_RobertDowneyJr.png', 'Im_RyanReynolds.png', 'Im_LeonardoDiCaprio.png'],same,1,0.408429499999329,28,0,
BRMA1708,train,neg,30,neg30_id21_im22.bmp_neg30_id5_im10.bmp,['Im_DanielCraig.png', 'Im_OrlandoBloom.png', 'Im_KeanuReeves.png', 'Im_DanielRadcliffe.png', 'Im_RobertPattinson.png', 'Im_GeorgeClooney.png', 'Im_HughJackman.png', 'Im_RobertDowneyJr.png', 'Im_RyanReynolds.png', 'Im_LeonardoDiCaprio.png'],diff,1,0.42505179999989195,29,0,
BRMA1708,train,neg,fs,negfs_id19_im8.bmp_negfs_id13_im10.bmp,['Im_DanielCraig.png', 'Im_OrlandoBloom.png', 'Im_KeanuReeves.png', 'Im_DanielRadcliffe.png', 'Im_RobertPattinson.png', 'Im_GeorgeClooney.png', 'Im_HughJackman.png', 'Im_RobertDowneyJr.png', 'Im_RyanReynolds.png', 'Im_LeonardoDiCaprio.png'],diff,1,0.41676409999945463,30,0,
BRMA1708,train,neg,60,neg60_id11_im10.bmp_neg60_id11_im2.bmp,['Im_DanielCraig.png', 'Im_OrlandoBloom.png', 'Im_KeanuReeves.png', 'Im_DanielRadcliffe.png', 'Im_RobertPattinson.png', 'Im_GeorgeClooney.png', 'Im_HughJackman.png', 'Im_RobertDowneyJr.png', 'Im_RyanReynolds.png', 'Im_LeonardoDiCaprio.png'],same,1,0.7253428000003623,31,0,
BRMA1708,train,neg,150,neg150_id16_im3.bmp_neg150_id16_im2.bmp,['Im_DanielCraig.png', 'Im_OrlandoBloom.png', 'Im_KeanuReeves.png', 'Im_DanielRadcliffe.png', 'Im_RobertPattinson.png', 'Im_GeorgeClooney.png', 'Im_HughJackman.png', 'Im_RobertDowneyJr.png', 'Im_RyanReynolds.png', 'Im_LeonardoDiCaprio.png'],same,1,0.46678780000002007,32,0,
BRMA1708,train,neg,60,neg60_id18_im19.bmp_neg60_id4_im20.bmp,['Im_DanielCraig.png', 'Im_OrlandoBloom.png', 'Im_KeanuReeves.png', 'Im_DanielRadcliffe.png', 'Im_RobertPattinson.png', 'Im_GeorgeClooney.png', 'Im_HughJackman.png', 'Im_RobertDowneyJr.png', 'Im_RyanReynolds.png', 'Im_LeonardoDiCaprio.png'],diff,1,0.6583183000002464,33,0,
BRMA1708,train,neg,120,neg120_id16_im3.bmp_neg120_id16_im2.bmp,['Im_DanielCraig.png', 'Im_OrlandoBloom.png', 'Im_KeanuReeves.png', 'Im_DanielRadcliffe.png', 'Im_RobertPattinson.png', 'Im_GeorgeClooney.png', 'Im_HughJackman.png', 'Im_RobertDowneyJr.png', 'Im_RyanReynolds.png', 'Im_LeonardoDiCaprio.png'],same,1,0.4168563000002905,34,0,
BRMA1708,train,neg,0,neg0_id5_im1.bmp_neg0_id19_im27.bmp,['Im_DanielCraig.png', 'Im_OrlandoBloom.png', 'Im_KeanuReeves.png', 'Im_DanielRadcliffe.png', 'Im_RobertPattinson.png', 'Im_GeorgeClooney.png', 'Im_HughJackman.png', 'Im_RobertDowneyJr.png', 'Im_RyanReynolds.png', 'Im_LeonardoDiCaprio.png'],same,0,1.2166462000004685,34,0,
BRMA1708,train,neg,150,neg150_id18_im11.bmp_neg150_id18_im18.bmp,['Im_DanielCraig.png', 'Im_OrlandoBloom.png', 'Im_KeanuReeves.png', 'Im_DanielRadcliffe.png', 'Im_RobertPattinson.png', 'Im_GeorgeClooney.png', 'Im_HughJackman.png', 'Im_RobertDowneyJr.png', 'Im_RyanReynolds.png', 'Im_LeonardoDiCaprio.png'],same,1,0.5002913000007538,35,0,
BRMA1708,train,neg,30,neg30_id21_im17.bmp_neg30_id21_im16.bmp,['Im_DanielCraig.png', 'Im_OrlandoBloom.png', 'Im_KeanuReeves.png', 'Im_DanielRadcliffe.png', 'Im_RobertPattinson.png', 'Im_GeorgeClooney.png', 'Im_HughJackman.png', 'Im_RobertDowneyJr.png', 'Im_RyanReynolds.png', 'Im_LeonardoDiCaprio.png'],same,1,0.6334740000002057,36,0,
BRMA1708,train,pos,fs,posfs_id5_im1.bmp_posfs_id5_im10.bmp,['Im_DanielCraig.png', 'Im_OrlandoBloom.png', 'Im_KeanuReeves.png', 'Im_DanielRadcliffe.png', 'Im_RobertPattinson.png', 'Im_GeorgeClooney.png', 'Im_HughJackman.png', 'Im_RobertDowneyJr.png', 'Im_RyanReynolds.png', 'Im_LeonardoDiCaprio.png'],same,1,0.4751053999998476,1,85.71428571428571,
BRMA1708,train,pos,120,pos120_id21_im16.bmp_pos120_id16_im19.bmp,['Im_DanielCraig.png', 'Im_OrlandoBloom.png', 'Im_KeanuReeves.png', 'Im_DanielRadcliffe.png', 'Im_RobertPattinson.png', 'Im_GeorgeClooney.png', 'Im_HughJackman.png', 'Im_RobertDowneyJr.png', 'Im_RyanReynolds.png', 'Im_LeonardoDiCaprio.png'],diff,1,0.40843580000000657,2,85.71428571428571,
BRMA1708,train,pos,30,pos30_id4_im7.bmp_pos30_id4_im15.bmp,['Im_DanielCraig.png', 'Im_OrlandoBloom.png', 'Im_KeanuReeves.png', 'Im_DanielRadcliffe.png', 'Im_RobertPattinson.png', 'Im_GeorgeClooney.png', 'Im_HughJackman.png', 'Im_RobertDowneyJr.png', 'Im_RyanReynolds.png', 'Im_LeonardoDiCaprio.png'],same,1,0.6420907000001534,3,85.71428571428571,
BRMA1708,train,pos,60,pos60_id13_im10.bmp_pos60_id16_im2.bmp,['Im_DanielCraig.png', 'Im_OrlandoBloom.png', 'Im_KeanuReeves.png', 'Im_DanielRadcliffe.png', 'Im_RobertPattinson.png', 'Im_GeorgeClooney.png', 'Im_HughJackman.png', 'Im_RobertDowneyJr.png', 'Im_RyanReynolds.png', 'Im_LeonardoDiCaprio.png'],diff,1,0.41657299999951647,4,85.71428571428571,
BRMA1708,train,pos,60,pos60_id11_im2.bmp_pos60_id11_im1.bmp,['Im_DanielCraig.png', 'Im_OrlandoBloom.png', 'Im_KeanuReeves.png', 'Im_DanielRadcliffe.png', 'Im_RobertPattinson.png', 'Im_GeorgeClooney.png', 'Im_HughJackman.png', 'Im_RobertDowneyJr.png', 'Im_RyanReynolds.png', 'Im_LeonardoDiCaprio.png'],same,1,0.8833723000007012,5,85.71428571428571,
BRMA1708,train,pos,90,pos90_id11_im2.bmp_pos90_id21_im22.bmp,['Im_DanielCraig.png', 'Im_OrlandoBloom.png', 'Im_KeanuReeves.png', 'Im_DanielRadcliffe.png', 'Im_RobertPattinson.png', 'Im_GeorgeClooney.png', 'Im_HughJackman.png', 'Im_RobertDowneyJr.png', 'Im_RyanReynolds.png', 'Im_LeonardoDiCaprio.png'],diff,1,0.4667994000001272,6,85.71428571428571,
BRMA1708,train,pos,30,pos30_id18_im11.bmp_pos30_id18_im19.bmp,['Im_DanielCraig.png', 'Im_OrlandoBloom.png', 'Im_KeanuReeves.png', 'Im_DanielRadcliffe.png', 'Im_RobertPattinson.png', 'Im_GeorgeClooney.png', 'Im_HughJackman.png', 'Im_RobertDowneyJr.png', 'Im_RyanReynolds.png', 'Im_LeonardoDiCaprio.png'],same,1,0.6085540000003675,7,85.71428571428571,
BRMA1708,train,pos,150,pos150_id13_im29.bmp_pos150_id13_im15.bmp,['Im_DanielCraig.png', 'Im_OrlandoBloom.png', 'Im_KeanuReeves.png', 'Im_DanielRadcliffe.png', 'Im_RobertPattinson.png', 'Im_GeorgeClooney.png', 'Im_HughJackman.png', 'Im_RobertDowneyJr.png', 'Im_RyanReynolds.png', 'Im_LeonardoDiCaprio.png'],diff,0,0.8338017000005493,7,85.71428571428571,
BRMA1708,train,pos,fs,posfs_id21_im22.bmp_posfs_id5_im10.bmp,['Im_DanielCraig.png', 'Im_OrlandoBloom.png', 'Im_KeanuReeves.png', 'Im_DanielRadcliffe.png', 'Im_RobertPattinson.png', 'Im_GeorgeClooney.png', 'Im_HughJackman.png', 'Im_RobertDowneyJr.png', 'Im_RyanReynolds.png', 'Im_LeonardoDiCaprio.png'],diff,1,0.991812199999913,8,85.71428571428571,
BRMA1708,train,pos,120,pos120_id13_im15.bmp_pos120_id13_im10.bmp,['Im_DanielCraig.png', 'Im_OrlandoBloom.png', 'Im_KeanuReeves.png', 'Im_DanielRadcliffe.png', 'Im_RobertPattinson.png', 'Im_GeorgeClooney.png', 'Im_HughJackman.png', 'Im_RobertDowneyJr.png', 'Im_RyanReynolds.png', 'Im_LeonardoDiCaprio.png'],same,1,0.41673660000014934,9,85.71428571428571,
BRMA1708,train,pos,150,pos150_id13_im10.bmp_pos150_id19_im8.bmp,['Im_DanielCraig.png', 'Im_OrlandoBloom.png', 'Im_KeanuReeves.png', 'Im_DanielRadcliffe.png', 'Im_RobertPattinson.png', 'Im_GeorgeClooney.png', 'Im_HughJackman.png', 'Im_RobertDowneyJr.png', 'Im_RyanReynolds.png', 'Im_LeonardoDiCaprio.png'],diff,1,0.4502104999992298,10,85.71428571428571,
BRMA1708,train,pos,0,pos0_id19_im27.bmp_pos0_id19_im4.bmp,['Im_DanielCraig.png', 'Im_OrlandoBloom.png', 'Im_KeanuReeves.png', 'Im_DanielRadcliffe.png', 'Im_RobertPattinson.png', 'Im_GeorgeClooney.png', 'Im_HughJackman.png', 'Im_RobertDowneyJr.png', 'Im_RyanReynolds.png', 'Im_LeonardoDiCaprio.png'],same,1,0.41668289999961416,11,85.71428571428571,
BRMA1708,train,pos,90,pos90_id18_im19.bmp_pos90_id18_im11.bmp,['Im_DanielCraig.png', 'Im_OrlandoBloom.png', 'Im_KeanuReeves.png', 'Im_DanielRadcliffe.png', 'Im_RobertPattinson.png', 'Im_GeorgeClooney.png', 'Im_HughJackman.png', 'Im_RobertDowneyJr.png', 'Im_RyanReynolds.png', 'Im_LeonardoDiCaprio.png'],same,1,0.4167251999997461,12,85.71428571428571,
BRMA1708,train,pos,0,pos0_id11_im2.bmp_pos0_id21_im22.bmp,['Im_DanielCraig.png', 'Im_OrlandoBloom.png', 'Im_KeanuReeves.png', 'Im_DanielRadcliffe.png', 'Im_RobertPattinson.png', 'Im_GeorgeClooney.png', 'Im_HughJackman.png', 'Im_RobertDowneyJr.png', 'Im_RyanReynolds.png', 'Im_LeonardoDiCaprio.png'],diff,1,0.6670058999998218,13,85.71428571428571,
BRMA1708,train,neg,90,neg90_id18_im19.bmp_neg90_id4_im20.bmp,['Im_DanielCraig.png', 'Im_OrlandoBloom.png', 'Im_KeanuReeves.png', 'Im_DanielRadcliffe.png', 'Im_RobertPattinson.png', 'Im_GeorgeClooney.png', 'Im_HughJackman.png', 'Im_RobertDowneyJr.png', 'Im_RyanReynolds.png', 'Im_LeonardoDiCaprio.png'],same,0,1.358393800000158,13,85.71428571428571,
BRMA1708,train,neg,60,neg60_id11_im1.bmp_neg60_id4_im15.bmp,['Im_DanielCraig.png', 'Im_OrlandoBloom.png', 'Im_KeanuReeves.png', 'Im_DanielRadcliffe.png', 'Im_RobertPattinson.png', 'Im_GeorgeClooney.png', 'Im_HughJackman.png', 'Im_RobertDowneyJr.png', 'Im_RyanReynolds.png', 'Im_LeonardoDiCaprio.png'],diff,1,0.5749283000004652,14,85.71428571428571,
BRMA1708,train,neg,fs,negfs_id11_im1.bmp_negfs_id11_im10.bmp,['Im_DanielCraig.png', 'Im_OrlandoBloom.png', 'Im_KeanuReeves.png', 'Im_DanielRadcliffe.png', 'Im_RobertPattinson.png', 'Im_GeorgeClooney.png', 'Im_HughJackman.png', 'Im_RobertDowneyJr.png', 'Im_RyanReynolds.png', 'Im_LeonardoDiCaprio.png'],same,1,0.4085420999999769,15,85.71428571428571,
BRMA1708,train,neg,120,neg120_id5_im10.bmp_neg120_id5_im20.bmp,['Im_DanielCraig.png', 'Im_OrlandoBloom.png', 'Im_KeanuReeves.png', 'Im_DanielRadcliffe.png', 'Im_RobertPattinson.png', 'Im_GeorgeClooney.png', 'Im_HughJackman.png', 'Im_RobertDowneyJr.png', 'Im_RyanReynolds.png', 'Im_LeonardoDiCaprio.png'],same,1,0.4166834999996354,16,85.71428571428571,
BRMA1708,train,neg,0,neg0_id21_im16.bmp_neg0_id21_im17.bmp,['Im_DanielCraig.png', 'Im_OrlandoBloom.png', 'Im_KeanuReeves.png', 'Im_DanielRadcliffe.png', 'Im_RobertPattinson.png', 'Im_GeorgeClooney.png', 'Im_HughJackman.png', 'Im_RobertDowneyJr.png', 'Im_RyanReynolds.png', 'Im_LeonardoDiCaprio.png'],same,1,0.7585839000003034,17,85.71428571428571,
BRMA1708,train,neg,30,neg30_id4_im7.bmp_neg30_id4_im15.bmp,['Im_DanielCraig.png', 'Im_OrlandoBloom.png', 'Im_KeanuReeves.png', 'Im_DanielRadcliffe.png', 'Im_RobertPattinson.png', 'Im_GeorgeClooney.png', 'Im_HughJackman.png', 'Im_RobertDowneyJr.png', 'Im_RyanReynolds.png', 'Im_LeonardoDiCaprio.png'],same,1,0.41669459999957326,18,85.71428571428571,
BRMA1708,train,neg,90,neg90_id19_im8.bmp_neg90_id19_im4.bmp,['Im_DanielCraig.png', 'Im_OrlandoBloom.png', 'Im_KeanuReeves.png', 'Im_DanielRadcliffe.png', 'Im_RobertPattinson.png', 'Im_GeorgeClooney.png', 'Im_HughJackman.png', 'Im_RobertDowneyJr.png', 'Im_RyanReynolds.png', 'Im_LeonardoDiCaprio.png'],diff,0,0.7832814000003054,18,85.71428571428571,
BRMA1708,train,neg,120,neg120_id4_im20.bmp_neg120_id4_im7.bmp,['Im_DanielCraig.png', 'Im_OrlandoBloom.png', 'Im_KeanuReeves.png', 'Im_DanielRadcliffe.png', 'Im_RobertPattinson.png', 'Im_GeorgeClooney.png', 'Im_HughJackman.png', 'Im_RobertDowneyJr.png', 'Im_RyanReynolds.png', 'Im_LeonardoDiCaprio.png'],same,1,0.8500540999993973,19,85.71428571428571,
BRMA1708,train,neg,0,neg0_id8_im20.bmp_neg0_id19_im4.bmp,['Im_DanielCraig.png', 'Im_OrlandoBloom.png', 'Im_KeanuReeves.png', 'Im_DanielRadcliffe.png', 'Im_RobertPattinson.png', 'Im_GeorgeClooney.png', 'Im_HughJackman.png', 'Im_RobertDowneyJr.png', 'Im_RyanReynolds.png', 'Im_LeonardoDiCaprio.png'],diff,1,0.5752996999999596,20,85.71428571428571,
BRMA1708,train,neg,150,neg150_id21_im16.bmp_neg150_id21_im22.bmp,['Im_DanielCraig.png', 'Im_OrlandoBloom.png', 'Im_KeanuReeves.png', 'Im_DanielRadcliffe.png', 'Im_RobertPattinson.png', 'Im_GeorgeClooney.png', 'Im_HughJackman.png', 'Im_RobertDowneyJr.png', 'Im_RyanReynolds.png', 'Im_LeonardoDiCaprio.png'],same,1,0.4334843999995428,21,85.71428571428571,
BRMA1708,train,neg,150,neg150_id8_im21.bmp_neg150_id8_im20.bmp,['Im_DanielCraig.png', 'Im_OrlandoBloom.png', 'Im_KeanuReeves.png', 'Im_DanielRadcliffe.png', 'Im_RobertPattinson.png', 'Im_GeorgeClooney.png', 'Im_HughJackman.png', 'Im_RobertDowneyJr.png', 'Im_RyanReynolds.png', 'Im_LeonardoDiCaprio.png'],same,1,0.5335941000003004,22,85.71428571428571,
BRMA1708,train,neg,30,neg30_id11_im2.bmp_neg30_id11_im1.bmp,['Im_DanielCraig.png', 'Im_OrlandoBloom.png', 'Im_KeanuReeves.png', 'Im_DanielRadcliffe.png', 'Im_RobertPattinson.png', 'Im_GeorgeClooney.png', 'Im_HughJackman.png', 'Im_RobertDowneyJr.png', 'Im_RyanReynolds.png', 'Im_LeonardoDiCaprio.png'],same,1,0.9920094999997673,23,85.71428571428571,
BRMA1708,train,neg,fs,negfs_id18_im11.bmp_negfs_id4_im7.bmp,['Im_DanielCraig.png', 'Im_OrlandoBloom.png', 'Im_KeanuReeves.png', 'Im_DanielRadcliffe.png', 'Im_RobertPattinson.png', 'Im_GeorgeClooney.png', 'Im_HughJackman.png', 'Im_RobertDowneyJr.png', 'Im_RyanReynolds.png', 'Im_LeonardoDiCaprio.png'],diff,1,0.45863699999972596,24,85.71428571428571,
BRMA1708,train,neg,60,neg60_id5_im10.bmp_neg60_id8_im13.bmp,['Im_DanielCraig.png', 'Im_OrlandoBloom.png', 'Im_KeanuReeves.png', 'Im_DanielRadcliffe.png', 'Im_RobertPattinson.png', 'Im_GeorgeClooney.png', 'Im_HughJackman.png', 'Im_RobertDowneyJr.png', 'Im_RyanReynolds.png', 'Im_LeonardoDiCaprio.png'],same,0,1.5501505000001998,24,85.71428571428571,
BRMA1708,train,inv,150,pos150_id11_im10.bmp_pos150_id18_im18.bmp,['Im_DanielCraig.png', 'Im_OrlandoBloom.png', 'Im_KeanuReeves.png', 'Im_DanielRadcliffe.png', 'Im_RobertPattinson.png', 'Im_GeorgeClooney.png', 'Im_HughJackman.png', 'Im_RobertDowneyJr.png', 'Im_RyanReynolds.png', 'Im_LeonardoDiCaprio.png'],diff,1,0.49208329999964917,25,85.71428571428571,
BRMA1708,train,inv,120,pos120_id7_im26.bmp_pos120_id21_im17.bmp,['Im_DanielCraig.png', 'Im_OrlandoBloom.png', 'Im_KeanuReeves.png', 'Im_DanielRadcliffe.png', 'Im_RobertPattinson.png', 'Im_GeorgeClooney.png', 'Im_HughJackman.png', 'Im_RobertDowneyJr.png', 'Im_RyanReynolds.png', 'Im_LeonardoDiCaprio.png'],diff,1,0.4166500999999698,26,85.71428571428571,
BRMA1708,train,inv,30,pos30_id4_im7.bmp_pos30_id18_im11.bmp,['Im_DanielCraig.png', 'Im_OrlandoBloom.png', 'Im_KeanuReeves.png', 'Im_DanielRadcliffe.png', 'Im_RobertPattinson.png', 'Im_GeorgeClooney.png', 'Im_HughJackman.png', 'Im_RobertDowneyJr.png', 'Im_RyanReynolds.png', 'Im_LeonardoDiCaprio.png'],diff,1,0.9086231999999654,27,85.71428571428571,
BRMA1708,train,inv,90,pos90_id16_im3.bmp_pos90_id16_im2.bmp,['Im_DanielCraig.png', 'Im_OrlandoBloom.png', 'Im_KeanuReeves.png', 'Im_DanielRadcliffe.png', 'Im_RobertPattinson.png', 'Im_GeorgeClooney.png', 'Im_HughJackman.png', 'Im_RobertDowneyJr.png', 'Im_RyanReynolds.png', 'Im_LeonardoDiCaprio.png'],diff,0,0.4584662000006574,27,85.71428571428571,
BRMA1708,train,inv,90,pos90_id13_im15.bmp_pos90_id13_im29.bmp,['Im_DanielCraig.png', 'Im_OrlandoBloom.png', 'Im_KeanuReeves.png', 'Im_DanielRadcliffe.png', 'Im_RobertPattinson.png', 'Im_GeorgeClooney.png', 'Im_HughJackman.png', 'Im_RobertDowneyJr.png', 'Im_RyanReynolds.png', 'Im_LeonardoDiCaprio.png'],same,1,0.4250585999998293,28,85.71428571428571,
BRMA1708,train,inv,60,pos60_id19_im4.bmp_pos60_id8_im20.bmp,['Im_DanielCraig.png', 'Im_OrlandoBloom.png', 'Im_KeanuReeves.png', 'Im_DanielRadcliffe.png', 'Im_RobertPattinson.png', 'Im_GeorgeClooney.png', 'Im_HughJackman.png', 'Im_RobertDowneyJr.png', 'Im_RyanReynolds.png', 'Im_LeonardoDiCaprio.png'],diff,1,0.7502881000000343,29,85.71428571428571,
BRMA1708,train,inv,fs,posfs_id21_im16.bmp_posfs_id8_im20.bmp,['Im_DanielCraig.png', 'Im_OrlandoBloom.png', 'Im_KeanuReeves.png', 'Im_DanielRadcliffe.png', 'Im_RobertPattinson.png', 'Im_GeorgeClooney.png', 'Im_HughJackman.png', 'Im_RobertDowneyJr.png', 'Im_RyanReynolds.png', 'Im_LeonardoDiCaprio.png'],diff,1,0.5252731000000495,30,85.71428571428571,
BRMA1708,train,inv,60,pos60_id5_im1.bmp_pos60_id7_im14.bmp,['Im_DanielCraig.png', 'Im_OrlandoBloom.png', 'Im_KeanuReeves.png', 'Im_DanielRadcliffe.png', 'Im_RobertPattinson.png', 'Im_GeorgeClooney.png', 'Im_HughJackman.png', 'Im_RobertDowneyJr.png', 'Im_RyanReynolds.png', 'Im_LeonardoDiCaprio.png'],diff,1,0.6752177999997002,31,85.71428571428571,
BRMA1708,train,inv,150,pos150_id21_im17.bmp_pos150_id21_im22.bmp,['Im_DanielCraig.png', 'Im_OrlandoBloom.png', 'Im_KeanuReeves.png', 'Im_DanielRadcliffe.png', 'Im_RobertPattinson.png', 'Im_GeorgeClooney.png', 'Im_HughJackman.png', 'Im_RobertDowneyJr.png', 'Im_RyanReynolds.png', 'Im_LeonardoDiCaprio.png'],same,1,0.5919355999994877,32,85.71428571428571,
BRMA1708,train,inv,0,pos0_id5_im1.bmp_pos0_id19_im27.bmp,['Im_DanielCraig.png', 'Im_OrlandoBloom.png', 'Im_KeanuReeves.png', 'Im_DanielRadcliffe.png', 'Im_RobertPattinson.png', 'Im_GeorgeClooney.png', 'Im_HughJackman.png', 'Im_RobertDowneyJr.png', 'Im_RyanReynolds.png', 'Im_LeonardoDiCaprio.png'],diff,1,0.42504470000039873,33,85.71428571428571,
BRMA1708,train,inv,fs,posfs_id4_im20.bmp_posfs_id18_im19.bmp,['Im_DanielCraig.png', 'Im_OrlandoBloom.png', 'Im_KeanuReeves.png', 'Im_DanielRadcliffe.png', 'Im_RobertPattinson.png', 'Im_GeorgeClooney.png', 'Im_HughJackman.png', 'Im_RobertDowneyJr.png', 'Im_RyanReynolds.png', 'Im_LeonardoDiCaprio.png'],diff,1,0.508241999999882,34,85.71428571428571,
BRMA1708,train,inv,120,pos120_id4_im20.bmp_pos120_id18_im19.bmp,['Im_DanielCraig.png', 'Im_OrlandoBloom.png', 'Im_KeanuReeves.png', 'Im_DanielRadcliffe.png', 'Im_RobertPattinson.png', 'Im_GeorgeClooney.png', 'Im_HughJackman.png', 'Im_RobertDowneyJr.png', 'Im_RyanReynolds.png', 'Im_LeonardoDiCaprio.png'],diff,1,0.5248940999999832,35,85.71428571428571,
BRMA1708,train,inv,30,pos30_id5_im1.bmp_pos30_id7_im14.bmp,['Im_DanielCraig.png', 'Im_OrlandoBloom.png', 'Im_KeanuReeves.png', 'Im_DanielRadcliffe.png', 'Im_RobertPattinson.png', 'Im_GeorgeClooney.png', 'Im_HughJackman.png', 'Im_RobertDowneyJr.png', 'Im_RyanReynolds.png', 'Im_LeonardoDiCaprio.png'],diff,1,0.6834146000001056,36,85.71428571428571,
BRMA1708,train,inv,0,pos0_id11_im2.bmp_pos0_id11_im10.bmp,['Im_DanielCraig.png', 'Im_OrlandoBloom.png', 'Im_KeanuReeves.png', 'Im_DanielRadcliffe.png', 'Im_RobertPattinson.png', 'Im_GeorgeClooney.png', 'Im_HughJackman.png', 'Im_RobertDowneyJr.png', 'Im_RyanReynolds.png', 'Im_LeonardoDiCaprio.png'],same,1,0.41669759999967937,37,85.71428571428571,
BRMA1708,0,neg,150,neg150_id7_im15.bmp_neg150_id7_im14.bmp,['Im_DanielCraig.png', 'Im_OrlandoBloom.png', 'Im_KeanuReeves.png', 'Im_DanielRadcliffe.png', 'Im_RobertPattinson.png', 'Im_GeorgeClooney.png', 'Im_HughJackman.png', 'Im_RobertDowneyJr.png', 'Im_RyanReynolds.png', 'Im_LeonardoDiCaprio.png'],diff,0,0.41674779999993916,0,0,
BRMA1708,0,neg,30,neg30_id16_im3.bmp_neg30_id19_im8.bmp,['Im_DanielCraig.png', 'Im_OrlandoBloom.png', 'Im_KeanuReeves.png', 'Im_DanielRadcliffe.png', 'Im_RobertPattinson.png', 'Im_GeorgeClooney.png', 'Im_HughJackman.png', 'Im_RobertDowneyJr.png', 'Im_RyanReynolds.png', 'Im_LeonardoDiCaprio.png'],diff,1,0.48399699999936274,1,0,
BRMA1708,0,neg,60,neg60_id7_im26.bmp_neg60_id7_im15.bmp,['Im_DanielCraig.png', 'Im_OrlandoBloom.png', 'Im_KeanuReeves.png', 'Im_DanielRadcliffe.png', 'Im_RobertPattinson.png', 'Im_GeorgeClooney.png', 'Im_HughJackman.png', 'Im_RobertDowneyJr.png', 'Im_RyanReynolds.png', 'Im_LeonardoDiCaprio.png'],same,1,0.42507019999993645,2,0,
BRMA1708,0,neg,0,neg0_id18_im18.bmp_neg0_id18_im19.bmp,['Im_DanielCraig.png', 'Im_OrlandoBloom.png', 'Im_KeanuReeves.png', 'Im_DanielRadcliffe.png', 'Im_RobertPattinson.png', 'Im_GeorgeClooney.png', 'Im_HughJackman.png', 'Im_RobertDowneyJr.png', 'Im_RyanReynolds.png', 'Im_LeonardoDiCaprio.png'],diff,0,0.4250230999996347,2,0,
BRMA1708,0,neg,fs,negfs_id8_im21.bmp_negfs_id8_im20.bmp,['Im_DanielCraig.png', 'Im_OrlandoBloom.png', 'Im_KeanuReeves.png', 'Im_DanielRadcliffe.png', 'Im_RobertPattinson.png', 'Im_GeorgeClooney.png', 'Im_HughJackman.png', 'Im_RobertDowneyJr.png', 'Im_RyanReynolds.png', 'Im_LeonardoDiCaprio.png'],same,1,0.8417484000001423,3,0,
BRMA1708,0,neg,60,neg60_id5_im20.bmp_neg60_id5_im1.bmp,['Im_DanielCraig.png', 'Im_OrlandoBloom.png', 'Im_KeanuReeves.png', 'Im_DanielRadcliffe.png', 'Im_RobertPattinson.png', 'Im_GeorgeClooney.png', 'Im_HughJackman.png', 'Im_RobertDowneyJr.png', 'Im_RyanReynolds.png', 'Im_LeonardoDiCaprio.png'],same,1,0.42509229999996023,4,0,
BRMA1708,0,neg,fs,negfs_id7_im15.bmp_negfs_id21_im17.bmp,['Im_DanielCraig.png', 'Im_OrlandoBloom.png', 'Im_KeanuReeves.png', 'Im_DanielRadcliffe.png', 'Im_RobertPattinson.png', 'Im_GeorgeClooney.png', 'Im_HughJackman.png', 'Im_RobertDowneyJr.png', 'Im_RyanReynolds.png', 'Im_LeonardoDiCaprio.png'],diff,1,2.2001828000002206,5,0,
BRMA1708,0,neg,90,neg90_id21_im17.bmp_neg90_id21_im16.bmp,['Im_DanielCraig.png', 'Im_OrlandoBloom.png', 'Im_KeanuReeves.png', 'Im_DanielRadcliffe.png', 'Im_RobertPattinson.png', 'Im_GeorgeClooney.png', 'Im_HughJackman.png', 'Im_RobertDowneyJr.png', 'Im_RyanReynolds.png', 'Im_LeonardoDiCaprio.png'],same,1,0.4250587999995332,6,0,
BRMA1708,0,neg,90,neg90_id16_im19.bmp_neg90_id16_im2.bmp,['Im_DanielCraig.png', 'Im_OrlandoBloom.png', 'Im_KeanuReeves.png', 'Im_DanielRadcliffe.png', 'Im_RobertPattinson.png', 'Im_GeorgeClooney.png', 'Im_HughJackman.png', 'Im_RobertDowneyJr.png', 'Im_RyanReynolds.png', 'Im_LeonardoDiCaprio.png'],diff,0,0.5999351999998908,6,0,
BRMA1708,0,neg,30,neg30_id18_im19.bmp_neg30_id18_im11.bmp,['Im_DanielCraig.png', 'Im_OrlandoBloom.png', 'Im_KeanuReeves.png', 'Im_DanielRadcliffe.png', 'Im_RobertPattinson.png', 'Im_GeorgeClooney.png', 'Im_HughJackman.png', 'Im_RobertDowneyJr.png', 'Im_RyanReynolds.png', 'Im_LeonardoDiCaprio.png'],same,1,0.7999945999999909,7,0,
BRMA1708,0,neg,120,neg120_id18_im19.bmp_neg120_id5_im20.bmp,['Im_DanielCraig.png', 'Im_OrlandoBloom.png', 'Im_KeanuReeves.png', 'Im_DanielRadcliffe.png', 'Im_RobertPattinson.png', 'Im_GeorgeClooney.png', 'Im_HughJackman.png', 'Im_RobertDowneyJr.png', 'Im_RyanReynolds.png', 'Im_LeonardoDiCaprio.png'],diff,1,0.8585461000002397,8,0,
BRMA1708,0,neg,120,neg120_id7_im14.bmp_neg120_id7_im15.bmp,['Im_DanielCraig.png', 'Im_OrlandoBloom.png', 'Im_KeanuReeves.png', 'Im_DanielRadcliffe.png', 'Im_RobertPattinson.png', 'Im_GeorgeClooney.png', 'Im_HughJackman.png', 'Im_RobertDowneyJr.png', 'Im_RyanReynolds.png', 'Im_LeonardoDiCaprio.png'],same,1,0.6416470000003756,9,0,
BRMA1708,0,neg,0,neg0_id7_im15.bmp_neg0_id7_im14.bmp,['Im_DanielCraig.png', 'Im_OrlandoBloom.png', 'Im_KeanuReeves.png', 'Im_DanielRadcliffe.png', 'Im_RobertPattinson.png', 'Im_GeorgeClooney.png', 'Im_HughJackman.png', 'Im_RobertDowneyJr.png', 'Im_RyanReynolds.png', 'Im_LeonardoDiCaprio.png'],diff,0,0.9250334999996994,9,0,
BRMA1708,0,neg,150,neg150_id4_im7.bmp_neg150_id18_im11.bmp,['Im_DanielCraig.png', 'Im_OrlandoBloom.png', 'Im_KeanuReeves.png', 'Im_DanielRadcliffe.png', 'Im_RobertPattinson.png', 'Im_GeorgeClooney.png', 'Im_HughJackman.png', 'Im_RobertDowneyJr.png', 'Im_RyanReynolds.png', 'Im_LeonardoDiCaprio.png'],diff,1,0.8417585000006511,10,0,
BRMA1708,1,pos,150,pos150_id4_im20.bmp_pos150_id18_im19.bmp,['Im_DanielCraig.png', 'Im_OrlandoBloom.png', 'Im_KeanuReeves.png', 'Im_DanielRadcliffe.png', 'Im_RobertPattinson.png', 'Im_GeorgeClooney.png', 'Im_HughJackman.png', 'Im_RobertDowneyJr.png', 'Im_RyanReynolds.png', 'Im_LeonardoDiCaprio.png'],diff,1,0.4167112000004636,11,0,
BRMA1708,1,pos,150,pos150_id18_im18.bmp_pos150_id18_im19.bmp,['Im_DanielCraig.png', 'Im_OrlandoBloom.png', 'Im_KeanuReeves.png', 'Im_DanielRadcliffe.png', 'Im_RobertPattinson.png', 'Im_GeorgeClooney.png', 'Im_HughJackman.png', 'Im_RobertDowneyJr.png', 'Im_RyanReynolds.png', 'Im_LeonardoDiCaprio.png'],same,1,0.42510419999962323,12,0,
BRMA1708,1,pos,30,pos30_id13_im15.bmp_pos30_id18_im11.bmp,['Im_DanielCraig.png', 'Im_OrlandoBloom.png', 'Im_KeanuReeves.png', 'Im_DanielRadcliffe.png', 'Im_RobertPattinson.png', 'Im_GeorgeClooney.png', 'Im_HughJackman.png', 'Im_RobertDowneyJr.png', 'Im_RyanReynolds.png', 'Im_LeonardoDiCaprio.png'],diff,1,0.5084987000000183,13,0,
BRMA1708,1,pos,fs,posfs_id7_im26.bmp_posfs_id7_im15.bmp,['Im_DanielCraig.png', 'Im_OrlandoBloom.png', 'Im_KeanuReeves.png', 'Im_DanielRadcliffe.png', 'Im_RobertPattinson.png', 'Im_GeorgeClooney.png', 'Im_HughJackman.png', 'Im_RobertDowneyJr.png', 'Im_RyanReynolds.png', 'Im_LeonardoDiCaprio.png'],same,1,0.4168093000007502,14,0,
BRMA1708,1,pos,90,pos90_id16_im19.bmp_pos90_id16_im2.bmp,['Im_DanielCraig.png', 'Im_OrlandoBloom.png', 'Im_KeanuReeves.png', 'Im_DanielRadcliffe.png', 'Im_RobertPattinson.png', 'Im_GeorgeClooney.png', 'Im_HughJackman.png', 'Im_RobertDowneyJr.png', 'Im_RyanReynolds.png', 'Im_LeonardoDiCaprio.png'],same,1,0.8005257000004349,15,0,
BRMA1708,1,pos,30,pos30_id8_im20.bmp_pos30_id19_im4.bmp,['Im_DanielCraig.png', 'Im_OrlandoBloom.png', 'Im_KeanuReeves.png', 'Im_DanielRadcliffe.png', 'Im_RobertPattinson.png', 'Im_GeorgeClooney.png', 'Im_HughJackman.png', 'Im_RobertDowneyJr.png', 'Im_RyanReynolds.png', 'Im_LeonardoDiCaprio.png'],diff,1,0.42507000000023254,16,0,
BRMA1708,1,pos,60,pos60_id4_im7.bmp_pos60_id8_im21.bmp,['Im_DanielCraig.png', 'Im_OrlandoBloom.png', 'Im_KeanuReeves.png', 'Im_DanielRadcliffe.png', 'Im_RobertPattinson.png', 'Im_GeorgeClooney.png', 'Im_HughJackman.png', 'Im_RobertDowneyJr.png', 'Im_RyanReynolds.png', 'Im_LeonardoDiCaprio.png'],diff,1,0.4084272999998575,17,0,
BRMA1708,1,pos,90,pos90_id13_im29.bmp_pos90_id4_im15.bmp,['Im_DanielCraig.png', 'Im_OrlandoBloom.png', 'Im_KeanuReeves.png', 'Im_DanielRadcliffe.png', 'Im_RobertPattinson.png', 'Im_GeorgeClooney.png', 'Im_HughJackman.png', 'Im_RobertDowneyJr.png', 'Im_RyanReynolds.png', 'Im_LeonardoDiCaprio.png'],diff,1,0.5920137000002796,18,0,
BRMA1708,1,pos,120,pos120_id16_im3.bmp_pos120_id16_im19.bmp,['Im_DanielCraig.png', 'Im_OrlandoBloom.png', 'Im_KeanuReeves.png', 'Im_DanielRadcliffe.png', 'Im_RobertPattinson.png', 'Im_GeorgeClooney.png', 'Im_HughJackman.png', 'Im_RobertDowneyJr.png', 'Im_RyanReynolds.png', 'Im_LeonardoDiCaprio.png'],same,1,0.4165952000003017,19,0,
BRMA1708,1,pos,60,pos60_id11_im1.bmp_pos60_id11_im10.bmp,['Im_DanielCraig.png', 'Im_OrlandoBloom.png', 'Im_KeanuReeves.png', 'Im_DanielRadcliffe.png', 'Im_RobertPattinson.png', 'Im_GeorgeClooney.png', 'Im_HughJackman.png', 'Im_RobertDowneyJr.png', 'Im_RyanReynolds.png', 'Im_LeonardoDiCaprio.png'],same,1,0.42506069999944884,20,0,
BRMA1708,1,pos,fs,posfs_id11_im1.bmp_posfs_id11_im10.bmp,['Im_DanielCraig.png', 'Im_OrlandoBloom.png', 'Im_KeanuReeves.png', 'Im_DanielRadcliffe.png', 'Im_RobertPattinson.png', 'Im_GeorgeClooney.png', 'Im_HughJackman.png', 'Im_RobertDowneyJr.png', 'Im_RyanReynolds.png', 'Im_LeonardoDiCaprio.png'],same,1,0.4169080000001486,21,0,
BRMA1708,1,pos,0,pos0_id11_im1.bmp_pos0_id4_im15.bmp,['Im_DanielCraig.png', 'Im_OrlandoBloom.png', 'Im_KeanuReeves.png', 'Im_DanielRadcliffe.png', 'Im_RobertPattinson.png', 'Im_GeorgeClooney.png', 'Im_HughJackman.png', 'Im_RobertDowneyJr.png', 'Im_RyanReynolds.png', 'Im_LeonardoDiCaprio.png'],diff,1,0.8916527000001224,22,0,
BRMA1708,1,pos,120,pos120_id19_im8.bmp_pos120_id13_im10.bmp,['Im_DanielCraig.png', 'Im_OrlandoBloom.png', 'Im_KeanuReeves.png', 'Im_DanielRadcliffe.png', 'Im_RobertPattinson.png', 'Im_GeorgeClooney.png', 'Im_HughJackman.png', 'Im_RobertDowneyJr.png', 'Im_RyanReynolds.png', 'Im_LeonardoDiCaprio.png'],diff,1,0.41675149999991845,23,0,
BRMA1708,1,pos,0,pos0_id8_im20.bmp_pos0_id8_im13.bmp,['Im_DanielCraig.png', 'Im_OrlandoBloom.png', 'Im_KeanuReeves.png', 'Im_DanielRadcliffe.png', 'Im_RobertPattinson.png', 'Im_GeorgeClooney.png', 'Im_HughJackman.png', 'Im_RobertDowneyJr.png', 'Im_RyanReynolds.png', 'Im_LeonardoDiCaprio.png'],same,1,0.4084342000005563,24,0,
BRMA1708,2,inv,90,pos90_id11_im2.bmp_pos90_id21_im22.bmp,['Im_DanielCraig.png', 'Im_OrlandoBloom.png', 'Im_KeanuReeves.png', 'Im_DanielRadcliffe.png', 'Im_RobertPattinson.png', 'Im_GeorgeClooney.png', 'Im_HughJackman.png', 'Im_RobertDowneyJr.png', 'Im_RyanReynolds.png', 'Im_LeonardoDiCaprio.png'],diff,1,0.5002644999995027,25,0,
BRMA1708,2,inv,150,pos150_id19_im8.bmp_pos150_id19_im27.bmp,['Im_DanielCraig.png', 'Im_OrlandoBloom.png', 'Im_KeanuReeves.png', 'Im_DanielRadcliffe.png', 'Im_RobertPattinson.png', 'Im_GeorgeClooney.png', 'Im_HughJackman.png', 'Im_RobertDowneyJr.png', 'Im_RyanReynolds.png', 'Im_LeonardoDiCaprio.png'],same,1,0.5752383999997619,26,0,
BRMA1708,2,inv,120,pos120_id19_im8.bmp_pos120_id19_im27.bmp,['Im_DanielCraig.png', 'Im_OrlandoBloom.png', 'Im_KeanuReeves.png', 'Im_DanielRadcliffe.png', 'Im_RobertPattinson.png', 'Im_GeorgeClooney.png', 'Im_HughJackman.png', 'Im_RobertDowneyJr.png', 'Im_RyanReynolds.png', 'Im_LeonardoDiCaprio.png'],same,1,0.42503840000063065,27,0,
BRMA1708,2,inv,fs,posfs_id4_im20.bmp_posfs_id4_im7.bmp,['Im_DanielCraig.png', 'Im_OrlandoBloom.png', 'Im_KeanuReeves.png', 'Im_DanielRadcliffe.png', 'Im_RobertPattinson.png', 'Im_GeorgeClooney.png', 'Im_HughJackman.png', 'Im_RobertDowneyJr.png', 'Im_RyanReynolds.png', 'Im_LeonardoDiCaprio.png'],same,1,0.4333950000000186,28,0,
BRMA1708,2,inv,150,pos150_id13_im29.bmp_pos150_id4_im15.bmp,['Im_DanielCraig.png', 'Im_OrlandoBloom.png', 'Im_KeanuReeves.png', 'Im_DanielRadcliffe.png', 'Im_RobertPattinson.png', 'Im_GeorgeClooney.png', 'Im_HughJackman.png', 'Im_RobertDowneyJr.png', 'Im_RyanReynolds.png', 'Im_LeonardoDiCaprio.png'],diff,1,0.9251299000006838,29,0,
BRMA1708,2,inv,0,pos0_id4_im7.bmp_pos0_id18_im11.bmp,['Im_DanielCraig.png', 'Im_OrlandoBloom.png', 'Im_KeanuReeves.png', 'Im_DanielRadcliffe.png', 'Im_RobertPattinson.png', 'Im_GeorgeClooney.png', 'Im_HughJackman.png', 'Im_RobertDowneyJr.png', 'Im_RyanReynolds.png', 'Im_LeonardoDiCaprio.png'],diff,1,1.1333080000003974,30,0,
BRMA1708,2,inv,fs,posfs_id5_im10.bmp_posfs_id5_im20.bmp,['Im_DanielCraig.png', 'Im_OrlandoBloom.png', 'Im_KeanuReeves.png', 'Im_DanielRadcliffe.png', 'Im_RobertPattinson.png', 'Im_GeorgeClooney.png', 'Im_HughJackman.png', 'Im_RobertDowneyJr.png', 'Im_RyanReynolds.png', 'Im_LeonardoDiCaprio.png'],same,1,1.8084484999999404,31,0,
BRMA1708,2,inv,60,pos60_id4_im15.bmp_pos60_id4_im20.bmp,['Im_DanielCraig.png', 'Im_OrlandoBloom.png', 'Im_KeanuReeves.png', 'Im_DanielRadcliffe.png', 'Im_RobertPattinson.png', 'Im_GeorgeClooney.png', 'Im_HughJackman.png', 'Im_RobertDowneyJr.png', 'Im_RyanReynolds.png', 'Im_LeonardoDiCaprio.png'],same,1,0.4336678999998185,32,0,
BRMA1708,2,inv,60,pos60_id13_im29.bmp_pos60_id13_im15.bmp,['Im_DanielCraig.png', 'Im_OrlandoBloom.png', 'Im_KeanuReeves.png', 'Im_DanielRadcliffe.png', 'Im_RobertPattinson.png', 'Im_GeorgeClooney.png', 'Im_HughJackman.png', 'Im_RobertDowneyJr.png', 'Im_RyanReynolds.png', 'Im_LeonardoDiCaprio.png'],diff,0,0.40836810000018886,32,0,
BRMA1708,2,inv,120,pos120_id18_im11.bmp_pos120_id4_im7.bmp,['Im_DanielCraig.png', 'Im_OrlandoBloom.png', 'Im_KeanuReeves.png', 'Im_DanielRadcliffe.png', 'Im_RobertPattinson.png', 'Im_GeorgeClooney.png', 'Im_HughJackman.png', 'Im_RobertDowneyJr.png', 'Im_RyanReynolds.png', 'Im_LeonardoDiCaprio.png'],diff,1,1.25018480000017,33,0,
BRMA1708,2,inv,30,pos30_id16_im3.bmp_pos30_id16_im19.bmp,['Im_DanielCraig.png', 'Im_OrlandoBloom.png', 'Im_KeanuReeves.png', 'Im_DanielRadcliffe.png', 'Im_RobertPattinson.png', 'Im_GeorgeClooney.png', 'Im_HughJackman.png', 'Im_RobertDowneyJr.png', 'Im_RyanReynolds.png', 'Im_LeonardoDiCaprio.png'],same,1,0.5167496999993091,34,0,
BRMA1708,2,inv,30,pos30_id7_im15.bmp_pos30_id16_im2.bmp,['Im_DanielCraig.png', 'Im_OrlandoBloom.png', 'Im_KeanuReeves.png', 'Im_DanielRadcliffe.png', 'Im_RobertPattinson.png', 'Im_GeorgeClooney.png', 'Im_HughJackman.png', 'Im_RobertDowneyJr.png', 'Im_RyanReynolds.png', 'Im_LeonardoDiCaprio.png'],diff,1,0.4249510999998165,35,0,
BRMA1708,2,inv,90,pos90_id5_im20.bmp_pos90_id18_im19.bmp,['Im_DanielCraig.png', 'Im_OrlandoBloom.png', 'Im_KeanuReeves.png', 'Im_DanielRadcliffe.png', 'Im_RobertPattinson.png', 'Im_GeorgeClooney.png', 'Im_HughJackman.png', 'Im_RobertDowneyJr.png', 'Im_RyanReynolds.png', 'Im_LeonardoDiCaprio.png'],diff,1,0.4334096000002319,36,0,
BRMA1708,2,inv,0,pos0_id13_im29.bmp_pos0_id11_im2.bmp,['Im_DanielCraig.png', 'Im_OrlandoBloom.png', 'Im_KeanuReeves.png', 'Im_DanielRadcliffe.png', 'Im_RobertPattinson.png', 'Im_GeorgeClooney.png', 'Im_HughJackman.png', 'Im_RobertDowneyJr.png', 'Im_RyanReynolds.png', 'Im_LeonardoDiCaprio.png'],diff,1,0.5167131999996855,37,0,
BRMA1708,3,inv,60,pos60_id11_im10.bmp_pos60_id18_im18.bmp,['Im_DanielCraig.png', 'Im_OrlandoBloom.png', 'Im_KeanuReeves.png', 'Im_DanielRadcliffe.png', 'Im_RobertPattinson.png', 'Im_GeorgeClooney.png', 'Im_HughJackman.png', 'Im_RobertDowneyJr.png', 'Im_RyanReynolds.png', 'Im_LeonardoDiCaprio.png'],diff,1,0.41674310000053083,1,88.0952380952381,
BRMA1708,3,inv,150,pos150_id18_im18.bmp_pos150_id5_im20.bmp,['Im_DanielCraig.png', 'Im_OrlandoBloom.png', 'Im_KeanuReeves.png', 'Im_DanielRadcliffe.png', 'Im_RobertPattinson.png', 'Im_GeorgeClooney.png', 'Im_HughJackman.png', 'Im_RobertDowneyJr.png', 'Im_RyanReynolds.png', 'Im_LeonardoDiCaprio.png'],diff,1,0.41686509999999544,2,88.0952380952381,
BRMA1708,3,inv,90,pos90_id21_im22.bmp_pos90_id5_im10.bmp,['Im_DanielCraig.png', 'Im_OrlandoBloom.png', 'Im_KeanuReeves.png', 'Im_DanielRadcliffe.png', 'Im_RobertPattinson.png', 'Im_GeorgeClooney.png', 'Im_HughJackman.png', 'Im_RobertDowneyJr.png', 'Im_RyanReynolds.png', 'Im_LeonardoDiCaprio.png'],diff,1,0.4250782999997682,3,88.0952380952381,
BRMA1708,3,inv,90,pos90_id21_im16.bmp_pos90_id8_im20.bmp,['Im_DanielCraig.png', 'Im_OrlandoBloom.png', 'Im_KeanuReeves.png', 'Im_DanielRadcliffe.png', 'Im_RobertPattinson.png', 'Im_GeorgeClooney.png', 'Im_HughJackman.png', 'Im_RobertDowneyJr.png', 'Im_RyanReynolds.png', 'Im_LeonardoDiCaprio.png'],diff,1,0.4250224999996135,4,88.0952380952381,
BRMA1708,3,inv,0,pos0_id11_im1.bmp_pos0_id4_im15.bmp,['Im_DanielCraig.png', 'Im_OrlandoBloom.png', 'Im_KeanuReeves.png', 'Im_DanielRadcliffe.png', 'Im_RobertPattinson.png', 'Im_GeorgeClooney.png', 'Im_HughJackman.png', 'Im_RobertDowneyJr.png', 'Im_RyanReynolds.png', 'Im_LeonardoDiCaprio.png'],diff,1,0.42505810000056954,5,88.0952380952381,
BRMA1708,3,inv,30,pos30_id19_im27.bmp_pos30_id13_im15.bmp,['Im_DanielCraig.png', 'Im_OrlandoBloom.png', 'Im_KeanuReeves.png', 'Im_DanielRadcliffe.png', 'Im_RobertPattinson.png', 'Im_GeorgeClooney.png', 'Im_HughJackman.png', 'Im_RobertDowneyJr.png', 'Im_RyanReynolds.png', 'Im_LeonardoDiCaprio.png'],diff,1,0.5088420000001861,6,88.0952380952381,
BRMA1708,3,inv,30,pos30_id21_im17.bmp_pos30_id7_im15.bmp,['Im_DanielCraig.png', 'Im_OrlandoBloom.png', 'Im_KeanuReeves.png', 'Im_DanielRadcliffe.png', 'Im_RobertPattinson.png', 'Im_GeorgeClooney.png', 'Im_HughJackman.png', 'Im_RobertDowneyJr.png', 'Im_RyanReynolds.png', 'Im_LeonardoDiCaprio.png'],diff,1,0.4500804999997854,7,88.0952380952381,
BRMA1708,3,inv,150,pos150_id13_im10.bmp_pos150_id19_im8.bmp,['Im_DanielCraig.png', 'Im_OrlandoBloom.png', 'Im_KeanuReeves.png', 'Im_DanielRadcliffe.png', 'Im_RobertPattinson.png', 'Im_GeorgeClooney.png', 'Im_HughJackman.png', 'Im_RobertDowneyJr.png', 'Im_RyanReynolds.png', 'Im_LeonardoDiCaprio.png'],diff,1,0.40859270000055403,8,88.0952380952381,
BRMA1708,3,inv,0,pos0_id5_im1.bmp_pos0_id5_im10.bmp,['Im_DanielCraig.png', 'Im_OrlandoBloom.png', 'Im_KeanuReeves.png', 'Im_DanielRadcliffe.png', 'Im_RobertPattinson.png', 'Im_GeorgeClooney.png', 'Im_HughJackman.png', 'Im_RobertDowneyJr.png', 'Im_RyanReynolds.png', 'Im_LeonardoDiCaprio.png'],same,1,0.42509010000048875,9,88.0952380952381,
BRMA1708,3,inv,60,pos60_id11_im2.bmp_pos60_id13_im29.bmp,['Im_DanielCraig.png', 'Im_OrlandoBloom.png', 'Im_KeanuReeves.png', 'Im_DanielRadcliffe.png', 'Im_RobertPattinson.png', 'Im_GeorgeClooney.png', 'Im_HughJackman.png', 'Im_RobertDowneyJr.png', 'Im_RyanReynolds.png', 'Im_LeonardoDiCaprio.png'],diff,1,0.42498729999988427,10,88.0952380952381,
BRMA1708,3,inv,fs,posfs_id5_im1.bmp_posfs_id5_im10.bmp,['Im_DanielCraig.png', 'Im_OrlandoBloom.png', 'Im_KeanuReeves.png', 'Im_DanielRadcliffe.png', 'Im_RobertPattinson.png', 'Im_GeorgeClooney.png', 'Im_HughJackman.png', 'Im_RobertDowneyJr.png', 'Im_RyanReynolds.png', 'Im_LeonardoDiCaprio.png'],same,1,0.42523049999999785,11,88.0952380952381,
BRMA1708,3,inv,120,pos120_id11_im10.bmp_pos120_id11_im2.bmp,['Im_DanielCraig.png', 'Im_OrlandoBloom.png', 'Im_KeanuReeves.png', 'Im_DanielRadcliffe.png', 'Im_RobertPattinson.png', 'Im_GeorgeClooney.png', 'Im_HughJackman.png', 'Im_RobertDowneyJr.png', 'Im_RyanReynolds.png', 'Im_LeonardoDiCaprio.png'],diff,0,0.4167711000000054,11,88.0952380952381,
BRMA1708,3,inv,fs,posfs_id21_im16.bmp_posfs_id21_im22.bmp,['Im_DanielCraig.png', 'Im_OrlandoBloom.png', 'Im_KeanuReeves.png', 'Im_DanielRadcliffe.png', 'Im_RobertPattinson.png', 'Im_GeorgeClooney.png', 'Im_HughJackman.png', 'Im_RobertDowneyJr.png', 'Im_RyanReynolds.png', 'Im_LeonardoDiCaprio.png'],diff,0,0.4835990000001402,11,88.0952380952381,
BRMA1708,3,inv,120,pos120_id8_im21.bmp_pos120_id8_im20.bmp,['Im_DanielCraig.png', 'Im_OrlandoBloom.png', 'Im_KeanuReeves.png', 'Im_DanielRadcliffe.png', 'Im_RobertPattinson.png', 'Im_GeorgeClooney.png', 'Im_HughJackman.png', 'Im_RobertDowneyJr.png', 'Im_RyanReynolds.png', 'Im_LeonardoDiCaprio.png'],same,1,0.4251756000003297,12,88.0952380952381,
BRMA1708,4,pos,60,pos60_id4_im7.bmp_pos60_id4_im20.bmp,['Im_DanielCraig.png', 'Im_OrlandoBloom.png', 'Im_KeanuReeves.png', 'Im_DanielRadcliffe.png', 'Im_RobertPattinson.png', 'Im_GeorgeClooney.png', 'Im_HughJackman.png', 'Im_RobertDowneyJr.png', 'Im_RyanReynolds.png', 'Im_LeonardoDiCaprio.png'],same,1,0.4921168000000762,13,88.0952380952381,
BRMA1708,4,pos,150,pos150_id11_im2.bmp_pos150_id21_im22.bmp,['Im_DanielCraig.png', 'Im_OrlandoBloom.png', 'Im_KeanuReeves.png', 'Im_DanielRadcliffe.png', 'Im_RobertPattinson.png', 'Im_GeorgeClooney.png', 'Im_HughJackman.png', 'Im_RobertDowneyJr.png', 'Im_RyanReynolds.png', 'Im_LeonardoDiCaprio.png'],diff,1,0.5334022999995796,14,88.0952380952381,
BRMA1708,4,pos,0,pos0_id13_im15.bmp_pos0_id13_im10.bmp,['Im_DanielCraig.png', 'Im_OrlandoBloom.png', 'Im_KeanuReeves.png', 'Im_DanielRadcliffe.png', 'Im_RobertPattinson.png', 'Im_GeorgeClooney.png', 'Im_HughJackman.png', 'Im_RobertDowneyJr.png', 'Im_RyanReynolds.png', 'Im_LeonardoDiCaprio.png'],same,1,0.4334447999999611,15,88.0952380952381,
BRMA1708,4,pos,90,pos90_id4_im20.bmp_pos90_id18_im19.bmp,['Im_DanielCraig.png', 'Im_OrlandoBloom.png', 'Im_KeanuReeves.png', 'Im_DanielRadcliffe.png', 'Im_RobertPattinson.png', 'Im_GeorgeClooney.png', 'Im_HughJackman.png', 'Im_RobertDowneyJr.png', 'Im_RyanReynolds.png', 'Im_LeonardoDiCaprio.png'],diff,1,0.6417707999999038,16,88.0952380952381,
BRMA1708,4,pos,60,pos60_id21_im17.bmp_pos60_id21_im22.bmp,['Im_DanielCraig.png', 'Im_OrlandoBloom.png', 'Im_KeanuReeves.png', 'Im_DanielRadcliffe.png', 'Im_RobertPattinson.png', 'Im_GeorgeClooney.png', 'Im_HughJackman.png', 'Im_RobertDowneyJr.png', 'Im_RyanReynolds.png', 'Im_LeonardoDiCaprio.png'],same,1,0.4168771000004199,17,88.0952380952381,
BRMA1708,4,pos,0,pos0_id11_im10.bmp_pos0_id18_im18.bmp,['Im_DanielCraig.png', 'Im_OrlandoBloom.png', 'Im_KeanuReeves.png', 'Im_DanielRadcliffe.png', 'Im_RobertPattinson.png', 'Im_GeorgeClooney.png', 'Im_HughJackman.png', 'Im_RobertDowneyJr.png', 'Im_RyanReynolds.png', 'Im_LeonardoDiCaprio.png'],diff,1,0.7251310999999987,18,88.0952380952381,
BRMA1708,4,pos,30,pos30_id5_im20.bmp_pos30_id18_im19.bmp,['Im_DanielCraig.png', 'Im_OrlandoBloom.png', 'Im_KeanuReeves.png', 'Im_DanielRadcliffe.png', 'Im_RobertPattinson.png', 'Im_GeorgeClooney.png', 'Im_HughJackman.png', 'Im_RobertDowneyJr.png', 'Im_RyanReynolds.png', 'Im_LeonardoDiCaprio.png'],diff,1,0.4086065999999846,19,88.0952380952381,
BRMA1708,4,pos,90,pos90_id21_im22.bmp_pos90_id5_im10.bmp,['Im_DanielCraig.png', 'Im_OrlandoBloom.png', 'Im_KeanuReeves.png', 'Im_DanielRadcliffe.png', 'Im_RobertPattinson.png', 'Im_GeorgeClooney.png', 'Im_HughJackman.png', 'Im_RobertDowneyJr.png', 'Im_RyanReynolds.png', 'Im_LeonardoDiCaprio.png'],diff,1,1.4917783999999301,20,88.0952380952381,
BRMA1708,4,pos,fs,posfs_id5_im10.bmp_posfs_id8_im13.bmp,['Im_DanielCraig.png', 'Im_OrlandoBloom.png', 'Im_KeanuReeves.png', 'Im_DanielRadcliffe.png', 'Im_RobertPattinson.png', 'Im_GeorgeClooney.png', 'Im_HughJackman.png', 'Im_RobertDowneyJr.png', 'Im_RyanReynolds.png', 'Im_LeonardoDiCaprio.png'],diff,1,0.841662599999836,21,88.0952380952381,
BRMA1708,4,pos,120,pos120_id11_im1.bmp_pos120_id11_im2.bmp,['Im_DanielCraig.png', 'Im_OrlandoBloom.png', 'Im_KeanuReeves.png', 'Im_DanielRadcliffe.png', 'Im_RobertPattinson.png', 'Im_GeorgeClooney.png', 'Im_HughJackman.png', 'Im_RobertDowneyJr.png', 'Im_RyanReynolds.png', 'Im_LeonardoDiCaprio.png'],same,1,0.4167905999993309,22,88.0952380952381,
BRMA1708,4,pos,fs,posfs_id18_im19.bmp_posfs_id18_im18.bmp,['Im_DanielCraig.png', 'Im_OrlandoBloom.png', 'Im_KeanuReeves.png', 'Im_DanielRadcliffe.png', 'Im_RobertPattinson.png', 'Im_GeorgeClooney.png', 'Im_HughJackman.png', 'Im_RobertDowneyJr.png', 'Im_RyanReynolds.png', 'Im_LeonardoDiCaprio.png'],same,1,0.4250893999997061,23,88.0952380952381,
BRMA1708,4,pos,120,pos120_id19_im8.bmp_pos120_id19_im4.bmp,['Im_DanielCraig.png', 'Im_OrlandoBloom.png', 'Im_KeanuReeves.png', 'Im_DanielRadcliffe.png', 'Im_RobertPattinson.png', 'Im_GeorgeClooney.png', 'Im_HughJackman.png', 'Im_RobertDowneyJr.png', 'Im_RyanReynolds.png', 'Im_LeonardoDiCaprio.png'],same,1,0.858451299999615,24,88.0952380952381,
BRMA1708,4,pos,30,pos30_id18_im18.bmp_pos30_id11_im10.bmp,['Im_DanielCraig.png', 'Im_OrlandoBloom.png', 'Im_KeanuReeves.png', 'Im_DanielRadcliffe.png', 'Im_RobertPattinson.png', 'Im_GeorgeClooney.png', 'Im_HughJackman.png', 'Im_RobertDowneyJr.png', 'Im_RyanReynolds.png', 'Im_LeonardoDiCaprio.png'],diff,1,0.41677290000006906,25,88.0952380952381,
BRMA1708,4,pos,150,pos150_id4_im7.bmp_pos150_id4_im15.bmp,['Im_DanielCraig.png', 'Im_OrlandoBloom.png', 'Im_KeanuReeves.png', 'Im_DanielRadcliffe.png', 'Im_RobertPattinson.png', 'Im_GeorgeClooney.png', 'Im_HughJackman.png', 'Im_RobertDowneyJr.png', 'Im_RyanReynolds.png', 'Im_LeonardoDiCaprio.png'],same,1,0.41688369999974384,26,88.0952380952381,
BRMA1708,5,neg,60,neg60_id8_im21.bmp_neg60_id8_im13.bmp,['Im_DanielCraig.png', 'Im_OrlandoBloom.png', 'Im_KeanuReeves.png', 'Im_DanielRadcliffe.png', 'Im_RobertPattinson.png', 'Im_GeorgeClooney.png', 'Im_HughJackman.png', 'Im_RobertDowneyJr.png', 'Im_RyanReynolds.png', 'Im_LeonardoDiCaprio.png'],diff,0,0.41659679999975197,26,88.0952380952381,
BRMA1708,5,neg,60,neg60_id7_im15.bmp_neg60_id21_im17.bmp,['Im_DanielCraig.png', 'Im_OrlandoBloom.png', 'Im_KeanuReeves.png', 'Im_DanielRadcliffe.png', 'Im_RobertPattinson.png', 'Im_GeorgeClooney.png', 'Im_HughJackman.png', 'Im_RobertDowneyJr.png', 'Im_RyanReynolds.png', 'Im_LeonardoDiCaprio.png'],diff,1,0.416696199999933,27,88.0952380952381,
BRMA1708,5,neg,30,neg30_id8_im20.bmp_neg30_id8_im13.bmp,['Im_DanielCraig.png', 'Im_OrlandoBloom.png', 'Im_KeanuReeves.png', 'Im_DanielRadcliffe.png', 'Im_RobertPattinson.png', 'Im_GeorgeClooney.png', 'Im_HughJackman.png', 'Im_RobertDowneyJr.png', 'Im_RyanReynolds.png', 'Im_LeonardoDiCaprio.png'],same,1,0.425122000000556,28,88.0952380952381,
BRMA1708,5,neg,0,neg0_id21_im22.bmp_neg0_id21_im17.bmp,['Im_DanielCraig.png', 'Im_OrlandoBloom.png', 'Im_KeanuReeves.png', 'Im_DanielRadcliffe.png', 'Im_RobertPattinson.png', 'Im_GeorgeClooney.png', 'Im_HughJackman.png', 'Im_RobertDowneyJr.png', 'Im_RyanReynolds.png', 'Im_LeonardoDiCaprio.png'],same,1,0.6998706999993374,29,88.0952380952381,
BRMA1708,5,neg,120,neg120_id5_im1.bmp_neg120_id19_im27.bmp,['Im_DanielCraig.png', 'Im_OrlandoBloom.png', 'Im_KeanuReeves.png', 'Im_DanielRadcliffe.png', 'Im_RobertPattinson.png', 'Im_GeorgeClooney.png', 'Im_HughJackman.png', 'Im_RobertDowneyJr.png', 'Im_RyanReynolds.png', 'Im_LeonardoDiCaprio.png'],diff,1,0.5335801999999603,30,88.0952380952381,
BRMA1708,5,neg,120,neg120_id13_im29.bmp_neg120_id11_im2.bmp,['Im_DanielCraig.png', 'Im_OrlandoBloom.png', 'Im_KeanuReeves.png', 'Im_DanielRadcliffe.png', 'Im_RobertPattinson.png', 'Im_GeorgeClooney.png', 'Im_HughJackman.png', 'Im_RobertDowneyJr.png', 'Im_RyanReynolds.png', 'Im_LeonardoDiCaprio.png'],diff,1,0.4835678999997981,31,88.0952380952381,
BRMA1708,5,neg,90,neg90_id19_im8.bmp_neg90_id16_im3.bmp,['Im_DanielCraig.png', 'Im_OrlandoBloom.png', 'Im_KeanuReeves.png', 'Im_DanielRadcliffe.png', 'Im_RobertPattinson.png', 'Im_GeorgeClooney.png', 'Im_HughJackman.png', 'Im_RobertDowneyJr.png', 'Im_RyanReynolds.png', 'Im_LeonardoDiCaprio.png'],same,0,0.8003889999999956,31,88.0952380952381,
BRMA1708,5,neg,150,neg150_id11_im2.bmp_neg150_id11_im10.bmp,['Im_DanielCraig.png', 'Im_OrlandoBloom.png', 'Im_KeanuReeves.png', 'Im_DanielRadcliffe.png', 'Im_RobertPattinson.png', 'Im_GeorgeClooney.png', 'Im_HughJackman.png', 'Im_RobertDowneyJr.png', 'Im_RyanReynolds.png', 'Im_LeonardoDiCaprio.png'],same,1,0.49171059999935096,32,88.0952380952381,
BRMA1708,5,neg,fs,negfs_id5_im20.bmp_negfs_id5_im1.bmp,['Im_DanielCraig.png', 'Im_OrlandoBloom.png', 'Im_KeanuReeves.png', 'Im_DanielRadcliffe.png', 'Im_RobertPattinson.png', 'Im_GeorgeClooney.png', 'Im_HughJackman.png', 'Im_RobertDowneyJr.png', 'Im_RyanReynolds.png', 'Im_LeonardoDiCaprio.png'],same,1,0.44166349999977683,33,88.0952380952381,
BRMA1708,5,neg,30,neg30_id8_im20.bmp_neg30_id8_im21.bmp,['Im_DanielCraig.png', 'Im_OrlandoBloom.png', 'Im_KeanuReeves.png', 'Im_DanielRadcliffe.png', 'Im_RobertPattinson.png', 'Im_GeorgeClooney.png', 'Im_HughJackman.png', 'Im_RobertDowneyJr.png', 'Im_RyanReynolds.png', 'Im_LeonardoDiCaprio.png'],same,1,0.4586490000001504,34,88.0952380952381,
BRMA1708,5,neg,90,neg90_id13_im10.bmp_neg90_id13_im29.bmp,['Im_DanielCraig.png', 'Im_OrlandoBloom.png', 'Im_KeanuReeves.png', 'Im_DanielRadcliffe.png', 'Im_RobertPattinson.png', 'Im_GeorgeClooney.png', 'Im_HughJackman.png', 'Im_RobertDowneyJr.png', 'Im_RyanReynolds.png', 'Im_LeonardoDiCaprio.png'],diff,0,0.5335274999997637,34,88.0952380952381,
BRMA1708,5,neg,fs,negfs_id4_im20.bmp_negfs_id18_im19.bmp,['Im_DanielCraig.png', 'Im_OrlandoBloom.png', 'Im_KeanuReeves.png', 'Im_DanielRadcliffe.png', 'Im_RobertPattinson.png', 'Im_GeorgeClooney.png', 'Im_HughJackman.png', 'Im_RobertDowneyJr.png', 'Im_RyanReynolds.png', 'Im_LeonardoDiCaprio.png'],diff,1,0.417012099999738,35,88.0952380952381,
BRMA1708,5,neg,150,neg150_id7_im15.bmp_neg150_id16_im2.bmp,['Im_DanielCraig.png', 'Im_OrlandoBloom.png', 'Im_KeanuReeves.png', 'Im_DanielRadcliffe.png', 'Im_RobertPattinson.png', 'Im_GeorgeClooney.png', 'Im_HughJackman.png', 'Im_RobertDowneyJr.png', 'Im_RyanReynolds.png', 'Im_LeonardoDiCaprio.png'],diff,1,0.42519869999978255,36,88.0952380952381,
BRMA1708,5,neg,0,neg0_id5_im20.bmp_neg0_id5_im10.bmp,['Im_DanielCraig.png', 'Im_OrlandoBloom.png', 'Im_KeanuReeves.png', 'Im_DanielRadcliffe.png', 'Im_RobertPattinson.png', 'Im_GeorgeClooney.png', 'Im_HughJackman.png', 'Im_RobertDowneyJr.png', 'Im_RyanReynolds.png', 'Im_LeonardoDiCaprio.png'],same,1,0.42500440000003437,37,88.0952380952381,
BRMA1708,6,pos,fs,posfs_id13_im29.bmp_posfs_id11_im2.bmp,['Im_DanielCraig.png', 'Im_OrlandoBloom.png', 'Im_KeanuReeves.png', 'Im_DanielRadcliffe.png', 'Im_RobertPattinson.png', 'Im_GeorgeClooney.png', 'Im_HughJackman.png', 'Im_RobertDowneyJr.png', 'Im_RyanReynolds.png', 'Im_LeonardoDiCaprio.png'],diff,1,0.4167109999998502,1,88.0952380952381,
BRMA1708,6,pos,150,pos150_id7_im14.bmp_pos150_id5_im1.bmp,['Im_DanielCraig.png', 'Im_OrlandoBloom.png', 'Im_KeanuReeves.png', 'Im_DanielRadcliffe.png', 'Im_RobertPattinson.png', 'Im_GeorgeClooney.png', 'Im_HughJackman.png', 'Im_RobertDowneyJr.png', 'Im_RyanReynolds.png', 'Im_LeonardoDiCaprio.png'],diff,1,0.40853819999938423,2,88.0952380952381,
BRMA1708,6,pos,30,pos30_id13_im10.bmp_pos30_id13_im29.bmp,['Im_DanielCraig.png', 'Im_OrlandoBloom.png', 'Im_KeanuReeves.png', 'Im_DanielRadcliffe.png', 'Im_RobertPattinson.png', 'Im_GeorgeClooney.png', 'Im_HughJackman.png', 'Im_RobertDowneyJr.png', 'Im_RyanReynolds.png', 'Im_LeonardoDiCaprio.png'],same,1,0.4167017999998279,3,88.0952380952381,
BRMA1708,6,pos,90,pos90_id16_im19.bmp_pos90_id7_im26.bmp,['Im_DanielCraig.png', 'Im_OrlandoBloom.png', 'Im_KeanuReeves.png', 'Im_DanielRadcliffe.png', 'Im_RobertPattinson.png', 'Im_GeorgeClooney.png', 'Im_HughJackman.png', 'Im_RobertDowneyJr.png', 'Im_RyanReynolds.png', 'Im_LeonardoDiCaprio.png'],diff,1,0.4249012000000221,4,88.0952380952381,
BRMA1708,6,pos,60,pos60_id13_im10.bmp_pos60_id13_im15.bmp,['Im_DanielCraig.png', 'Im_OrlandoBloom.png', 'Im_KeanuReeves.png', 'Im_DanielRadcliffe.png', 'Im_RobertPattinson.png', 'Im_GeorgeClooney.png', 'Im_HughJackman.png', 'Im_RobertDowneyJr.png', 'Im_RyanReynolds.png', 'Im_LeonardoDiCaprio.png'],same,1,0.4168256000002657,5,88.0952380952381,
BRMA1708,6,pos,120,pos120_id19_im27.bmp_pos120_id13_im15.bmp,['Im_DanielCraig.png', 'Im_OrlandoBloom.png', 'Im_KeanuReeves.png', 'Im_DanielRadcliffe.png', 'Im_RobertPattinson.png', 'Im_GeorgeClooney.png', 'Im_HughJackman.png', 'Im_RobertDowneyJr.png', 'Im_RyanReynolds.png', 'Im_LeonardoDiCaprio.png'],diff,1,0.4165521000004446,6,88.0952380952381,
BRMA1708,6,pos,150,pos150_id4_im20.bmp_pos150_id11_im10.bmp,['Im_DanielCraig.png', 'Im_OrlandoBloom.png', 'Im_KeanuReeves.png', 'Im_DanielRadcliffe.png', 'Im_RobertPattinson.png', 'Im_GeorgeClooney.png', 'Im_HughJackman.png', 'Im_RobertDowneyJr.png', 'Im_RyanReynolds.png', 'Im_LeonardoDiCaprio.png'],diff,1,0.4168040000004112,7,88.0952380952381,
BRMA1708,6,pos,90,pos90_id19_im27.bmp_pos90_id19_im8.bmp,['Im_DanielCraig.png', 'Im_OrlandoBloom.png', 'Im_KeanuReeves.png', 'Im_DanielRadcliffe.png', 'Im_RobertPattinson.png', 'Im_GeorgeClooney.png', 'Im_HughJackman.png', 'Im_RobertDowneyJr.png', 'Im_RyanReynolds.png', 'Im_LeonardoDiCaprio.png'],same,1,0.41674000000057276,8,88.0952380952381,
BRMA1708,6,pos,120,pos120_id5_im20.bmp_pos120_id5_im10.bmp,['Im_DanielCraig.png', 'Im_OrlandoBloom.png', 'Im_KeanuReeves.png', 'Im_DanielRadcliffe.png', 'Im_RobertPattinson.png', 'Im_GeorgeClooney.png', 'Im_HughJackman.png', 'Im_RobertDowneyJr.png', 'Im_RyanReynolds.png', 'Im_LeonardoDiCaprio.png'],same,1,0.4251330999995844,9,88.0952380952381,
BRMA1708,6,pos,0,pos0_id13_im10.bmp_pos0_id19_im8.bmp,['Im_DanielCraig.png', 'Im_OrlandoBloom.png', 'Im_KeanuReeves.png', 'Im_DanielRadcliffe.png', 'Im_RobertPattinson.png', 'Im_GeorgeClooney.png', 'Im_HughJackman.png', 'Im_RobertDowneyJr.png', 'Im_RyanReynolds.png', 'Im_LeonardoDiCaprio.png'],diff,1,0.42515240000011545,10,88.0952380952381,
BRMA1708,6,pos,0,pos0_id7_im14.bmp_pos0_id5_im1.bmp,['Im_DanielCraig.png', 'Im_OrlandoBloom.png', 'Im_KeanuReeves.png', 'Im_DanielRadcliffe.png', 'Im_RobertPattinson.png', 'Im_GeorgeClooney.png', 'Im_HughJackman.png', 'Im_RobertDowneyJr.png', 'Im_RyanReynolds.png', 'Im_LeonardoDiCaprio.png'],diff,1,0.42513310000049387,11,88.0952380952381,
BRMA1708,6,pos,60,pos60_id5_im10.bmp_pos60_id5_im20.bmp,['Im_DanielCraig.png', 'Im_OrlandoBloom.png', 'Im_KeanuReeves.png', 'Im_DanielRadcliffe.png', 'Im_RobertPattinson.png', 'Im_GeorgeClooney.png', 'Im_HughJackman.png', 'Im_RobertDowneyJr.png', 'Im_RyanReynolds.png', 'Im_LeonardoDiCaprio.png'],same,1,0.4250932000004468,12,88.0952380952381,
BRMA1708,6,pos,30,pos30_id7_im26.bmp_pos30_id7_im14.bmp,['Im_DanielCraig.png', 'Im_OrlandoBloom.png', 'Im_KeanuReeves.png', 'Im_DanielRadcliffe.png', 'Im_RobertPattinson.png', 'Im_GeorgeClooney.png', 'Im_HughJackman.png', 'Im_RobertDowneyJr.png', 'Im_RyanReynolds.png', 'Im_LeonardoDiCaprio.png'],same,1,0.4251216000002387,13,88.0952380952381,
BRMA1708,6,pos,fs,posfs_id4_im20.bmp_posfs_id4_im7.bmp,['Im_DanielCraig.png', 'Im_OrlandoBloom.png', 'Im_KeanuReeves.png', 'Im_DanielRadcliffe.png', 'Im_RobertPattinson.png', 'Im_GeorgeClooney.png', 'Im_HughJackman.png', 'Im_RobertDowneyJr.png', 'Im_RyanReynolds.png', 'Im_LeonardoDiCaprio.png'],same,1,0.4169006999991325,14,88.0952380952381,
BRMA1708,7,neg,90,neg90_id11_im10.bmp_neg90_id11_im2.bmp,['Im_DanielCraig.png', 'Im_OrlandoBloom.png', 'Im_KeanuReeves.png', 'Im_DanielRadcliffe.png', 'Im_RobertPattinson.png', 'Im_GeorgeClooney.png', 'Im_HughJackman.png', 'Im_RobertDowneyJr.png', 'Im_RyanReynolds.png', 'Im_LeonardoDiCaprio.png'],same,1,0.4249632000000929,15,88.0952380952381,
BRMA1708,7,neg,60,neg60_id8_im21.bmp_neg60_id8_im20.bmp,['Im_DanielCraig.png', 'Im_OrlandoBloom.png', 'Im_KeanuReeves.png', 'Im_DanielRadcliffe.png', 'Im_RobertPattinson.png', 'Im_GeorgeClooney.png', 'Im_HughJackman.png', 'Im_RobertDowneyJr.png', 'Im_RyanReynolds.png', 'Im_LeonardoDiCaprio.png'],same,1,0.4251852000006693,16,88.0952380952381,
BRMA1708,7,neg,120,neg120_id18_im18.bmp_neg120_id11_im10.bmp,['Im_DanielCraig.png', 'Im_OrlandoBloom.png', 'Im_KeanuReeves.png', 'Im_DanielRadcliffe.png', 'Im_RobertPattinson.png', 'Im_GeorgeClooney.png', 'Im_HughJackman.png', 'Im_RobertDowneyJr.png', 'Im_RyanReynolds.png', 'Im_LeonardoDiCaprio.png'],diff,1,0.43338369999946735,17,88.0952380952381,
BRMA1708,7,neg,30,neg30_id8_im21.bmp_neg30_id8_im13.bmp,['Im_DanielCraig.png', 'Im_OrlandoBloom.png', 'Im_KeanuReeves.png', 'Im_DanielRadcliffe.png', 'Im_RobertPattinson.png', 'Im_GeorgeClooney.png', 'Im_HughJackman.png', 'Im_RobertDowneyJr.png', 'Im_RyanReynolds.png', 'Im_LeonardoDiCaprio.png'],same,1,0.5003021000002263,18,88.0952380952381,
BRMA1708,7,neg,fs,negfs_id19_im27.bmp_negfs_id19_im4.bmp,['Im_DanielCraig.png', 'Im_OrlandoBloom.png', 'Im_KeanuReeves.png', 'Im_DanielRadcliffe.png', 'Im_RobertPattinson.png', 'Im_GeorgeClooney.png', 'Im_HughJackman.png', 'Im_RobertDowneyJr.png', 'Im_RyanReynolds.png', 'Im_LeonardoDiCaprio.png'],diff,0,0.6755191000002014,18,88.0952380952381,
BRMA1708,7,neg,0,neg0_id8_im13.bmp_neg0_id8_im20.bmp,['Im_DanielCraig.png', 'Im_OrlandoBloom.png', 'Im_KeanuReeves.png', 'Im_DanielRadcliffe.png', 'Im_RobertPattinson.png', 'Im_GeorgeClooney.png', 'Im_HughJackman.png', 'Im_RobertDowneyJr.png', 'Im_RyanReynolds.png', 'Im_LeonardoDiCaprio.png'],same,1,0.4251918999998452,19,88.0952380952381,
BRMA1708,7,neg,120,neg120_id4_im15.bmp_neg120_id11_im1.bmp,['Im_DanielCraig.png', 'Im_OrlandoBloom.png', 'Im_KeanuReeves.png', 'Im_DanielRadcliffe.png', 'Im_RobertPattinson.png', 'Im_GeorgeClooney.png', 'Im_HughJackman.png', 'Im_RobertDowneyJr.png', 'Im_RyanReynolds.png', 'Im_LeonardoDiCaprio.png'],diff,1,0.4167077000001882,20,88.0952380952381,
BRMA1708,7,neg,0,neg0_id19_im27.bmp_neg0_id19_im8.bmp,['Im_DanielCraig.png', 'Im_OrlandoBloom.png', 'Im_KeanuReeves.png', 'Im_DanielRadcliffe.png', 'Im_RobertPattinson.png', 'Im_GeorgeClooney.png', 'Im_HughJackman.png', 'Im_RobertDowneyJr.png', 'Im_RyanReynolds.png', 'Im_LeonardoDiCaprio.png'],same,1,0.4167312999998103,21,88.0952380952381,
BRMA1708,7,neg,30,neg30_id13_im29.bmp_neg30_id13_im15.bmp,['Im_DanielCraig.png', 'Im_OrlandoBloom.png', 'Im_KeanuReeves.png', 'Im_DanielRadcliffe.png', 'Im_RobertPattinson.png', 'Im_GeorgeClooney.png', 'Im_HughJackman.png', 'Im_RobertDowneyJr.png', 'Im_RyanReynolds.png', 'Im_LeonardoDiCaprio.png'],same,1,0.5831868999994185,22,88.0952380952381,
BRMA1708,7,neg,150,neg150_id21_im22.bmp_neg150_id5_im10.bmp,['Im_DanielCraig.png', 'Im_OrlandoBloom.png', 'Im_KeanuReeves.png', 'Im_DanielRadcliffe.png', 'Im_RobertPattinson.png', 'Im_GeorgeClooney.png', 'Im_HughJackman.png', 'Im_RobertDowneyJr.png', 'Im_RyanReynolds.png', 'Im_LeonardoDiCaprio.png'],diff,1,0.866693099999793,23,88.0952380952381,
BRMA1708,7,neg,60,neg60_id19_im8.bmp_neg60_id16_im3.bmp,['Im_DanielCraig.png', 'Im_OrlandoBloom.png', 'Im_KeanuReeves.png', 'Im_DanielRadcliffe.png', 'Im_RobertPattinson.png', 'Im_GeorgeClooney.png', 'Im_HughJackman.png', 'Im_RobertDowneyJr.png', 'Im_RyanReynolds.png', 'Im_LeonardoDiCaprio.png'],diff,1,0.42514370000026247,24,88.0952380952381,
BRMA1708,7,neg,90,neg90_id7_im14.bmp_neg90_id5_im1.bmp,['Im_DanielCraig.png', 'Im_OrlandoBloom.png', 'Im_KeanuReeves.png', 'Im_DanielRadcliffe.png', 'Im_RobertPattinson.png', 'Im_GeorgeClooney.png', 'Im_HughJackman.png', 'Im_RobertDowneyJr.png', 'Im_RyanReynolds.png', 'Im_LeonardoDiCaprio.png'],diff,1,0.4335514000003968,25,88.0952380952381,
BRMA1708,7,neg,150,neg150_id5_im1.bmp_neg150_id5_im20.bmp,['Im_DanielCraig.png', 'Im_OrlandoBloom.png', 'Im_KeanuReeves.png', 'Im_DanielRadcliffe.png', 'Im_RobertPattinson.png', 'Im_GeorgeClooney.png', 'Im_HughJackman.png', 'Im_RobertDowneyJr.png', 'Im_RyanReynolds.png', 'Im_LeonardoDiCaprio.png'],same,1,0.4085824000003413,26,88.0952380952381,
BRMA1708,7,neg,fs,negfs_id4_im7.bmp_negfs_id4_im20.bmp,['Im_DanielCraig.png', 'Im_OrlandoBloom.png', 'Im_KeanuReeves.png', 'Im_DanielRadcliffe.png', 'Im_RobertPattinson.png', 'Im_GeorgeClooney.png', 'Im_HughJackman.png', 'Im_RobertDowneyJr.png', 'Im_RyanReynolds.png', 'Im_LeonardoDiCaprio.png'],same,1,0.42511689999992086,27,88.0952380952381,
BRMA1708,8,inv,120,pos120_id7_im26.bmp_pos120_id7_im15.bmp,['Im_DanielCraig.png', 'Im_OrlandoBloom.png', 'Im_KeanuReeves.png', 'Im_DanielRadcliffe.png', 'Im_RobertPattinson.png', 'Im_GeorgeClooney.png', 'Im_HughJackman.png', 'Im_RobertDowneyJr.png', 'Im_RyanReynolds.png', 'Im_LeonardoDiCaprio.png'],same,1,0.4336836000002222,28,88.0952380952381,
BRMA1708,8,inv,60,pos60_id8_im13.bmp_pos60_id8_im21.bmp,['Im_DanielCraig.png', 'Im_OrlandoBloom.png', 'Im_KeanuReeves.png', 'Im_DanielRadcliffe.png', 'Im_RobertPattinson.png', 'Im_GeorgeClooney.png', 'Im_HughJackman.png', 'Im_RobertDowneyJr.png', 'Im_RyanReynolds.png', 'Im_LeonardoDiCaprio.png'],same,1,0.41669219999948837,29,88.0952380952381,
BRMA1708,8,inv,30,pos30_id13_im15.bmp_pos30_id18_im11.bmp,['Im_DanielCraig.png', 'Im_OrlandoBloom.png', 'Im_KeanuReeves.png', 'Im_DanielRadcliffe.png', 'Im_RobertPattinson.png', 'Im_GeorgeClooney.png', 'Im_HughJackman.png', 'Im_RobertDowneyJr.png', 'Im_RyanReynolds.png', 'Im_LeonardoDiCaprio.png'],diff,1,0.6086986000000252,30,88.0952380952381,
BRMA1708,8,inv,0,pos0_id5_im20.bmp_pos0_id18_im18.bmp,['Im_DanielCraig.png', 'Im_OrlandoBloom.png', 'Im_KeanuReeves.png', 'Im_DanielRadcliffe.png', 'Im_RobertPattinson.png', 'Im_GeorgeClooney.png', 'Im_HughJackman.png', 'Im_RobertDowneyJr.png', 'Im_RyanReynolds.png', 'Im_LeonardoDiCaprio.png'],same,0,0.41691240000000107,30,88.0952380952381,
BRMA1708,8,inv,30,pos30_id5_im1.bmp_pos30_id5_im10.bmp,['Im_DanielCraig.png', 'Im_OrlandoBloom.png', 'Im_KeanuReeves.png', 'Im_DanielRadcliffe.png', 'Im_RobertPattinson.png', 'Im_GeorgeClooney.png', 'Im_HughJackman.png', 'Im_RobertDowneyJr.png', 'Im_RyanReynolds.png', 'Im_LeonardoDiCaprio.png'],same,1,0.42504100000041944,31,88.0952380952381,
BRMA1708,8,inv,fs,posfs_id8_im13.bmp_posfs_id8_im21.bmp,['Im_DanielCraig.png', 'Im_OrlandoBloom.png', 'Im_KeanuReeves.png', 'Im_DanielRadcliffe.png', 'Im_RobertPattinson.png', 'Im_GeorgeClooney.png', 'Im_HughJackman.png', 'Im_RobertDowneyJr.png', 'Im_RyanReynolds.png', 'Im_LeonardoDiCaprio.png'],same,1,0.44158580000021175,32,88.0952380952381,
