Sujet,Trial,Condition,Filter,Imname,Actor0,Actor1,Actor2,Actor3,Actor4,Actor5,Actor6,Actor7,Actor8,Actor9,Answer,Accu,RT,Score,Scoreperc, 
BRMA1708,train,neg,fs,negfs_id13_im10.bmp_negfs_id13_im15.bmp,['Im_KeanuReeves.png', 'Im_OrlandoBloom.png', 'Im_RyanReynolds.png', 'Im_LeonardoDiCaprio.png', 'Im_GeorgeClooney.png', 'Im_RobertPattinson.png', 'Im_DanielRadcliffe.png', 'Im_DanielCraig.png', 'Im_HughJackman.png', 'Im_RobertDowneyJr.png'],same,1,1.0085326000007626,1,0,
BRMA1708,train,neg,0,neg0_id16_im19.bmp_neg0_id16_im3.bmp,['Im_KeanuReeves.png', 'Im_OrlandoBloom.png', 'Im_RyanReynolds.png', 'Im_LeonardoDiCaprio.png', 'Im_GeorgeClooney.png', 'Im_RobertPattinson.png', 'Im_DanielRadcliffe.png', 'Im_DanielCraig.png', 'Im_HughJackman.png', 'Im_RobertDowneyJr.png'],same,1,0.41675989999930607,2,0,
BRMA1708,train,neg,90,neg90_id18_im18.bmp_neg90_id11_im10.bmp,['Im_KeanuReeves.png', 'Im_OrlandoBloom.png', 'Im_RyanReynolds.png', 'Im_LeonardoDiCaprio.png', 'Im_GeorgeClooney.png', 'Im_RobertPattinson.png', 'Im_DanielRadcliffe.png', 'Im_DanielCraig.png', 'Im_HughJackman.png', 'Im_RobertDowneyJr.png'],diff,1,0.4084225000005972,3,0,
BRMA1708,train,neg,150,neg150_id13_im10.bmp_neg150_id13_im29.bmp,['Im_KeanuReeves.png', 'Im_OrlandoBloom.png', 'Im_RyanReynolds.png', 'Im_LeonardoDiCaprio.png', 'Im_GeorgeClooney.png', 'Im_RobertPattinson.png', 'Im_DanielRadcliffe.png', 'Im_DanielCraig.png', 'Im_HughJackman.png', 'Im_RobertDowneyJr.png'],diff,0,0.42503100000067207,3,0,
BRMA1708,train,neg,30,neg30_id7_im15.bmp_neg30_id7_im14.bmp,['Im_KeanuReeves.png', 'Im_OrlandoBloom.png', 'Im_RyanReynolds.png', 'Im_LeonardoDiCaprio.png', 'Im_GeorgeClooney.png', 'Im_RobertPattinson.png', 'Im_DanielRadcliffe.png', 'Im_DanielCraig.png', 'Im_HughJackman.png', 'Im_RobertDowneyJr.png'],same,1,0.40821479999976873,4,0,
BRMA1708,train,neg,fs,negfs_id11_im2.bmp_negfs_id21_im22.bmp,['Im_KeanuReeves.png', 'Im_OrlandoBloom.png', 'Im_RyanReynolds.png', 'Im_LeonardoDiCaprio.png', 'Im_GeorgeClooney.png', 'Im_RobertPattinson.png', 'Im_DanielRadcliffe.png', 'Im_DanielCraig.png', 'Im_HughJackman.png', 'Im_RobertDowneyJr.png'],diff,1,0.5833504000001994,5,0,
BRMA1708,train,neg,60,neg60_id19_im8.bmp_neg60_id19_im27.bmp,['Im_KeanuReeves.png', 'Im_OrlandoBloom.png', 'Im_RyanReynolds.png', 'Im_LeonardoDiCaprio.png', 'Im_GeorgeClooney.png', 'Im_RobertPattinson.png', 'Im_DanielRadcliffe.png', 'Im_DanielCraig.png', 'Im_HughJackman.png', 'Im_RobertDowneyJr.png'],diff,0,0.49333589999878313,5,0,
BRMA1708,train,neg,90,neg90_id4_im20.bmp_neg90_id4_im7.bmp,['Im_KeanuReeves.png', 'Im_OrlandoBloom.png', 'Im_RyanReynolds.png', 'Im_LeonardoDiCaprio.png', 'Im_GeorgeClooney.png', 'Im_RobertPattinson.png', 'Im_DanielRadcliffe.png', 'Im_DanielCraig.png', 'Im_HughJackman.png', 'Im_RobertDowneyJr.png'],same,1,0.42509049999898707,6,0,
BRMA1708,train,neg,30,neg30_id13_im15.bmp_neg30_id19_im27.bmp,['Im_KeanuReeves.png', 'Im_OrlandoBloom.png', 'Im_RyanReynolds.png', 'Im_LeonardoDiCaprio.png', 'Im_GeorgeClooney.png', 'Im_RobertPattinson.png', 'Im_DanielRadcliffe.png', 'Im_DanielCraig.png', 'Im_HughJackman.png', 'Im_RobertDowneyJr.png'],diff,1,0.4167202000007819,7,0,
BRMA1708,train,neg,0,neg0_id18_im11.bmp_neg0_id18_im18.bmp,['Im_KeanuReeves.png', 'Im_OrlandoBloom.png', 'Im_RyanReynolds.png', 'Im_LeonardoDiCaprio.png', 'Im_GeorgeClooney.png', 'Im_RobertPattinson.png', 'Im_DanielRadcliffe.png', 'Im_DanielCraig.png', 'Im_HughJackman.png', 'Im_RobertDowneyJr.png'],same,1,0.45855160000064643,8,0,
BRMA1708,train,neg,60,neg60_id19_im4.bmp_neg60_id8_im21.bmp,['Im_KeanuReeves.png', 'Im_OrlandoBloom.png', 'Im_RyanReynolds.png', 'Im_LeonardoDiCaprio.png', 'Im_GeorgeClooney.png', 'Im_RobertPattinson.png', 'Im_DanielRadcliffe.png', 'Im_DanielCraig.png', 'Im_HughJackman.png', 'Im_RobertDowneyJr.png'],diff,1,0.45046170000023267,9,0,
BRMA1708,train,neg,120,neg120_id19_im4.bmp_neg120_id19_im27.bmp,['Im_KeanuReeves.png', 'Im_OrlandoBloom.png', 'Im_RyanReynolds.png', 'Im_LeonardoDiCaprio.png', 'Im_GeorgeClooney.png', 'Im_RobertPattinson.png', 'Im_DanielRadcliffe.png', 'Im_DanielCraig.png', 'Im_HughJackman.png', 'Im_RobertDowneyJr.png'],same,1,1.0502324999997654,10,0,
BRMA1708,train,neg,120,neg120_id4_im7.bmp_neg120_id8_im21.bmp,['Im_KeanuReeves.png', 'Im_OrlandoBloom.png', 'Im_RyanReynolds.png', 'Im_LeonardoDiCaprio.png', 'Im_GeorgeClooney.png', 'Im_RobertPattinson.png', 'Im_DanielRadcliffe.png', 'Im_DanielCraig.png', 'Im_HughJackman.png', 'Im_RobertDowneyJr.png'],diff,1,0.416733000000022,11,0,
BRMA1708,train,neg,150,neg150_id21_im16.bmp_neg150_id16_im19.bmp,['Im_KeanuReeves.png', 'Im_OrlandoBloom.png', 'Im_RyanReynolds.png', 'Im_LeonardoDiCaprio.png', 'Im_GeorgeClooney.png', 'Im_RobertPattinson.png', 'Im_DanielRadcliffe.png', 'Im_DanielCraig.png', 'Im_HughJackman.png', 'Im_RobertDowneyJr.png'],diff,1,0.4417346999998699,12,0,
BRMA1708,train,neg,30,neg30_id8_im13.bmp_neg30_id5_im10.bmp,['Im_KeanuReeves.png', 'Im_OrlandoBloom.png', 'Im_RyanReynolds.png', 'Im_LeonardoDiCaprio.png', 'Im_GeorgeClooney.png', 'Im_RobertPattinson.png', 'Im_DanielRadcliffe.png', 'Im_DanielCraig.png', 'Im_HughJackman.png', 'Im_RobertDowneyJr.png'],diff,1,0.42507909999949334,13,0,
BRMA1708,train,neg,120,neg120_id21_im22.bmp_neg120_id11_im2.bmp,['Im_KeanuReeves.png', 'Im_OrlandoBloom.png', 'Im_RyanReynolds.png', 'Im_LeonardoDiCaprio.png', 'Im_GeorgeClooney.png', 'Im_RobertPattinson.png', 'Im_DanielRadcliffe.png', 'Im_DanielCraig.png', 'Im_HughJackman.png', 'Im_RobertDowneyJr.png'],diff,1,0.4165735999995377,14,0,
BRMA1708,train,neg,150,neg150_id18_im18.bmp_neg150_id11_im10.bmp,['Im_KeanuReeves.png', 'Im_OrlandoBloom.png', 'Im_RyanReynolds.png', 'Im_LeonardoDiCaprio.png', 'Im_GeorgeClooney.png', 'Im_RobertPattinson.png', 'Im_DanielRadcliffe.png', 'Im_DanielCraig.png', 'Im_HughJackman.png', 'Im_RobertDowneyJr.png'],diff,1,0.4500642999992124,15,0,
BRMA1708,train,neg,150,neg150_id19_im8.bmp_neg150_id19_im27.bmp,['Im_KeanuReeves.png', 'Im_OrlandoBloom.png', 'Im_RyanReynolds.png', 'Im_LeonardoDiCaprio.png', 'Im_GeorgeClooney.png', 'Im_RobertPattinson.png', 'Im_DanielRadcliffe.png', 'Im_DanielCraig.png', 'Im_HughJackman.png', 'Im_RobertDowneyJr.png'],same,1,0.4168241000006674,16,0,
BRMA1708,train,neg,fs,negfs_id5_im20.bmp_negfs_id18_im18.bmp,['Im_KeanuReeves.png', 'Im_OrlandoBloom.png', 'Im_RyanReynolds.png', 'Im_LeonardoDiCaprio.png', 'Im_GeorgeClooney.png', 'Im_RobertPattinson.png', 'Im_DanielRadcliffe.png', 'Im_DanielCraig.png', 'Im_HughJackman.png', 'Im_RobertDowneyJr.png'],diff,1,0.43349080000007234,17,0,
BRMA1708,train,neg,0,neg0_id16_im3.bmp_neg0_id8_im13.bmp,['Im_KeanuReeves.png', 'Im_OrlandoBloom.png', 'Im_RyanReynolds.png', 'Im_LeonardoDiCaprio.png', 'Im_GeorgeClooney.png', 'Im_RobertPattinson.png', 'Im_DanielRadcliffe.png', 'Im_DanielCraig.png', 'Im_HughJackman.png', 'Im_RobertDowneyJr.png'],diff,1,0.4168150000004971,18,0,
BRMA1708,train,neg,fs,negfs_id13_im10.bmp_negfs_id13_im29.bmp,['Im_KeanuReeves.png', 'Im_OrlandoBloom.png', 'Im_RyanReynolds.png', 'Im_LeonardoDiCaprio.png', 'Im_GeorgeClooney.png', 'Im_RobertPattinson.png', 'Im_DanielRadcliffe.png', 'Im_DanielCraig.png', 'Im_HughJackman.png', 'Im_RobertDowneyJr.png'],diff,0,0.42500749999999243,18,0,
BRMA1708,train,neg,30,neg30_id18_im18.bmp_neg30_id11_im10.bmp,['Im_KeanuReeves.png', 'Im_OrlandoBloom.png', 'Im_RyanReynolds.png', 'Im_LeonardoDiCaprio.png', 'Im_GeorgeClooney.png', 'Im_RobertPattinson.png', 'Im_DanielRadcliffe.png', 'Im_DanielCraig.png', 'Im_HughJackman.png', 'Im_RobertDowneyJr.png'],diff,1,0.4166951999995945,19,0,
BRMA1708,train,neg,90,neg90_id18_im11.bmp_neg90_id18_im18.bmp,['Im_KeanuReeves.png', 'Im_OrlandoBloom.png', 'Im_RyanReynolds.png', 'Im_LeonardoDiCaprio.png', 'Im_GeorgeClooney.png', 'Im_RobertPattinson.png', 'Im_DanielRadcliffe.png', 'Im_DanielCraig.png', 'Im_HughJackman.png', 'Im_RobertDowneyJr.png'],same,1,0.6913631999996142,20,0,
BRMA1708,train,neg,60,neg60_id5_im10.bmp_neg60_id5_im20.bmp,['Im_KeanuReeves.png', 'Im_OrlandoBloom.png', 'Im_RyanReynolds.png', 'Im_LeonardoDiCaprio.png', 'Im_GeorgeClooney.png', 'Im_RobertPattinson.png', 'Im_DanielRadcliffe.png', 'Im_DanielCraig.png', 'Im_HughJackman.png', 'Im_RobertDowneyJr.png'],same,1,0.408300799999779,21,0,
BRMA1708,train,neg,0,neg0_id21_im16.bmp_neg0_id16_im19.bmp,['Im_KeanuReeves.png', 'Im_OrlandoBloom.png', 'Im_RyanReynolds.png', 'Im_LeonardoDiCaprio.png', 'Im_GeorgeClooney.png', 'Im_RobertPattinson.png', 'Im_DanielRadcliffe.png', 'Im_DanielCraig.png', 'Im_HughJackman.png', 'Im_RobertDowneyJr.png'],diff,1,0.5083224000009068,22,0,
BRMA1708,train,neg,60,neg60_id11_im1.bmp_neg60_id7_im14.bmp,['Im_KeanuReeves.png', 'Im_OrlandoBloom.png', 'Im_RyanReynolds.png', 'Im_LeonardoDiCaprio.png', 'Im_GeorgeClooney.png', 'Im_RobertPattinson.png', 'Im_DanielRadcliffe.png', 'Im_DanielCraig.png', 'Im_HughJackman.png', 'Im_RobertDowneyJr.png'],diff,1,0.4333886000003986,23,0,
BRMA1708,train,neg,120,neg120_id13_im10.bmp_neg120_id16_im2.bmp,['Im_KeanuReeves.png', 'Im_OrlandoBloom.png', 'Im_RyanReynolds.png', 'Im_LeonardoDiCaprio.png', 'Im_GeorgeClooney.png', 'Im_RobertPattinson.png', 'Im_DanielRadcliffe.png', 'Im_DanielCraig.png', 'Im_HughJackman.png', 'Im_RobertDowneyJr.png'],diff,1,0.40835469999910856,24,0,
BRMA1708,train,neg,90,neg90_id8_im13.bmp_neg90_id8_im20.bmp,['Im_KeanuReeves.png', 'Im_OrlandoBloom.png', 'Im_RyanReynolds.png', 'Im_LeonardoDiCaprio.png', 'Im_GeorgeClooney.png', 'Im_RobertPattinson.png', 'Im_DanielRadcliffe.png', 'Im_DanielCraig.png', 'Im_HughJackman.png', 'Im_RobertDowneyJr.png'],same,1,0.40849990000060643,25,0,
BRMA1708,train,pos,120,pos120_id21_im17.bmp_pos120_id21_im16.bmp,['Im_KeanuReeves.png', 'Im_OrlandoBloom.png', 'Im_RyanReynolds.png', 'Im_LeonardoDiCaprio.png', 'Im_GeorgeClooney.png', 'Im_RobertPattinson.png', 'Im_DanielRadcliffe.png', 'Im_DanielCraig.png', 'Im_HughJackman.png', 'Im_RobertDowneyJr.png'],same,1,0.574994799999331,26,0,
BRMA1708,train,pos,fs,posfs_id21_im17.bmp_posfs_id7_im15.bmp,['Im_KeanuReeves.png', 'Im_OrlandoBloom.png', 'Im_RyanReynolds.png', 'Im_LeonardoDiCaprio.png', 'Im_GeorgeClooney.png', 'Im_RobertPattinson.png', 'Im_DanielRadcliffe.png', 'Im_DanielCraig.png', 'Im_HughJackman.png', 'Im_RobertDowneyJr.png'],diff,1,0.4084032999999181,27,0,
BRMA1708,train,pos,120,pos120_id11_im10.bmp_pos120_id11_im1.bmp,['Im_KeanuReeves.png', 'Im_OrlandoBloom.png', 'Im_RyanReynolds.png', 'Im_LeonardoDiCaprio.png', 'Im_GeorgeClooney.png', 'Im_RobertPattinson.png', 'Im_DanielRadcliffe.png', 'Im_DanielCraig.png', 'Im_HughJackman.png', 'Im_RobertDowneyJr.png'],diff,0,0.4331868999997823,27,0,
BRMA1708,train,pos,0,pos0_id16_im19.bmp_pos0_id16_im3.bmp,['Im_KeanuReeves.png', 'Im_OrlandoBloom.png', 'Im_RyanReynolds.png', 'Im_LeonardoDiCaprio.png', 'Im_GeorgeClooney.png', 'Im_RobertPattinson.png', 'Im_DanielRadcliffe.png', 'Im_DanielCraig.png', 'Im_HughJackman.png', 'Im_RobertDowneyJr.png'],same,1,0.5417756999995618,28,0,
BRMA1708,train,pos,90,pos90_id13_im10.bmp_pos90_id13_im29.bmp,['Im_KeanuReeves.png', 'Im_OrlandoBloom.png', 'Im_RyanReynolds.png', 'Im_LeonardoDiCaprio.png', 'Im_GeorgeClooney.png', 'Im_RobertPattinson.png', 'Im_DanielRadcliffe.png', 'Im_DanielCraig.png', 'Im_HughJackman.png', 'Im_RobertDowneyJr.png'],same,1,0.4165775000001304,29,0,
BRMA1708,train,pos,150,pos150_id21_im17.bmp_pos150_id21_im22.bmp,['Im_KeanuReeves.png', 'Im_OrlandoBloom.png', 'Im_RyanReynolds.png', 'Im_LeonardoDiCaprio.png', 'Im_GeorgeClooney.png', 'Im_RobertPattinson.png', 'Im_DanielRadcliffe.png', 'Im_DanielCraig.png', 'Im_HughJackman.png', 'Im_RobertDowneyJr.png'],same,1,0.40841530000034254,30,0,
BRMA1708,train,pos,30,pos30_id7_im15.bmp_pos30_id7_im14.bmp,['Im_KeanuReeves.png', 'Im_OrlandoBloom.png', 'Im_RyanReynolds.png', 'Im_LeonardoDiCaprio.png', 'Im_GeorgeClooney.png', 'Im_RobertPattinson.png', 'Im_DanielRadcliffe.png', 'Im_DanielCraig.png', 'Im_HughJackman.png', 'Im_RobertDowneyJr.png'],same,1,0.4083155000007537,31,0,
BRMA1708,train,pos,60,pos60_id13_im15.bmp_pos60_id18_im11.bmp,['Im_KeanuReeves.png', 'Im_OrlandoBloom.png', 'Im_RyanReynolds.png', 'Im_LeonardoDiCaprio.png', 'Im_GeorgeClooney.png', 'Im_RobertPattinson.png', 'Im_DanielRadcliffe.png', 'Im_DanielCraig.png', 'Im_HughJackman.png', 'Im_RobertDowneyJr.png'],diff,1,0.9167391000009957,32,0,
BRMA1708,train,pos,90,pos90_id5_im1.bmp_pos90_id5_im10.bmp,['Im_KeanuReeves.png', 'Im_OrlandoBloom.png', 'Im_RyanReynolds.png', 'Im_LeonardoDiCaprio.png', 'Im_GeorgeClooney.png', 'Im_RobertPattinson.png', 'Im_DanielRadcliffe.png', 'Im_DanielCraig.png', 'Im_HughJackman.png', 'Im_RobertDowneyJr.png'],same,1,0.4250910999999178,33,0,
BRMA1708,train,pos,150,pos150_id5_im1.bmp_pos150_id19_im27.bmp,['Im_KeanuReeves.png', 'Im_OrlandoBloom.png', 'Im_RyanReynolds.png', 'Im_LeonardoDiCaprio.png', 'Im_GeorgeClooney.png', 'Im_RobertPattinson.png', 'Im_DanielRadcliffe.png', 'Im_DanielCraig.png', 'Im_HughJackman.png', 'Im_RobertDowneyJr.png'],diff,1,0.40841659999932745,34,0,
BRMA1708,train,pos,30,pos30_id18_im18.bmp_pos30_id18_im19.bmp,['Im_KeanuReeves.png', 'Im_OrlandoBloom.png', 'Im_RyanReynolds.png', 'Im_LeonardoDiCaprio.png', 'Im_GeorgeClooney.png', 'Im_RobertPattinson.png', 'Im_DanielRadcliffe.png', 'Im_DanielCraig.png', 'Im_HughJackman.png', 'Im_RobertDowneyJr.png'],same,1,0.42506409999987227,35,0,
BRMA1708,train,pos,60,pos60_id4_im7.bmp_pos60_id18_im11.bmp,['Im_KeanuReeves.png', 'Im_OrlandoBloom.png', 'Im_RyanReynolds.png', 'Im_LeonardoDiCaprio.png', 'Im_GeorgeClooney.png', 'Im_RobertPattinson.png', 'Im_DanielRadcliffe.png', 'Im_DanielCraig.png', 'Im_HughJackman.png', 'Im_RobertDowneyJr.png'],diff,1,0.41639670000040496,36,0,
BRMA1708,train,pos,0,pos0_id7_im14.bmp_pos0_id7_im15.bmp,['Im_KeanuReeves.png', 'Im_OrlandoBloom.png', 'Im_RyanReynolds.png', 'Im_LeonardoDiCaprio.png', 'Im_GeorgeClooney.png', 'Im_RobertPattinson.png', 'Im_DanielRadcliffe.png', 'Im_DanielCraig.png', 'Im_HughJackman.png', 'Im_RobertDowneyJr.png'],same,1,0.4250683999998728,37,0,
BRMA1708,train,pos,fs,posfs_id18_im19.bmp_posfs_id5_im20.bmp,['Im_KeanuReeves.png', 'Im_OrlandoBloom.png', 'Im_RyanReynolds.png', 'Im_LeonardoDiCaprio.png', 'Im_GeorgeClooney.png', 'Im_RobertPattinson.png', 'Im_DanielRadcliffe.png', 'Im_DanielCraig.png', 'Im_HughJackman.png', 'Im_RobertDowneyJr.png'],diff,1,0.41672420000031707,38,0,
BRMA1708,train,inv,150,pos150_id11_im10.bmp_pos150_id11_im1.bmp,['Im_KeanuReeves.png', 'Im_OrlandoBloom.png', 'Im_RyanReynolds.png', 'Im_LeonardoDiCaprio.png', 'Im_GeorgeClooney.png', 'Im_RobertPattinson.png', 'Im_DanielRadcliffe.png', 'Im_DanielCraig.png', 'Im_HughJackman.png', 'Im_RobertDowneyJr.png'],same,1,0.8083843999993405,1,90.47619047619048,
BRMA1708,train,inv,60,pos60_id16_im3.bmp_pos60_id19_im8.bmp,['Im_KeanuReeves.png', 'Im_OrlandoBloom.png', 'Im_RyanReynolds.png', 'Im_LeonardoDiCaprio.png', 'Im_GeorgeClooney.png', 'Im_RobertPattinson.png', 'Im_DanielRadcliffe.png', 'Im_DanielCraig.png', 'Im_HughJackman.png', 'Im_RobertDowneyJr.png'],same,0,0.4250014999997802,1,90.47619047619048,
BRMA1708,train,inv,150,pos150_id4_im7.bmp_pos150_id8_im21.bmp,['Im_KeanuReeves.png', 'Im_OrlandoBloom.png', 'Im_RyanReynolds.png', 'Im_LeonardoDiCaprio.png', 'Im_GeorgeClooney.png', 'Im_RobertPattinson.png', 'Im_DanielRadcliffe.png', 'Im_DanielCraig.png', 'Im_HughJackman.png', 'Im_RobertDowneyJr.png'],diff,1,0.8252539000004617,2,90.47619047619048,
BRMA1708,train,inv,30,pos30_id7_im15.bmp_pos30_id7_im26.bmp,['Im_KeanuReeves.png', 'Im_OrlandoBloom.png', 'Im_RyanReynolds.png', 'Im_LeonardoDiCaprio.png', 'Im_GeorgeClooney.png', 'Im_RobertPattinson.png', 'Im_DanielRadcliffe.png', 'Im_DanielCraig.png', 'Im_HughJackman.png', 'Im_RobertDowneyJr.png'],same,1,1.6669208000002982,3,90.47619047619048,
BRMA1708,train,inv,90,pos90_id11_im1.bmp_pos90_id11_im2.bmp,['Im_KeanuReeves.png', 'Im_OrlandoBloom.png', 'Im_RyanReynolds.png', 'Im_LeonardoDiCaprio.png', 'Im_GeorgeClooney.png', 'Im_RobertPattinson.png', 'Im_DanielRadcliffe.png', 'Im_DanielCraig.png', 'Im_HughJackman.png', 'Im_RobertDowneyJr.png'],same,1,0.6169349000010698,4,90.47619047619048,
BRMA1708,train,inv,0,pos0_id4_im20.bmp_pos0_id4_im7.bmp,['Im_KeanuReeves.png', 'Im_OrlandoBloom.png', 'Im_RyanReynolds.png', 'Im_LeonardoDiCaprio.png', 'Im_GeorgeClooney.png', 'Im_RobertPattinson.png', 'Im_DanielRadcliffe.png', 'Im_DanielCraig.png', 'Im_HughJackman.png', 'Im_RobertDowneyJr.png'],same,1,0.4250960999997915,5,90.47619047619048,
BRMA1708,train,inv,120,pos120_id11_im1.bmp_pos120_id4_im15.bmp,['Im_KeanuReeves.png', 'Im_OrlandoBloom.png', 'Im_RyanReynolds.png', 'Im_LeonardoDiCaprio.png', 'Im_GeorgeClooney.png', 'Im_RobertPattinson.png', 'Im_DanielRadcliffe.png', 'Im_DanielCraig.png', 'Im_HughJackman.png', 'Im_RobertDowneyJr.png'],diff,1,0.5000182000003406,6,90.47619047619048,
BRMA1708,train,inv,90,pos90_id16_im3.bmp_pos90_id19_im8.bmp,['Im_KeanuReeves.png', 'Im_OrlandoBloom.png', 'Im_RyanReynolds.png', 'Im_LeonardoDiCaprio.png', 'Im_GeorgeClooney.png', 'Im_RobertPattinson.png', 'Im_DanielRadcliffe.png', 'Im_DanielCraig.png', 'Im_HughJackman.png', 'Im_RobertDowneyJr.png'],same,0,0.4500796000011178,6,90.47619047619048,
BRMA1708,train,inv,0,pos0_id8_im21.bmp_pos0_id8_im20.bmp,['Im_KeanuReeves.png', 'Im_OrlandoBloom.png', 'Im_RyanReynolds.png', 'Im_LeonardoDiCaprio.png', 'Im_GeorgeClooney.png', 'Im_RobertPattinson.png', 'Im_DanielRadcliffe.png', 'Im_DanielCraig.png', 'Im_HughJackman.png', 'Im_RobertDowneyJr.png'],same,1,0.4165622999989864,7,90.47619047619048,
BRMA1708,train,inv,fs,posfs_id11_im2.bmp_posfs_id21_im22.bmp,['Im_KeanuReeves.png', 'Im_OrlandoBloom.png', 'Im_RyanReynolds.png', 'Im_LeonardoDiCaprio.png', 'Im_GeorgeClooney.png', 'Im_RobertPattinson.png', 'Im_DanielRadcliffe.png', 'Im_DanielCraig.png', 'Im_HughJackman.png', 'Im_RobertDowneyJr.png'],same,0,0.41669009999895934,7,90.47619047619048,
BRMA1708,train,inv,30,pos30_id19_im8.bmp_pos30_id16_im3.bmp,['Im_KeanuReeves.png', 'Im_OrlandoBloom.png', 'Im_RyanReynolds.png', 'Im_LeonardoDiCaprio.png', 'Im_GeorgeClooney.png', 'Im_RobertPattinson.png', 'Im_DanielRadcliffe.png', 'Im_DanielCraig.png', 'Im_HughJackman.png', 'Im_RobertDowneyJr.png'],diff,1,0.4168133000002854,8,90.47619047619048,
BRMA1708,train,inv,60,pos60_id11_im1.bmp_pos60_id11_im2.bmp,['Im_KeanuReeves.png', 'Im_OrlandoBloom.png', 'Im_RyanReynolds.png', 'Im_LeonardoDiCaprio.png', 'Im_GeorgeClooney.png', 'Im_RobertPattinson.png', 'Im_DanielRadcliffe.png', 'Im_DanielCraig.png', 'Im_HughJackman.png', 'Im_RobertDowneyJr.png'],same,1,0.40834999999970023,9,90.47619047619048,
BRMA1708,train,inv,120,pos120_id16_im2.bmp_pos120_id16_im3.bmp,['Im_KeanuReeves.png', 'Im_OrlandoBloom.png', 'Im_RyanReynolds.png', 'Im_LeonardoDiCaprio.png', 'Im_GeorgeClooney.png', 'Im_RobertPattinson.png', 'Im_DanielRadcliffe.png', 'Im_DanielCraig.png', 'Im_HughJackman.png', 'Im_RobertDowneyJr.png'],same,1,0.466963200000464,10,90.47619047619048,
BRMA1708,train,inv,fs,posfs_id11_im2.bmp_posfs_id13_im29.bmp,['Im_KeanuReeves.png', 'Im_OrlandoBloom.png', 'Im_RyanReynolds.png', 'Im_LeonardoDiCaprio.png', 'Im_GeorgeClooney.png', 'Im_RobertPattinson.png', 'Im_DanielRadcliffe.png', 'Im_DanielCraig.png', 'Im_HughJackman.png', 'Im_RobertDowneyJr.png'],diff,1,0.425192299999253,11,90.47619047619048,
BRMA1708,train,inv,0,pos0_id7_im26.bmp_pos0_id7_im14.bmp,['Im_KeanuReeves.png', 'Im_OrlandoBloom.png', 'Im_RyanReynolds.png', 'Im_LeonardoDiCaprio.png', 'Im_GeorgeClooney.png', 'Im_RobertPattinson.png', 'Im_DanielRadcliffe.png', 'Im_DanielCraig.png', 'Im_HughJackman.png', 'Im_RobertDowneyJr.png'],same,1,0.4085285000001022,12,90.47619047619048,
BRMA1708,train,inv,90,pos90_id4_im7.bmp_pos90_id4_im15.bmp,['Im_KeanuReeves.png', 'Im_OrlandoBloom.png', 'Im_RyanReynolds.png', 'Im_LeonardoDiCaprio.png', 'Im_GeorgeClooney.png', 'Im_RobertPattinson.png', 'Im_DanielRadcliffe.png', 'Im_DanielCraig.png', 'Im_HughJackman.png', 'Im_RobertDowneyJr.png'],same,1,0.4081484999987879,13,90.47619047619048,
BRMA1708,train,inv,fs,posfs_id4_im15.bmp_posfs_id11_im1.bmp,['Im_KeanuReeves.png', 'Im_OrlandoBloom.png', 'Im_RyanReynolds.png', 'Im_LeonardoDiCaprio.png', 'Im_GeorgeClooney.png', 'Im_RobertPattinson.png', 'Im_DanielRadcliffe.png', 'Im_DanielCraig.png', 'Im_HughJackman.png', 'Im_RobertDowneyJr.png'],diff,1,0.41673290000107954,14,90.47619047619048,
BRMA1708,train,inv,fs,posfs_id16_im2.bmp_posfs_id16_im19.bmp,['Im_KeanuReeves.png', 'Im_OrlandoBloom.png', 'Im_RyanReynolds.png', 'Im_LeonardoDiCaprio.png', 'Im_GeorgeClooney.png', 'Im_RobertPattinson.png', 'Im_DanielRadcliffe.png', 'Im_DanielCraig.png', 'Im_HughJackman.png', 'Im_RobertDowneyJr.png'],same,1,0.4250443000000814,15,90.47619047619048,
BRMA1708,train,inv,150,pos150_id19_im8.bmp_pos150_id16_im3.bmp,['Im_KeanuReeves.png', 'Im_OrlandoBloom.png', 'Im_RyanReynolds.png', 'Im_LeonardoDiCaprio.png', 'Im_GeorgeClooney.png', 'Im_RobertPattinson.png', 'Im_DanielRadcliffe.png', 'Im_DanielCraig.png', 'Im_HughJackman.png', 'Im_RobertDowneyJr.png'],same,0,0.416817400000582,15,90.47619047619048,
BRMA1708,train,inv,60,pos60_id16_im2.bmp_pos60_id7_im15.bmp,['Im_KeanuReeves.png', 'Im_OrlandoBloom.png', 'Im_RyanReynolds.png', 'Im_LeonardoDiCaprio.png', 'Im_GeorgeClooney.png', 'Im_RobertPattinson.png', 'Im_DanielRadcliffe.png', 'Im_DanielCraig.png', 'Im_HughJackman.png', 'Im_RobertDowneyJr.png'],diff,1,0.6833166000014899,16,90.47619047619048,
BRMA1708,train,inv,90,pos90_id8_im13.bmp_pos90_id8_im20.bmp,['Im_KeanuReeves.png', 'Im_OrlandoBloom.png', 'Im_RyanReynolds.png', 'Im_LeonardoDiCaprio.png', 'Im_GeorgeClooney.png', 'Im_RobertPattinson.png', 'Im_DanielRadcliffe.png', 'Im_DanielCraig.png', 'Im_HughJackman.png', 'Im_RobertDowneyJr.png'],diff,0,0.533504000000903,16,90.47619047619048,
BRMA1708,train,inv,150,pos150_id5_im20.bmp_pos150_id18_im19.bmp,['Im_KeanuReeves.png', 'Im_OrlandoBloom.png', 'Im_RyanReynolds.png', 'Im_LeonardoDiCaprio.png', 'Im_GeorgeClooney.png', 'Im_RobertPattinson.png', 'Im_DanielRadcliffe.png', 'Im_DanielCraig.png', 'Im_HughJackman.png', 'Im_RobertDowneyJr.png'],diff,1,0.42510269999911543,17,90.47619047619048,
BRMA1708,train,inv,30,pos30_id21_im17.bmp_pos30_id21_im16.bmp,['Im_KeanuReeves.png', 'Im_OrlandoBloom.png', 'Im_RyanReynolds.png', 'Im_LeonardoDiCaprio.png', 'Im_GeorgeClooney.png', 'Im_RobertPattinson.png', 'Im_DanielRadcliffe.png', 'Im_DanielCraig.png', 'Im_HughJackman.png', 'Im_RobertDowneyJr.png'],same,1,1.0665884999998525,18,90.47619047619048,
BRMA1708,train,inv,60,pos60_id4_im20.bmp_pos60_id18_im19.bmp,['Im_KeanuReeves.png', 'Im_OrlandoBloom.png', 'Im_RyanReynolds.png', 'Im_LeonardoDiCaprio.png', 'Im_GeorgeClooney.png', 'Im_RobertPattinson.png', 'Im_DanielRadcliffe.png', 'Im_DanielCraig.png', 'Im_HughJackman.png', 'Im_RobertDowneyJr.png'],diff,1,0.5333458999994036,19,90.47619047619048,
BRMA1708,train,inv,0,pos0_id21_im16.bmp_pos0_id16_im19.bmp,['Im_KeanuReeves.png', 'Im_OrlandoBloom.png', 'Im_RyanReynolds.png', 'Im_LeonardoDiCaprio.png', 'Im_GeorgeClooney.png', 'Im_RobertPattinson.png', 'Im_DanielRadcliffe.png', 'Im_DanielCraig.png', 'Im_HughJackman.png', 'Im_RobertDowneyJr.png'],diff,1,0.40817299999980605,20,90.47619047619048,
BRMA1708,train,inv,30,pos30_id11_im1.bmp_pos30_id11_im10.bmp,['Im_KeanuReeves.png', 'Im_OrlandoBloom.png', 'Im_RyanReynolds.png', 'Im_LeonardoDiCaprio.png', 'Im_GeorgeClooney.png', 'Im_RobertPattinson.png', 'Im_DanielRadcliffe.png', 'Im_DanielCraig.png', 'Im_HughJackman.png', 'Im_RobertDowneyJr.png'],same,1,0.40845939999962866,21,90.47619047619048,
BRMA1708,train,inv,120,pos120_id8_im13.bmp_pos120_id8_im20.bmp,['Im_KeanuReeves.png', 'Im_OrlandoBloom.png', 'Im_RyanReynolds.png', 'Im_LeonardoDiCaprio.png', 'Im_GeorgeClooney.png', 'Im_RobertPattinson.png', 'Im_DanielRadcliffe.png', 'Im_DanielCraig.png', 'Im_HughJackman.png', 'Im_RobertDowneyJr.png'],same,1,0.9271365000004153,22,90.47619047619048,
BRMA1708,train,inv,120,pos120_id7_im26.bmp_pos120_id16_im19.bmp,['Im_KeanuReeves.png', 'Im_OrlandoBloom.png', 'Im_RyanReynolds.png', 'Im_LeonardoDiCaprio.png', 'Im_GeorgeClooney.png', 'Im_RobertPattinson.png', 'Im_DanielRadcliffe.png', 'Im_DanielCraig.png', 'Im_HughJackman.png', 'Im_RobertDowneyJr.png'],diff,1,1.8335407999984454,23,90.47619047619048,
BRMA1708,train,neg,90,neg90_id4_im15.bmp_neg90_id4_im20.bmp,['Im_KeanuReeves.png', 'Im_OrlandoBloom.png', 'Im_RyanReynolds.png', 'Im_LeonardoDiCaprio.png', 'Im_GeorgeClooney.png', 'Im_RobertPattinson.png', 'Im_DanielRadcliffe.png', 'Im_DanielCraig.png', 'Im_HughJackman.png', 'Im_RobertDowneyJr.png'],same,1,1.0249975999995513,24,90.47619047619048,
BRMA1708,train,neg,150,neg150_id4_im7.bmp_neg150_id4_im20.bmp,['Im_KeanuReeves.png', 'Im_OrlandoBloom.png', 'Im_RyanReynolds.png', 'Im_LeonardoDiCaprio.png', 'Im_GeorgeClooney.png', 'Im_RobertPattinson.png', 'Im_DanielRadcliffe.png', 'Im_DanielCraig.png', 'Im_HughJackman.png', 'Im_RobertDowneyJr.png'],same,1,0.4252472999996826,25,90.47619047619048,
BRMA1708,train,neg,30,neg30_id19_im4.bmp_neg30_id19_im27.bmp,['Im_KeanuReeves.png', 'Im_OrlandoBloom.png', 'Im_RyanReynolds.png', 'Im_LeonardoDiCaprio.png', 'Im_GeorgeClooney.png', 'Im_RobertPattinson.png', 'Im_DanielRadcliffe.png', 'Im_DanielCraig.png', 'Im_HughJackman.png', 'Im_RobertDowneyJr.png'],diff,0,0.899911799999245,25,90.47619047619048,
BRMA1708,train,neg,90,neg90_id4_im15.bmp_neg90_id13_im29.bmp,['Im_KeanuReeves.png', 'Im_OrlandoBloom.png', 'Im_RyanReynolds.png', 'Im_LeonardoDiCaprio.png', 'Im_GeorgeClooney.png', 'Im_RobertPattinson.png', 'Im_DanielRadcliffe.png', 'Im_DanielCraig.png', 'Im_HughJackman.png', 'Im_RobertDowneyJr.png'],diff,1,0.6003665999996883,26,90.47619047619048,
BRMA1708,train,neg,fs,negfs_id7_im26.bmp_negfs_id7_im14.bmp,['Im_KeanuReeves.png', 'Im_OrlandoBloom.png', 'Im_RyanReynolds.png', 'Im_LeonardoDiCaprio.png', 'Im_GeorgeClooney.png', 'Im_RobertPattinson.png', 'Im_DanielRadcliffe.png', 'Im_DanielCraig.png', 'Im_HughJackman.png', 'Im_RobertDowneyJr.png'],same,1,0.40832620000037423,27,90.47619047619048,
BRMA1708,train,neg,30,neg30_id18_im18.bmp_neg30_id5_im20.bmp,['Im_KeanuReeves.png', 'Im_OrlandoBloom.png', 'Im_RyanReynolds.png', 'Im_LeonardoDiCaprio.png', 'Im_GeorgeClooney.png', 'Im_RobertPattinson.png', 'Im_DanielRadcliffe.png', 'Im_DanielCraig.png', 'Im_HughJackman.png', 'Im_RobertDowneyJr.png'],diff,1,0.4913949000001594,28,90.47619047619048,
BRMA1708,train,neg,120,neg120_id4_im7.bmp_neg120_id4_im15.bmp,['Im_KeanuReeves.png', 'Im_OrlandoBloom.png', 'Im_RyanReynolds.png', 'Im_LeonardoDiCaprio.png', 'Im_GeorgeClooney.png', 'Im_RobertPattinson.png', 'Im_DanielRadcliffe.png', 'Im_DanielCraig.png', 'Im_HughJackman.png', 'Im_RobertDowneyJr.png'],same,1,0.4250501999995322,29,90.47619047619048,
BRMA1708,train,neg,fs,negfs_id18_im11.bmp_negfs_id13_im15.bmp,['Im_KeanuReeves.png', 'Im_OrlandoBloom.png', 'Im_RyanReynolds.png', 'Im_LeonardoDiCaprio.png', 'Im_GeorgeClooney.png', 'Im_RobertPattinson.png', 'Im_DanielRadcliffe.png', 'Im_DanielCraig.png', 'Im_HughJackman.png', 'Im_RobertDowneyJr.png'],diff,1,0.42504749999898195,30,90.47619047619048,
BRMA1708,train,neg,60,neg60_id21_im16.bmp_neg60_id16_im19.bmp,['Im_KeanuReeves.png', 'Im_OrlandoBloom.png', 'Im_RyanReynolds.png', 'Im_LeonardoDiCaprio.png', 'Im_GeorgeClooney.png', 'Im_RobertPattinson.png', 'Im_DanielRadcliffe.png', 'Im_DanielCraig.png', 'Im_HughJackman.png', 'Im_RobertDowneyJr.png'],diff,1,0.42487359999904584,31,90.47619047619048,
BRMA1708,train,neg,120,neg120_id18_im11.bmp_neg120_id4_im7.bmp,['Im_KeanuReeves.png', 'Im_OrlandoBloom.png', 'Im_RyanReynolds.png', 'Im_LeonardoDiCaprio.png', 'Im_GeorgeClooney.png', 'Im_RobertPattinson.png', 'Im_DanielRadcliffe.png', 'Im_DanielCraig.png', 'Im_HughJackman.png', 'Im_RobertDowneyJr.png'],diff,1,1.2418627999995806,32,90.47619047619048,
BRMA1708,train,neg,60,neg60_id13_im29.bmp_neg60_id13_im10.bmp,['Im_KeanuReeves.png', 'Im_OrlandoBloom.png', 'Im_RyanReynolds.png', 'Im_LeonardoDiCaprio.png', 'Im_GeorgeClooney.png', 'Im_RobertPattinson.png', 'Im_DanielRadcliffe.png', 'Im_DanielCraig.png', 'Im_HughJackman.png', 'Im_RobertDowneyJr.png'],same,1,0.5918591999998171,33,90.47619047619048,
BRMA1708,train,neg,0,neg0_id16_im19.bmp_neg0_id7_im26.bmp,['Im_KeanuReeves.png', 'Im_OrlandoBloom.png', 'Im_RyanReynolds.png', 'Im_LeonardoDiCaprio.png', 'Im_GeorgeClooney.png', 'Im_RobertPattinson.png', 'Im_DanielRadcliffe.png', 'Im_DanielCraig.png', 'Im_HughJackman.png', 'Im_RobertDowneyJr.png'],diff,1,1.0088611000010133,34,90.47619047619048,
BRMA1708,train,neg,150,neg150_id8_im21.bmp_neg150_id19_im4.bmp,['Im_KeanuReeves.png', 'Im_OrlandoBloom.png', 'Im_RyanReynolds.png', 'Im_LeonardoDiCaprio.png', 'Im_GeorgeClooney.png', 'Im_RobertPattinson.png', 'Im_DanielRadcliffe.png', 'Im_DanielCraig.png', 'Im_HughJackman.png', 'Im_RobertDowneyJr.png'],diff,1,0.41662020000148914,35,90.47619047619048,
BRMA1708,train,neg,0,neg0_id5_im20.bmp_neg0_id5_im1.bmp,['Im_KeanuReeves.png', 'Im_OrlandoBloom.png', 'Im_RyanReynolds.png', 'Im_LeonardoDiCaprio.png', 'Im_GeorgeClooney.png', 'Im_RobertPattinson.png', 'Im_DanielRadcliffe.png', 'Im_DanielCraig.png', 'Im_HughJackman.png', 'Im_RobertDowneyJr.png'],same,1,0.8590282000004663,36,90.47619047619048,
BRMA1708,0,neg,30,neg30_id11_im10.bmp_neg30_id11_im1.bmp,['Im_KeanuReeves.png', 'Im_OrlandoBloom.png', 'Im_RyanReynolds.png', 'Im_LeonardoDiCaprio.png', 'Im_GeorgeClooney.png', 'Im_RobertPattinson.png', 'Im_DanielRadcliffe.png', 'Im_DanielCraig.png', 'Im_HughJackman.png', 'Im_RobertDowneyJr.png'],same,1,0.42496550000032585,1,0,
BRMA1708,0,neg,150,neg150_id8_im21.bmp_neg150_id8_im13.bmp,['Im_KeanuReeves.png', 'Im_OrlandoBloom.png', 'Im_RyanReynolds.png', 'Im_LeonardoDiCaprio.png', 'Im_GeorgeClooney.png', 'Im_RobertPattinson.png', 'Im_DanielRadcliffe.png', 'Im_DanielCraig.png', 'Im_HughJackman.png', 'Im_RobertDowneyJr.png'],same,1,0.4167082999992999,2,0,
BRMA1708,0,neg,0,neg0_id8_im21.bmp_neg0_id8_im20.bmp,['Im_KeanuReeves.png', 'Im_OrlandoBloom.png', 'Im_RyanReynolds.png', 'Im_LeonardoDiCaprio.png', 'Im_GeorgeClooney.png', 'Im_RobertPattinson.png', 'Im_DanielRadcliffe.png', 'Im_DanielCraig.png', 'Im_HughJackman.png', 'Im_RobertDowneyJr.png'],same,1,0.41680690000066534,3,0,
BRMA1708,0,neg,0,neg0_id5_im1.bmp_neg0_id7_im14.bmp,['Im_KeanuReeves.png', 'Im_OrlandoBloom.png', 'Im_RyanReynolds.png', 'Im_LeonardoDiCaprio.png', 'Im_GeorgeClooney.png', 'Im_RobertPattinson.png', 'Im_DanielRadcliffe.png', 'Im_DanielCraig.png', 'Im_HughJackman.png', 'Im_RobertDowneyJr.png'],diff,1,0.4085032000002684,4,0,
BRMA1708,0,neg,120,neg120_id18_im18.bmp_neg120_id18_im19.bmp,['Im_KeanuReeves.png', 'Im_OrlandoBloom.png', 'Im_RyanReynolds.png', 'Im_LeonardoDiCaprio.png', 'Im_GeorgeClooney.png', 'Im_RobertPattinson.png', 'Im_DanielRadcliffe.png', 'Im_DanielCraig.png', 'Im_HughJackman.png', 'Im_RobertDowneyJr.png'],same,1,0.4251573000001372,5,0,
BRMA1708,0,neg,150,neg150_id19_im4.bmp_neg150_id8_im20.bmp,['Im_KeanuReeves.png', 'Im_OrlandoBloom.png', 'Im_RyanReynolds.png', 'Im_LeonardoDiCaprio.png', 'Im_GeorgeClooney.png', 'Im_RobertPattinson.png', 'Im_DanielRadcliffe.png', 'Im_DanielCraig.png', 'Im_HughJackman.png', 'Im_RobertDowneyJr.png'],diff,1,0.41678630000023986,6,0,
BRMA1708,0,neg,90,neg90_id18_im11.bmp_neg90_id4_im7.bmp,['Im_KeanuReeves.png', 'Im_OrlandoBloom.png', 'Im_RyanReynolds.png', 'Im_LeonardoDiCaprio.png', 'Im_GeorgeClooney.png', 'Im_RobertPattinson.png', 'Im_DanielRadcliffe.png', 'Im_DanielCraig.png', 'Im_HughJackman.png', 'Im_RobertDowneyJr.png'],diff,1,0.42500360000121873,7,0,
BRMA1708,0,neg,60,neg60_id21_im17.bmp_neg60_id7_im26.bmp,['Im_KeanuReeves.png', 'Im_OrlandoBloom.png', 'Im_RyanReynolds.png', 'Im_LeonardoDiCaprio.png', 'Im_GeorgeClooney.png', 'Im_RobertPattinson.png', 'Im_DanielRadcliffe.png', 'Im_DanielCraig.png', 'Im_HughJackman.png', 'Im_RobertDowneyJr.png'],diff,1,0.4083749000001262,8,0,
BRMA1708,0,neg,30,neg30_id5_im20.bmp_neg30_id5_im10.bmp,['Im_KeanuReeves.png', 'Im_OrlandoBloom.png', 'Im_RyanReynolds.png', 'Im_LeonardoDiCaprio.png', 'Im_GeorgeClooney.png', 'Im_RobertPattinson.png', 'Im_DanielRadcliffe.png', 'Im_DanielCraig.png', 'Im_HughJackman.png', 'Im_RobertDowneyJr.png'],same,1,0.42505159999927855,9,0,
BRMA1708,0,neg,60,neg60_id13_im10.bmp_neg60_id13_im15.bmp,['Im_KeanuReeves.png', 'Im_OrlandoBloom.png', 'Im_RyanReynolds.png', 'Im_LeonardoDiCaprio.png', 'Im_GeorgeClooney.png', 'Im_RobertPattinson.png', 'Im_DanielRadcliffe.png', 'Im_DanielCraig.png', 'Im_HughJackman.png', 'Im_RobertDowneyJr.png'],same,1,0.43342699999993783,10,0,
BRMA1708,0,neg,120,neg120_id13_im10.bmp_neg120_id19_im8.bmp,['Im_KeanuReeves.png', 'Im_OrlandoBloom.png', 'Im_RyanReynolds.png', 'Im_LeonardoDiCaprio.png', 'Im_GeorgeClooney.png', 'Im_RobertPattinson.png', 'Im_DanielRadcliffe.png', 'Im_DanielCraig.png', 'Im_HughJackman.png', 'Im_RobertDowneyJr.png'],diff,1,0.5167406000000483,11,0,
BRMA1708,0,neg,fs,negfs_id7_im15.bmp_negfs_id7_im26.bmp,['Im_KeanuReeves.png', 'Im_OrlandoBloom.png', 'Im_RyanReynolds.png', 'Im_LeonardoDiCaprio.png', 'Im_GeorgeClooney.png', 'Im_RobertPattinson.png', 'Im_DanielRadcliffe.png', 'Im_DanielCraig.png', 'Im_HughJackman.png', 'Im_RobertDowneyJr.png'],same,1,0.40828589999910037,12,0,
BRMA1708,0,neg,90,neg90_id11_im2.bmp_neg90_id13_im29.bmp,['Im_KeanuReeves.png', 'Im_OrlandoBloom.png', 'Im_RyanReynolds.png', 'Im_LeonardoDiCaprio.png', 'Im_GeorgeClooney.png', 'Im_RobertPattinson.png', 'Im_DanielRadcliffe.png', 'Im_DanielCraig.png', 'Im_HughJackman.png', 'Im_RobertDowneyJr.png'],diff,1,0.416789200000494,13,0,
BRMA1708,0,neg,fs,negfs_id7_im26.bmp_negfs_id21_im17.bmp,['Im_KeanuReeves.png', 'Im_OrlandoBloom.png', 'Im_RyanReynolds.png', 'Im_LeonardoDiCaprio.png', 'Im_GeorgeClooney.png', 'Im_RobertPattinson.png', 'Im_DanielRadcliffe.png', 'Im_DanielCraig.png', 'Im_HughJackman.png', 'Im_RobertDowneyJr.png'],diff,1,0.41659230000004754,14,0,
BRMA1708,1,neg,120,neg120_id16_im19.bmp_neg120_id21_im16.bmp,['Im_KeanuReeves.png', 'Im_OrlandoBloom.png', 'Im_RyanReynolds.png', 'Im_LeonardoDiCaprio.png', 'Im_GeorgeClooney.png', 'Im_RobertPattinson.png', 'Im_DanielRadcliffe.png', 'Im_DanielCraig.png', 'Im_HughJackman.png', 'Im_RobertDowneyJr.png'],diff,1,0.41663509999852977,15,0,
BRMA1708,1,neg,fs,negfs_id8_im20.bmp_negfs_id8_im13.bmp,['Im_KeanuReeves.png', 'Im_OrlandoBloom.png', 'Im_RyanReynolds.png', 'Im_LeonardoDiCaprio.png', 'Im_GeorgeClooney.png', 'Im_RobertPattinson.png', 'Im_DanielRadcliffe.png', 'Im_DanielCraig.png', 'Im_HughJackman.png', 'Im_RobertDowneyJr.png'],same,1,0.41671059999862337,16,0,
BRMA1708,1,neg,fs,negfs_id5_im1.bmp_negfs_id19_im27.bmp,['Im_KeanuReeves.png', 'Im_OrlandoBloom.png', 'Im_RyanReynolds.png', 'Im_LeonardoDiCaprio.png', 'Im_GeorgeClooney.png', 'Im_RobertPattinson.png', 'Im_DanielRadcliffe.png', 'Im_DanielCraig.png', 'Im_HughJackman.png', 'Im_RobertDowneyJr.png'],diff,1,0.4252142000004824,17,0,
BRMA1708,1,neg,0,neg0_id4_im20.bmp_neg0_id4_im7.bmp,['Im_KeanuReeves.png', 'Im_OrlandoBloom.png', 'Im_RyanReynolds.png', 'Im_LeonardoDiCaprio.png', 'Im_GeorgeClooney.png', 'Im_RobertPattinson.png', 'Im_DanielRadcliffe.png', 'Im_DanielCraig.png', 'Im_HughJackman.png', 'Im_RobertDowneyJr.png'],same,1,0.41674520000015036,18,0,
BRMA1708,1,neg,0,neg0_id5_im10.bmp_neg0_id8_im13.bmp,['Im_KeanuReeves.png', 'Im_OrlandoBloom.png', 'Im_RyanReynolds.png', 'Im_LeonardoDiCaprio.png', 'Im_GeorgeClooney.png', 'Im_RobertPattinson.png', 'Im_DanielRadcliffe.png', 'Im_DanielCraig.png', 'Im_HughJackman.png', 'Im_RobertDowneyJr.png'],diff,1,0.425027900000714,19,0,
BRMA1708,1,neg,120,neg120_id19_im8.bmp_neg120_id19_im27.bmp,['Im_KeanuReeves.png', 'Im_OrlandoBloom.png', 'Im_RyanReynolds.png', 'Im_LeonardoDiCaprio.png', 'Im_GeorgeClooney.png', 'Im_RobertPattinson.png', 'Im_DanielRadcliffe.png', 'Im_DanielCraig.png', 'Im_HughJackman.png', 'Im_RobertDowneyJr.png'],same,1,0.42511049999848183,20,0,
BRMA1708,1,neg,30,neg30_id4_im20.bmp_neg30_id4_im15.bmp,['Im_KeanuReeves.png', 'Im_OrlandoBloom.png', 'Im_RyanReynolds.png', 'Im_LeonardoDiCaprio.png', 'Im_GeorgeClooney.png', 'Im_RobertPattinson.png', 'Im_DanielRadcliffe.png', 'Im_DanielCraig.png', 'Im_HughJackman.png', 'Im_RobertDowneyJr.png'],same,1,0.8999965000002703,21,0,
BRMA1708,1,neg,90,neg90_id7_im14.bmp_neg90_id7_im26.bmp,['Im_KeanuReeves.png', 'Im_OrlandoBloom.png', 'Im_RyanReynolds.png', 'Im_LeonardoDiCaprio.png', 'Im_GeorgeClooney.png', 'Im_RobertPattinson.png', 'Im_DanielRadcliffe.png', 'Im_DanielCraig.png', 'Im_HughJackman.png', 'Im_RobertDowneyJr.png'],same,1,0.4251217999990331,22,0,
BRMA1708,1,neg,150,neg150_id8_im13.bmp_neg150_id5_im10.bmp,['Im_KeanuReeves.png', 'Im_OrlandoBloom.png', 'Im_RyanReynolds.png', 'Im_LeonardoDiCaprio.png', 'Im_GeorgeClooney.png', 'Im_RobertPattinson.png', 'Im_DanielRadcliffe.png', 'Im_DanielCraig.png', 'Im_HughJackman.png', 'Im_RobertDowneyJr.png'],diff,1,0.41661539999950037,23,0,
BRMA1708,1,neg,90,neg90_id13_im10.bmp_neg90_id13_im15.bmp,['Im_KeanuReeves.png', 'Im_OrlandoBloom.png', 'Im_RyanReynolds.png', 'Im_LeonardoDiCaprio.png', 'Im_GeorgeClooney.png', 'Im_RobertPattinson.png', 'Im_DanielRadcliffe.png', 'Im_DanielCraig.png', 'Im_HughJackman.png', 'Im_RobertDowneyJr.png'],same,1,0.408379699998477,24,0,
BRMA1708,1,neg,60,neg60_id4_im20.bmp_neg60_id4_im15.bmp,['Im_KeanuReeves.png', 'Im_OrlandoBloom.png', 'Im_RyanReynolds.png', 'Im_LeonardoDiCaprio.png', 'Im_GeorgeClooney.png', 'Im_RobertPattinson.png', 'Im_DanielRadcliffe.png', 'Im_DanielCraig.png', 'Im_HughJackman.png', 'Im_RobertDowneyJr.png'],same,1,0.41675299999951676,25,0,
BRMA1708,1,neg,150,neg150_id16_im19.bmp_neg150_id7_im26.bmp,['Im_KeanuReeves.png', 'Im_OrlandoBloom.png', 'Im_RyanReynolds.png', 'Im_LeonardoDiCaprio.png', 'Im_GeorgeClooney.png', 'Im_RobertPattinson.png', 'Im_DanielRadcliffe.png', 'Im_DanielCraig.png', 'Im_HughJackman.png', 'Im_RobertDowneyJr.png'],diff,1,0.4333654000001843,26,0,
BRMA1708,1,neg,30,neg30_id7_im26.bmp_neg30_id7_im14.bmp,['Im_KeanuReeves.png', 'Im_OrlandoBloom.png', 'Im_RyanReynolds.png', 'Im_LeonardoDiCaprio.png', 'Im_GeorgeClooney.png', 'Im_RobertPattinson.png', 'Im_DanielRadcliffe.png', 'Im_DanielCraig.png', 'Im_HughJackman.png', 'Im_RobertDowneyJr.png'],same,1,0.4084930999997596,27,0,
BRMA1708,1,neg,60,neg60_id5_im10.bmp_neg60_id21_im22.bmp,['Im_KeanuReeves.png', 'Im_OrlandoBloom.png', 'Im_RyanReynolds.png', 'Im_LeonardoDiCaprio.png', 'Im_GeorgeClooney.png', 'Im_RobertPattinson.png', 'Im_DanielRadcliffe.png', 'Im_DanielCraig.png', 'Im_HughJackman.png', 'Im_RobertDowneyJr.png'],diff,1,0.42508970000017143,28,0,
BRMA1708,2,pos,90,pos90_id5_im1.bmp_pos90_id5_im20.bmp,['Im_KeanuReeves.png', 'Im_OrlandoBloom.png', 'Im_RyanReynolds.png', 'Im_LeonardoDiCaprio.png', 'Im_GeorgeClooney.png', 'Im_RobertPattinson.png', 'Im_DanielRadcliffe.png', 'Im_DanielCraig.png', 'Im_HughJackman.png', 'Im_RobertDowneyJr.png'],same,1,0.41674439999951574,29,0,
BRMA1708,2,pos,120,pos120_id18_im18.bmp_pos120_id5_im20.bmp,['Im_KeanuReeves.png', 'Im_OrlandoBloom.png', 'Im_RyanReynolds.png', 'Im_LeonardoDiCaprio.png', 'Im_GeorgeClooney.png', 'Im_RobertPattinson.png', 'Im_DanielRadcliffe.png', 'Im_DanielCraig.png', 'Im_HughJackman.png', 'Im_RobertDowneyJr.png'],diff,1,0.4250919000005524,30,0,
BRMA1708,2,pos,30,pos30_id21_im17.bmp_pos30_id21_im16.bmp,['Im_KeanuReeves.png', 'Im_OrlandoBloom.png', 'Im_RyanReynolds.png', 'Im_LeonardoDiCaprio.png', 'Im_GeorgeClooney.png', 'Im_RobertPattinson.png', 'Im_DanielRadcliffe.png', 'Im_DanielCraig.png', 'Im_HughJackman.png', 'Im_RobertDowneyJr.png'],same,1,0.4166138000000501,31,0,
BRMA1708,2,pos,150,pos150_id11_im10.bmp_pos150_id11_im1.bmp,['Im_KeanuReeves.png', 'Im_OrlandoBloom.png', 'Im_RyanReynolds.png', 'Im_LeonardoDiCaprio.png', 'Im_GeorgeClooney.png', 'Im_RobertPattinson.png', 'Im_DanielRadcliffe.png', 'Im_DanielCraig.png', 'Im_HughJackman.png', 'Im_RobertDowneyJr.png'],same,1,0.4167292999991332,32,0,
BRMA1708,2,pos,30,pos30_id4_im7.bmp_pos30_id4_im20.bmp,['Im_KeanuReeves.png', 'Im_OrlandoBloom.png', 'Im_RyanReynolds.png', 'Im_LeonardoDiCaprio.png', 'Im_GeorgeClooney.png', 'Im_RobertPattinson.png', 'Im_DanielRadcliffe.png', 'Im_DanielCraig.png', 'Im_HughJackman.png', 'Im_RobertDowneyJr.png'],same,1,0.4085313000014139,33,0,
BRMA1708,2,pos,fs,posfs_id16_im2.bmp_posfs_id13_im10.bmp,['Im_KeanuReeves.png', 'Im_OrlandoBloom.png', 'Im_RyanReynolds.png', 'Im_LeonardoDiCaprio.png', 'Im_GeorgeClooney.png', 'Im_RobertPattinson.png', 'Im_DanielRadcliffe.png', 'Im_DanielCraig.png', 'Im_HughJackman.png', 'Im_RobertDowneyJr.png'],diff,1,0.4250704999994923,34,0,
BRMA1708,2,pos,fs,posfs_id11_im2.bmp_posfs_id11_im10.bmp,['Im_KeanuReeves.png', 'Im_OrlandoBloom.png', 'Im_RyanReynolds.png', 'Im_LeonardoDiCaprio.png', 'Im_GeorgeClooney.png', 'Im_RobertPattinson.png', 'Im_DanielRadcliffe.png', 'Im_DanielCraig.png', 'Im_HughJackman.png', 'Im_RobertDowneyJr.png'],same,1,0.5587524999991729,35,0,
BRMA1708,2,pos,0,pos0_id5_im10.bmp_pos0_id21_im22.bmp,['Im_KeanuReeves.png', 'Im_OrlandoBloom.png', 'Im_RyanReynolds.png', 'Im_LeonardoDiCaprio.png', 'Im_GeorgeClooney.png', 'Im_RobertPattinson.png', 'Im_DanielRadcliffe.png', 'Im_DanielCraig.png', 'Im_HughJackman.png', 'Im_RobertDowneyJr.png'],diff,1,0.41681659999994736,36,0,
BRMA1708,2,pos,0,pos0_id21_im16.bmp_pos0_id21_im22.bmp,['Im_KeanuReeves.png', 'Im_OrlandoBloom.png', 'Im_RyanReynolds.png', 'Im_LeonardoDiCaprio.png', 'Im_GeorgeClooney.png', 'Im_RobertPattinson.png', 'Im_DanielRadcliffe.png', 'Im_DanielCraig.png', 'Im_HughJackman.png', 'Im_RobertDowneyJr.png'],same,1,0.4335623000006308,37,0,
BRMA1708,2,pos,120,pos120_id19_im4.bmp_pos120_id19_im27.bmp,['Im_KeanuReeves.png', 'Im_OrlandoBloom.png', 'Im_RyanReynolds.png', 'Im_LeonardoDiCaprio.png', 'Im_GeorgeClooney.png', 'Im_RobertPattinson.png', 'Im_DanielRadcliffe.png', 'Im_DanielCraig.png', 'Im_HughJackman.png', 'Im_RobertDowneyJr.png'],same,1,0.4167401999984577,38,0,
BRMA1708,2,pos,150,pos150_id7_im26.bmp_pos150_id21_im17.bmp,['Im_KeanuReeves.png', 'Im_OrlandoBloom.png', 'Im_RyanReynolds.png', 'Im_LeonardoDiCaprio.png', 'Im_GeorgeClooney.png', 'Im_RobertPattinson.png', 'Im_DanielRadcliffe.png', 'Im_DanielCraig.png', 'Im_HughJackman.png', 'Im_RobertDowneyJr.png'],diff,1,0.41675560000112455,39,0,
BRMA1708,2,pos,60,pos60_id4_im7.bmp_pos60_id4_im15.bmp,['Im_KeanuReeves.png', 'Im_OrlandoBloom.png', 'Im_RyanReynolds.png', 'Im_LeonardoDiCaprio.png', 'Im_GeorgeClooney.png', 'Im_RobertPattinson.png', 'Im_DanielRadcliffe.png', 'Im_DanielCraig.png', 'Im_HughJackman.png', 'Im_RobertDowneyJr.png'],same,1,0.46659010000075796,40,0,
BRMA1708,2,pos,60,pos60_id19_im27.bmp_pos60_id5_im1.bmp,['Im_KeanuReeves.png', 'Im_OrlandoBloom.png', 'Im_RyanReynolds.png', 'Im_LeonardoDiCaprio.png', 'Im_GeorgeClooney.png', 'Im_RobertPattinson.png', 'Im_DanielRadcliffe.png', 'Im_DanielCraig.png', 'Im_HughJackman.png', 'Im_RobertDowneyJr.png'],diff,1,0.4168377000005421,41,0,
BRMA1708,2,pos,90,pos90_id11_im1.bmp_pos90_id7_im14.bmp,['Im_KeanuReeves.png', 'Im_OrlandoBloom.png', 'Im_RyanReynolds.png', 'Im_LeonardoDiCaprio.png', 'Im_GeorgeClooney.png', 'Im_RobertPattinson.png', 'Im_DanielRadcliffe.png', 'Im_DanielCraig.png', 'Im_HughJackman.png', 'Im_RobertDowneyJr.png'],diff,1,0.4503721000000951,42,0,
BRMA1708,3,inv,60,pos60_id21_im16.bmp_pos60_id16_im19.bmp,['Im_KeanuReeves.png', 'Im_OrlandoBloom.png', 'Im_RyanReynolds.png', 'Im_LeonardoDiCaprio.png', 'Im_GeorgeClooney.png', 'Im_RobertPattinson.png', 'Im_DanielRadcliffe.png', 'Im_DanielCraig.png', 'Im_HughJackman.png', 'Im_RobertDowneyJr.png'],diff,1,0.5416913999997632,1,100.0,
BRMA1708,3,inv,150,pos150_id7_im15.bmp_pos150_id21_im17.bmp,['Im_KeanuReeves.png', 'Im_OrlandoBloom.png', 'Im_RyanReynolds.png', 'Im_LeonardoDiCaprio.png', 'Im_GeorgeClooney.png', 'Im_RobertPattinson.png', 'Im_DanielRadcliffe.png', 'Im_DanielCraig.png', 'Im_HughJackman.png', 'Im_RobertDowneyJr.png'],diff,1,0.41674549999879673,2,100.0,
BRMA1708,3,inv,120,pos120_id4_im20.bmp_pos120_id11_im10.bmp,['Im_KeanuReeves.png', 'Im_OrlandoBloom.png', 'Im_RyanReynolds.png', 'Im_LeonardoDiCaprio.png', 'Im_GeorgeClooney.png', 'Im_RobertPattinson.png', 'Im_DanielRadcliffe.png', 'Im_DanielCraig.png', 'Im_HughJackman.png', 'Im_RobertDowneyJr.png'],diff,1,0.42504080000071554,3,100.0,
BRMA1708,3,inv,90,pos90_id18_im18.bmp_pos90_id5_im20.bmp,['Im_KeanuReeves.png', 'Im_OrlandoBloom.png', 'Im_RyanReynolds.png', 'Im_LeonardoDiCaprio.png', 'Im_GeorgeClooney.png', 'Im_RobertPattinson.png', 'Im_DanielRadcliffe.png', 'Im_DanielCraig.png', 'Im_HughJackman.png', 'Im_RobertDowneyJr.png'],diff,1,0.40836959999978717,4,100.0,
BRMA1708,3,inv,120,pos120_id18_im18.bmp_pos120_id18_im11.bmp,['Im_KeanuReeves.png', 'Im_OrlandoBloom.png', 'Im_RyanReynolds.png', 'Im_LeonardoDiCaprio.png', 'Im_GeorgeClooney.png', 'Im_RobertPattinson.png', 'Im_DanielRadcliffe.png', 'Im_DanielCraig.png', 'Im_HughJackman.png', 'Im_RobertDowneyJr.png'],diff,0,0.5084122999996907,4,100.0,
BRMA1708,3,inv,fs,posfs_id11_im1.bmp_posfs_id11_im10.bmp,['Im_KeanuReeves.png', 'Im_OrlandoBloom.png', 'Im_RyanReynolds.png', 'Im_LeonardoDiCaprio.png', 'Im_GeorgeClooney.png', 'Im_RobertPattinson.png', 'Im_DanielRadcliffe.png', 'Im_DanielCraig.png', 'Im_HughJackman.png', 'Im_RobertDowneyJr.png'],same,1,0.4168510999988939,5,100.0,
BRMA1708,3,inv,30,pos30_id13_im10.bmp_pos30_id16_im2.bmp,['Im_KeanuReeves.png', 'Im_OrlandoBloom.png', 'Im_RyanReynolds.png', 'Im_LeonardoDiCaprio.png', 'Im_GeorgeClooney.png', 'Im_RobertPattinson.png', 'Im_DanielRadcliffe.png', 'Im_DanielCraig.png', 'Im_HughJackman.png', 'Im_RobertDowneyJr.png'],diff,1,0.42511869999907503,6,100.0,
BRMA1708,3,inv,60,pos60_id8_im20.bmp_pos60_id21_im16.bmp,['Im_KeanuReeves.png', 'Im_OrlandoBloom.png', 'Im_RyanReynolds.png', 'Im_LeonardoDiCaprio.png', 'Im_GeorgeClooney.png', 'Im_RobertPattinson.png', 'Im_DanielRadcliffe.png', 'Im_DanielCraig.png', 'Im_HughJackman.png', 'Im_RobertDowneyJr.png'],diff,1,0.5335264000004827,7,100.0,
BRMA1708,3,inv,0,pos0_id16_im3.bmp_pos0_id8_im13.bmp,['Im_KeanuReeves.png', 'Im_OrlandoBloom.png', 'Im_RyanReynolds.png', 'Im_LeonardoDiCaprio.png', 'Im_GeorgeClooney.png', 'Im_RobertPattinson.png', 'Im_DanielRadcliffe.png', 'Im_DanielCraig.png', 'Im_HughJackman.png', 'Im_RobertDowneyJr.png'],same,0,0.4167538000001514,7,100.0,
BRMA1708,3,inv,90,pos90_id16_im3.bmp_pos90_id8_im13.bmp,['Im_KeanuReeves.png', 'Im_OrlandoBloom.png', 'Im_RyanReynolds.png', 'Im_LeonardoDiCaprio.png', 'Im_GeorgeClooney.png', 'Im_RobertPattinson.png', 'Im_DanielRadcliffe.png', 'Im_DanielCraig.png', 'Im_HughJackman.png', 'Im_RobertDowneyJr.png'],diff,1,0.40821019999930286,8,100.0,
BRMA1708,3,inv,fs,posfs_id19_im4.bmp_posfs_id19_im27.bmp,['Im_KeanuReeves.png', 'Im_OrlandoBloom.png', 'Im_RyanReynolds.png', 'Im_LeonardoDiCaprio.png', 'Im_GeorgeClooney.png', 'Im_RobertPattinson.png', 'Im_DanielRadcliffe.png', 'Im_DanielCraig.png', 'Im_HughJackman.png', 'Im_RobertDowneyJr.png'],same,1,0.4167981000009604,9,100.0,
BRMA1708,3,inv,150,pos150_id4_im7.bmp_pos150_id18_im11.bmp,['Im_KeanuReeves.png', 'Im_OrlandoBloom.png', 'Im_RyanReynolds.png', 'Im_LeonardoDiCaprio.png', 'Im_GeorgeClooney.png', 'Im_RobertPattinson.png', 'Im_DanielRadcliffe.png', 'Im_DanielCraig.png', 'Im_HughJackman.png', 'Im_RobertDowneyJr.png'],diff,1,0.40854229999968084,10,100.0,
BRMA1708,3,inv,30,pos30_id18_im18.bmp_pos30_id11_im10.bmp,['Im_KeanuReeves.png', 'Im_OrlandoBloom.png', 'Im_RyanReynolds.png', 'Im_LeonardoDiCaprio.png', 'Im_GeorgeClooney.png', 'Im_RobertPattinson.png', 'Im_DanielRadcliffe.png', 'Im_DanielCraig.png', 'Im_HughJackman.png', 'Im_RobertDowneyJr.png'],diff,1,0.4250396000006731,11,100.0,
BRMA1708,3,inv,0,pos0_id7_im26.bmp_pos0_id16_im19.bmp,['Im_KeanuReeves.png', 'Im_OrlandoBloom.png', 'Im_RyanReynolds.png', 'Im_LeonardoDiCaprio.png', 'Im_GeorgeClooney.png', 'Im_RobertPattinson.png', 'Im_DanielRadcliffe.png', 'Im_DanielCraig.png', 'Im_HughJackman.png', 'Im_RobertDowneyJr.png'],diff,1,0.9833493999994971,12,100.0,
BRMA1708,4,inv,150,pos150_id19_im27.bmp_pos150_id13_im15.bmp,['Im_KeanuReeves.png', 'Im_OrlandoBloom.png', 'Im_RyanReynolds.png', 'Im_LeonardoDiCaprio.png', 'Im_GeorgeClooney.png', 'Im_RobertPattinson.png', 'Im_DanielRadcliffe.png', 'Im_DanielCraig.png', 'Im_HughJackman.png', 'Im_RobertDowneyJr.png'],diff,1,0.483759500000815,13,100.0,
BRMA1708,4,inv,0,pos0_id16_im2.bmp_pos0_id16_im3.bmp,['Im_KeanuReeves.png', 'Im_OrlandoBloom.png', 'Im_RyanReynolds.png', 'Im_LeonardoDiCaprio.png', 'Im_GeorgeClooney.png', 'Im_RobertPattinson.png', 'Im_DanielRadcliffe.png', 'Im_DanielCraig.png', 'Im_HughJackman.png', 'Im_RobertDowneyJr.png'],diff,0,0.4250843000008899,13,100.0,
BRMA1708,4,inv,90,pos90_id16_im2.bmp_pos90_id16_im19.bmp,['Im_KeanuReeves.png', 'Im_OrlandoBloom.png', 'Im_RyanReynolds.png', 'Im_LeonardoDiCaprio.png', 'Im_GeorgeClooney.png', 'Im_RobertPattinson.png', 'Im_DanielRadcliffe.png', 'Im_DanielCraig.png', 'Im_HughJackman.png', 'Im_RobertDowneyJr.png'],same,1,0.48343430000022636,14,100.0,
BRMA1708,4,inv,0,pos0_id7_im26.bmp_pos0_id21_im17.bmp,['Im_KeanuReeves.png', 'Im_OrlandoBloom.png', 'Im_RyanReynolds.png', 'Im_LeonardoDiCaprio.png', 'Im_GeorgeClooney.png', 'Im_RobertPattinson.png', 'Im_DanielRadcliffe.png', 'Im_DanielCraig.png', 'Im_HughJackman.png', 'Im_RobertDowneyJr.png'],diff,1,0.4169419999998354,15,100.0,
BRMA1708,4,inv,60,pos60_id18_im11.bmp_pos60_id13_im15.bmp,['Im_KeanuReeves.png', 'Im_OrlandoBloom.png', 'Im_RyanReynolds.png', 'Im_LeonardoDiCaprio.png', 'Im_GeorgeClooney.png', 'Im_RobertPattinson.png', 'Im_DanielRadcliffe.png', 'Im_DanielCraig.png', 'Im_HughJackman.png', 'Im_RobertDowneyJr.png'],diff,1,0.41672330000074,16,100.0,
BRMA1708,4,inv,fs,posfs_id21_im16.bmp_posfs_id21_im17.bmp,['Im_KeanuReeves.png', 'Im_OrlandoBloom.png', 'Im_RyanReynolds.png', 'Im_LeonardoDiCaprio.png', 'Im_GeorgeClooney.png', 'Im_RobertPattinson.png', 'Im_DanielRadcliffe.png', 'Im_DanielCraig.png', 'Im_HughJackman.png', 'Im_RobertDowneyJr.png'],same,1,0.4166287999996712,17,100.0,
BRMA1708,4,inv,fs,posfs_id11_im10.bmp_posfs_id18_im18.bmp,['Im_KeanuReeves.png', 'Im_OrlandoBloom.png', 'Im_RyanReynolds.png', 'Im_LeonardoDiCaprio.png', 'Im_GeorgeClooney.png', 'Im_RobertPattinson.png', 'Im_DanielRadcliffe.png', 'Im_DanielCraig.png', 'Im_HughJackman.png', 'Im_RobertDowneyJr.png'],diff,1,0.4165911000000051,18,100.0,
BRMA1708,4,inv,150,pos150_id19_im8.bmp_pos150_id19_im4.bmp,['Im_KeanuReeves.png', 'Im_OrlandoBloom.png', 'Im_RyanReynolds.png', 'Im_LeonardoDiCaprio.png', 'Im_GeorgeClooney.png', 'Im_RobertPattinson.png', 'Im_DanielRadcliffe.png', 'Im_DanielCraig.png', 'Im_HughJackman.png', 'Im_RobertDowneyJr.png'],diff,0,0.4832667999999103,18,100.0,
BRMA1708,4,inv,60,pos60_id7_im15.bmp_pos60_id7_im14.bmp,['Im_KeanuReeves.png', 'Im_OrlandoBloom.png', 'Im_RyanReynolds.png', 'Im_LeonardoDiCaprio.png', 'Im_GeorgeClooney.png', 'Im_RobertPattinson.png', 'Im_DanielRadcliffe.png', 'Im_DanielCraig.png', 'Im_HughJackman.png', 'Im_RobertDowneyJr.png'],same,1,0.4250804999992397,19,100.0,
BRMA1708,4,inv,120,pos120_id13_im29.bmp_pos120_id13_im15.bmp,['Im_KeanuReeves.png', 'Im_OrlandoBloom.png', 'Im_RyanReynolds.png', 'Im_LeonardoDiCaprio.png', 'Im_GeorgeClooney.png', 'Im_RobertPattinson.png', 'Im_DanielRadcliffe.png', 'Im_DanielCraig.png', 'Im_HughJackman.png', 'Im_RobertDowneyJr.png'],same,1,0.5167421000005561,20,100.0,
BRMA1708,4,inv,30,pos30_id18_im19.bmp_pos30_id18_im11.bmp,['Im_KeanuReeves.png', 'Im_OrlandoBloom.png', 'Im_RyanReynolds.png', 'Im_LeonardoDiCaprio.png', 'Im_GeorgeClooney.png', 'Im_RobertPattinson.png', 'Im_DanielRadcliffe.png', 'Im_DanielCraig.png', 'Im_HughJackman.png', 'Im_RobertDowneyJr.png'],diff,0,0.42524910000065574,20,100.0,
BRMA1708,4,inv,120,pos120_id13_im29.bmp_pos120_id11_im2.bmp,['Im_KeanuReeves.png', 'Im_OrlandoBloom.png', 'Im_RyanReynolds.png', 'Im_LeonardoDiCaprio.png', 'Im_GeorgeClooney.png', 'Im_RobertPattinson.png', 'Im_DanielRadcliffe.png', 'Im_DanielCraig.png', 'Im_HughJackman.png', 'Im_RobertDowneyJr.png'],diff,1,0.6335106000005908,21,100.0,
BRMA1708,4,inv,90,pos90_id18_im18.bmp_pos90_id11_im10.bmp,['Im_KeanuReeves.png', 'Im_OrlandoBloom.png', 'Im_RyanReynolds.png', 'Im_LeonardoDiCaprio.png', 'Im_GeorgeClooney.png', 'Im_RobertPattinson.png', 'Im_DanielRadcliffe.png', 'Im_DanielCraig.png', 'Im_HughJackman.png', 'Im_RobertDowneyJr.png'],diff,1,0.41676279999956023,22,100.0,
BRMA1708,4,inv,30,pos30_id16_im19.bmp_pos30_id7_im26.bmp,['Im_KeanuReeves.png', 'Im_OrlandoBloom.png', 'Im_RyanReynolds.png', 'Im_LeonardoDiCaprio.png', 'Im_GeorgeClooney.png', 'Im_RobertPattinson.png', 'Im_DanielRadcliffe.png', 'Im_DanielCraig.png', 'Im_HughJackman.png', 'Im_RobertDowneyJr.png'],diff,1,0.41675240000040503,23,100.0,
BRMA1708,5,pos,120,pos120_id8_im20.bmp_pos120_id8_im13.bmp,['Im_KeanuReeves.png', 'Im_OrlandoBloom.png', 'Im_RyanReynolds.png', 'Im_LeonardoDiCaprio.png', 'Im_GeorgeClooney.png', 'Im_RobertPattinson.png', 'Im_DanielRadcliffe.png', 'Im_DanielCraig.png', 'Im_HughJackman.png', 'Im_RobertDowneyJr.png'],same,1,0.42509529999915685,24,100.0,
BRMA1708,5,pos,120,pos120_id5_im1.bmp_pos120_id7_im14.bmp,['Im_KeanuReeves.png', 'Im_OrlandoBloom.png', 'Im_RyanReynolds.png', 'Im_LeonardoDiCaprio.png', 'Im_GeorgeClooney.png', 'Im_RobertPattinson.png', 'Im_DanielRadcliffe.png', 'Im_DanielCraig.png', 'Im_HughJackman.png', 'Im_RobertDowneyJr.png'],diff,1,0.4253966999986005,25,100.0,
BRMA1708,5,pos,0,pos0_id11_im10.bmp_pos0_id11_im1.bmp,['Im_KeanuReeves.png', 'Im_OrlandoBloom.png', 'Im_RyanReynolds.png', 'Im_LeonardoDiCaprio.png', 'Im_GeorgeClooney.png', 'Im_RobertPattinson.png', 'Im_DanielRadcliffe.png', 'Im_DanielCraig.png', 'Im_HughJackman.png', 'Im_RobertDowneyJr.png'],same,1,0.4250475999997434,26,100.0,
BRMA1708,5,pos,0,pos0_id18_im19.bmp_pos0_id4_im20.bmp,['Im_KeanuReeves.png', 'Im_OrlandoBloom.png', 'Im_RyanReynolds.png', 'Im_LeonardoDiCaprio.png', 'Im_GeorgeClooney.png', 'Im_RobertPattinson.png', 'Im_DanielRadcliffe.png', 'Im_DanielCraig.png', 'Im_HughJackman.png', 'Im_RobertDowneyJr.png'],diff,1,0.40837500000088767,27,100.0,
BRMA1708,5,pos,90,pos90_id7_im15.bmp_pos90_id7_im26.bmp,['Im_KeanuReeves.png', 'Im_OrlandoBloom.png', 'Im_RyanReynolds.png', 'Im_LeonardoDiCaprio.png', 'Im_GeorgeClooney.png', 'Im_RobertPattinson.png', 'Im_DanielRadcliffe.png', 'Im_DanielCraig.png', 'Im_HughJackman.png', 'Im_RobertDowneyJr.png'],same,1,0.40841419999924256,28,100.0,
BRMA1708,5,pos,150,pos150_id8_im13.bmp_pos150_id8_im20.bmp,['Im_KeanuReeves.png', 'Im_OrlandoBloom.png', 'Im_RyanReynolds.png', 'Im_LeonardoDiCaprio.png', 'Im_GeorgeClooney.png', 'Im_RobertPattinson.png', 'Im_DanielRadcliffe.png', 'Im_DanielCraig.png', 'Im_HughJackman.png', 'Im_RobertDowneyJr.png'],same,1,0.4167371000003186,29,100.0,
BRMA1708,5,pos,fs,posfs_id8_im13.bmp_posfs_id16_im3.bmp,['Im_KeanuReeves.png', 'Im_OrlandoBloom.png', 'Im_RyanReynolds.png', 'Im_LeonardoDiCaprio.png', 'Im_GeorgeClooney.png', 'Im_RobertPattinson.png', 'Im_DanielRadcliffe.png', 'Im_DanielCraig.png', 'Im_HughJackman.png', 'Im_RobertDowneyJr.png'],diff,1,0.41677619999973103,30,100.0,
BRMA1708,5,pos,30,pos30_id5_im10.bmp_pos30_id5_im1.bmp,['Im_KeanuReeves.png', 'Im_OrlandoBloom.png', 'Im_RyanReynolds.png', 'Im_LeonardoDiCaprio.png', 'Im_GeorgeClooney.png', 'Im_RobertPattinson.png', 'Im_DanielRadcliffe.png', 'Im_DanielCraig.png', 'Im_HughJackman.png', 'Im_RobertDowneyJr.png'],same,1,0.4164536999996926,31,100.0,
BRMA1708,5,pos,fs,posfs_id13_im29.bmp_posfs_id13_im15.bmp,['Im_KeanuReeves.png', 'Im_OrlandoBloom.png', 'Im_RyanReynolds.png', 'Im_LeonardoDiCaprio.png', 'Im_GeorgeClooney.png', 'Im_RobertPattinson.png', 'Im_DanielRadcliffe.png', 'Im_DanielCraig.png', 'Im_HughJackman.png', 'Im_RobertDowneyJr.png'],same,1,0.4165649000005942,32,100.0,
BRMA1708,5,pos,60,pos60_id7_im26.bmp_pos60_id16_im19.bmp,['Im_KeanuReeves.png', 'Im_OrlandoBloom.png', 'Im_RyanReynolds.png', 'Im_LeonardoDiCaprio.png', 'Im_GeorgeClooney.png', 'Im_RobertPattinson.png', 'Im_DanielRadcliffe.png', 'Im_DanielCraig.png', 'Im_HughJackman.png', 'Im_RobertDowneyJr.png'],diff,1,0.40845880000051693,33,100.0,
BRMA1708,5,pos,60,pos60_id7_im14.bmp_pos60_id5_im1.bmp,['Im_KeanuReeves.png', 'Im_OrlandoBloom.png', 'Im_RyanReynolds.png', 'Im_LeonardoDiCaprio.png', 'Im_GeorgeClooney.png', 'Im_RobertPattinson.png', 'Im_DanielRadcliffe.png', 'Im_DanielCraig.png', 'Im_HughJackman.png', 'Im_RobertDowneyJr.png'],diff,1,0.4165618999995786,34,100.0,
BRMA1708,5,pos,150,pos150_id8_im20.bmp_pos150_id8_im21.bmp,['Im_KeanuReeves.png', 'Im_OrlandoBloom.png', 'Im_RyanReynolds.png', 'Im_LeonardoDiCaprio.png', 'Im_GeorgeClooney.png', 'Im_RobertPattinson.png', 'Im_DanielRadcliffe.png', 'Im_DanielCraig.png', 'Im_HughJackman.png', 'Im_RobertDowneyJr.png'],same,1,1.2585810000000492,35,100.0,
BRMA1708,5,pos,90,pos90_id11_im1.bmp_pos90_id11_im2.bmp,['Im_KeanuReeves.png', 'Im_OrlandoBloom.png', 'Im_RyanReynolds.png', 'Im_LeonardoDiCaprio.png', 'Im_GeorgeClooney.png', 'Im_RobertPattinson.png', 'Im_DanielRadcliffe.png', 'Im_DanielCraig.png', 'Im_HughJackman.png', 'Im_RobertDowneyJr.png'],diff,0,0.433444000000236,35,100.0,
BRMA1708,5,pos,30,pos30_id11_im1.bmp_pos30_id4_im15.bmp,['Im_KeanuReeves.png', 'Im_OrlandoBloom.png', 'Im_RyanReynolds.png', 'Im_LeonardoDiCaprio.png', 'Im_GeorgeClooney.png', 'Im_RobertPattinson.png', 'Im_DanielRadcliffe.png', 'Im_DanielCraig.png', 'Im_HughJackman.png', 'Im_RobertDowneyJr.png'],diff,1,0.4334684000004927,36,100.0,
BRMA1708,6,neg,60,neg60_id21_im17.bmp_neg60_id21_im16.bmp,['Im_KeanuReeves.png', 'Im_OrlandoBloom.png', 'Im_RyanReynolds.png', 'Im_LeonardoDiCaprio.png', 'Im_GeorgeClooney.png', 'Im_RobertPattinson.png', 'Im_DanielRadcliffe.png', 'Im_DanielCraig.png', 'Im_HughJackman.png', 'Im_RobertDowneyJr.png'],same,1,0.43346630000087316,1,85.71428571428571,
BRMA1708,6,neg,0,neg0_id13_im15.bmp_neg0_id13_im10.bmp,['Im_KeanuReeves.png', 'Im_OrlandoBloom.png', 'Im_RyanReynolds.png', 'Im_LeonardoDiCaprio.png', 'Im_GeorgeClooney.png', 'Im_RobertPattinson.png', 'Im_DanielRadcliffe.png', 'Im_DanielCraig.png', 'Im_HughJackman.png', 'Im_RobertDowneyJr.png'],same,1,0.4166093000003457,2,85.71428571428571,
BRMA1708,6,neg,120,neg120_id16_im19.bmp_neg120_id16_im2.bmp,['Im_KeanuReeves.png', 'Im_OrlandoBloom.png', 'Im_RyanReynolds.png', 'Im_LeonardoDiCaprio.png', 'Im_GeorgeClooney.png', 'Im_RobertPattinson.png', 'Im_DanielRadcliffe.png', 'Im_DanielCraig.png', 'Im_HughJackman.png', 'Im_RobertDowneyJr.png'],same,1,0.43350329999884707,3,85.71428571428571,
BRMA1708,6,neg,90,neg90_id5_im20.bmp_neg90_id18_im18.bmp,['Im_KeanuReeves.png', 'Im_OrlandoBloom.png', 'Im_RyanReynolds.png', 'Im_LeonardoDiCaprio.png', 'Im_GeorgeClooney.png', 'Im_RobertPattinson.png', 'Im_DanielRadcliffe.png', 'Im_DanielCraig.png', 'Im_HughJackman.png', 'Im_RobertDowneyJr.png'],diff,1,0.4252976999996463,4,85.71428571428571,
BRMA1708,6,neg,60,neg60_id18_im19.bmp_neg60_id18_im11.bmp,['Im_KeanuReeves.png', 'Im_OrlandoBloom.png', 'Im_RyanReynolds.png', 'Im_LeonardoDiCaprio.png', 'Im_GeorgeClooney.png', 'Im_RobertPattinson.png', 'Im_DanielRadcliffe.png', 'Im_DanielCraig.png', 'Im_HughJackman.png', 'Im_RobertDowneyJr.png'],same,1,0.4250458999995317,5,85.71428571428571,
BRMA1708,6,neg,120,neg120_id21_im17.bmp_neg120_id7_im26.bmp,['Im_KeanuReeves.png', 'Im_OrlandoBloom.png', 'Im_RyanReynolds.png', 'Im_LeonardoDiCaprio.png', 'Im_GeorgeClooney.png', 'Im_RobertPattinson.png', 'Im_DanielRadcliffe.png', 'Im_DanielCraig.png', 'Im_HughJackman.png', 'Im_RobertDowneyJr.png'],diff,1,0.42515330000060203,6,85.71428571428571,
BRMA1708,6,neg,fs,negfs_id5_im20.bmp_negfs_id5_im10.bmp,['Im_KeanuReeves.png', 'Im_OrlandoBloom.png', 'Im_RyanReynolds.png', 'Im_LeonardoDiCaprio.png', 'Im_GeorgeClooney.png', 'Im_RobertPattinson.png', 'Im_DanielRadcliffe.png', 'Im_DanielCraig.png', 'Im_HughJackman.png', 'Im_RobertDowneyJr.png'],same,1,0.41676249999909487,7,85.71428571428571,
BRMA1708,6,neg,90,neg90_id4_im20.bmp_neg90_id11_im10.bmp,['Im_KeanuReeves.png', 'Im_OrlandoBloom.png', 'Im_RyanReynolds.png', 'Im_LeonardoDiCaprio.png', 'Im_GeorgeClooney.png', 'Im_RobertPattinson.png', 'Im_DanielRadcliffe.png', 'Im_DanielCraig.png', 'Im_HughJackman.png', 'Im_RobertDowneyJr.png'],diff,1,0.42524559999947087,8,85.71428571428571,
BRMA1708,6,neg,0,neg0_id7_im15.bmp_neg0_id7_im26.bmp,['Im_KeanuReeves.png', 'Im_OrlandoBloom.png', 'Im_RyanReynolds.png', 'Im_LeonardoDiCaprio.png', 'Im_GeorgeClooney.png', 'Im_RobertPattinson.png', 'Im_DanielRadcliffe.png', 'Im_DanielCraig.png', 'Im_HughJackman.png', 'Im_RobertDowneyJr.png'],same,1,0.4252039999992121,9,85.71428571428571,
BRMA1708,6,neg,150,neg150_id21_im17.bmp_neg150_id21_im22.bmp,['Im_KeanuReeves.png', 'Im_OrlandoBloom.png', 'Im_RyanReynolds.png', 'Im_LeonardoDiCaprio.png', 'Im_GeorgeClooney.png', 'Im_RobertPattinson.png', 'Im_DanielRadcliffe.png', 'Im_DanielCraig.png', 'Im_HughJackman.png', 'Im_RobertDowneyJr.png'],same,1,0.42509140000038315,10,85.71428571428571,
BRMA1708,6,neg,fs,negfs_id13_im15.bmp_negfs_id19_im27.bmp,['Im_KeanuReeves.png', 'Im_OrlandoBloom.png', 'Im_RyanReynolds.png', 'Im_LeonardoDiCaprio.png', 'Im_GeorgeClooney.png', 'Im_RobertPattinson.png', 'Im_DanielRadcliffe.png', 'Im_DanielCraig.png', 'Im_HughJackman.png', 'Im_RobertDowneyJr.png'],diff,1,0.42496070000015607,11,85.71428571428571,
BRMA1708,6,neg,30,neg30_id8_im20.bmp_neg30_id19_im4.bmp,['Im_KeanuReeves.png', 'Im_OrlandoBloom.png', 'Im_RyanReynolds.png', 'Im_LeonardoDiCaprio.png', 'Im_GeorgeClooney.png', 'Im_RobertPattinson.png', 'Im_DanielRadcliffe.png', 'Im_DanielCraig.png', 'Im_HughJackman.png', 'Im_RobertDowneyJr.png'],diff,1,0.5003570999997464,12,85.71428571428571,
BRMA1708,6,neg,30,neg30_id21_im16.bmp_neg30_id8_im20.bmp,['Im_KeanuReeves.png', 'Im_OrlandoBloom.png', 'Im_RyanReynolds.png', 'Im_LeonardoDiCaprio.png', 'Im_GeorgeClooney.png', 'Im_RobertPattinson.png', 'Im_DanielRadcliffe.png', 'Im_DanielCraig.png', 'Im_HughJackman.png', 'Im_RobertDowneyJr.png'],diff,1,0.4165386999993643,13,85.71428571428571,
BRMA1708,6,neg,150,neg150_id13_im29.bmp_neg150_id11_im2.bmp,['Im_KeanuReeves.png', 'Im_OrlandoBloom.png', 'Im_RyanReynolds.png', 'Im_LeonardoDiCaprio.png', 'Im_GeorgeClooney.png', 'Im_RobertPattinson.png', 'Im_DanielRadcliffe.png', 'Im_DanielCraig.png', 'Im_HughJackman.png', 'Im_RobertDowneyJr.png'],diff,1,0.5167502999993303,14,85.71428571428571,
BRMA1708,7,inv,150,pos150_id13_im29.bmp_pos150_id13_im15.bmp,['Im_KeanuReeves.png', 'Im_OrlandoBloom.png', 'Im_RyanReynolds.png', 'Im_LeonardoDiCaprio.png', 'Im_GeorgeClooney.png', 'Im_RobertPattinson.png', 'Im_DanielRadcliffe.png', 'Im_DanielCraig.png', 'Im_HughJackman.png', 'Im_RobertDowneyJr.png'],same,1,0.42503820000092674,15,85.71428571428571,
BRMA1708,7,inv,60,pos60_id19_im8.bmp_pos60_id19_im4.bmp,['Im_KeanuReeves.png', 'Im_OrlandoBloom.png', 'Im_RyanReynolds.png', 'Im_LeonardoDiCaprio.png', 'Im_GeorgeClooney.png', 'Im_RobertPattinson.png', 'Im_DanielRadcliffe.png', 'Im_DanielCraig.png', 'Im_HughJackman.png', 'Im_RobertDowneyJr.png'],same,1,0.417036900000312,16,85.71428571428571,
BRMA1708,7,inv,120,pos120_id5_im10.bmp_pos120_id8_im13.bmp,['Im_KeanuReeves.png', 'Im_OrlandoBloom.png', 'Im_RyanReynolds.png', 'Im_LeonardoDiCaprio.png', 'Im_GeorgeClooney.png', 'Im_RobertPattinson.png', 'Im_DanielRadcliffe.png', 'Im_DanielCraig.png', 'Im_HughJackman.png', 'Im_RobertDowneyJr.png'],diff,1,0.41675129999930505,17,85.71428571428571,
BRMA1708,7,inv,fs,posfs_id21_im16.bmp_posfs_id16_im19.bmp,['Im_KeanuReeves.png', 'Im_OrlandoBloom.png', 'Im_RyanReynolds.png', 'Im_LeonardoDiCaprio.png', 'Im_GeorgeClooney.png', 'Im_RobertPattinson.png', 'Im_DanielRadcliffe.png', 'Im_DanielCraig.png', 'Im_HughJackman.png', 'Im_RobertDowneyJr.png'],diff,1,0.4250757000008889,18,85.71428571428571,
BRMA1708,7,inv,60,pos60_id5_im1.bmp_pos60_id5_im10.bmp,['Im_KeanuReeves.png', 'Im_OrlandoBloom.png', 'Im_RyanReynolds.png', 'Im_LeonardoDiCaprio.png', 'Im_GeorgeClooney.png', 'Im_RobertPattinson.png', 'Im_DanielRadcliffe.png', 'Im_DanielCraig.png', 'Im_HughJackman.png', 'Im_RobertDowneyJr.png'],same,1,0.4166963999996369,19,85.71428571428571,
BRMA1708,7,inv,0,pos0_id7_im15.bmp_pos0_id21_im17.bmp,['Im_KeanuReeves.png', 'Im_OrlandoBloom.png', 'Im_RyanReynolds.png', 'Im_LeonardoDiCaprio.png', 'Im_GeorgeClooney.png', 'Im_RobertPattinson.png', 'Im_DanielRadcliffe.png', 'Im_DanielCraig.png', 'Im_HughJackman.png', 'Im_RobertDowneyJr.png'],diff,1,0.43357689999902504,20,85.71428571428571,
BRMA1708,7,inv,30,pos30_id13_im15.bmp_pos30_id13_im10.bmp,['Im_KeanuReeves.png', 'Im_OrlandoBloom.png', 'Im_RyanReynolds.png', 'Im_LeonardoDiCaprio.png', 'Im_GeorgeClooney.png', 'Im_RobertPattinson.png', 'Im_DanielRadcliffe.png', 'Im_DanielCraig.png', 'Im_HughJackman.png', 'Im_RobertDowneyJr.png'],diff,0,0.4332587999997486,20,85.71428571428571,
BRMA1708,7,inv,120,pos120_id5_im20.bmp_pos120_id5_im1.bmp,['Im_KeanuReeves.png', 'Im_OrlandoBloom.png', 'Im_RyanReynolds.png', 'Im_LeonardoDiCaprio.png', 'Im_GeorgeClooney.png', 'Im_RobertPattinson.png', 'Im_DanielRadcliffe.png', 'Im_DanielCraig.png', 'Im_HughJackman.png', 'Im_RobertDowneyJr.png'],same,1,0.4251916000011988,21,85.71428571428571,
BRMA1708,7,inv,150,pos150_id4_im20.bmp_pos150_id18_im19.bmp,['Im_KeanuReeves.png', 'Im_OrlandoBloom.png', 'Im_RyanReynolds.png', 'Im_LeonardoDiCaprio.png', 'Im_GeorgeClooney.png', 'Im_RobertPattinson.png', 'Im_DanielRadcliffe.png', 'Im_DanielCraig.png', 'Im_HughJackman.png', 'Im_RobertDowneyJr.png'],diff,1,0.4335498999989795,22,85.71428571428571,
BRMA1708,7,inv,30,pos30_id16_im19.bmp_pos30_id21_im16.bmp,['Im_KeanuReeves.png', 'Im_OrlandoBloom.png', 'Im_RyanReynolds.png', 'Im_LeonardoDiCaprio.png', 'Im_GeorgeClooney.png', 'Im_RobertPattinson.png', 'Im_DanielRadcliffe.png', 'Im_DanielCraig.png', 'Im_HughJackman.png', 'Im_RobertDowneyJr.png'],diff,1,1.3083064000002196,23,85.71428571428571,
BRMA1708,7,inv,90,pos90_id5_im1.bmp_pos90_id5_im10.bmp,['Im_KeanuReeves.png', 'Im_OrlandoBloom.png', 'Im_RyanReynolds.png', 'Im_LeonardoDiCaprio.png', 'Im_GeorgeClooney.png', 'Im_RobertPattinson.png', 'Im_DanielRadcliffe.png', 'Im_DanielCraig.png', 'Im_HughJackman.png', 'Im_RobertDowneyJr.png'],same,1,0.42497329999969224,24,85.71428571428571,
BRMA1708,7,inv,fs,posfs_id7_im26.bmp_posfs_id16_im19.bmp,['Im_KeanuReeves.png', 'Im_OrlandoBloom.png', 'Im_RyanReynolds.png', 'Im_LeonardoDiCaprio.png', 'Im_GeorgeClooney.png', 'Im_RobertPattinson.png', 'Im_DanielRadcliffe.png', 'Im_DanielCraig.png', 'Im_HughJackman.png', 'Im_RobertDowneyJr.png'],diff,1,0.4167245999997249,25,85.71428571428571,
BRMA1708,7,inv,90,pos90_id19_im27.bmp_pos90_id19_im4.bmp,['Im_KeanuReeves.png', 'Im_OrlandoBloom.png', 'Im_RyanReynolds.png', 'Im_LeonardoDiCaprio.png', 'Im_GeorgeClooney.png', 'Im_RobertPattinson.png', 'Im_DanielRadcliffe.png', 'Im_DanielCraig.png', 'Im_HughJackman.png', 'Im_RobertDowneyJr.png'],same,1,0.4251929000001837,26,85.71428571428571,
BRMA1708,7,inv,0,pos0_id18_im11.bmp_pos0_id18_im18.bmp,['Im_KeanuReeves.png', 'Im_OrlandoBloom.png', 'Im_RyanReynolds.png', 'Im_LeonardoDiCaprio.png', 'Im_GeorgeClooney.png', 'Im_RobertPattinson.png', 'Im_DanielRadcliffe.png', 'Im_DanielCraig.png', 'Im_HughJackman.png', 'Im_RobertDowneyJr.png'],same,1,0.45838630000071134,27,85.71428571428571,
BRMA1708,8,neg,150,neg150_id5_im10.bmp_neg150_id5_im20.bmp,['Im_KeanuReeves.png', 'Im_OrlandoBloom.png', 'Im_RyanReynolds.png', 'Im_LeonardoDiCaprio.png', 'Im_GeorgeClooney.png', 'Im_RobertPattinson.png', 'Im_DanielRadcliffe.png', 'Im_DanielCraig.png', 'Im_HughJackman.png', 'Im_RobertDowneyJr.png'],same,1,0.4167907000010018,28,85.71428571428571,
BRMA1708,8,neg,150,neg150_id16_im19.bmp_neg150_id16_im3.bmp,['Im_KeanuReeves.png', 'Im_OrlandoBloom.png', 'Im_RyanReynolds.png', 'Im_LeonardoDiCaprio.png', 'Im_GeorgeClooney.png', 'Im_RobertPattinson.png', 'Im_DanielRadcliffe.png', 'Im_DanielCraig.png', 'Im_HughJackman.png', 'Im_RobertDowneyJr.png'],same,1,0.41660179999962565,29,85.71428571428571,
BRMA1708,8,neg,120,neg120_id16_im2.bmp_neg120_id7_im15.bmp,['Im_KeanuReeves.png', 'Im_OrlandoBloom.png', 'Im_RyanReynolds.png', 'Im_LeonardoDiCaprio.png', 'Im_GeorgeClooney.png', 'Im_RobertPattinson.png', 'Im_DanielRadcliffe.png', 'Im_DanielCraig.png', 'Im_HughJackman.png', 'Im_RobertDowneyJr.png'],diff,1,0.4167701999995188,30,85.71428571428571,
BRMA1708,8,neg,0,neg0_id7_im14.bmp_neg0_id7_im26.bmp,['Im_KeanuReeves.png', 'Im_OrlandoBloom.png', 'Im_RyanReynolds.png', 'Im_LeonardoDiCaprio.png', 'Im_GeorgeClooney.png', 'Im_RobertPattinson.png', 'Im_DanielRadcliffe.png', 'Im_DanielCraig.png', 'Im_HughJackman.png', 'Im_RobertDowneyJr.png'],same,1,0.41663969999899564,31,85.71428571428571,
BRMA1708,8,neg,fs,negfs_id5_im1.bmp_negfs_id7_im14.bmp,['Im_KeanuReeves.png', 'Im_OrlandoBloom.png', 'Im_RyanReynolds.png', 'Im_LeonardoDiCaprio.png', 'Im_GeorgeClooney.png', 'Im_RobertPattinson.png', 'Im_DanielRadcliffe.png', 'Im_DanielCraig.png', 'Im_HughJackman.png', 'Im_RobertDowneyJr.png'],diff,1,0.41675000000032014,32,85.71428571428571,
BRMA1708,8,neg,90,neg90_id5_im10.bmp_neg90_id8_im13.bmp,['Im_KeanuReeves.png', 'Im_OrlandoBloom.png', 'Im_RyanReynolds.png', 'Im_LeonardoDiCaprio.png', 'Im_GeorgeClooney.png', 'Im_RobertPattinson.png', 'Im_DanielRadcliffe.png', 'Im_DanielCraig.png', 'Im_HughJackman.png', 'Im_RobertDowneyJr.png'],same,0,0.5833390999996482,32,85.71428571428571,
BRMA1708,8,neg,60,neg60_id8_im20.bmp_neg60_id8_im13.bmp,['Im_KeanuReeves.png', 'Im_OrlandoBloom.png', 'Im_RyanReynolds.png', 'Im_LeonardoDiCaprio.png', 'Im_GeorgeClooney.png', 'Im_RobertPattinson.png', 'Im_DanielRadcliffe.png', 'Im_DanielCraig.png', 'Im_HughJackman.png', 'Im_RobertDowneyJr.png'],same,1,0.4250088999997388,33,85.71428571428571,
BRMA1708,8,neg,90,neg90_id5_im1.bmp_neg90_id5_im20.bmp,['Im_KeanuReeves.png', 'Im_OrlandoBloom.png', 'Im_RyanReynolds.png', 'Im_LeonardoDiCaprio.png', 'Im_GeorgeClooney.png', 'Im_RobertPattinson.png', 'Im_DanielRadcliffe.png', 'Im_DanielCraig.png', 'Im_HughJackman.png', 'Im_RobertDowneyJr.png'],same,1,0.41676189999998314,34,85.71428571428571,
BRMA1708,8,neg,fs,negfs_id16_im3.bmp_negfs_id16_im2.bmp,['Im_KeanuReeves.png', 'Im_OrlandoBloom.png', 'Im_RyanReynolds.png', 'Im_LeonardoDiCaprio.png', 'Im_GeorgeClooney.png', 'Im_RobertPattinson.png', 'Im_DanielRadcliffe.png', 'Im_DanielCraig.png', 'Im_HughJackman.png', 'Im_RobertDowneyJr.png'],same,1,0.7003549999990355,35,85.71428571428571,
BRMA1708,8,neg,30,neg30_id5_im1.bmp_neg30_id5_im20.bmp,['Im_KeanuReeves.png', 'Im_OrlandoBloom.png', 'Im_RyanReynolds.png', 'Im_LeonardoDiCaprio.png', 'Im_GeorgeClooney.png', 'Im_RobertPattinson.png', 'Im_DanielRadcliffe.png', 'Im_DanielCraig.png', 'Im_HughJackman.png', 'Im_RobertDowneyJr.png'],same,1,0.416794700000537,36,85.71428571428571,
BRMA1708,8,neg,0,neg0_id16_im2.bmp_neg0_id16_im19.bmp,['Im_KeanuReeves.png', 'Im_OrlandoBloom.png', 'Im_RyanReynolds.png', 'Im_LeonardoDiCaprio.png', 'Im_GeorgeClooney.png', 'Im_RobertPattinson.png', 'Im_DanielRadcliffe.png', 'Im_DanielCraig.png', 'Im_HughJackman.png', 'Im_RobertDowneyJr.png'],same,1,0.42509749999953783,37,85.71428571428571,
BRMA1708,8,neg,60,neg60_id16_im19.bmp_neg60_id16_im2.bmp,['Im_KeanuReeves.png', 'Im_OrlandoBloom.png', 'Im_RyanReynolds.png', 'Im_LeonardoDiCaprio.png', 'Im_GeorgeClooney.png', 'Im_RobertPattinson.png', 'Im_DanielRadcliffe.png', 'Im_DanielCraig.png', 'Im_HughJackman.png', 'Im_RobertDowneyJr.png'],same,1,0.41675539999960165,38,85.71428571428571,
BRMA1708,8,neg,30,neg30_id11_im10.bmp_neg30_id4_im20.bmp,['Im_KeanuReeves.png', 'Im_OrlandoBloom.png', 'Im_RyanReynolds.png', 'Im_LeonardoDiCaprio.png', 'Im_GeorgeClooney.png', 'Im_RobertPattinson.png', 'Im_DanielRadcliffe.png', 'Im_DanielCraig.png', 'Im_HughJackman.png', 'Im_RobertDowneyJr.png'],diff,1,0.5337371000005078,39,85.71428571428571,
BRMA1708,8,neg,120,neg120_id8_im20.bmp_neg120_id21_im16.bmp,['Im_KeanuReeves.png', 'Im_OrlandoBloom.png', 'Im_RyanReynolds.png', 'Im_LeonardoDiCaprio.png', 'Im_GeorgeClooney.png', 'Im_RobertPattinson.png', 'Im_DanielRadcliffe.png', 'Im_DanielCraig.png', 'Im_HughJackman.png', 'Im_RobertDowneyJr.png'],diff,1,0.48360560000037367,40,85.71428571428571,
BRMA1708,9,pos,90,pos90_id19_im4.bmp_pos90_id19_im27.bmp,['Im_KeanuReeves.png', 'Im_OrlandoBloom.png', 'Im_RyanReynolds.png', 'Im_LeonardoDiCaprio.png', 'Im_GeorgeClooney.png', 'Im_RobertPattinson.png', 'Im_DanielRadcliffe.png', 'Im_DanielCraig.png', 'Im_HughJackman.png', 'Im_RobertDowneyJr.png'],diff,0,0.800152200001321,0,95.23809523809524,
BRMA1708,9,pos,120,pos120_id7_im26.bmp_pos120_id16_im19.bmp,['Im_KeanuReeves.png', 'Im_OrlandoBloom.png', 'Im_RyanReynolds.png', 'Im_LeonardoDiCaprio.png', 'Im_GeorgeClooney.png', 'Im_RobertPattinson.png', 'Im_DanielRadcliffe.png', 'Im_DanielCraig.png', 'Im_HughJackman.png', 'Im_RobertDowneyJr.png'],diff,1,1.258249299999079,1,95.23809523809524,
BRMA1708,9,pos,0,pos0_id13_im15.bmp_pos0_id19_im27.bmp,['Im_KeanuReeves.png', 'Im_OrlandoBloom.png', 'Im_RyanReynolds.png', 'Im_LeonardoDiCaprio.png', 'Im_GeorgeClooney.png', 'Im_RobertPattinson.png', 'Im_DanielRadcliffe.png', 'Im_DanielCraig.png', 'Im_HughJackman.png', 'Im_RobertDowneyJr.png'],diff,1,0.617064299998674,2,95.23809523809524,
BRMA1708,9,pos,150,pos150_id18_im11.bmp_pos150_id18_im18.bmp,['Im_KeanuReeves.png', 'Im_OrlandoBloom.png', 'Im_RyanReynolds.png', 'Im_LeonardoDiCaprio.png', 'Im_GeorgeClooney.png', 'Im_RobertPattinson.png', 'Im_DanielRadcliffe.png', 'Im_DanielCraig.png', 'Im_HughJackman.png', 'Im_RobertDowneyJr.png'],same,1,0.4083805999998731,3,95.23809523809524,
BRMA1708,9,pos,90,pos90_id13_im29.bmp_pos90_id11_im2.bmp,['Im_KeanuReeves.png', 'Im_OrlandoBloom.png', 'Im_RyanReynolds.png', 'Im_LeonardoDiCaprio.png', 'Im_GeorgeClooney.png', 'Im_RobertPattinson.png', 'Im_DanielRadcliffe.png', 'Im_DanielCraig.png', 'Im_HughJackman.png', 'Im_RobertDowneyJr.png'],diff,1,0.5335683000012068,4,95.23809523809524,
BRMA1708,9,pos,0,pos0_id11_im1.bmp_pos0_id7_im14.bmp,['Im_KeanuReeves.png', 'Im_OrlandoBloom.png', 'Im_RyanReynolds.png', 'Im_LeonardoDiCaprio.png', 'Im_GeorgeClooney.png', 'Im_RobertPattinson.png', 'Im_DanielRadcliffe.png', 'Im_DanielCraig.png', 'Im_HughJackman.png', 'Im_RobertDowneyJr.png'],diff,1,0.41699270000026445,5,95.23809523809524,
BRMA1708,9,pos,60,pos60_id19_im4.bmp_pos60_id19_im8.bmp,['Im_KeanuReeves.png', 'Im_OrlandoBloom.png', 'Im_RyanReynolds.png', 'Im_LeonardoDiCaprio.png', 'Im_GeorgeClooney.png', 'Im_RobertPattinson.png', 'Im_DanielRadcliffe.png', 'Im_DanielCraig.png', 'Im_HughJackman.png', 'Im_RobertDowneyJr.png'],same,1,0.4167682999996032,6,95.23809523809524,
BRMA1708,9,pos,30,pos30_id16_im2.bmp_pos30_id7_im15.bmp,['Im_KeanuReeves.png', 'Im_OrlandoBloom.png', 'Im_RyanReynolds.png', 'Im_LeonardoDiCaprio.png', 'Im_GeorgeClooney.png', 'Im_RobertPattinson.png', 'Im_DanielRadcliffe.png', 'Im_DanielCraig.png', 'Im_HughJackman.png', 'Im_RobertDowneyJr.png'],diff,1,1.1084125000015774,7,95.23809523809524,
BRMA1708,9,pos,120,pos120_id8_im20.bmp_pos120_id21_im16.bmp,['Im_KeanuReeves.png', 'Im_OrlandoBloom.png', 'Im_RyanReynolds.png', 'Im_LeonardoDiCaprio.png', 'Im_GeorgeClooney.png', 'Im_RobertPattinson.png', 'Im_DanielRadcliffe.png', 'Im_DanielCraig.png', 'Im_HughJackman.png', 'Im_RobertDowneyJr.png'],diff,1,0.8834205999992264,8,95.23809523809524,
BRMA1708,9,pos,150,pos150_id21_im17.bmp_pos150_id21_im16.bmp,['Im_KeanuReeves.png', 'Im_OrlandoBloom.png', 'Im_RyanReynolds.png', 'Im_LeonardoDiCaprio.png', 'Im_GeorgeClooney.png', 'Im_RobertPattinson.png', 'Im_DanielRadcliffe.png', 'Im_DanielCraig.png', 'Im_HughJackman.png', 'Im_RobertDowneyJr.png'],same,1,0.7169146000014734,9,95.23809523809524,
BRMA1708,9,pos,fs,posfs_id4_im15.bmp_posfs_id11_im1.bmp,['Im_KeanuReeves.png', 'Im_OrlandoBloom.png', 'Im_RyanReynolds.png', 'Im_LeonardoDiCaprio.png', 'Im_GeorgeClooney.png', 'Im_RobertPattinson.png', 'Im_DanielRadcliffe.png', 'Im_DanielCraig.png', 'Im_HughJackman.png', 'Im_RobertDowneyJr.png'],diff,1,0.40826490000108606,10,95.23809523809524,
BRMA1708,9,pos,60,pos60_id5_im20.bmp_pos60_id5_im1.bmp,['Im_KeanuReeves.png', 'Im_OrlandoBloom.png', 'Im_RyanReynolds.png', 'Im_LeonardoDiCaprio.png', 'Im_GeorgeClooney.png', 'Im_RobertPattinson.png', 'Im_DanielRadcliffe.png', 'Im_DanielCraig.png', 'Im_HughJackman.png', 'Im_RobertDowneyJr.png'],same,1,0.41662320000068576,11,95.23809523809524,
BRMA1708,9,pos,fs,posfs_id11_im1.bmp_posfs_id7_im14.bmp,['Im_KeanuReeves.png', 'Im_OrlandoBloom.png', 'Im_RyanReynolds.png', 'Im_LeonardoDiCaprio.png', 'Im_GeorgeClooney.png', 'Im_RobertPattinson.png', 'Im_DanielRadcliffe.png', 'Im_DanielCraig.png', 'Im_HughJackman.png', 'Im_RobertDowneyJr.png'],diff,1,0.9582462999987911,12,95.23809523809524,
BRMA1708,9,pos,30,pos30_id8_im20.bmp_pos30_id8_im21.bmp,['Im_KeanuReeves.png', 'Im_OrlandoBloom.png', 'Im_RyanReynolds.png', 'Im_LeonardoDiCaprio.png', 'Im_GeorgeClooney.png', 'Im_RobertPattinson.png', 'Im_DanielRadcliffe.png', 'Im_DanielCraig.png', 'Im_HughJackman.png', 'Im_RobertDowneyJr.png'],same,1,0.7669034999998985,13,95.23809523809524,
BRMA1708,10,pos,120,pos120_id16_im3.bmp_pos120_id8_im13.bmp,['Im_KeanuReeves.png', 'Im_OrlandoBloom.png', 'Im_RyanReynolds.png', 'Im_LeonardoDiCaprio.png', 'Im_GeorgeClooney.png', 'Im_RobertPattinson.png', 'Im_DanielRadcliffe.png', 'Im_DanielCraig.png', 'Im_HughJackman.png', 'Im_RobertDowneyJr.png'],diff,1,0.4249483000003238,14,95.23809523809524,
BRMA1708,10,pos,150,pos150_id13_im29.bmp_pos150_id11_im2.bmp,['Im_KeanuReeves.png', 'Im_OrlandoBloom.png', 'Im_RyanReynolds.png', 'Im_LeonardoDiCaprio.png', 'Im_GeorgeClooney.png', 'Im_RobertPattinson.png', 'Im_DanielRadcliffe.png', 'Im_DanielCraig.png', 'Im_HughJackman.png', 'Im_RobertDowneyJr.png'],diff,1,1.0665210000006482,15,95.23809523809524,
BRMA1708,10,pos,150,pos150_id19_im8.bmp_pos150_id19_im4.bmp,['Im_KeanuReeves.png', 'Im_OrlandoBloom.png', 'Im_RyanReynolds.png', 'Im_LeonardoDiCaprio.png', 'Im_GeorgeClooney.png', 'Im_RobertPattinson.png', 'Im_DanielRadcliffe.png', 'Im_DanielCraig.png', 'Im_HughJackman.png', 'Im_RobertDowneyJr.png'],same,1,0.41685510000024806,16,95.23809523809524,
BRMA1708,10,pos,fs,posfs_id4_im7.bmp_posfs_id18_im11.bmp,['Im_KeanuReeves.png', 'Im_OrlandoBloom.png', 'Im_RyanReynolds.png', 'Im_LeonardoDiCaprio.png', 'Im_GeorgeClooney.png', 'Im_RobertPattinson.png', 'Im_DanielRadcliffe.png', 'Im_DanielCraig.png', 'Im_HughJackman.png', 'Im_RobertDowneyJr.png'],diff,1,0.4250448000002507,17,95.23809523809524,
BRMA1708,10,pos,60,pos60_id18_im18.bmp_pos60_id18_im11.bmp,['Im_KeanuReeves.png', 'Im_OrlandoBloom.png', 'Im_RyanReynolds.png', 'Im_LeonardoDiCaprio.png', 'Im_GeorgeClooney.png', 'Im_RobertPattinson.png', 'Im_DanielRadcliffe.png', 'Im_DanielCraig.png', 'Im_HughJackman.png', 'Im_RobertDowneyJr.png'],same,1,0.4253052000003663,18,95.23809523809524,
BRMA1708,10,pos,30,pos30_id21_im22.bmp_pos30_id21_im16.bmp,['Im_KeanuReeves.png', 'Im_OrlandoBloom.png', 'Im_RyanReynolds.png', 'Im_LeonardoDiCaprio.png', 'Im_GeorgeClooney.png', 'Im_RobertPattinson.png', 'Im_DanielRadcliffe.png', 'Im_DanielCraig.png', 'Im_HughJackman.png', 'Im_RobertDowneyJr.png'],same,1,0.41672990000006394,19,95.23809523809524,
BRMA1708,10,pos,90,pos90_id16_im3.bmp_pos90_id19_im8.bmp,['Im_KeanuReeves.png', 'Im_OrlandoBloom.png', 'Im_RyanReynolds.png', 'Im_LeonardoDiCaprio.png', 'Im_GeorgeClooney.png', 'Im_RobertPattinson.png', 'Im_DanielRadcliffe.png', 'Im_DanielCraig.png', 'Im_HughJackman.png', 'Im_RobertDowneyJr.png'],same,0,0.4251795000000129,19,95.23809523809524,
BRMA1708,10,pos,0,pos0_id4_im15.bmp_pos0_id13_im29.bmp,['Im_KeanuReeves.png', 'Im_OrlandoBloom.png', 'Im_RyanReynolds.png', 'Im_LeonardoDiCaprio.png', 'Im_GeorgeClooney.png', 'Im_RobertPattinson.png', 'Im_DanielRadcliffe.png', 'Im_DanielCraig.png', 'Im_HughJackman.png', 'Im_RobertDowneyJr.png'],diff,1,0.41679800000019895,20,95.23809523809524,
BRMA1708,10,pos,90,pos90_id7_im14.bmp_pos90_id5_im1.bmp,['Im_KeanuReeves.png', 'Im_OrlandoBloom.png', 'Im_RyanReynolds.png', 'Im_LeonardoDiCaprio.png', 'Im_GeorgeClooney.png', 'Im_RobertPattinson.png', 'Im_DanielRadcliffe.png', 'Im_DanielCraig.png', 'Im_HughJackman.png', 'Im_RobertDowneyJr.png'],diff,1,0.5500584000001254,21,95.23809523809524,
BRMA1708,10,pos,30,pos30_id11_im2.bmp_pos30_id11_im10.bmp,['Im_KeanuReeves.png', 'Im_OrlandoBloom.png', 'Im_RyanReynolds.png', 'Im_LeonardoDiCaprio.png', 'Im_GeorgeClooney.png', 'Im_RobertPattinson.png', 'Im_DanielRadcliffe.png', 'Im_DanielCraig.png', 'Im_HughJackman.png', 'Im_RobertDowneyJr.png'],same,1,0.43365500000072643,22,95.23809523809524,
BRMA1708,10,pos,120,pos120_id21_im22.bmp_pos120_id11_im2.bmp,['Im_KeanuReeves.png', 'Im_OrlandoBloom.png', 'Im_RyanReynolds.png', 'Im_LeonardoDiCaprio.png', 'Im_GeorgeClooney.png', 'Im_RobertPattinson.png', 'Im_DanielRadcliffe.png', 'Im_DanielCraig.png', 'Im_HughJackman.png', 'Im_RobertDowneyJr.png'],same,0,0.4167393000006996,22,95.23809523809524,
BRMA1708,10,pos,60,pos60_id8_im13.bmp_pos60_id16_im3.bmp,['Im_KeanuReeves.png', 'Im_OrlandoBloom.png', 'Im_RyanReynolds.png', 'Im_LeonardoDiCaprio.png', 'Im_GeorgeClooney.png', 'Im_RobertPattinson.png', 'Im_DanielRadcliffe.png', 'Im_DanielCraig.png', 'Im_HughJackman.png', 'Im_RobertDowneyJr.png'],diff,1,0.42505630000050587,23,95.23809523809524,
BRMA1708,10,pos,0,pos0_id19_im4.bmp_pos0_id8_im21.bmp,['Im_KeanuReeves.png', 'Im_OrlandoBloom.png', 'Im_RyanReynolds.png', 'Im_LeonardoDiCaprio.png', 'Im_GeorgeClooney.png', 'Im_RobertPattinson.png', 'Im_DanielRadcliffe.png', 'Im_DanielCraig.png', 'Im_HughJackman.png', 'Im_RobertDowneyJr.png'],diff,1,0.4250731000011001,24,95.23809523809524,
BRMA1708,10,pos,fs,posfs_id4_im7.bmp_posfs_id4_im15.bmp,['Im_KeanuReeves.png', 'Im_OrlandoBloom.png', 'Im_RyanReynolds.png', 'Im_LeonardoDiCaprio.png', 'Im_GeorgeClooney.png', 'Im_RobertPattinson.png', 'Im_DanielRadcliffe.png', 'Im_DanielCraig.png', 'Im_HughJackman.png', 'Im_RobertDowneyJr.png'],same,1,0.4332792999994126,25,95.23809523809524,
BRMA1708,11,inv,0,pos0_id5_im1.bmp_pos0_id5_im20.bmp,['Im_KeanuReeves.png', 'Im_OrlandoBloom.png', 'Im_RyanReynolds.png', 'Im_LeonardoDiCaprio.png', 'Im_GeorgeClooney.png', 'Im_RobertPattinson.png', 'Im_DanielRadcliffe.png', 'Im_DanielCraig.png', 'Im_HughJackman.png', 'Im_RobertDowneyJr.png'],same,1,0.4251604999990377,26,95.23809523809524,
BRMA1708,11,inv,90,pos90_id4_im15.bmp_pos90_id11_im1.bmp,['Im_KeanuReeves.png', 'Im_OrlandoBloom.png', 'Im_RyanReynolds.png', 'Im_LeonardoDiCaprio.png', 'Im_GeorgeClooney.png', 'Im_RobertPattinson.png', 'Im_DanielRadcliffe.png', 'Im_DanielCraig.png', 'Im_HughJackman.png', 'Im_RobertDowneyJr.png'],diff,1,0.48319790000095963,27,95.23809523809524,
BRMA1708,11,inv,fs,posfs_id19_im8.bmp_posfs_id13_im10.bmp,['Im_KeanuReeves.png', 'Im_OrlandoBloom.png', 'Im_RyanReynolds.png', 'Im_LeonardoDiCaprio.png', 'Im_GeorgeClooney.png', 'Im_RobertPattinson.png', 'Im_DanielRadcliffe.png', 'Im_DanielCraig.png', 'Im_HughJackman.png', 'Im_RobertDowneyJr.png'],diff,1,0.4166803999996773,28,95.23809523809524,
BRMA1708,11,inv,0,pos0_id4_im7.bmp_pos0_id4_im15.bmp,['Im_KeanuReeves.png', 'Im_OrlandoBloom.png', 'Im_RyanReynolds.png', 'Im_LeonardoDiCaprio.png', 'Im_GeorgeClooney.png', 'Im_RobertPattinson.png', 'Im_DanielRadcliffe.png', 'Im_DanielCraig.png', 'Im_HughJackman.png', 'Im_RobertDowneyJr.png'],same,1,0.5917751000015414,29,95.23809523809524,
BRMA1708,11,inv,60,pos60_id13_im15.bmp_pos60_id13_im10.bmp,['Im_KeanuReeves.png', 'Im_OrlandoBloom.png', 'Im_RyanReynolds.png', 'Im_LeonardoDiCaprio.png', 'Im_GeorgeClooney.png', 'Im_RobertPattinson.png', 'Im_DanielRadcliffe.png', 'Im_DanielCraig.png', 'Im_HughJackman.png', 'Im_RobertDowneyJr.png'],same,1,0.42502109999986715,30,95.23809523809524,
BRMA1708,11,inv,30,pos30_id21_im17.bmp_pos30_id7_im26.bmp,['Im_KeanuReeves.png', 'Im_OrlandoBloom.png', 'Im_RyanReynolds.png', 'Im_LeonardoDiCaprio.png', 'Im_GeorgeClooney.png', 'Im_RobertPattinson.png', 'Im_DanielRadcliffe.png', 'Im_DanielCraig.png', 'Im_HughJackman.png', 'Im_RobertDowneyJr.png'],diff,1,0.4750707000002876,31,95.23809523809524,
BRMA1708,11,inv,150,pos150_id19_im4.bmp_pos150_id8_im21.bmp,['Im_KeanuReeves.png', 'Im_OrlandoBloom.png', 'Im_RyanReynolds.png', 'Im_LeonardoDiCaprio.png', 'Im_GeorgeClooney.png', 'Im_RobertPattinson.png', 'Im_DanielRadcliffe.png', 'Im_DanielCraig.png', 'Im_HughJackman.png', 'Im_RobertDowneyJr.png'],diff,1,0.4334237999992183,32,95.23809523809524,
BRMA1708,11,inv,fs,posfs_id16_im19.bmp_posfs_id16_im3.bmp,['Im_KeanuReeves.png', 'Im_OrlandoBloom.png', 'Im_RyanReynolds.png', 'Im_LeonardoDiCaprio.png', 'Im_GeorgeClooney.png', 'Im_RobertPattinson.png', 'Im_DanielRadcliffe.png', 'Im_DanielCraig.png', 'Im_HughJackman.png', 'Im_RobertDowneyJr.png'],same,1,0.4167562000002363,33,95.23809523809524,
BRMA1708,11,inv,150,pos150_id5_im10.bmp_pos150_id5_im1.bmp,['Im_KeanuReeves.png', 'Im_OrlandoBloom.png', 'Im_RyanReynolds.png', 'Im_LeonardoDiCaprio.png', 'Im_GeorgeClooney.png', 'Im_RobertPattinson.png', 'Im_DanielRadcliffe.png', 'Im_DanielCraig.png', 'Im_HughJackman.png', 'Im_RobertDowneyJr.png'],same,1,1.0336160000006203,34,95.23809523809524,
BRMA1708,11,inv,90,pos90_id18_im11.bmp_pos90_id18_im19.bmp,['Im_KeanuReeves.png', 'Im_OrlandoBloom.png', 'Im_RyanReynolds.png', 'Im_LeonardoDiCaprio.png', 'Im_GeorgeClooney.png', 'Im_RobertPattinson.png', 'Im_DanielRadcliffe.png', 'Im_DanielCraig.png', 'Im_HughJackman.png', 'Im_RobertDowneyJr.png'],diff,0,1.4750710999996954,34,95.23809523809524,
BRMA1708,11,inv,30,pos30_id18_im18.bmp_pos30_id18_im11.bmp,['Im_KeanuReeves.png', 'Im_OrlandoBloom.png', 'Im_RyanReynolds.png', 'Im_LeonardoDiCaprio.png', 'Im_GeorgeClooney.png', 'Im_RobertPattinson.png', 'Im_DanielRadcliffe.png', 'Im_DanielCraig.png', 'Im_HughJackman.png', 'Im_RobertDowneyJr.png'],diff,0,0.7832412000007025,34,95.23809523809524,
BRMA1708,11,inv,120,pos120_id19_im8.bmp_pos120_id16_im3.bmp,['Im_KeanuReeves.png', 'Im_OrlandoBloom.png', 'Im_RyanReynolds.png', 'Im_LeonardoDiCaprio.png', 'Im_GeorgeClooney.png', 'Im_RobertPattinson.png', 'Im_DanielRadcliffe.png', 'Im_DanielCraig.png', 'Im_HughJackman.png', 'Im_RobertDowneyJr.png'],diff,1,0.4998998999999458,35,95.23809523809524,
BRMA1708,11,inv,60,pos60_id13_im10.bmp_pos60_id16_im2.bmp,['Im_KeanuReeves.png', 'Im_OrlandoBloom.png', 'Im_RyanReynolds.png', 'Im_LeonardoDiCaprio.png', 'Im_GeorgeClooney.png', 'Im_RobertPattinson.png', 'Im_DanielRadcliffe.png', 'Im_DanielCraig.png', 'Im_HughJackman.png', 'Im_RobertDowneyJr.png'],diff,1,0.4167869000011706,36,95.23809523809524,
BRMA1708,11,inv,120,pos120_id11_im2.bmp_pos120_id11_im1.bmp,['Im_KeanuReeves.png', 'Im_OrlandoBloom.png', 'Im_RyanReynolds.png', 'Im_LeonardoDiCaprio.png', 'Im_GeorgeClooney.png', 'Im_RobertPattinson.png', 'Im_DanielRadcliffe.png', 'Im_DanielCraig.png', 'Im_HughJackman.png', 'Im_RobertDowneyJr.png'],same,1,0.41677209999943443,37,95.23809523809524,
BRMA1708,12,neg,120,neg120_id19_im27.bmp_neg120_id13_im15.bmp,['Im_KeanuReeves.png', 'Im_OrlandoBloom.png', 'Im_RyanReynolds.png', 'Im_LeonardoDiCaprio.png', 'Im_GeorgeClooney.png', 'Im_RobertPattinson.png', 'Im_DanielRadcliffe.png', 'Im_DanielCraig.png', 'Im_HughJackman.png', 'Im_RobertDowneyJr.png'],diff,1,0.4083844999986468,1,88.0952380952381,
BRMA1708,12,neg,90,neg90_id16_im3.bmp_neg90_id8_im13.bmp,['Im_KeanuReeves.png', 'Im_OrlandoBloom.png', 'Im_RyanReynolds.png', 'Im_LeonardoDiCaprio.png', 'Im_GeorgeClooney.png', 'Im_RobertPattinson.png', 'Im_DanielRadcliffe.png', 'Im_DanielCraig.png', 'Im_HughJackman.png', 'Im_RobertDowneyJr.png'],diff,1,0.7419205000005604,2,88.0952380952381,
BRMA1708,12,neg,fs,negfs_id4_im15.bmp_negfs_id4_im7.bmp,['Im_KeanuReeves.png', 'Im_OrlandoBloom.png', 'Im_RyanReynolds.png', 'Im_LeonardoDiCaprio.png', 'Im_GeorgeClooney.png', 'Im_RobertPattinson.png', 'Im_DanielRadcliffe.png', 'Im_DanielCraig.png', 'Im_HughJackman.png', 'Im_RobertDowneyJr.png'],same,1,0.41682199999922886,3,88.0952380952381,
BRMA1708,12,neg,90,neg90_id18_im19.bmp_neg90_id18_im18.bmp,['Im_KeanuReeves.png', 'Im_OrlandoBloom.png', 'Im_RyanReynolds.png', 'Im_LeonardoDiCaprio.png', 'Im_GeorgeClooney.png', 'Im_RobertPattinson.png', 'Im_DanielRadcliffe.png', 'Im_DanielCraig.png', 'Im_HughJackman.png', 'Im_RobertDowneyJr.png'],diff,0,0.46686419999969075,3,88.0952380952381,
BRMA1708,12,neg,150,neg150_id8_im20.bmp_neg150_id21_im16.bmp,['Im_KeanuReeves.png', 'Im_OrlandoBloom.png', 'Im_RyanReynolds.png', 'Im_LeonardoDiCaprio.png', 'Im_GeorgeClooney.png', 'Im_RobertPattinson.png', 'Im_DanielRadcliffe.png', 'Im_DanielCraig.png', 'Im_HughJackman.png', 'Im_RobertDowneyJr.png'],diff,1,0.4250280999985989,4,88.0952380952381,
BRMA1708,12,neg,60,neg60_id21_im22.bmp_neg60_id21_im16.bmp,['Im_KeanuReeves.png', 'Im_OrlandoBloom.png', 'Im_RyanReynolds.png', 'Im_LeonardoDiCaprio.png', 'Im_GeorgeClooney.png', 'Im_RobertPattinson.png', 'Im_DanielRadcliffe.png', 'Im_DanielCraig.png', 'Im_HughJackman.png', 'Im_RobertDowneyJr.png'],diff,0,1.183428599999388,4,88.0952380952381,
BRMA1708,12,neg,0,neg0_id13_im29.bmp_neg0_id4_im15.bmp,['Im_KeanuReeves.png', 'Im_OrlandoBloom.png', 'Im_RyanReynolds.png', 'Im_LeonardoDiCaprio.png', 'Im_GeorgeClooney.png', 'Im_RobertPattinson.png', 'Im_DanielRadcliffe.png', 'Im_DanielCraig.png', 'Im_HughJackman.png', 'Im_RobertDowneyJr.png'],diff,1,0.4251131999990321,5,88.0952380952381,
BRMA1708,12,neg,120,neg120_id5_im20.bmp_neg120_id18_im18.bmp,['Im_KeanuReeves.png', 'Im_OrlandoBloom.png', 'Im_RyanReynolds.png', 'Im_LeonardoDiCaprio.png', 'Im_GeorgeClooney.png', 'Im_RobertPattinson.png', 'Im_DanielRadcliffe.png', 'Im_DanielCraig.png', 'Im_HughJackman.png', 'Im_RobertDowneyJr.png'],diff,1,0.46686290000070585,6,88.0952380952381,
BRMA1708,12,neg,30,neg30_id18_im18.bmp_neg30_id18_im11.bmp,['Im_KeanuReeves.png', 'Im_OrlandoBloom.png', 'Im_RyanReynolds.png', 'Im_LeonardoDiCaprio.png', 'Im_GeorgeClooney.png', 'Im_RobertPattinson.png', 'Im_DanielRadcliffe.png', 'Im_DanielCraig.png', 'Im_HughJackman.png', 'Im_RobertDowneyJr.png'],same,1,0.9585394000005181,7,88.0952380952381,
BRMA1708,12,neg,0,neg0_id21_im22.bmp_neg0_id21_im16.bmp,['Im_KeanuReeves.png', 'Im_OrlandoBloom.png', 'Im_RyanReynolds.png', 'Im_LeonardoDiCaprio.png', 'Im_GeorgeClooney.png', 'Im_RobertPattinson.png', 'Im_DanielRadcliffe.png', 'Im_DanielCraig.png', 'Im_HughJackman.png', 'Im_RobertDowneyJr.png'],same,1,0.42487619999883464,8,88.0952380952381,
BRMA1708,12,neg,60,neg60_id11_im2.bmp_neg60_id13_im29.bmp,['Im_KeanuReeves.png', 'Im_OrlandoBloom.png', 'Im_RyanReynolds.png', 'Im_LeonardoDiCaprio.png', 'Im_GeorgeClooney.png', 'Im_RobertPattinson.png', 'Im_DanielRadcliffe.png', 'Im_DanielCraig.png', 'Im_HughJackman.png', 'Im_RobertDowneyJr.png'],diff,1,0.5584706999998161,9,88.0952380952381,
BRMA1708,12,neg,30,neg30_id16_im2.bmp_neg30_id16_im3.bmp,['Im_KeanuReeves.png', 'Im_OrlandoBloom.png', 'Im_RyanReynolds.png', 'Im_LeonardoDiCaprio.png', 'Im_GeorgeClooney.png', 'Im_RobertPattinson.png', 'Im_DanielRadcliffe.png', 'Im_DanielCraig.png', 'Im_HughJackman.png', 'Im_RobertDowneyJr.png'],same,1,0.41687499999898137,10,88.0952380952381,
BRMA1708,12,neg,fs,negfs_id11_im1.bmp_negfs_id11_im2.bmp,['Im_KeanuReeves.png', 'Im_OrlandoBloom.png', 'Im_RyanReynolds.png', 'Im_LeonardoDiCaprio.png', 'Im_GeorgeClooney.png', 'Im_RobertPattinson.png', 'Im_DanielRadcliffe.png', 'Im_DanielCraig.png', 'Im_HughJackman.png', 'Im_RobertDowneyJr.png'],same,1,0.42510930000025837,11,88.0952380952381,
BRMA1708,12,neg,150,neg150_id4_im15.bmp_neg150_id4_im7.bmp,['Im_KeanuReeves.png', 'Im_OrlandoBloom.png', 'Im_RyanReynolds.png', 'Im_LeonardoDiCaprio.png', 'Im_GeorgeClooney.png', 'Im_RobertPattinson.png', 'Im_DanielRadcliffe.png', 'Im_DanielCraig.png', 'Im_HughJackman.png', 'Im_RobertDowneyJr.png'],same,1,0.42520820000027015,12,88.0952380952381,
BRMA1708,13,inv,fs,posfs_id5_im20.bmp_posfs_id18_im18.bmp,['Im_KeanuReeves.png', 'Im_OrlandoBloom.png', 'Im_RyanReynolds.png', 'Im_LeonardoDiCaprio.png', 'Im_GeorgeClooney.png', 'Im_RobertPattinson.png', 'Im_DanielRadcliffe.png', 'Im_DanielCraig.png', 'Im_HughJackman.png', 'Im_RobertDowneyJr.png'],diff,1,0.4167588000000251,13,88.0952380952381,
BRMA1708,13,inv,0,pos0_id13_im10.bmp_pos0_id13_im29.bmp,['Im_KeanuReeves.png', 'Im_OrlandoBloom.png', 'Im_RyanReynolds.png', 'Im_LeonardoDiCaprio.png', 'Im_GeorgeClooney.png', 'Im_RobertPattinson.png', 'Im_DanielRadcliffe.png', 'Im_DanielCraig.png', 'Im_HughJackman.png', 'Im_RobertDowneyJr.png'],same,1,0.6835424000000785,14,88.0952380952381,
BRMA1708,13,inv,150,pos150_id8_im13.bmp_pos150_id5_im10.bmp,['Im_KeanuReeves.png', 'Im_OrlandoBloom.png', 'Im_RyanReynolds.png', 'Im_LeonardoDiCaprio.png', 'Im_GeorgeClooney.png', 'Im_RobertPattinson.png', 'Im_DanielRadcliffe.png', 'Im_DanielCraig.png', 'Im_HughJackman.png', 'Im_RobertDowneyJr.png'],diff,1,0.4083747000004223,15,88.0952380952381,
BRMA1708,13,inv,0,pos0_id21_im17.bmp_pos0_id21_im16.bmp,['Im_KeanuReeves.png', 'Im_OrlandoBloom.png', 'Im_RyanReynolds.png', 'Im_LeonardoDiCaprio.png', 'Im_GeorgeClooney.png', 'Im_RobertPattinson.png', 'Im_DanielRadcliffe.png', 'Im_DanielCraig.png', 'Im_HughJackman.png', 'Im_RobertDowneyJr.png'],same,1,0.4085443000003579,16,88.0952380952381,
BRMA1708,13,inv,fs,posfs_id18_im11.bmp_posfs_id18_im19.bmp,['Im_KeanuReeves.png', 'Im_OrlandoBloom.png', 'Im_RyanReynolds.png', 'Im_LeonardoDiCaprio.png', 'Im_GeorgeClooney.png', 'Im_RobertPattinson.png', 'Im_DanielRadcliffe.png', 'Im_DanielCraig.png', 'Im_HughJackman.png', 'Im_RobertDowneyJr.png'],diff,0,0.41663619999962975,16,88.0952380952381,
BRMA1708,13,inv,30,pos30_id18_im18.bmp_pos30_id5_im20.bmp,['Im_KeanuReeves.png', 'Im_OrlandoBloom.png', 'Im_RyanReynolds.png', 'Im_LeonardoDiCaprio.png', 'Im_GeorgeClooney.png', 'Im_RobertPattinson.png', 'Im_DanielRadcliffe.png', 'Im_DanielCraig.png', 'Im_HughJackman.png', 'Im_RobertDowneyJr.png'],diff,1,0.4667950999992172,17,88.0952380952381,
BRMA1708,13,inv,90,pos90_id4_im7.bmp_pos90_id8_im21.bmp,['Im_KeanuReeves.png', 'Im_OrlandoBloom.png', 'Im_RyanReynolds.png', 'Im_LeonardoDiCaprio.png', 'Im_GeorgeClooney.png', 'Im_RobertPattinson.png', 'Im_DanielRadcliffe.png', 'Im_DanielCraig.png', 'Im_HughJackman.png', 'Im_RobertDowneyJr.png'],same,0,0.4334032999995543,17,88.0952380952381,
BRMA1708,13,inv,30,pos30_id5_im20.bmp_pos30_id5_im1.bmp,['Im_KeanuReeves.png', 'Im_OrlandoBloom.png', 'Im_RyanReynolds.png', 'Im_LeonardoDiCaprio.png', 'Im_GeorgeClooney.png', 'Im_RobertPattinson.png', 'Im_DanielRadcliffe.png', 'Im_DanielCraig.png', 'Im_HughJackman.png', 'Im_RobertDowneyJr.png'],same,1,0.4167287000000215,18,88.0952380952381,
BRMA1708,13,inv,60,pos60_id21_im17.bmp_pos60_id21_im16.bmp,['Im_KeanuReeves.png', 'Im_OrlandoBloom.png', 'Im_RyanReynolds.png', 'Im_LeonardoDiCaprio.png', 'Im_GeorgeClooney.png', 'Im_RobertPattinson.png', 'Im_DanielRadcliffe.png', 'Im_DanielCraig.png', 'Im_HughJackman.png', 'Im_RobertDowneyJr.png'],same,1,0.42499599999973725,19,88.0952380952381,
BRMA1708,13,inv,60,pos60_id5_im10.bmp_pos60_id8_im13.bmp,['Im_KeanuReeves.png', 'Im_OrlandoBloom.png', 'Im_RyanReynolds.png', 'Im_LeonardoDiCaprio.png', 'Im_GeorgeClooney.png', 'Im_RobertPattinson.png', 'Im_DanielRadcliffe.png', 'Im_DanielCraig.png', 'Im_HughJackman.png', 'Im_RobertDowneyJr.png'],diff,1,0.41686979999940377,20,88.0952380952381,
BRMA1708,13,inv,120,pos120_id4_im7.bmp_pos120_id4_im15.bmp,['Im_KeanuReeves.png', 'Im_OrlandoBloom.png', 'Im_RyanReynolds.png', 'Im_LeonardoDiCaprio.png', 'Im_GeorgeClooney.png', 'Im_RobertPattinson.png', 'Im_DanielRadcliffe.png', 'Im_DanielCraig.png', 'Im_HughJackman.png', 'Im_RobertDowneyJr.png'],diff,0,0.6171458999997412,20,88.0952380952381,
BRMA1708,13,inv,150,pos150_id8_im13.bmp_pos150_id16_im3.bmp,['Im_KeanuReeves.png', 'Im_OrlandoBloom.png', 'Im_RyanReynolds.png', 'Im_LeonardoDiCaprio.png', 'Im_GeorgeClooney.png', 'Im_RobertPattinson.png', 'Im_DanielRadcliffe.png', 'Im_DanielCraig.png', 'Im_HughJackman.png', 'Im_RobertDowneyJr.png'],diff,1,0.9838025000008201,21,88.0952380952381,
BRMA1708,13,inv,90,pos90_id19_im8.bmp_pos90_id19_im27.bmp,['Im_KeanuReeves.png', 'Im_OrlandoBloom.png', 'Im_RyanReynolds.png', 'Im_LeonardoDiCaprio.png', 'Im_GeorgeClooney.png', 'Im_RobertPattinson.png', 'Im_DanielRadcliffe.png', 'Im_DanielCraig.png', 'Im_HughJackman.png', 'Im_RobertDowneyJr.png'],same,1,0.4167569999990519,22,88.0952380952381,
BRMA1708,13,inv,120,pos120_id4_im20.bmp_pos120_id4_im15.bmp,['Im_KeanuReeves.png', 'Im_OrlandoBloom.png', 'Im_RyanReynolds.png', 'Im_LeonardoDiCaprio.png', 'Im_GeorgeClooney.png', 'Im_RobertPattinson.png', 'Im_DanielRadcliffe.png', 'Im_DanielCraig.png', 'Im_HughJackman.png', 'Im_RobertDowneyJr.png'],same,1,0.6248247000003175,23,88.0952380952381,
BRMA1708,14,pos,fs,posfs_id4_im15.bmp_posfs_id4_im20.bmp,['Im_KeanuReeves.png', 'Im_OrlandoBloom.png', 'Im_RyanReynolds.png', 'Im_LeonardoDiCaprio.png', 'Im_GeorgeClooney.png', 'Im_RobertPattinson.png', 'Im_DanielRadcliffe.png', 'Im_DanielCraig.png', 'Im_HughJackman.png', 'Im_RobertDowneyJr.png'],same,1,0.4332528999984788,24,88.0952380952381,
BRMA1708,14,pos,150,pos150_id4_im20.bmp_pos150_id4_im15.bmp,['Im_KeanuReeves.png', 'Im_OrlandoBloom.png', 'Im_RyanReynolds.png', 'Im_LeonardoDiCaprio.png', 'Im_GeorgeClooney.png', 'Im_RobertPattinson.png', 'Im_DanielRadcliffe.png', 'Im_DanielCraig.png', 'Im_HughJackman.png', 'Im_RobertDowneyJr.png'],same,1,0.4167835999996896,25,88.0952380952381,
BRMA1708,14,pos,90,pos90_id11_im10.bmp_pos90_id4_im20.bmp,['Im_KeanuReeves.png', 'Im_OrlandoBloom.png', 'Im_RyanReynolds.png', 'Im_LeonardoDiCaprio.png', 'Im_GeorgeClooney.png', 'Im_RobertPattinson.png', 'Im_DanielRadcliffe.png', 'Im_DanielCraig.png', 'Im_HughJackman.png', 'Im_RobertDowneyJr.png'],diff,1,1.2916513000000123,26,88.0952380952381,
BRMA1708,14,pos,60,pos60_id5_im20.bmp_pos60_id18_im19.bmp,['Im_KeanuReeves.png', 'Im_OrlandoBloom.png', 'Im_RyanReynolds.png', 'Im_LeonardoDiCaprio.png', 'Im_GeorgeClooney.png', 'Im_RobertPattinson.png', 'Im_DanielRadcliffe.png', 'Im_DanielCraig.png', 'Im_HughJackman.png', 'Im_RobertDowneyJr.png'],diff,1,0.8920032000005449,27,88.0952380952381,
BRMA1708,14,pos,30,pos30_id19_im8.bmp_pos30_id13_im10.bmp,['Im_KeanuReeves.png', 'Im_OrlandoBloom.png', 'Im_RyanReynolds.png', 'Im_LeonardoDiCaprio.png', 'Im_GeorgeClooney.png', 'Im_RobertPattinson.png', 'Im_DanielRadcliffe.png', 'Im_DanielCraig.png', 'Im_HughJackman.png', 'Im_RobertDowneyJr.png'],diff,1,0.9666639000006398,28,88.0952380952381,
BRMA1708,14,pos,0,pos0_id16_im2.bmp_pos0_id13_im10.bmp,['Im_KeanuReeves.png', 'Im_OrlandoBloom.png', 'Im_RyanReynolds.png', 'Im_LeonardoDiCaprio.png', 'Im_GeorgeClooney.png', 'Im_RobertPattinson.png', 'Im_DanielRadcliffe.png', 'Im_DanielCraig.png', 'Im_HughJackman.png', 'Im_RobertDowneyJr.png'],diff,1,0.5583463000002666,29,88.0952380952381,
BRMA1708,14,pos,150,pos150_id21_im16.bmp_pos150_id21_im22.bmp,['Im_KeanuReeves.png', 'Im_OrlandoBloom.png', 'Im_RyanReynolds.png', 'Im_LeonardoDiCaprio.png', 'Im_GeorgeClooney.png', 'Im_RobertPattinson.png', 'Im_DanielRadcliffe.png', 'Im_DanielCraig.png', 'Im_HughJackman.png', 'Im_RobertDowneyJr.png'],same,1,0.42496420000134094,30,88.0952380952381,
BRMA1708,14,pos,90,pos90_id8_im13.bmp_pos90_id16_im3.bmp,['Im_KeanuReeves.png', 'Im_OrlandoBloom.png', 'Im_RyanReynolds.png', 'Im_LeonardoDiCaprio.png', 'Im_GeorgeClooney.png', 'Im_RobertPattinson.png', 'Im_DanielRadcliffe.png', 'Im_DanielCraig.png', 'Im_HughJackman.png', 'Im_RobertDowneyJr.png'],diff,1,0.5920917000003101,31,88.0952380952381,
BRMA1708,14,pos,60,pos60_id4_im20.bmp_pos60_id4_im15.bmp,['Im_KeanuReeves.png', 'Im_OrlandoBloom.png', 'Im_RyanReynolds.png', 'Im_LeonardoDiCaprio.png', 'Im_GeorgeClooney.png', 'Im_RobertPattinson.png', 'Im_DanielRadcliffe.png', 'Im_DanielCraig.png', 'Im_HughJackman.png', 'Im_RobertDowneyJr.png'],same,1,0.4167553000006592,32,88.0952380952381,
BRMA1708,14,pos,fs,posfs_id21_im17.bmp_posfs_id21_im22.bmp,['Im_KeanuReeves.png', 'Im_OrlandoBloom.png', 'Im_RyanReynolds.png', 'Im_LeonardoDiCaprio.png', 'Im_GeorgeClooney.png', 'Im_RobertPattinson.png', 'Im_DanielRadcliffe.png', 'Im_DanielCraig.png', 'Im_HughJackman.png', 'Im_RobertDowneyJr.png'],same,1,0.4084973999997601,33,88.0952380952381,
BRMA1708,14,pos,30,pos30_id8_im20.bmp_pos30_id21_im16.bmp,['Im_KeanuReeves.png', 'Im_OrlandoBloom.png', 'Im_RyanReynolds.png', 'Im_LeonardoDiCaprio.png', 'Im_GeorgeClooney.png', 'Im_RobertPattinson.png', 'Im_DanielRadcliffe.png', 'Im_DanielCraig.png', 'Im_HughJackman.png', 'Im_RobertDowneyJr.png'],diff,1,0.41672680000010587,34,88.0952380952381,
