Sujet,Trial,Condition,Filter,Imname,Actor0,Actor1,Actor2,Actor3,Actor4,Actor5,Actor6,Actor7,Actor8,Actor9,Answer,Accu,RT,Score,Scoreperc, 
BRNA1411,_,posfs_OrlandoBloom_im2.bmp,OrlandoBloom,BenAffleck,BenAffleck,RyanGosling,MattDamon,RobertDowneyJr,,,,,posfs_OrlandoBloom_im2.bmp,10.878737399999409,
BRNA1411,_,posfs_LeonardoDiCaprio_im24.bmp,LeonardoDiCaprio,DanielCraig,DanielCraig,BradPitt,PatrickDempsey,RyanGosling,,,,,posfs_LeonardoDiCaprio_im24.bmp,1.1530867999999828,
BRNA1411,_,posfs_ElijahWood_im12.bmp,ElijahWood,DanielRadcliffe,DanielRadcliffe,RobertDowneyJr,GeorgeClooney,BenStiller,,,,,posfs_ElijahWood_im12.bmp,7.1034435000001395,
BRNA1411,_,posfs_RyanGosling_im3.bmp,RyanGosling,RobertPattinson,RobertPattinson,PatrickDempsey,DanielCraig,JustinTimberlake,,,,,posfs_RyanGosling_im3.bmp,1.912688800000069,
BRNA1411,_,posfs_RobertDowneyJr_im11.bmp,RobertDowneyJr,HughJackman,HughJackman,RyanGosling,JustinTimberlake,BenStiller,,,,,posfs_RobertDowneyJr_im11.bmp,5.8739769000003434,
BRNA1411,_,posfs_LeonardoDiCaprio_im10.bmp,LeonardoDiCaprio,BenStiller,BenStiller,RyanGosling,PatrickDempsey,RobertPattinson,,,,,posfs_LeonardoDiCaprio_im10.bmp,1.404601499999444,
BRNA1411,_,posfs_MattDamon_im16.bmp,MattDamon,LeonardoDiCaprio,LeonardoDiCaprio,RyanGosling,KeanuReeves,BenStiller,,,,,4,4.809558899999502,
BRNA1411,_,posfs_RobertDowneyJr_im19.bmp,RobertDowneyJr,DanielRadcliffe,DanielRadcliffe,DanielCraig,PatrickDempsey,BenStiller,,,,,4,3.423514299999624,
BRNA1411,_,posfs_KeanuReeves_im8.bmp,KeanuReeves,BenAffleck,BenAffleck,LeonardoDiCaprio,RyanGosling,GeorgeClooney,,,,,posfs_KeanuReeves_im8.bmp,6.060773500000323,
BRNA1411,_,posfs_BenAffleck_im8.bmp,BenAffleck,OrlandoBloom,OrlandoBloom,RobertPattinson,RyanReynolds,MattDamon,,,,,4,2.0238854999997784,
BRNA1411,_,posfs_KeanuReeves_im1.bmp,KeanuReeves,LeonardoDiCaprio,LeonardoDiCaprio,BradPitt,JustinTimberlake,RobertPattinson,,,,,4,9.563810399999966,
BRNA1411,_,posfs_RobertDowneyJr_im18.bmp,RobertDowneyJr,MattDamon,MattDamon,BradPitt,GeorgeClooney,JustinTimberlake,,,,,posfs_RobertDowneyJr_im18.bmp,2.0117866000000504,
BRNA1411,_,posfs_DanielRadcliffe_im10.bmp,DanielRadcliffe,LeonardoDiCaprio,LeonardoDiCaprio,KeanuReeves,ElijahWood,MattDamon,,,,,posfs_DanielRadcliffe_im10.bmp,1.16883450000023,
BRNA1411,_,posfs_OrlandoBloom_im3.bmp,OrlandoBloom,RobertPattinson,RobertPattinson,RyanReynolds,RyanGosling,RobertDowneyJr,,,,,posfs_OrlandoBloom_im3.bmp,4.680261600000449,
BRNA1411,_,posfs_DanielCraig_im15.bmp,DanielCraig,BenAffleck,BenAffleck,MattDamon,BenStiller,HughJackman,,,,,posfs_DanielCraig_im15.bmp,3.2746806000004653,
BRNA1411,_,posfs_DanielRadcliffe_im20.bmp,DanielRadcliffe,GeorgeClooney,GeorgeClooney,ElijahWood,RobertPattinson,KeanuReeves,,,,,posfs_DanielRadcliffe_im20.bmp,1.997903999999835,
BRNA1411,_,posfs_HughJackman_im13.bmp,HughJackman,BradPitt,BradPitt,PatrickDempsey,MattDamon,RobertPattinson,,,,,4,9.571862599999804,
BRNA1411,_,posfs_BenAffleck_im24.bmp,BenAffleck,OrlandoBloom,OrlandoBloom,DanielRadcliffe,MattDamon,GeorgeClooney,,,,,4,0.7309401999991678,
BRNA1411,_,posfs_PatrickDempsey_im16.bmp,PatrickDempsey,BradPitt,BradPitt,DanielCraig,DanielRadcliffe,LeonardoDiCaprio,,,,,posfs_PatrickDempsey_im16.bmp,4.909438299999238,
BRNA1411,_,posfs_DanielCraig_im20.bmp,DanielCraig,BenStiller,BenStiller,BradPitt,LeonardoDiCaprio,OrlandoBloom,,,,,posfs_DanielCraig_im20.bmp,3.045851400000174,
BRNA1411,_,posfs_OrlandoBloom_im19.bmp,OrlandoBloom,ElijahWood,ElijahWood,DanielCraig,PatrickDempsey,LeonardoDiCaprio,,,,,4,3.2258693000003404,
BRNA1411,_,posfs_GeorgeClooney_im26.bmp,GeorgeClooney,LeonardoDiCaprio,LeonardoDiCaprio,RobertPattinson,BenAffleck,ElijahWood,,,,,posfs_GeorgeClooney_im26.bmp,1.4384989000000132,
BRNA1411,_,posfs_RobertPattinson_im8.bmp,RobertPattinson,DanielRadcliffe,DanielRadcliffe,OrlandoBloom,MattDamon,RyanGosling,,,,,posfs_RobertPattinson_im8.bmp,1.922068500000023,
BRNA1411,_,posfs_RyanReynolds_im17.bmp,RyanReynolds,PatrickDempsey,PatrickDempsey,ElijahWood,BenStiller,BradPitt,,,,,4,6.011916599999495,
BRNA1411,_,posfs_HughJackman_im18.bmp,HughJackman,LeonardoDiCaprio,LeonardoDiCaprio,BradPitt,RyanGosling,DanielRadcliffe,,,,,4,0.793567400000029,
BRNA1411,_,posfs_MattDamon_im24.bmp,MattDamon,RobertDowneyJr,RobertDowneyJr,BradPitt,HughJackman,RobertPattinson,,,,,4,0.70278640000015,
BRNA1411,_,posfs_BenStiller_im3.bmp,BenStiller,ElijahWood,ElijahWood,JustinTimberlake,BradPitt,RobertDowneyJr,,,,,4,0.8975653999996211,
BRNA1411,_,posfs_ElijahWood_im23.bmp,ElijahWood,BenAffleck,BenAffleck,RyanGosling,BenStiller,RobertDowneyJr,,,,,4,3.531793600000128,
BRNA1411,_,posfs_KeanuReeves_im10.bmp,KeanuReeves,MattDamon,MattDamon,OrlandoBloom,PatrickDempsey,LeonardoDiCaprio,,,,,posfs_KeanuReeves_im10.bmp,4.250743700000385,
BRNA1411,_,posfs_BradPitt_im14.bmp,BradPitt,MattDamon,MattDamon,DanielCraig,OrlandoBloom,LeonardoDiCaprio,,,,,posfs_BradPitt_im14.bmp,1.3920696999994107,
BRNA1411,_,posfs_RyanReynolds_im16.bmp,RyanReynolds,OrlandoBloom,OrlandoBloom,RobertPattinson,RyanGosling,LeonardoDiCaprio,,,,,2,9.343029699999533,
BRNA1411,_,posfs_LeonardoDiCaprio_im29.bmp,LeonardoDiCaprio,RobertDowneyJr,RobertDowneyJr,PatrickDempsey,OrlandoBloom,DanielCraig,,,,,posfs_LeonardoDiCaprio_im29.bmp,1.47913459999927,
BRNA1411,_,posfs_PatrickDempsey_im8.bmp,PatrickDempsey,BenStiller,BenStiller,MattDamon,BradPitt,RyanGosling,,,,,posfs_PatrickDempsey_im8.bmp,1.8338244000005943,
BRNA1411,_,posfs_PatrickDempsey_im14.bmp,PatrickDempsey,KeanuReeves,KeanuReeves,RobertDowneyJr,HughJackman,RyanReynolds,,,,,posfs_PatrickDempsey_im14.bmp,2.6776287000002412,
BRNA1411,_,posfs_RyanGosling_im25.bmp,RyanGosling,DanielCraig,DanielCraig,KeanuReeves,BradPitt,MattDamon,,,,,posfs_RyanGosling_im25.bmp,2.83368849999988,
BRNA1411,_,posfs_RobertDowneyJr_im4.bmp,RobertDowneyJr,RyanGosling,RyanGosling,BradPitt,HughJackman,ElijahWood,,,,,posfs_RobertDowneyJr_im4.bmp,3.6627871999999115,
BRNA1411,_,posfs_RobertPattinson_im30.bmp,RobertPattinson,DanielRadcliffe,DanielRadcliffe,DanielCraig,BenAffleck,JustinTimberlake,,,,,posfs_RobertPattinson_im30.bmp,1.1695154000008188,
BRNA1411,_,posfs_BenStiller_im7.bmp,BenStiller,LeonardoDiCaprio,LeonardoDiCaprio,RyanGosling,DanielCraig,PatrickDempsey,,,,,4,2.3208856999999625,
BRNA1411,_,posfs_MattDamon_im18.bmp,MattDamon,DanielCraig,DanielCraig,PatrickDempsey,DanielRadcliffe,ElijahWood,,,,,4,1.0978003999998691,
BRNA1411,_,posfs_OrlandoBloom_im30.bmp,OrlandoBloom,JustinTimberlake,JustinTimberlake,BradPitt,KeanuReeves,RyanGosling,,,,,posfs_OrlandoBloom_im30.bmp,2.4995733000005202,
BRNA1411,_,posfs_DanielCraig_im8.bmp,DanielCraig,RobertPattinson,RobertPattinson,BenAffleck,BenStiller,LeonardoDiCaprio,,,,,posfs_DanielCraig_im8.bmp,3.66156570000021,
BRNA1411,_,posfs_BenAffleck_im21.bmp,BenAffleck,RyanGosling,RyanGosling,GeorgeClooney,ElijahWood,BradPitt,,,,,4,1.6645271999996112,
BRNA1411,_,posfs_ElijahWood_im19.bmp,ElijahWood,PatrickDempsey,PatrickDempsey,RyanReynolds,BenAffleck,OrlandoBloom,,,,,3,3.0043822000006912,
BRNA1411,_,posfs_RyanGosling_im30.bmp,RyanGosling,RyanReynolds,RyanReynolds,DanielCraig,PatrickDempsey,RobertPattinson,,,,,posfs_RyanGosling_im30.bmp,1.697527799999989,
BRNA1411,_,posfs_BradPitt_im8.bmp,BradPitt,BenStiller,BenStiller,BenAffleck,OrlandoBloom,RobertPattinson,,,,,posfs_BradPitt_im8.bmp,1.0516205000003538,
BRNA1411,_,posfs_RyanGosling_im12.bmp,RyanGosling,PatrickDempsey,PatrickDempsey,RyanReynolds,BradPitt,DanielCraig,,,,,posfs_RyanGosling_im12.bmp,2.9987727999996423,
BRNA1411,_,posfs_JustinTimberlake_im1.bmp,JustinTimberlake,BenAffleck,BenAffleck,ElijahWood,PatrickDempsey,HughJackman,,,,,4,1.2760273999992933,
BRNA1411,_,posfs_ElijahWood_im18.bmp,ElijahWood,PatrickDempsey,PatrickDempsey,JustinTimberlake,RobertPattinson,RobertDowneyJr,,,,,4,5.103156999999555,
BRNA1411,_,posfs_JustinTimberlake_im17.bmp,JustinTimberlake,MattDamon,MattDamon,LeonardoDiCaprio,ElijahWood,GeorgeClooney,,,,,posfs_JustinTimberlake_im17.bmp,1.3441745000000083,
BRNA1411,_,posfs_RobertPattinson_im4.bmp,RobertPattinson,DanielRadcliffe,DanielRadcliffe,RyanGosling,MattDamon,ElijahWood,,,,,posfs_RobertPattinson_im4.bmp,0.9511656999993647,
BRNA1411,_,posfs_GeorgeClooney_im14.bmp,GeorgeClooney,KeanuReeves,KeanuReeves,LeonardoDiCaprio,PatrickDempsey,RobertPattinson,,,,,posfs_GeorgeClooney_im14.bmp,1.5997166999995898,
BRNA1411,_,posfs_RobertPattinson_im27.bmp,RobertPattinson,RyanReynolds,RyanReynolds,OrlandoBloom,MattDamon,KeanuReeves,,,,,posfs_RobertPattinson_im27.bmp,1.0846902000002956,
BRNA1411,_,posfs_KeanuReeves_im2.bmp,KeanuReeves,HughJackman,HughJackman,GeorgeClooney,RobertPattinson,BenStiller,,,,,4,8.004532799999652,
BRNA1411,_,posfs_BenAffleck_im4.bmp,BenAffleck,BenStiller,BenStiller,KeanuReeves,ElijahWood,PatrickDempsey,,,,,4,0.5964177999994718,
BRNA1411,_,posfs_JustinTimberlake_im4.bmp,JustinTimberlake,BenStiller,BenStiller,RobertDowneyJr,OrlandoBloom,PatrickDempsey,,,,,posfs_JustinTimberlake_im4.bmp,1.7024146999992809,
BRNA1411,_,posfs_BenStiller_im16.bmp,BenStiller,KeanuReeves,KeanuReeves,MattDamon,JustinTimberlake,BenAffleck,,,,,4,0.7290097000004607,
BRNA1411,_,posfs_DanielRadcliffe_im8.bmp,DanielRadcliffe,MattDamon,MattDamon,PatrickDempsey,RyanReynolds,RobertDowneyJr,,,,,posfs_DanielRadcliffe_im8.bmp,1.8898777000003975,
BRNA1411,_,posfs_RyanReynolds_im22.bmp,RyanReynolds,JustinTimberlake,JustinTimberlake,BradPitt,KeanuReeves,LeonardoDiCaprio,,,,,4,3.0109333999998853,
BRNA1411,_,posfs_DanielCraig_im7.bmp,DanielCraig,BenAffleck,BenAffleck,KeanuReeves,PatrickDempsey,DanielRadcliffe,,,,,posfs_DanielCraig_im7.bmp,2.4417380000004414,
BRNA1411,_,posfs_DanielRadcliffe_im1.bmp,DanielRadcliffe,BradPitt,BradPitt,LeonardoDiCaprio,BenStiller,RobertPattinson,,,,,posfs_DanielRadcliffe_im1.bmp,0.9892350999998598,
BRNA1411,_,posfs_LeonardoDiCaprio_im15.bmp,LeonardoDiCaprio,RobertPattinson,RobertPattinson,DanielCraig,BradPitt,DanielRadcliffe,,,,,posfs_LeonardoDiCaprio_im15.bmp,1.267886499999804,
BRNA1411,_,posfs_RyanReynolds_im3.bmp,RyanReynolds,BenAffleck,BenAffleck,DanielCraig,MattDamon,OrlandoBloom,,,,,4,6.439213999999993,
BRNA1411,_,posfs_PatrickDempsey_im9.bmp,PatrickDempsey,HughJackman,HughJackman,RobertDowneyJr,KeanuReeves,BenAffleck,,,,,posfs_PatrickDempsey_im9.bmp,2.843031399999745,
BRNA1411,_,posfs_GeorgeClooney_im15.bmp,GeorgeClooney,JustinTimberlake,JustinTimberlake,DanielRadcliffe,DanielCraig,BenAffleck,,,,,posfs_GeorgeClooney_im15.bmp,1.2315232000000833,
BRNA1411,_,posfs_GeorgeClooney_im23.bmp,GeorgeClooney,BenAffleck,BenAffleck,MattDamon,OrlandoBloom,KeanuReeves,,,,,posfs_GeorgeClooney_im23.bmp,1.772175099999913,
BRNA1411,_,posfs_BradPitt_im6.bmp,BradPitt,RyanGosling,RyanGosling,RobertDowneyJr,OrlandoBloom,HughJackman,,,,,posfs_BradPitt_im6.bmp,1.6199976000007155,
BRNA1411,_,posfs_HughJackman_im21.bmp,HughJackman,OrlandoBloom,OrlandoBloom,GeorgeClooney,RyanGosling,BradPitt,,,,,4,1.585096999999223,
BRNA1411,_,posfs_JustinTimberlake_im18.bmp,JustinTimberlake,ElijahWood,ElijahWood,RyanGosling,DanielRadcliffe,LeonardoDiCaprio,,,,,posfs_JustinTimberlake_im18.bmp,1.3438333000003695,
BRNA1411,_,posfs_BenStiller_im2.bmp,BenStiller,RobertDowneyJr,RobertDowneyJr,GeorgeClooney,DanielCraig,RyanReynolds,,,,,4,0.9267459000002418,
BRNA1411,_,posfs_MattDamon_im9.bmp,MattDamon,BradPitt,BradPitt,HughJackman,DanielCraig,LeonardoDiCaprio,,,,,4,2.476872000000185,
BRNA1411,_,posfs_BradPitt_im17.bmp,BradPitt,PatrickDempsey,PatrickDempsey,LeonardoDiCaprio,JustinTimberlake,HughJackman,,,,,posfs_BradPitt_im17.bmp,1.4668399000001955,
BRNA1411,_,posfs_HughJackman_im20.bmp,HughJackman,JustinTimberlake,JustinTimberlake,RyanReynolds,DanielCraig,OrlandoBloom,,,,,4,1.9419361999998728,
BRNA1411,train,pos,fs,posfs_id7_im14.bmp_posfs_id7_im15.bmp,['Im_RobertDowneyJr.png', 'Im_OrlandoBloom.png', 'Im_DanielCraig.png', 'Im_PatrickDempsey.png', 'Im_RobertPattinson.png', 'Im_RyanGosling.png', 'Im_GeorgeClooney.png', 'Im_DanielRadcliffe.png', 'Im_BradPitt.png', 'Im_LeonardoDiCaprio.png'],same,1,2.2751297999993767,1,0,
BRNA1411,train,pos,fs,posfs_id4_im20.bmp_posfs_id4_im7.bmp,['Im_RobertDowneyJr.png', 'Im_OrlandoBloom.png', 'Im_DanielCraig.png', 'Im_PatrickDempsey.png', 'Im_RobertPattinson.png', 'Im_RyanGosling.png', 'Im_GeorgeClooney.png', 'Im_DanielRadcliffe.png', 'Im_BradPitt.png', 'Im_LeonardoDiCaprio.png'],same,1,1.0753322999999,2,0,
BRNA1411,train,pos,fs,posfs_id5_im20.bmp_posfs_id17_im14.bmp,['Im_RobertDowneyJr.png', 'Im_OrlandoBloom.png', 'Im_DanielCraig.png', 'Im_PatrickDempsey.png', 'Im_RobertPattinson.png', 'Im_RyanGosling.png', 'Im_GeorgeClooney.png', 'Im_DanielRadcliffe.png', 'Im_BradPitt.png', 'Im_LeonardoDiCaprio.png'],diff,1,0.816865300000245,3,0,
BRNA1411,train,pos,fs,posfs_id20_im12.bmp_posfs_id20_im3.bmp,['Im_RobertDowneyJr.png', 'Im_OrlandoBloom.png', 'Im_DanielCraig.png', 'Im_PatrickDempsey.png', 'Im_RobertPattinson.png', 'Im_RyanGosling.png', 'Im_GeorgeClooney.png', 'Im_DanielRadcliffe.png', 'Im_BradPitt.png', 'Im_LeonardoDiCaprio.png'],same,1,0.8500415999997131,4,0,
BRNA1411,train,pos,fs,posfs_id4_im15.bmp_posfs_id19_im27.bmp,['Im_RobertDowneyJr.png', 'Im_OrlandoBloom.png', 'Im_DanielCraig.png', 'Im_PatrickDempsey.png', 'Im_RobertPattinson.png', 'Im_RyanGosling.png', 'Im_GeorgeClooney.png', 'Im_DanielRadcliffe.png', 'Im_BradPitt.png', 'Im_LeonardoDiCaprio.png'],diff,1,0.7005958999998256,5,0,
BRNA1411,train,pos,fs,posfs_id4_im20.bmp_posfs_id20_im30.bmp,['Im_RobertDowneyJr.png', 'Im_OrlandoBloom.png', 'Im_DanielCraig.png', 'Im_PatrickDempsey.png', 'Im_RobertPattinson.png', 'Im_RyanGosling.png', 'Im_GeorgeClooney.png', 'Im_DanielRadcliffe.png', 'Im_BradPitt.png', 'Im_LeonardoDiCaprio.png'],diff,1,1.033552800000507,6,0,
BRNA1411,train,pos,fs,posfs_id3_im6.bmp_posfs_id13_im15.bmp,['Im_RobertDowneyJr.png', 'Im_OrlandoBloom.png', 'Im_DanielCraig.png', 'Im_PatrickDempsey.png', 'Im_RobertPattinson.png', 'Im_RyanGosling.png', 'Im_GeorgeClooney.png', 'Im_DanielRadcliffe.png', 'Im_BradPitt.png', 'Im_LeonardoDiCaprio.png'],diff,1,0.841990299999452,7,0,
BRNA1411,train,pos,fs,posfs_id4_im15.bmp_posfs_id4_im7.bmp,['Im_RobertDowneyJr.png', 'Im_OrlandoBloom.png', 'Im_DanielCraig.png', 'Im_PatrickDempsey.png', 'Im_RobertPattinson.png', 'Im_RyanGosling.png', 'Im_GeorgeClooney.png', 'Im_DanielRadcliffe.png', 'Im_BradPitt.png', 'Im_LeonardoDiCaprio.png'],same,1,0.7168707999999242,8,0,
BRNA1411,train,pos,fs,posfs_id4_im7.bmp_posfs_id18_im19.bmp,['Im_RobertDowneyJr.png', 'Im_OrlandoBloom.png', 'Im_DanielCraig.png', 'Im_PatrickDempsey.png', 'Im_RobertPattinson.png', 'Im_RyanGosling.png', 'Im_GeorgeClooney.png', 'Im_DanielRadcliffe.png', 'Im_BradPitt.png', 'Im_LeonardoDiCaprio.png'],diff,1,0.825140800000554,9,0,
BRNA1411,train,pos,fs,posfs_id4_im7.bmp_posfs_id18_im18.bmp,['Im_RobertDowneyJr.png', 'Im_OrlandoBloom.png', 'Im_DanielCraig.png', 'Im_PatrickDempsey.png', 'Im_RobertPattinson.png', 'Im_RyanGosling.png', 'Im_GeorgeClooney.png', 'Im_DanielRadcliffe.png', 'Im_BradPitt.png', 'Im_LeonardoDiCaprio.png'],diff,1,0.9001863000003141,10,0,
BRNA1411,train,pos,fs,posfs_id16_im3.bmp_posfs_id16_im19.bmp,['Im_RobertDowneyJr.png', 'Im_OrlandoBloom.png', 'Im_DanielCraig.png', 'Im_PatrickDempsey.png', 'Im_RobertPattinson.png', 'Im_RyanGosling.png', 'Im_GeorgeClooney.png', 'Im_DanielRadcliffe.png', 'Im_BradPitt.png', 'Im_LeonardoDiCaprio.png'],same,1,0.8582380999996531,11,0,
BRNA1411,train,pos,fs,posfs_id16_im2.bmp_posfs_id18_im11.bmp,['Im_RobertDowneyJr.png', 'Im_OrlandoBloom.png', 'Im_DanielCraig.png', 'Im_PatrickDempsey.png', 'Im_RobertPattinson.png', 'Im_RyanGosling.png', 'Im_GeorgeClooney.png', 'Im_DanielRadcliffe.png', 'Im_BradPitt.png', 'Im_LeonardoDiCaprio.png'],diff,1,0.6165315999996892,12,0,
BRNA1411,train,pos,fs,posfs_id5_im1.bmp_posfs_id5_im10.bmp,['Im_RobertDowneyJr.png', 'Im_OrlandoBloom.png', 'Im_DanielCraig.png', 'Im_PatrickDempsey.png', 'Im_RobertPattinson.png', 'Im_RyanGosling.png', 'Im_GeorgeClooney.png', 'Im_DanielRadcliffe.png', 'Im_BradPitt.png', 'Im_LeonardoDiCaprio.png'],same,1,0.8003019999996468,13,0,
BRNA1411,train,pos,fs,posfs_id7_im15.bmp_posfs_id19_im4.bmp,['Im_RobertDowneyJr.png', 'Im_OrlandoBloom.png', 'Im_DanielCraig.png', 'Im_PatrickDempsey.png', 'Im_RobertPattinson.png', 'Im_RyanGosling.png', 'Im_GeorgeClooney.png', 'Im_DanielRadcliffe.png', 'Im_BradPitt.png', 'Im_LeonardoDiCaprio.png'],diff,1,0.7416204000001017,14,0,
BRNA1411,train,pos,fs,posfs_id20_im12.bmp_posfs_id20_im30.bmp,['Im_RobertDowneyJr.png', 'Im_OrlandoBloom.png', 'Im_DanielCraig.png', 'Im_PatrickDempsey.png', 'Im_RobertPattinson.png', 'Im_RyanGosling.png', 'Im_GeorgeClooney.png', 'Im_DanielRadcliffe.png', 'Im_BradPitt.png', 'Im_LeonardoDiCaprio.png'],same,1,0.7334547999998904,15,0,
BRNA1411,train,pos,fs,posfs_id7_im26.bmp_posfs_id7_im15.bmp,['Im_RobertDowneyJr.png', 'Im_OrlandoBloom.png', 'Im_DanielCraig.png', 'Im_PatrickDempsey.png', 'Im_RobertPattinson.png', 'Im_RyanGosling.png', 'Im_GeorgeClooney.png', 'Im_DanielRadcliffe.png', 'Im_BradPitt.png', 'Im_LeonardoDiCaprio.png'],same,1,0.6418702999999368,16,0,
BRNA1411,train,pos,fs,posfs_id3_im8.bmp_posfs_id7_im26.bmp,['Im_RobertDowneyJr.png', 'Im_OrlandoBloom.png', 'Im_DanielCraig.png', 'Im_PatrickDempsey.png', 'Im_RobertPattinson.png', 'Im_RyanGosling.png', 'Im_GeorgeClooney.png', 'Im_DanielRadcliffe.png', 'Im_BradPitt.png', 'Im_LeonardoDiCaprio.png'],diff,1,3.5507755999997244,17,0,
BRNA1411,train,pos,fs,posfs_id17_im8.bmp_posfs_id5_im10.bmp,['Im_RobertDowneyJr.png', 'Im_OrlandoBloom.png', 'Im_DanielCraig.png', 'Im_PatrickDempsey.png', 'Im_RobertPattinson.png', 'Im_RyanGosling.png', 'Im_GeorgeClooney.png', 'Im_DanielRadcliffe.png', 'Im_BradPitt.png', 'Im_LeonardoDiCaprio.png'],diff,1,0.57494829999996,18,0,
BRNA1411,train,pos,fs,posfs_id5_im20.bmp_posfs_id20_im3.bmp,['Im_RobertDowneyJr.png', 'Im_OrlandoBloom.png', 'Im_DanielCraig.png', 'Im_PatrickDempsey.png', 'Im_RobertPattinson.png', 'Im_RyanGosling.png', 'Im_GeorgeClooney.png', 'Im_DanielRadcliffe.png', 'Im_BradPitt.png', 'Im_LeonardoDiCaprio.png'],diff,1,0.5749767000006614,19,0,
BRNA1411,train,pos,fs,posfs_id19_im4.bmp_posfs_id7_im26.bmp,['Im_RobertDowneyJr.png', 'Im_OrlandoBloom.png', 'Im_DanielCraig.png', 'Im_PatrickDempsey.png', 'Im_RobertPattinson.png', 'Im_RyanGosling.png', 'Im_GeorgeClooney.png', 'Im_DanielRadcliffe.png', 'Im_BradPitt.png', 'Im_LeonardoDiCaprio.png'],diff,1,0.5581608000002234,20,0,
BRNA1411,train,neg,fs,negfs_id18_im19.bmp_negfs_id18_im11.bmp,['Im_RobertDowneyJr.png', 'Im_OrlandoBloom.png', 'Im_DanielCraig.png', 'Im_PatrickDempsey.png', 'Im_RobertPattinson.png', 'Im_RyanGosling.png', 'Im_GeorgeClooney.png', 'Im_DanielRadcliffe.png', 'Im_BradPitt.png', 'Im_LeonardoDiCaprio.png'],diff,0,0.6916496000003463,0,0,
BRNA1411,train,inv,fs,posfs_id18_im19.bmp_posfs_id18_im11.bmp,['Im_RobertDowneyJr.png', 'Im_OrlandoBloom.png', 'Im_DanielCraig.png', 'Im_PatrickDempsey.png', 'Im_RobertPattinson.png', 'Im_RyanGosling.png', 'Im_GeorgeClooney.png', 'Im_DanielRadcliffe.png', 'Im_BradPitt.png', 'Im_LeonardoDiCaprio.png'],same,1,1.7919597000000067,1,0,
BRNA1411,train,pos,fs,posfs_id7_im15.bmp_posfs_id7_im26.bmp,['Im_RobertDowneyJr.png', 'Im_OrlandoBloom.png', 'Im_DanielCraig.png', 'Im_PatrickDempsey.png', 'Im_RobertPattinson.png', 'Im_RyanGosling.png', 'Im_GeorgeClooney.png', 'Im_DanielRadcliffe.png', 'Im_BradPitt.png', 'Im_LeonardoDiCaprio.png'],same,1,0.41662970000015775,2,0,
BRNA1411,train,inv,fs,posfs_id3_im17.bmp_posfs_id13_im10.bmp,['Im_RobertDowneyJr.png', 'Im_OrlandoBloom.png', 'Im_DanielCraig.png', 'Im_PatrickDempsey.png', 'Im_RobertPattinson.png', 'Im_RyanGosling.png', 'Im_GeorgeClooney.png', 'Im_DanielRadcliffe.png', 'Im_BradPitt.png', 'Im_LeonardoDiCaprio.png'],diff,1,0.4420754000002489,3,0,
BRNA1411,train,pos,fs,posfs_id5_im20.bmp_posfs_id5_im1.bmp,['Im_RobertDowneyJr.png', 'Im_OrlandoBloom.png', 'Im_DanielCraig.png', 'Im_PatrickDempsey.png', 'Im_RobertPattinson.png', 'Im_RyanGosling.png', 'Im_GeorgeClooney.png', 'Im_DanielRadcliffe.png', 'Im_BradPitt.png', 'Im_LeonardoDiCaprio.png'],same,1,0.4167590000006385,4,0,
BRNA1411,train,inv,fs,posfs_id18_im18.bmp_posfs_id18_im19.bmp,['Im_RobertDowneyJr.png', 'Im_OrlandoBloom.png', 'Im_DanielCraig.png', 'Im_PatrickDempsey.png', 'Im_RobertPattinson.png', 'Im_RyanGosling.png', 'Im_GeorgeClooney.png', 'Im_DanielRadcliffe.png', 'Im_BradPitt.png', 'Im_LeonardoDiCaprio.png'],diff,0,0.40818810000018857,4,0,
BRNA1411,train,pos,fs,posfs_id3_im17.bmp_posfs_id16_im3.bmp,['Im_RobertDowneyJr.png', 'Im_OrlandoBloom.png', 'Im_DanielCraig.png', 'Im_PatrickDempsey.png', 'Im_RobertPattinson.png', 'Im_RyanGosling.png', 'Im_GeorgeClooney.png', 'Im_DanielRadcliffe.png', 'Im_BradPitt.png', 'Im_LeonardoDiCaprio.png'],diff,1,0.41674650000004476,5,0,
BRNA1411,train,neg,fs,negfs_id3_im6.bmp_negfs_id3_im8.bmp,['Im_RobertDowneyJr.png', 'Im_OrlandoBloom.png', 'Im_DanielCraig.png', 'Im_PatrickDempsey.png', 'Im_RobertPattinson.png', 'Im_RyanGosling.png', 'Im_GeorgeClooney.png', 'Im_DanielRadcliffe.png', 'Im_BradPitt.png', 'Im_LeonardoDiCaprio.png'],same,1,0.4252234000005046,6,0,
BRNA1411,train,pos,fs,posfs_id16_im2.bmp_posfs_id16_im3.bmp,['Im_RobertDowneyJr.png', 'Im_OrlandoBloom.png', 'Im_DanielCraig.png', 'Im_PatrickDempsey.png', 'Im_RobertPattinson.png', 'Im_RyanGosling.png', 'Im_GeorgeClooney.png', 'Im_DanielRadcliffe.png', 'Im_BradPitt.png', 'Im_LeonardoDiCaprio.png'],same,1,0.41673609999998007,7,0,
BRNA1411,train,pos,fs,posfs_id4_im7.bmp_posfs_id4_im15.bmp,['Im_RobertDowneyJr.png', 'Im_OrlandoBloom.png', 'Im_DanielCraig.png', 'Im_PatrickDempsey.png', 'Im_RobertPattinson.png', 'Im_RyanGosling.png', 'Im_GeorgeClooney.png', 'Im_DanielRadcliffe.png', 'Im_BradPitt.png', 'Im_LeonardoDiCaprio.png'],same,1,0.41673939999964205,8,0,
BRNA1411,train,inv,fs,posfs_id20_im3.bmp_posfs_id20_im12.bmp,['Im_RobertDowneyJr.png', 'Im_OrlandoBloom.png', 'Im_DanielCraig.png', 'Im_PatrickDempsey.png', 'Im_RobertPattinson.png', 'Im_RyanGosling.png', 'Im_GeorgeClooney.png', 'Im_DanielRadcliffe.png', 'Im_BradPitt.png', 'Im_LeonardoDiCaprio.png'],same,1,0.5167254000007233,9,0,
BRNA1411,train,inv,fs,posfs_id19_im4.bmp_posfs_id19_im27.bmp,['Im_RobertDowneyJr.png', 'Im_OrlandoBloom.png', 'Im_DanielCraig.png', 'Im_PatrickDempsey.png', 'Im_RobertPattinson.png', 'Im_RyanGosling.png', 'Im_GeorgeClooney.png', 'Im_DanielRadcliffe.png', 'Im_BradPitt.png', 'Im_LeonardoDiCaprio.png'],same,1,0.4250425999998697,10,0,
BRNA1411,train,inv,fs,posfs_id20_im30.bmp_posfs_id20_im12.bmp,['Im_RobertDowneyJr.png', 'Im_OrlandoBloom.png', 'Im_DanielCraig.png', 'Im_PatrickDempsey.png', 'Im_RobertPattinson.png', 'Im_RyanGosling.png', 'Im_GeorgeClooney.png', 'Im_DanielRadcliffe.png', 'Im_BradPitt.png', 'Im_LeonardoDiCaprio.png'],same,1,0.4168242999994618,11,0,
BRNA1411,train,pos,fs,posfs_id20_im30.bmp_posfs_id13_im29.bmp,['Im_RobertDowneyJr.png', 'Im_OrlandoBloom.png', 'Im_DanielCraig.png', 'Im_PatrickDempsey.png', 'Im_RobertPattinson.png', 'Im_RyanGosling.png', 'Im_GeorgeClooney.png', 'Im_DanielRadcliffe.png', 'Im_BradPitt.png', 'Im_LeonardoDiCaprio.png'],diff,1,0.4167928999995638,12,0,
BRNA1411,train,pos,fs,posfs_id3_im6.bmp_posfs_id18_im19.bmp,['Im_RobertDowneyJr.png', 'Im_OrlandoBloom.png', 'Im_DanielCraig.png', 'Im_PatrickDempsey.png', 'Im_RobertPattinson.png', 'Im_RyanGosling.png', 'Im_GeorgeClooney.png', 'Im_DanielRadcliffe.png', 'Im_BradPitt.png', 'Im_LeonardoDiCaprio.png'],diff,1,0.45841460000065126,13,0,
BRNA1411,train,inv,fs,posfs_id3_im17.bmp_posfs_id3_im8.bmp,['Im_RobertDowneyJr.png', 'Im_OrlandoBloom.png', 'Im_DanielCraig.png', 'Im_PatrickDempsey.png', 'Im_RobertPattinson.png', 'Im_RyanGosling.png', 'Im_GeorgeClooney.png', 'Im_DanielRadcliffe.png', 'Im_BradPitt.png', 'Im_LeonardoDiCaprio.png'],same,1,0.4336278000000675,14,0,
BRNA1411,train,inv,fs,posfs_id19_im8.bmp_posfs_id16_im19.bmp,['Im_RobertDowneyJr.png', 'Im_OrlandoBloom.png', 'Im_DanielCraig.png', 'Im_PatrickDempsey.png', 'Im_RobertPattinson.png', 'Im_RyanGosling.png', 'Im_GeorgeClooney.png', 'Im_DanielRadcliffe.png', 'Im_BradPitt.png', 'Im_LeonardoDiCaprio.png'],diff,1,0.6255056999998487,15,0,
BRNA1411,train,inv,fs,posfs_id19_im8.bmp_posfs_id19_im4.bmp,['Im_RobertDowneyJr.png', 'Im_OrlandoBloom.png', 'Im_DanielCraig.png', 'Im_PatrickDempsey.png', 'Im_RobertPattinson.png', 'Im_RyanGosling.png', 'Im_GeorgeClooney.png', 'Im_DanielRadcliffe.png', 'Im_BradPitt.png', 'Im_LeonardoDiCaprio.png'],same,1,0.5335328000001027,16,0,
BRNA1411,train,neg,fs,negfs_id5_im10.bmp_negfs_id17_im8.bmp,['Im_RobertDowneyJr.png', 'Im_OrlandoBloom.png', 'Im_DanielCraig.png', 'Im_PatrickDempsey.png', 'Im_RobertPattinson.png', 'Im_RyanGosling.png', 'Im_GeorgeClooney.png', 'Im_DanielRadcliffe.png', 'Im_BradPitt.png', 'Im_LeonardoDiCaprio.png'],diff,1,0.4167403000001286,17,0,
BRNA1411,train,pos,fs,posfs_id13_im29.bmp_posfs_id13_im15.bmp,['Im_RobertDowneyJr.png', 'Im_OrlandoBloom.png', 'Im_DanielCraig.png', 'Im_PatrickDempsey.png', 'Im_RobertPattinson.png', 'Im_RyanGosling.png', 'Im_GeorgeClooney.png', 'Im_DanielRadcliffe.png', 'Im_BradPitt.png', 'Im_LeonardoDiCaprio.png'],same,1,0.8589377000007516,18,0,
BRNA1411,train,inv,150,pos150_id16_im3.bmp_pos150_id16_im2.bmp,['Im_RobertDowneyJr.png', 'Im_OrlandoBloom.png', 'Im_DanielCraig.png', 'Im_PatrickDempsey.png', 'Im_RobertPattinson.png', 'Im_RyanGosling.png', 'Im_GeorgeClooney.png', 'Im_DanielRadcliffe.png', 'Im_BradPitt.png', 'Im_LeonardoDiCaprio.png'],diff,0,1.3418014999997467,0,0,
BRNA1411,train,inv,30,pos30_id19_im4.bmp_pos30_id19_im27.bmp,['Im_RobertDowneyJr.png', 'Im_OrlandoBloom.png', 'Im_DanielCraig.png', 'Im_PatrickDempsey.png', 'Im_RobertPattinson.png', 'Im_RyanGosling.png', 'Im_GeorgeClooney.png', 'Im_DanielRadcliffe.png', 'Im_BradPitt.png', 'Im_LeonardoDiCaprio.png'],same,1,3.708341499999733,1,0,
BRNA1411,train,inv,fs,posfs_id4_im7.bmp_posfs_id18_im19.bmp,['Im_RobertDowneyJr.png', 'Im_OrlandoBloom.png', 'Im_DanielCraig.png', 'Im_PatrickDempsey.png', 'Im_RobertPattinson.png', 'Im_RyanGosling.png', 'Im_GeorgeClooney.png', 'Im_DanielRadcliffe.png', 'Im_BradPitt.png', 'Im_LeonardoDiCaprio.png'],diff,1,0.47501290000036533,2,0,
BRNA1411,train,inv,150,pos150_id13_im15.bmp_pos150_id13_im29.bmp,['Im_RobertDowneyJr.png', 'Im_OrlandoBloom.png', 'Im_DanielCraig.png', 'Im_PatrickDempsey.png', 'Im_RobertPattinson.png', 'Im_RyanGosling.png', 'Im_GeorgeClooney.png', 'Im_DanielRadcliffe.png', 'Im_BradPitt.png', 'Im_LeonardoDiCaprio.png'],same,1,1.7833482999994885,3,0,
BRNA1411,train,inv,90,pos90_id13_im15.bmp_pos90_id13_im29.bmp,['Im_RobertDowneyJr.png', 'Im_OrlandoBloom.png', 'Im_DanielCraig.png', 'Im_PatrickDempsey.png', 'Im_RobertPattinson.png', 'Im_RyanGosling.png', 'Im_GeorgeClooney.png', 'Im_DanielRadcliffe.png', 'Im_BradPitt.png', 'Im_LeonardoDiCaprio.png'],same,1,0.42490730000008625,4,0,
BRNA1411,train,inv,fs,posfs_id3_im8.bmp_posfs_id18_im11.bmp,['Im_RobertDowneyJr.png', 'Im_OrlandoBloom.png', 'Im_DanielCraig.png', 'Im_PatrickDempsey.png', 'Im_RobertPattinson.png', 'Im_RyanGosling.png', 'Im_GeorgeClooney.png', 'Im_DanielRadcliffe.png', 'Im_BradPitt.png', 'Im_LeonardoDiCaprio.png'],diff,1,0.41674609999972745,5,0,
BRNA1411,train,inv,60,pos60_id19_im27.bmp_pos60_id4_im15.bmp,['Im_RobertDowneyJr.png', 'Im_OrlandoBloom.png', 'Im_DanielCraig.png', 'Im_PatrickDempsey.png', 'Im_RobertPattinson.png', 'Im_RyanGosling.png', 'Im_GeorgeClooney.png', 'Im_DanielRadcliffe.png', 'Im_BradPitt.png', 'Im_LeonardoDiCaprio.png'],diff,1,1.1833366000000751,6,0,
BRNA1411,train,inv,60,pos60_id20_im30.bmp_pos60_id20_im12.bmp,['Im_RobertDowneyJr.png', 'Im_OrlandoBloom.png', 'Im_DanielCraig.png', 'Im_PatrickDempsey.png', 'Im_RobertPattinson.png', 'Im_RyanGosling.png', 'Im_GeorgeClooney.png', 'Im_DanielRadcliffe.png', 'Im_BradPitt.png', 'Im_LeonardoDiCaprio.png'],same,1,0.43342370000027586,7,0,
BRNA1411,train,inv,0,pos0_id16_im3.bmp_pos0_id16_im19.bmp,['Im_RobertDowneyJr.png', 'Im_OrlandoBloom.png', 'Im_DanielCraig.png', 'Im_PatrickDempsey.png', 'Im_RobertPattinson.png', 'Im_RyanGosling.png', 'Im_GeorgeClooney.png', 'Im_DanielRadcliffe.png', 'Im_BradPitt.png', 'Im_LeonardoDiCaprio.png'],same,1,0.891762799999924,8,0,
BRNA1411,train,inv,30,pos30_id18_im11.bmp_pos30_id3_im8.bmp,['Im_RobertDowneyJr.png', 'Im_OrlandoBloom.png', 'Im_DanielCraig.png', 'Im_PatrickDempsey.png', 'Im_RobertPattinson.png', 'Im_RyanGosling.png', 'Im_GeorgeClooney.png', 'Im_DanielRadcliffe.png', 'Im_BradPitt.png', 'Im_LeonardoDiCaprio.png'],diff,1,0.4249306000001525,9,0,
BRNA1411,train,inv,90,pos90_id19_im27.bmp_pos90_id19_im4.bmp,['Im_RobertDowneyJr.png', 'Im_OrlandoBloom.png', 'Im_DanielCraig.png', 'Im_PatrickDempsey.png', 'Im_RobertPattinson.png', 'Im_RyanGosling.png', 'Im_GeorgeClooney.png', 'Im_DanielRadcliffe.png', 'Im_BradPitt.png', 'Im_LeonardoDiCaprio.png'],same,1,0.4081223000002865,10,0,
BRNA1411,train,inv,120,pos120_id13_im10.bmp_pos120_id13_im15.bmp,['Im_RobertDowneyJr.png', 'Im_OrlandoBloom.png', 'Im_DanielCraig.png', 'Im_PatrickDempsey.png', 'Im_RobertPattinson.png', 'Im_RyanGosling.png', 'Im_GeorgeClooney.png', 'Im_DanielRadcliffe.png', 'Im_BradPitt.png', 'Im_LeonardoDiCaprio.png'],same,1,0.4245889999992869,11,0,
BRNA1411,train,inv,120,pos120_id18_im11.bmp_pos120_id18_im19.bmp,['Im_RobertDowneyJr.png', 'Im_OrlandoBloom.png', 'Im_DanielCraig.png', 'Im_PatrickDempsey.png', 'Im_RobertPattinson.png', 'Im_RyanGosling.png', 'Im_GeorgeClooney.png', 'Im_DanielRadcliffe.png', 'Im_BradPitt.png', 'Im_LeonardoDiCaprio.png'],diff,0,1.1333875999998781,11,0,
BRNA1411,train,inv,0,pos0_id20_im3.bmp_pos0_id20_im12.bmp,['Im_RobertDowneyJr.png', 'Im_OrlandoBloom.png', 'Im_DanielCraig.png', 'Im_PatrickDempsey.png', 'Im_RobertPattinson.png', 'Im_RyanGosling.png', 'Im_GeorgeClooney.png', 'Im_DanielRadcliffe.png', 'Im_BradPitt.png', 'Im_LeonardoDiCaprio.png'],same,1,1.5418346999995265,12,0,
BRNA1411,train,pos,fs,posfs_id7_im26.bmp_posfs_id3_im8.bmp,['Im_RobertDowneyJr.png', 'Im_OrlandoBloom.png', 'Im_DanielCraig.png', 'Im_PatrickDempsey.png', 'Im_RobertPattinson.png', 'Im_RyanGosling.png', 'Im_GeorgeClooney.png', 'Im_DanielRadcliffe.png', 'Im_BradPitt.png', 'Im_LeonardoDiCaprio.png'],diff,1,0.42501029999948514,13,0,
BRNA1411,train,pos,0,pos0_id17_im14.bmp_pos0_id5_im20.bmp,['Im_RobertDowneyJr.png', 'Im_OrlandoBloom.png', 'Im_DanielCraig.png', 'Im_PatrickDempsey.png', 'Im_RobertPattinson.png', 'Im_RyanGosling.png', 'Im_GeorgeClooney.png', 'Im_DanielRadcliffe.png', 'Im_BradPitt.png', 'Im_LeonardoDiCaprio.png'],diff,1,0.4333523999994213,14,0,
BRNA1411,train,pos,120,pos120_id17_im8.bmp_pos120_id16_im19.bmp,['Im_RobertDowneyJr.png', 'Im_OrlandoBloom.png', 'Im_DanielCraig.png', 'Im_PatrickDempsey.png', 'Im_RobertPattinson.png', 'Im_RyanGosling.png', 'Im_GeorgeClooney.png', 'Im_DanielRadcliffe.png', 'Im_BradPitt.png', 'Im_LeonardoDiCaprio.png'],diff,1,0.43357470000046305,15,0,
BRNA1411,train,pos,0,pos0_id16_im19.bmp_pos0_id19_im8.bmp,['Im_RobertDowneyJr.png', 'Im_OrlandoBloom.png', 'Im_DanielCraig.png', 'Im_PatrickDempsey.png', 'Im_RobertPattinson.png', 'Im_RyanGosling.png', 'Im_GeorgeClooney.png', 'Im_DanielRadcliffe.png', 'Im_BradPitt.png', 'Im_LeonardoDiCaprio.png'],diff,1,0.891967300000033,16,0,
BRNA1411,train,pos,30,pos30_id17_im14.bmp_pos30_id20_im12.bmp,['Im_RobertDowneyJr.png', 'Im_OrlandoBloom.png', 'Im_DanielCraig.png', 'Im_PatrickDempsey.png', 'Im_RobertPattinson.png', 'Im_RyanGosling.png', 'Im_GeorgeClooney.png', 'Im_DanielRadcliffe.png', 'Im_BradPitt.png', 'Im_LeonardoDiCaprio.png'],diff,1,0.4166992999998911,17,0,
BRNA1411,train,pos,fs,posfs_id17_im8.bmp_posfs_id5_im10.bmp,['Im_RobertDowneyJr.png', 'Im_OrlandoBloom.png', 'Im_DanielCraig.png', 'Im_PatrickDempsey.png', 'Im_RobertPattinson.png', 'Im_RyanGosling.png', 'Im_GeorgeClooney.png', 'Im_DanielRadcliffe.png', 'Im_BradPitt.png', 'Im_LeonardoDiCaprio.png'],diff,1,0.42508230000021285,18,0,
BRNA1411,train,pos,150,pos150_id16_im19.bmp_pos150_id17_im8.bmp,['Im_RobertDowneyJr.png', 'Im_OrlandoBloom.png', 'Im_DanielCraig.png', 'Im_PatrickDempsey.png', 'Im_RobertPattinson.png', 'Im_RyanGosling.png', 'Im_GeorgeClooney.png', 'Im_DanielRadcliffe.png', 'Im_BradPitt.png', 'Im_LeonardoDiCaprio.png'],diff,1,0.433543400000417,19,0,
BRNA1411,train,pos,60,pos60_id7_im26.bmp_pos60_id7_im15.bmp,['Im_RobertDowneyJr.png', 'Im_OrlandoBloom.png', 'Im_DanielCraig.png', 'Im_PatrickDempsey.png', 'Im_RobertPattinson.png', 'Im_RyanGosling.png', 'Im_GeorgeClooney.png', 'Im_DanielRadcliffe.png', 'Im_BradPitt.png', 'Im_LeonardoDiCaprio.png'],same,1,0.58336429999963,20,0,
BRNA1411,train,pos,30,pos30_id3_im8.bmp_pos30_id3_im6.bmp,['Im_RobertDowneyJr.png', 'Im_OrlandoBloom.png', 'Im_DanielCraig.png', 'Im_PatrickDempsey.png', 'Im_RobertPattinson.png', 'Im_RyanGosling.png', 'Im_GeorgeClooney.png', 'Im_DanielRadcliffe.png', 'Im_BradPitt.png', 'Im_LeonardoDiCaprio.png'],same,1,0.40840099999968515,21,0,
BRNA1411,train,pos,90,pos90_id19_im4.bmp_pos90_id19_im8.bmp,['Im_RobertDowneyJr.png', 'Im_OrlandoBloom.png', 'Im_DanielCraig.png', 'Im_PatrickDempsey.png', 'Im_RobertPattinson.png', 'Im_RyanGosling.png', 'Im_GeorgeClooney.png', 'Im_DanielRadcliffe.png', 'Im_BradPitt.png', 'Im_LeonardoDiCaprio.png'],same,1,0.4084428999994998,22,0,
BRNA1411,train,pos,150,pos150_id18_im18.bmp_pos150_id13_im15.bmp,['Im_RobertDowneyJr.png', 'Im_OrlandoBloom.png', 'Im_DanielCraig.png', 'Im_PatrickDempsey.png', 'Im_RobertPattinson.png', 'Im_RyanGosling.png', 'Im_GeorgeClooney.png', 'Im_DanielRadcliffe.png', 'Im_BradPitt.png', 'Im_LeonardoDiCaprio.png'],diff,1,0.42527570000038395,23,0,
BRNA1411,train,pos,90,pos90_id5_im1.bmp_pos90_id5_im20.bmp,['Im_RobertDowneyJr.png', 'Im_OrlandoBloom.png', 'Im_DanielCraig.png', 'Im_PatrickDempsey.png', 'Im_RobertPattinson.png', 'Im_RyanGosling.png', 'Im_GeorgeClooney.png', 'Im_DanielRadcliffe.png', 'Im_BradPitt.png', 'Im_LeonardoDiCaprio.png'],same,1,0.9500150000003487,24,0,
BRNA1411,train,pos,60,pos60_id20_im12.bmp_pos60_id20_im30.bmp,['Im_RobertDowneyJr.png', 'Im_OrlandoBloom.png', 'Im_DanielCraig.png', 'Im_PatrickDempsey.png', 'Im_RobertPattinson.png', 'Im_RyanGosling.png', 'Im_GeorgeClooney.png', 'Im_DanielRadcliffe.png', 'Im_BradPitt.png', 'Im_LeonardoDiCaprio.png'],same,1,0.41683800000009796,25,0,
BRNA1411,train,pos,120,pos120_id3_im8.bmp_pos120_id3_im17.bmp,['Im_RobertDowneyJr.png', 'Im_OrlandoBloom.png', 'Im_DanielCraig.png', 'Im_PatrickDempsey.png', 'Im_RobertPattinson.png', 'Im_RyanGosling.png', 'Im_GeorgeClooney.png', 'Im_DanielRadcliffe.png', 'Im_BradPitt.png', 'Im_LeonardoDiCaprio.png'],same,1,0.40850700000009965,26,0,
BRNA1411,train,neg,30,neg30_id19_im27.bmp_neg30_id19_im4.bmp,['Im_RobertDowneyJr.png', 'Im_OrlandoBloom.png', 'Im_DanielCraig.png', 'Im_PatrickDempsey.png', 'Im_RobertPattinson.png', 'Im_RyanGosling.png', 'Im_GeorgeClooney.png', 'Im_DanielRadcliffe.png', 'Im_BradPitt.png', 'Im_LeonardoDiCaprio.png'],same,1,0.4166116999995211,27,0,
BRNA1411,train,neg,0,neg0_id20_im12.bmp_neg0_id20_im3.bmp,['Im_RobertDowneyJr.png', 'Im_OrlandoBloom.png', 'Im_DanielCraig.png', 'Im_PatrickDempsey.png', 'Im_RobertPattinson.png', 'Im_RyanGosling.png', 'Im_GeorgeClooney.png', 'Im_DanielRadcliffe.png', 'Im_BradPitt.png', 'Im_LeonardoDiCaprio.png'],same,1,0.42508339999949385,28,0,
BRNA1411,train,neg,60,neg60_id5_im10.bmp_neg60_id5_im1.bmp,['Im_RobertDowneyJr.png', 'Im_OrlandoBloom.png', 'Im_DanielCraig.png', 'Im_PatrickDempsey.png', 'Im_RobertPattinson.png', 'Im_RyanGosling.png', 'Im_GeorgeClooney.png', 'Im_DanielRadcliffe.png', 'Im_BradPitt.png', 'Im_LeonardoDiCaprio.png'],same,1,0.41684499999973923,29,0,
BRNA1411,train,neg,150,neg150_id19_im4.bmp_neg150_id7_im26.bmp,['Im_RobertDowneyJr.png', 'Im_OrlandoBloom.png', 'Im_DanielCraig.png', 'Im_PatrickDempsey.png', 'Im_RobertPattinson.png', 'Im_RyanGosling.png', 'Im_GeorgeClooney.png', 'Im_DanielRadcliffe.png', 'Im_BradPitt.png', 'Im_LeonardoDiCaprio.png'],diff,1,0.4166746000000785,30,0,
BRNA1411,train,neg,150,neg150_id3_im6.bmp_neg150_id3_im17.bmp,['Im_RobertDowneyJr.png', 'Im_OrlandoBloom.png', 'Im_DanielCraig.png', 'Im_PatrickDempsey.png', 'Im_RobertPattinson.png', 'Im_RyanGosling.png', 'Im_GeorgeClooney.png', 'Im_DanielRadcliffe.png', 'Im_BradPitt.png', 'Im_LeonardoDiCaprio.png'],same,1,0.5167231000004904,31,0,
BRNA1411,train,neg,90,neg90_id18_im11.bmp_neg90_id18_im18.bmp,['Im_RobertDowneyJr.png', 'Im_OrlandoBloom.png', 'Im_DanielCraig.png', 'Im_PatrickDempsey.png', 'Im_RobertPattinson.png', 'Im_RyanGosling.png', 'Im_GeorgeClooney.png', 'Im_DanielRadcliffe.png', 'Im_BradPitt.png', 'Im_LeonardoDiCaprio.png'],same,1,0.7003079999994952,32,0,
BRNA1411,train,neg,fs,negfs_id16_im19.bmp_negfs_id17_im8.bmp,['Im_RobertDowneyJr.png', 'Im_OrlandoBloom.png', 'Im_DanielCraig.png', 'Im_PatrickDempsey.png', 'Im_RobertPattinson.png', 'Im_RyanGosling.png', 'Im_GeorgeClooney.png', 'Im_DanielRadcliffe.png', 'Im_BradPitt.png', 'Im_LeonardoDiCaprio.png'],diff,1,0.41643070000009175,33,0,
BRNA1411,train,neg,30,neg30_id5_im1.bmp_neg30_id5_im20.bmp,['Im_RobertDowneyJr.png', 'Im_OrlandoBloom.png', 'Im_DanielCraig.png', 'Im_PatrickDempsey.png', 'Im_RobertPattinson.png', 'Im_RyanGosling.png', 'Im_GeorgeClooney.png', 'Im_DanielRadcliffe.png', 'Im_BradPitt.png', 'Im_LeonardoDiCaprio.png'],diff,0,0.6667570999998134,33,0,
BRNA1411,train,neg,120,neg120_id20_im12.bmp_neg120_id20_im30.bmp,['Im_RobertDowneyJr.png', 'Im_OrlandoBloom.png', 'Im_DanielCraig.png', 'Im_PatrickDempsey.png', 'Im_RobertPattinson.png', 'Im_RyanGosling.png', 'Im_GeorgeClooney.png', 'Im_DanielRadcliffe.png', 'Im_BradPitt.png', 'Im_LeonardoDiCaprio.png'],same,1,0.42506890000004205,34,0,
BRNA1411,train,neg,0,neg0_id20_im12.bmp_neg0_id17_im14.bmp,['Im_RobertDowneyJr.png', 'Im_OrlandoBloom.png', 'Im_DanielCraig.png', 'Im_PatrickDempsey.png', 'Im_RobertPattinson.png', 'Im_RyanGosling.png', 'Im_GeorgeClooney.png', 'Im_DanielRadcliffe.png', 'Im_BradPitt.png', 'Im_LeonardoDiCaprio.png'],diff,1,0.4250154000001203,35,0,
BRNA1411,train,neg,120,neg120_id3_im17.bmp_neg120_id16_im3.bmp,['Im_RobertDowneyJr.png', 'Im_OrlandoBloom.png', 'Im_DanielCraig.png', 'Im_PatrickDempsey.png', 'Im_RobertPattinson.png', 'Im_RyanGosling.png', 'Im_GeorgeClooney.png', 'Im_DanielRadcliffe.png', 'Im_BradPitt.png', 'Im_LeonardoDiCaprio.png'],diff,1,0.4918260000004011,36,0,
BRNA1411,train,neg,60,neg60_id19_im4.bmp_neg60_id7_im15.bmp,['Im_RobertDowneyJr.png', 'Im_OrlandoBloom.png', 'Im_DanielCraig.png', 'Im_PatrickDempsey.png', 'Im_RobertPattinson.png', 'Im_RyanGosling.png', 'Im_GeorgeClooney.png', 'Im_DanielRadcliffe.png', 'Im_BradPitt.png', 'Im_LeonardoDiCaprio.png'],diff,1,0.41689210000004095,37,0,
BRNA1411,train,neg,90,neg90_id19_im27.bmp_neg90_id4_im15.bmp,['Im_RobertDowneyJr.png', 'Im_OrlandoBloom.png', 'Im_DanielCraig.png', 'Im_PatrickDempsey.png', 'Im_RobertPattinson.png', 'Im_RyanGosling.png', 'Im_GeorgeClooney.png', 'Im_DanielRadcliffe.png', 'Im_BradPitt.png', 'Im_LeonardoDiCaprio.png'],diff,1,0.43319480000081967,38,0,
BRNA1411,train,neg,fs,negfs_id4_im15.bmp_negfs_id5_im1.bmp,['Im_RobertDowneyJr.png', 'Im_OrlandoBloom.png', 'Im_DanielCraig.png', 'Im_PatrickDempsey.png', 'Im_RobertPattinson.png', 'Im_RyanGosling.png', 'Im_GeorgeClooney.png', 'Im_DanielRadcliffe.png', 'Im_BradPitt.png', 'Im_LeonardoDiCaprio.png'],diff,1,0.43330559999958496,39,0,
BRNA1411,train,inv,90,pos90_id18_im19.bmp_pos90_id3_im6.bmp,['Im_RobertDowneyJr.png', 'Im_OrlandoBloom.png', 'Im_DanielCraig.png', 'Im_PatrickDempsey.png', 'Im_RobertPattinson.png', 'Im_RyanGosling.png', 'Im_GeorgeClooney.png', 'Im_DanielRadcliffe.png', 'Im_BradPitt.png', 'Im_LeonardoDiCaprio.png'],diff,1,2.9584029999996346,1,92.85714285714286,
BRNA1411,train,inv,150,pos150_id17_im14.bmp_pos150_id17_im8.bmp,['Im_RobertDowneyJr.png', 'Im_OrlandoBloom.png', 'Im_DanielCraig.png', 'Im_PatrickDempsey.png', 'Im_RobertPattinson.png', 'Im_RyanGosling.png', 'Im_GeorgeClooney.png', 'Im_DanielRadcliffe.png', 'Im_BradPitt.png', 'Im_LeonardoDiCaprio.png'],diff,0,0.8916097000001173,1,92.85714285714286,
BRNA1411,train,inv,60,pos60_id18_im11.bmp_pos60_id18_im19.bmp,['Im_RobertDowneyJr.png', 'Im_OrlandoBloom.png', 'Im_DanielCraig.png', 'Im_PatrickDempsey.png', 'Im_RobertPattinson.png', 'Im_RyanGosling.png', 'Im_GeorgeClooney.png', 'Im_DanielRadcliffe.png', 'Im_BradPitt.png', 'Im_LeonardoDiCaprio.png'],diff,0,1.0000976999999693,1,92.85714285714286,
BRNA1411,train,inv,60,pos60_id5_im10.bmp_pos60_id5_im20.bmp,['Im_RobertDowneyJr.png', 'Im_OrlandoBloom.png', 'Im_DanielCraig.png', 'Im_PatrickDempsey.png', 'Im_RobertPattinson.png', 'Im_RyanGosling.png', 'Im_GeorgeClooney.png', 'Im_DanielRadcliffe.png', 'Im_BradPitt.png', 'Im_LeonardoDiCaprio.png'],same,1,0.5336066999998366,2,92.85714285714286,
BRNA1411,train,inv,90,pos90_id17_im8.bmp_pos90_id16_im19.bmp,['Im_RobertDowneyJr.png', 'Im_OrlandoBloom.png', 'Im_DanielCraig.png', 'Im_PatrickDempsey.png', 'Im_RobertPattinson.png', 'Im_RyanGosling.png', 'Im_GeorgeClooney.png', 'Im_DanielRadcliffe.png', 'Im_BradPitt.png', 'Im_LeonardoDiCaprio.png'],same,0,0.9753811000000496,2,92.85714285714286,
BRNA1411,train,inv,fs,posfs_id13_im29.bmp_posfs_id20_im30.bmp,['Im_RobertDowneyJr.png', 'Im_OrlandoBloom.png', 'Im_DanielCraig.png', 'Im_PatrickDempsey.png', 'Im_RobertPattinson.png', 'Im_RyanGosling.png', 'Im_GeorgeClooney.png', 'Im_DanielRadcliffe.png', 'Im_BradPitt.png', 'Im_LeonardoDiCaprio.png'],diff,1,0.42507410000052914,3,92.85714285714286,
BRNA1411,train,inv,120,pos120_id16_im2.bmp_pos120_id19_im27.bmp,['Im_RobertDowneyJr.png', 'Im_OrlandoBloom.png', 'Im_DanielCraig.png', 'Im_PatrickDempsey.png', 'Im_RobertPattinson.png', 'Im_RyanGosling.png', 'Im_GeorgeClooney.png', 'Im_DanielRadcliffe.png', 'Im_BradPitt.png', 'Im_LeonardoDiCaprio.png'],diff,1,0.5085798000000068,4,92.85714285714286,
BRNA1411,train,inv,0,pos0_id7_im14.bmp_pos0_id7_im15.bmp,['Im_RobertDowneyJr.png', 'Im_OrlandoBloom.png', 'Im_DanielCraig.png', 'Im_PatrickDempsey.png', 'Im_RobertPattinson.png', 'Im_RyanGosling.png', 'Im_GeorgeClooney.png', 'Im_DanielRadcliffe.png', 'Im_BradPitt.png', 'Im_LeonardoDiCaprio.png'],same,1,0.5416064999999435,5,92.85714285714286,
BRNA1411,train,inv,30,pos30_id19_im8.bmp_pos30_id19_im27.bmp,['Im_RobertDowneyJr.png', 'Im_OrlandoBloom.png', 'Im_DanielCraig.png', 'Im_PatrickDempsey.png', 'Im_RobertPattinson.png', 'Im_RyanGosling.png', 'Im_GeorgeClooney.png', 'Im_DanielRadcliffe.png', 'Im_BradPitt.png', 'Im_LeonardoDiCaprio.png'],diff,0,1.3583620999997947,5,92.85714285714286,
BRNA1411,train,inv,120,pos120_id16_im19.bmp_pos120_id16_im3.bmp,['Im_RobertDowneyJr.png', 'Im_OrlandoBloom.png', 'Im_DanielCraig.png', 'Im_PatrickDempsey.png', 'Im_RobertPattinson.png', 'Im_RyanGosling.png', 'Im_GeorgeClooney.png', 'Im_DanielRadcliffe.png', 'Im_BradPitt.png', 'Im_LeonardoDiCaprio.png'],same,1,0.8082148999992569,6,92.85714285714286,
BRNA1411,train,inv,150,pos150_id3_im6.bmp_pos150_id3_im17.bmp,['Im_RobertDowneyJr.png', 'Im_OrlandoBloom.png', 'Im_DanielCraig.png', 'Im_PatrickDempsey.png', 'Im_RobertPattinson.png', 'Im_RyanGosling.png', 'Im_GeorgeClooney.png', 'Im_DanielRadcliffe.png', 'Im_BradPitt.png', 'Im_LeonardoDiCaprio.png'],same,1,2.0500785000003816,7,92.85714285714286,
BRNA1411,train,inv,fs,posfs_id17_im14.bmp_posfs_id5_im20.bmp,['Im_RobertDowneyJr.png', 'Im_OrlandoBloom.png', 'Im_DanielCraig.png', 'Im_PatrickDempsey.png', 'Im_RobertPattinson.png', 'Im_RyanGosling.png', 'Im_GeorgeClooney.png', 'Im_DanielRadcliffe.png', 'Im_BradPitt.png', 'Im_LeonardoDiCaprio.png'],diff,1,0.5250267999999778,8,92.85714285714286,
BRNA1411,train,inv,0,pos0_id18_im19.bmp_pos0_id3_im6.bmp,['Im_RobertDowneyJr.png', 'Im_OrlandoBloom.png', 'Im_DanielCraig.png', 'Im_PatrickDempsey.png', 'Im_RobertPattinson.png', 'Im_RyanGosling.png', 'Im_GeorgeClooney.png', 'Im_DanielRadcliffe.png', 'Im_BradPitt.png', 'Im_LeonardoDiCaprio.png'],diff,1,0.5248223999997208,9,92.85714285714286,
BRNA1411,train,inv,30,pos30_id17_im14.bmp_pos30_id17_im8.bmp,['Im_RobertDowneyJr.png', 'Im_OrlandoBloom.png', 'Im_DanielCraig.png', 'Im_PatrickDempsey.png', 'Im_RobertPattinson.png', 'Im_RyanGosling.png', 'Im_GeorgeClooney.png', 'Im_DanielRadcliffe.png', 'Im_BradPitt.png', 'Im_LeonardoDiCaprio.png'],diff,0,0.41670430000067427,9,92.85714285714286,
BRNA1411,train,neg,60,neg60_id19_im27.bmp_neg60_id19_im4.bmp,['Im_RobertDowneyJr.png', 'Im_OrlandoBloom.png', 'Im_DanielCraig.png', 'Im_PatrickDempsey.png', 'Im_RobertPattinson.png', 'Im_RyanGosling.png', 'Im_GeorgeClooney.png', 'Im_DanielRadcliffe.png', 'Im_BradPitt.png', 'Im_LeonardoDiCaprio.png'],same,1,1.008395300000302,10,92.85714285714286,
BRNA1411,train,neg,60,neg60_id3_im8.bmp_neg60_id7_im26.bmp,['Im_RobertDowneyJr.png', 'Im_OrlandoBloom.png', 'Im_DanielCraig.png', 'Im_PatrickDempsey.png', 'Im_RobertPattinson.png', 'Im_RyanGosling.png', 'Im_GeorgeClooney.png', 'Im_DanielRadcliffe.png', 'Im_BradPitt.png', 'Im_LeonardoDiCaprio.png'],diff,1,0.4918513000002349,11,92.85714285714286,
BRNA1411,train,neg,150,neg150_id18_im18.bmp_neg150_id13_im15.bmp,['Im_RobertDowneyJr.png', 'Im_OrlandoBloom.png', 'Im_DanielCraig.png', 'Im_PatrickDempsey.png', 'Im_RobertPattinson.png', 'Im_RyanGosling.png', 'Im_GeorgeClooney.png', 'Im_DanielRadcliffe.png', 'Im_BradPitt.png', 'Im_LeonardoDiCaprio.png'],diff,1,0.42457999999987805,12,92.85714285714286,
BRNA1411,train,neg,120,neg120_id18_im11.bmp_neg120_id16_im2.bmp,['Im_RobertDowneyJr.png', 'Im_OrlandoBloom.png', 'Im_DanielCraig.png', 'Im_PatrickDempsey.png', 'Im_RobertPattinson.png', 'Im_RyanGosling.png', 'Im_GeorgeClooney.png', 'Im_DanielRadcliffe.png', 'Im_BradPitt.png', 'Im_LeonardoDiCaprio.png'],same,0,1.8920538000002125,12,92.85714285714286,
BRNA1411,train,neg,fs,negfs_id19_im4.bmp_negfs_id19_im8.bmp,['Im_RobertDowneyJr.png', 'Im_OrlandoBloom.png', 'Im_DanielCraig.png', 'Im_PatrickDempsey.png', 'Im_RobertPattinson.png', 'Im_RyanGosling.png', 'Im_GeorgeClooney.png', 'Im_DanielRadcliffe.png', 'Im_BradPitt.png', 'Im_LeonardoDiCaprio.png'],same,1,0.9750242999998591,13,92.85714285714286,
BRNA1411,train,neg,30,neg30_id17_im8.bmp_neg30_id5_im10.bmp,['Im_RobertDowneyJr.png', 'Im_OrlandoBloom.png', 'Im_DanielCraig.png', 'Im_PatrickDempsey.png', 'Im_RobertPattinson.png', 'Im_RyanGosling.png', 'Im_GeorgeClooney.png', 'Im_DanielRadcliffe.png', 'Im_BradPitt.png', 'Im_LeonardoDiCaprio.png'],diff,1,0.42502650000005815,14,92.85714285714286,
BRNA1411,train,neg,30,neg30_id20_im12.bmp_neg30_id20_im3.bmp,['Im_RobertDowneyJr.png', 'Im_OrlandoBloom.png', 'Im_DanielCraig.png', 'Im_PatrickDempsey.png', 'Im_RobertPattinson.png', 'Im_RyanGosling.png', 'Im_GeorgeClooney.png', 'Im_DanielRadcliffe.png', 'Im_BradPitt.png', 'Im_LeonardoDiCaprio.png'],same,1,0.4167303999993237,15,92.85714285714286,
BRNA1411,train,neg,150,neg150_id13_im29.bmp_neg150_id13_im15.bmp,['Im_RobertDowneyJr.png', 'Im_OrlandoBloom.png', 'Im_DanielCraig.png', 'Im_PatrickDempsey.png', 'Im_RobertPattinson.png', 'Im_RyanGosling.png', 'Im_GeorgeClooney.png', 'Im_DanielRadcliffe.png', 'Im_BradPitt.png', 'Im_LeonardoDiCaprio.png'],diff,0,2.5084860999995726,15,92.85714285714286,
BRNA1411,train,neg,0,neg0_id16_im2.bmp_neg0_id19_im27.bmp,['Im_RobertDowneyJr.png', 'Im_OrlandoBloom.png', 'Im_DanielCraig.png', 'Im_PatrickDempsey.png', 'Im_RobertPattinson.png', 'Im_RyanGosling.png', 'Im_GeorgeClooney.png', 'Im_DanielRadcliffe.png', 'Im_BradPitt.png', 'Im_LeonardoDiCaprio.png'],diff,1,0.8836805000000822,16,92.85714285714286,
BRNA1411,train,neg,120,neg120_id19_im27.bmp_neg120_id4_im15.bmp,['Im_RobertDowneyJr.png', 'Im_OrlandoBloom.png', 'Im_DanielCraig.png', 'Im_PatrickDempsey.png', 'Im_RobertPattinson.png', 'Im_RyanGosling.png', 'Im_GeorgeClooney.png', 'Im_DanielRadcliffe.png', 'Im_BradPitt.png', 'Im_LeonardoDiCaprio.png'],diff,1,0.408349399999679,17,92.85714285714286,
BRNA1411,train,neg,fs,negfs_id19_im27.bmp_negfs_id16_im2.bmp,['Im_RobertDowneyJr.png', 'Im_OrlandoBloom.png', 'Im_DanielCraig.png', 'Im_PatrickDempsey.png', 'Im_RobertPattinson.png', 'Im_RyanGosling.png', 'Im_GeorgeClooney.png', 'Im_DanielRadcliffe.png', 'Im_BradPitt.png', 'Im_LeonardoDiCaprio.png'],diff,1,0.4250661999994918,18,92.85714285714286,
BRNA1411,train,neg,0,neg0_id3_im8.bmp_neg0_id3_im6.bmp,['Im_RobertDowneyJr.png', 'Im_OrlandoBloom.png', 'Im_DanielCraig.png', 'Im_PatrickDempsey.png', 'Im_RobertPattinson.png', 'Im_RyanGosling.png', 'Im_GeorgeClooney.png', 'Im_DanielRadcliffe.png', 'Im_BradPitt.png', 'Im_LeonardoDiCaprio.png'],same,1,0.40841420000015205,19,92.85714285714286,
BRNA1411,train,neg,90,neg90_id20_im3.bmp_neg90_id5_im10.bmp,['Im_RobertDowneyJr.png', 'Im_OrlandoBloom.png', 'Im_DanielCraig.png', 'Im_PatrickDempsey.png', 'Im_RobertPattinson.png', 'Im_RyanGosling.png', 'Im_GeorgeClooney.png', 'Im_DanielRadcliffe.png', 'Im_BradPitt.png', 'Im_LeonardoDiCaprio.png'],diff,1,0.4166992999998911,20,92.85714285714286,
BRNA1411,train,neg,90,neg90_id4_im20.bmp_neg90_id4_im15.bmp,['Im_RobertDowneyJr.png', 'Im_OrlandoBloom.png', 'Im_DanielCraig.png', 'Im_PatrickDempsey.png', 'Im_RobertPattinson.png', 'Im_RyanGosling.png', 'Im_GeorgeClooney.png', 'Im_DanielRadcliffe.png', 'Im_BradPitt.png', 'Im_LeonardoDiCaprio.png'],same,1,0.5253635999997641,21,92.85714285714286,
BRNA1411,train,pos,60,pos60_id19_im8.bmp_pos60_id19_im4.bmp,['Im_RobertDowneyJr.png', 'Im_OrlandoBloom.png', 'Im_DanielCraig.png', 'Im_PatrickDempsey.png', 'Im_RobertPattinson.png', 'Im_RyanGosling.png', 'Im_GeorgeClooney.png', 'Im_DanielRadcliffe.png', 'Im_BradPitt.png', 'Im_LeonardoDiCaprio.png'],same,1,0.60821980000037,22,92.85714285714286,
BRNA1411,train,pos,0,pos0_id17_im8.bmp_pos0_id17_im9.bmp,['Im_RobertDowneyJr.png', 'Im_OrlandoBloom.png', 'Im_DanielCraig.png', 'Im_PatrickDempsey.png', 'Im_RobertPattinson.png', 'Im_RyanGosling.png', 'Im_GeorgeClooney.png', 'Im_DanielRadcliffe.png', 'Im_BradPitt.png', 'Im_LeonardoDiCaprio.png'],same,1,0.42508120000002236,23,92.85714285714286,
BRNA1411,train,pos,150,pos150_id17_im9.bmp_pos150_id7_im14.bmp,['Im_RobertDowneyJr.png', 'Im_OrlandoBloom.png', 'Im_DanielCraig.png', 'Im_PatrickDempsey.png', 'Im_RobertPattinson.png', 'Im_RyanGosling.png', 'Im_GeorgeClooney.png', 'Im_DanielRadcliffe.png', 'Im_BradPitt.png', 'Im_LeonardoDiCaprio.png'],diff,1,0.42504680000001827,24,92.85714285714286,
BRNA1411,train,pos,60,pos60_id19_im27.bmp_pos60_id4_im15.bmp,['Im_RobertDowneyJr.png', 'Im_OrlandoBloom.png', 'Im_DanielCraig.png', 'Im_PatrickDempsey.png', 'Im_RobertPattinson.png', 'Im_RyanGosling.png', 'Im_GeorgeClooney.png', 'Im_DanielRadcliffe.png', 'Im_BradPitt.png', 'Im_LeonardoDiCaprio.png'],diff,1,0.42518049999944196,25,92.85714285714286,
BRNA1411,train,pos,90,pos90_id18_im11.bmp_pos90_id18_im19.bmp,['Im_RobertDowneyJr.png', 'Im_OrlandoBloom.png', 'Im_DanielCraig.png', 'Im_PatrickDempsey.png', 'Im_RobertPattinson.png', 'Im_RyanGosling.png', 'Im_GeorgeClooney.png', 'Im_DanielRadcliffe.png', 'Im_BradPitt.png', 'Im_LeonardoDiCaprio.png'],same,1,1.1750342999994245,26,92.85714285714286,
BRNA1411,train,pos,30,pos30_id13_im15.bmp_pos30_id3_im6.bmp,['Im_RobertDowneyJr.png', 'Im_OrlandoBloom.png', 'Im_DanielCraig.png', 'Im_PatrickDempsey.png', 'Im_RobertPattinson.png', 'Im_RyanGosling.png', 'Im_GeorgeClooney.png', 'Im_DanielRadcliffe.png', 'Im_BradPitt.png', 'Im_LeonardoDiCaprio.png'],diff,1,0.425116600000365,27,92.85714285714286,
BRNA1411,train,pos,150,pos150_id20_im3.bmp_pos150_id5_im10.bmp,['Im_RobertDowneyJr.png', 'Im_OrlandoBloom.png', 'Im_DanielCraig.png', 'Im_PatrickDempsey.png', 'Im_RobertPattinson.png', 'Im_RyanGosling.png', 'Im_GeorgeClooney.png', 'Im_DanielRadcliffe.png', 'Im_BradPitt.png', 'Im_LeonardoDiCaprio.png'],diff,1,0.416906100000233,28,92.85714285714286,
BRNA1411,train,pos,90,pos90_id16_im2.bmp_pos90_id18_im11.bmp,['Im_RobertDowneyJr.png', 'Im_OrlandoBloom.png', 'Im_DanielCraig.png', 'Im_PatrickDempsey.png', 'Im_RobertPattinson.png', 'Im_RyanGosling.png', 'Im_GeorgeClooney.png', 'Im_DanielRadcliffe.png', 'Im_BradPitt.png', 'Im_LeonardoDiCaprio.png'],diff,1,0.42510109999966517,29,92.85714285714286,
BRNA1411,train,pos,fs,posfs_id5_im20.bmp_posfs_id20_im3.bmp,['Im_RobertDowneyJr.png', 'Im_OrlandoBloom.png', 'Im_DanielCraig.png', 'Im_PatrickDempsey.png', 'Im_RobertPattinson.png', 'Im_RyanGosling.png', 'Im_GeorgeClooney.png', 'Im_DanielRadcliffe.png', 'Im_BradPitt.png', 'Im_LeonardoDiCaprio.png'],diff,1,0.4082447000000684,30,92.85714285714286,
BRNA1411,train,pos,120,pos120_id5_im20.bmp_pos120_id5_im10.bmp,['Im_RobertDowneyJr.png', 'Im_OrlandoBloom.png', 'Im_DanielCraig.png', 'Im_PatrickDempsey.png', 'Im_RobertPattinson.png', 'Im_RyanGosling.png', 'Im_GeorgeClooney.png', 'Im_DanielRadcliffe.png', 'Im_BradPitt.png', 'Im_LeonardoDiCaprio.png'],same,1,0.49172470000030444,31,92.85714285714286,
BRNA1411,train,pos,120,pos120_id3_im6.bmp_pos120_id13_im15.bmp,['Im_RobertDowneyJr.png', 'Im_OrlandoBloom.png', 'Im_DanielCraig.png', 'Im_PatrickDempsey.png', 'Im_RobertPattinson.png', 'Im_RyanGosling.png', 'Im_GeorgeClooney.png', 'Im_DanielRadcliffe.png', 'Im_BradPitt.png', 'Im_LeonardoDiCaprio.png'],diff,1,0.4333959000005052,32,92.85714285714286,
BRNA1411,train,pos,0,pos0_id16_im3.bmp_pos0_id3_im17.bmp,['Im_RobertDowneyJr.png', 'Im_OrlandoBloom.png', 'Im_DanielCraig.png', 'Im_PatrickDempsey.png', 'Im_RobertPattinson.png', 'Im_RyanGosling.png', 'Im_GeorgeClooney.png', 'Im_DanielRadcliffe.png', 'Im_BradPitt.png', 'Im_LeonardoDiCaprio.png'],diff,1,0.4251891000003525,33,92.85714285714286,
BRNA1411,train,pos,30,pos30_id7_im14.bmp_pos30_id7_im15.bmp,['Im_RobertDowneyJr.png', 'Im_OrlandoBloom.png', 'Im_DanielCraig.png', 'Im_PatrickDempsey.png', 'Im_RobertPattinson.png', 'Im_RyanGosling.png', 'Im_GeorgeClooney.png', 'Im_DanielRadcliffe.png', 'Im_BradPitt.png', 'Im_LeonardoDiCaprio.png'],same,1,0.45017860000007204,34,92.85714285714286,
BRNA1411,train,pos,fs,posfs_id7_im26.bmp_posfs_id19_im4.bmp,['Im_RobertDowneyJr.png', 'Im_OrlandoBloom.png', 'Im_DanielCraig.png', 'Im_PatrickDempsey.png', 'Im_RobertPattinson.png', 'Im_RyanGosling.png', 'Im_GeorgeClooney.png', 'Im_DanielRadcliffe.png', 'Im_BradPitt.png', 'Im_LeonardoDiCaprio.png'],diff,1,0.4250582000004215,35,92.85714285714286,
BRNA1411,0,neg,90,neg90_id5_im20.bmp_neg90_id5_im1.bmp,['Im_RobertDowneyJr.png', 'Im_OrlandoBloom.png', 'Im_DanielCraig.png', 'Im_PatrickDempsey.png', 'Im_RobertPattinson.png', 'Im_RyanGosling.png', 'Im_GeorgeClooney.png', 'Im_DanielRadcliffe.png', 'Im_BradPitt.png', 'Im_LeonardoDiCaprio.png'],same,1,0.7169293000006292,1,0,
BRNA1411,0,neg,fs,negfs_id5_im20.bmp_negfs_id20_im3.bmp,['Im_RobertDowneyJr.png', 'Im_OrlandoBloom.png', 'Im_DanielCraig.png', 'Im_PatrickDempsey.png', 'Im_RobertPattinson.png', 'Im_RyanGosling.png', 'Im_GeorgeClooney.png', 'Im_DanielRadcliffe.png', 'Im_BradPitt.png', 'Im_LeonardoDiCaprio.png'],diff,1,0.42507819999991625,2,0,
BRNA1411,0,neg,150,neg150_id4_im20.bmp_neg150_id4_im15.bmp,['Im_RobertDowneyJr.png', 'Im_OrlandoBloom.png', 'Im_DanielCraig.png', 'Im_PatrickDempsey.png', 'Im_RobertPattinson.png', 'Im_RyanGosling.png', 'Im_GeorgeClooney.png', 'Im_DanielRadcliffe.png', 'Im_BradPitt.png', 'Im_LeonardoDiCaprio.png'],same,1,0.42482449999988603,3,0,
BRNA1411,0,neg,60,neg60_id3_im8.bmp_neg60_id3_im17.bmp,['Im_RobertDowneyJr.png', 'Im_OrlandoBloom.png', 'Im_DanielCraig.png', 'Im_PatrickDempsey.png', 'Im_RobertPattinson.png', 'Im_RyanGosling.png', 'Im_GeorgeClooney.png', 'Im_DanielRadcliffe.png', 'Im_BradPitt.png', 'Im_LeonardoDiCaprio.png'],same,1,0.42504470000039873,4,0,
BRNA1411,0,neg,30,neg30_id17_im14.bmp_neg30_id17_im9.bmp,['Im_RobertDowneyJr.png', 'Im_OrlandoBloom.png', 'Im_DanielCraig.png', 'Im_PatrickDempsey.png', 'Im_RobertPattinson.png', 'Im_RyanGosling.png', 'Im_GeorgeClooney.png', 'Im_DanielRadcliffe.png', 'Im_BradPitt.png', 'Im_LeonardoDiCaprio.png'],diff,0,2.1500139999998282,4,0,
BRNA1411,0,neg,0,neg0_id19_im8.bmp_neg0_id19_im27.bmp,['Im_RobertDowneyJr.png', 'Im_OrlandoBloom.png', 'Im_DanielCraig.png', 'Im_PatrickDempsey.png', 'Im_RobertPattinson.png', 'Im_RyanGosling.png', 'Im_GeorgeClooney.png', 'Im_DanielRadcliffe.png', 'Im_BradPitt.png', 'Im_LeonardoDiCaprio.png'],same,1,0.4250701000000845,5,0,
BRNA1411,0,neg,90,neg90_id3_im8.bmp_neg90_id18_im11.bmp,['Im_RobertDowneyJr.png', 'Im_OrlandoBloom.png', 'Im_DanielCraig.png', 'Im_PatrickDempsey.png', 'Im_RobertPattinson.png', 'Im_RyanGosling.png', 'Im_GeorgeClooney.png', 'Im_DanielRadcliffe.png', 'Im_BradPitt.png', 'Im_LeonardoDiCaprio.png'],diff,1,0.4251196000004711,6,0,
BRNA1411,0,neg,120,neg120_id17_im8.bmp_neg120_id5_im10.bmp,['Im_RobertDowneyJr.png', 'Im_OrlandoBloom.png', 'Im_DanielCraig.png', 'Im_PatrickDempsey.png', 'Im_RobertPattinson.png', 'Im_RyanGosling.png', 'Im_GeorgeClooney.png', 'Im_DanielRadcliffe.png', 'Im_BradPitt.png', 'Im_LeonardoDiCaprio.png'],same,0,0.45003319999977975,6,0,
BRNA1411,0,neg,60,neg60_id17_im14.bmp_neg60_id17_im9.bmp,['Im_RobertDowneyJr.png', 'Im_OrlandoBloom.png', 'Im_DanielCraig.png', 'Im_PatrickDempsey.png', 'Im_RobertPattinson.png', 'Im_RyanGosling.png', 'Im_GeorgeClooney.png', 'Im_DanielRadcliffe.png', 'Im_BradPitt.png', 'Im_LeonardoDiCaprio.png'],same,1,0.4249417999999423,7,0,
BRNA1411,0,neg,150,neg150_id7_im14.bmp_neg150_id7_im26.bmp,['Im_RobertDowneyJr.png', 'Im_OrlandoBloom.png', 'Im_DanielCraig.png', 'Im_PatrickDempsey.png', 'Im_RobertPattinson.png', 'Im_RyanGosling.png', 'Im_GeorgeClooney.png', 'Im_DanielRadcliffe.png', 'Im_BradPitt.png', 'Im_LeonardoDiCaprio.png'],diff,0,1.0833852000005209,7,0,
BRNA1411,0,neg,30,neg30_id3_im8.bmp_neg30_id3_im6.bmp,['Im_RobertDowneyJr.png', 'Im_OrlandoBloom.png', 'Im_DanielCraig.png', 'Im_PatrickDempsey.png', 'Im_RobertPattinson.png', 'Im_RyanGosling.png', 'Im_GeorgeClooney.png', 'Im_DanielRadcliffe.png', 'Im_BradPitt.png', 'Im_LeonardoDiCaprio.png'],same,1,0.42518359999940003,8,0,
BRNA1411,0,neg,120,neg120_id19_im27.bmp_neg120_id19_im8.bmp,['Im_RobertDowneyJr.png', 'Im_OrlandoBloom.png', 'Im_DanielCraig.png', 'Im_PatrickDempsey.png', 'Im_RobertPattinson.png', 'Im_RyanGosling.png', 'Im_GeorgeClooney.png', 'Im_DanielRadcliffe.png', 'Im_BradPitt.png', 'Im_LeonardoDiCaprio.png'],same,1,0.4085187999999107,9,0,
BRNA1411,0,neg,0,neg0_id5_im20.bmp_neg0_id5_im1.bmp,['Im_RobertDowneyJr.png', 'Im_OrlandoBloom.png', 'Im_DanielCraig.png', 'Im_PatrickDempsey.png', 'Im_RobertPattinson.png', 'Im_RyanGosling.png', 'Im_GeorgeClooney.png', 'Im_DanielRadcliffe.png', 'Im_BradPitt.png', 'Im_LeonardoDiCaprio.png'],same,1,1.1339393000007476,10,0,
BRNA1411,0,neg,fs,negfs_id7_im14.bmp_negfs_id4_im20.bmp,['Im_RobertDowneyJr.png', 'Im_OrlandoBloom.png', 'Im_DanielCraig.png', 'Im_PatrickDempsey.png', 'Im_RobertPattinson.png', 'Im_RyanGosling.png', 'Im_GeorgeClooney.png', 'Im_DanielRadcliffe.png', 'Im_BradPitt.png', 'Im_LeonardoDiCaprio.png'],diff,1,0.416724400000021,11,0,
BRNA1411,1,pos,150,pos150_id3_im17.bmp_pos150_id3_im8.bmp,['Im_RobertDowneyJr.png', 'Im_OrlandoBloom.png', 'Im_DanielCraig.png', 'Im_PatrickDempsey.png', 'Im_RobertPattinson.png', 'Im_RyanGosling.png', 'Im_GeorgeClooney.png', 'Im_DanielRadcliffe.png', 'Im_BradPitt.png', 'Im_LeonardoDiCaprio.png'],same,1,0.4167429999997694,12,0,
BRNA1411,1,pos,30,pos30_id16_im2.bmp_pos30_id18_im11.bmp,['Im_RobertDowneyJr.png', 'Im_OrlandoBloom.png', 'Im_DanielCraig.png', 'Im_PatrickDempsey.png', 'Im_RobertPattinson.png', 'Im_RyanGosling.png', 'Im_GeorgeClooney.png', 'Im_DanielRadcliffe.png', 'Im_BradPitt.png', 'Im_LeonardoDiCaprio.png'],diff,1,0.40854380000018864,13,0,
BRNA1411,1,pos,150,pos150_id16_im19.bmp_pos150_id16_im3.bmp,['Im_RobertDowneyJr.png', 'Im_OrlandoBloom.png', 'Im_DanielCraig.png', 'Im_PatrickDempsey.png', 'Im_RobertPattinson.png', 'Im_RyanGosling.png', 'Im_GeorgeClooney.png', 'Im_DanielRadcliffe.png', 'Im_BradPitt.png', 'Im_LeonardoDiCaprio.png'],same,1,0.7921479000006002,14,0,
BRNA1411,1,pos,30,pos30_id13_im10.bmp_pos30_id5_im1.bmp,['Im_RobertDowneyJr.png', 'Im_OrlandoBloom.png', 'Im_DanielCraig.png', 'Im_PatrickDempsey.png', 'Im_RobertPattinson.png', 'Im_RyanGosling.png', 'Im_GeorgeClooney.png', 'Im_DanielRadcliffe.png', 'Im_BradPitt.png', 'Im_LeonardoDiCaprio.png'],diff,1,0.40843040000072506,15,0,
BRNA1411,1,pos,90,pos90_id7_im14.bmp_pos90_id7_im26.bmp,['Im_RobertDowneyJr.png', 'Im_OrlandoBloom.png', 'Im_DanielCraig.png', 'Im_PatrickDempsey.png', 'Im_RobertPattinson.png', 'Im_RyanGosling.png', 'Im_GeorgeClooney.png', 'Im_DanielRadcliffe.png', 'Im_BradPitt.png', 'Im_LeonardoDiCaprio.png'],diff,0,0.6917783999997482,15,0,
BRNA1411,1,pos,60,pos60_id18_im18.bmp_pos60_id18_im19.bmp,['Im_RobertDowneyJr.png', 'Im_OrlandoBloom.png', 'Im_DanielCraig.png', 'Im_PatrickDempsey.png', 'Im_RobertPattinson.png', 'Im_RyanGosling.png', 'Im_GeorgeClooney.png', 'Im_DanielRadcliffe.png', 'Im_BradPitt.png', 'Im_LeonardoDiCaprio.png'],diff,0,0.8752510000003895,15,0,
BRNA1411,1,pos,fs,posfs_id7_im15.bmp_posfs_id7_im14.bmp,['Im_RobertDowneyJr.png', 'Im_OrlandoBloom.png', 'Im_DanielCraig.png', 'Im_PatrickDempsey.png', 'Im_RobertPattinson.png', 'Im_RyanGosling.png', 'Im_GeorgeClooney.png', 'Im_DanielRadcliffe.png', 'Im_BradPitt.png', 'Im_LeonardoDiCaprio.png'],same,1,0.42509960000006686,16,0,
BRNA1411,1,pos,120,pos120_id16_im3.bmp_pos120_id16_im2.bmp,['Im_RobertDowneyJr.png', 'Im_OrlandoBloom.png', 'Im_DanielCraig.png', 'Im_PatrickDempsey.png', 'Im_RobertPattinson.png', 'Im_RyanGosling.png', 'Im_GeorgeClooney.png', 'Im_DanielRadcliffe.png', 'Im_BradPitt.png', 'Im_LeonardoDiCaprio.png'],same,1,0.4250797999993665,17,0,
BRNA1411,1,pos,60,pos60_id16_im19.bmp_pos60_id19_im8.bmp,['Im_RobertDowneyJr.png', 'Im_OrlandoBloom.png', 'Im_DanielCraig.png', 'Im_PatrickDempsey.png', 'Im_RobertPattinson.png', 'Im_RyanGosling.png', 'Im_GeorgeClooney.png', 'Im_DanielRadcliffe.png', 'Im_BradPitt.png', 'Im_LeonardoDiCaprio.png'],diff,1,0.42524890000004234,18,0,
BRNA1411,1,pos,120,pos120_id7_im14.bmp_pos120_id17_im9.bmp,['Im_RobertDowneyJr.png', 'Im_OrlandoBloom.png', 'Im_DanielCraig.png', 'Im_PatrickDempsey.png', 'Im_RobertPattinson.png', 'Im_RyanGosling.png', 'Im_GeorgeClooney.png', 'Im_DanielRadcliffe.png', 'Im_BradPitt.png', 'Im_LeonardoDiCaprio.png'],diff,1,0.4250802000005933,19,0,
BRNA1411,1,pos,90,pos90_id3_im6.bmp_pos90_id13_im15.bmp,['Im_RobertDowneyJr.png', 'Im_OrlandoBloom.png', 'Im_DanielCraig.png', 'Im_PatrickDempsey.png', 'Im_RobertPattinson.png', 'Im_RyanGosling.png', 'Im_GeorgeClooney.png', 'Im_DanielRadcliffe.png', 'Im_BradPitt.png', 'Im_LeonardoDiCaprio.png'],same,0,0.5250158000008014,19,0,
BRNA1411,1,pos,0,pos0_id16_im2.bmp_pos0_id19_im27.bmp,['Im_RobertDowneyJr.png', 'Im_OrlandoBloom.png', 'Im_DanielCraig.png', 'Im_PatrickDempsey.png', 'Im_RobertPattinson.png', 'Im_RyanGosling.png', 'Im_GeorgeClooney.png', 'Im_DanielRadcliffe.png', 'Im_BradPitt.png', 'Im_LeonardoDiCaprio.png'],diff,1,0.4168104000000312,20,0,
BRNA1411,1,pos,fs,posfs_id4_im7.bmp_posfs_id4_im20.bmp,['Im_RobertDowneyJr.png', 'Im_OrlandoBloom.png', 'Im_DanielCraig.png', 'Im_PatrickDempsey.png', 'Im_RobertPattinson.png', 'Im_RyanGosling.png', 'Im_GeorgeClooney.png', 'Im_DanielRadcliffe.png', 'Im_BradPitt.png', 'Im_LeonardoDiCaprio.png'],same,1,0.4168800999996165,21,0,
BRNA1411,1,pos,0,pos0_id5_im10.bmp_pos0_id17_im8.bmp,['Im_RobertDowneyJr.png', 'Im_OrlandoBloom.png', 'Im_DanielCraig.png', 'Im_PatrickDempsey.png', 'Im_RobertPattinson.png', 'Im_RyanGosling.png', 'Im_GeorgeClooney.png', 'Im_DanielRadcliffe.png', 'Im_BradPitt.png', 'Im_LeonardoDiCaprio.png'],diff,1,0.46670019999965007,22,0,
BRNA1411,2,inv,90,pos90_id7_im26.bmp_pos90_id7_im15.bmp,['Im_RobertDowneyJr.png', 'Im_OrlandoBloom.png', 'Im_DanielCraig.png', 'Im_PatrickDempsey.png', 'Im_RobertPattinson.png', 'Im_RyanGosling.png', 'Im_GeorgeClooney.png', 'Im_DanielRadcliffe.png', 'Im_BradPitt.png', 'Im_LeonardoDiCaprio.png'],same,1,0.5251931000002514,23,0,
BRNA1411,2,inv,60,pos60_id13_im15.bmp_pos60_id18_im18.bmp,['Im_RobertDowneyJr.png', 'Im_OrlandoBloom.png', 'Im_DanielCraig.png', 'Im_PatrickDempsey.png', 'Im_RobertPattinson.png', 'Im_RyanGosling.png', 'Im_GeorgeClooney.png', 'Im_DanielRadcliffe.png', 'Im_BradPitt.png', 'Im_LeonardoDiCaprio.png'],diff,1,0.5585511999997834,24,0,
BRNA1411,2,inv,90,pos90_id20_im12.bmp_pos90_id7_im15.bmp,['Im_RobertDowneyJr.png', 'Im_OrlandoBloom.png', 'Im_DanielCraig.png', 'Im_PatrickDempsey.png', 'Im_RobertPattinson.png', 'Im_RyanGosling.png', 'Im_GeorgeClooney.png', 'Im_DanielRadcliffe.png', 'Im_BradPitt.png', 'Im_LeonardoDiCaprio.png'],diff,1,0.733233900000414,25,0,
BRNA1411,2,inv,30,pos30_id4_im15.bmp_pos30_id19_im27.bmp,['Im_RobertDowneyJr.png', 'Im_OrlandoBloom.png', 'Im_DanielCraig.png', 'Im_PatrickDempsey.png', 'Im_RobertPattinson.png', 'Im_RyanGosling.png', 'Im_GeorgeClooney.png', 'Im_DanielRadcliffe.png', 'Im_BradPitt.png', 'Im_LeonardoDiCaprio.png'],diff,1,0.5836491999998543,26,0,
BRNA1411,2,inv,30,pos30_id18_im19.bmp_pos30_id3_im6.bmp,['Im_RobertDowneyJr.png', 'Im_OrlandoBloom.png', 'Im_DanielCraig.png', 'Im_PatrickDempsey.png', 'Im_RobertPattinson.png', 'Im_RyanGosling.png', 'Im_GeorgeClooney.png', 'Im_DanielRadcliffe.png', 'Im_BradPitt.png', 'Im_LeonardoDiCaprio.png'],diff,1,0.6253003000001627,27,0,
BRNA1411,2,inv,150,pos150_id19_im27.bmp_pos150_id19_im4.bmp,['Im_RobertDowneyJr.png', 'Im_OrlandoBloom.png', 'Im_DanielCraig.png', 'Im_PatrickDempsey.png', 'Im_RobertPattinson.png', 'Im_RyanGosling.png', 'Im_GeorgeClooney.png', 'Im_DanielRadcliffe.png', 'Im_BradPitt.png', 'Im_LeonardoDiCaprio.png'],same,1,0.8415707000003749,28,0,
BRNA1411,2,inv,0,pos0_id13_im29.bmp_pos0_id16_im3.bmp,['Im_RobertDowneyJr.png', 'Im_OrlandoBloom.png', 'Im_DanielCraig.png', 'Im_PatrickDempsey.png', 'Im_RobertPattinson.png', 'Im_RyanGosling.png', 'Im_GeorgeClooney.png', 'Im_DanielRadcliffe.png', 'Im_BradPitt.png', 'Im_LeonardoDiCaprio.png'],diff,1,0.4501838999995016,29,0,
BRNA1411,2,inv,60,pos60_id16_im3.bmp_pos60_id13_im29.bmp,['Im_RobertDowneyJr.png', 'Im_OrlandoBloom.png', 'Im_DanielCraig.png', 'Im_PatrickDempsey.png', 'Im_RobertPattinson.png', 'Im_RyanGosling.png', 'Im_GeorgeClooney.png', 'Im_DanielRadcliffe.png', 'Im_BradPitt.png', 'Im_LeonardoDiCaprio.png'],same,0,0.5498648999991929,29,0,
BRNA1411,2,inv,fs,posfs_id4_im20.bmp_posfs_id4_im7.bmp,['Im_RobertDowneyJr.png', 'Im_OrlandoBloom.png', 'Im_DanielCraig.png', 'Im_PatrickDempsey.png', 'Im_RobertPattinson.png', 'Im_RyanGosling.png', 'Im_GeorgeClooney.png', 'Im_DanielRadcliffe.png', 'Im_BradPitt.png', 'Im_LeonardoDiCaprio.png'],same,1,0.43339150000065274,30,0,
BRNA1411,2,inv,150,pos150_id18_im19.bmp_pos150_id3_im6.bmp,['Im_RobertDowneyJr.png', 'Im_OrlandoBloom.png', 'Im_DanielCraig.png', 'Im_PatrickDempsey.png', 'Im_RobertPattinson.png', 'Im_RyanGosling.png', 'Im_GeorgeClooney.png', 'Im_DanielRadcliffe.png', 'Im_BradPitt.png', 'Im_LeonardoDiCaprio.png'],same,0,1.4751758000002155,30,0,
BRNA1411,2,inv,120,pos120_id19_im27.bmp_pos120_id4_im15.bmp,['Im_RobertDowneyJr.png', 'Im_OrlandoBloom.png', 'Im_DanielCraig.png', 'Im_PatrickDempsey.png', 'Im_RobertPattinson.png', 'Im_RyanGosling.png', 'Im_GeorgeClooney.png', 'Im_DanielRadcliffe.png', 'Im_BradPitt.png', 'Im_LeonardoDiCaprio.png'],diff,1,0.42504660000031436,31,0,
BRNA1411,2,inv,120,pos120_id7_im14.bmp_pos120_id4_im20.bmp,['Im_RobertDowneyJr.png', 'Im_OrlandoBloom.png', 'Im_DanielCraig.png', 'Im_PatrickDempsey.png', 'Im_RobertPattinson.png', 'Im_RyanGosling.png', 'Im_GeorgeClooney.png', 'Im_DanielRadcliffe.png', 'Im_BradPitt.png', 'Im_LeonardoDiCaprio.png'],diff,1,0.43342410000059317,32,0,
BRNA1411,2,inv,fs,posfs_id18_im18.bmp_posfs_id18_im11.bmp,['Im_RobertDowneyJr.png', 'Im_OrlandoBloom.png', 'Im_DanielCraig.png', 'Im_PatrickDempsey.png', 'Im_RobertPattinson.png', 'Im_RyanGosling.png', 'Im_GeorgeClooney.png', 'Im_DanielRadcliffe.png', 'Im_BradPitt.png', 'Im_LeonardoDiCaprio.png'],same,1,0.4334281999999803,33,0,
BRNA1411,2,inv,0,pos0_id13_im15.bmp_pos0_id13_im10.bmp,['Im_RobertDowneyJr.png', 'Im_OrlandoBloom.png', 'Im_DanielCraig.png', 'Im_PatrickDempsey.png', 'Im_RobertPattinson.png', 'Im_RyanGosling.png', 'Im_GeorgeClooney.png', 'Im_DanielRadcliffe.png', 'Im_BradPitt.png', 'Im_LeonardoDiCaprio.png'],same,1,0.41658409999945434,34,0,
BRNA1411,3,neg,0,neg0_id16_im19.bmp_neg0_id17_im8.bmp,['Im_RobertDowneyJr.png', 'Im_OrlandoBloom.png', 'Im_DanielCraig.png', 'Im_PatrickDempsey.png', 'Im_RobertPattinson.png', 'Im_RyanGosling.png', 'Im_GeorgeClooney.png', 'Im_DanielRadcliffe.png', 'Im_BradPitt.png', 'Im_LeonardoDiCaprio.png'],same,0,0.48352369999975053,0,80.95238095238095,
BRNA1411,3,neg,fs,negfs_id3_im6.bmp_negfs_id3_im17.bmp,['Im_RobertDowneyJr.png', 'Im_OrlandoBloom.png', 'Im_DanielCraig.png', 'Im_PatrickDempsey.png', 'Im_RobertPattinson.png', 'Im_RyanGosling.png', 'Im_GeorgeClooney.png', 'Im_DanielRadcliffe.png', 'Im_BradPitt.png', 'Im_LeonardoDiCaprio.png'],same,1,0.4333799000005456,1,80.95238095238095,
BRNA1411,3,neg,90,neg90_id3_im17.bmp_neg90_id16_im3.bmp,['Im_RobertDowneyJr.png', 'Im_OrlandoBloom.png', 'Im_DanielCraig.png', 'Im_PatrickDempsey.png', 'Im_RobertPattinson.png', 'Im_RyanGosling.png', 'Im_GeorgeClooney.png', 'Im_DanielRadcliffe.png', 'Im_BradPitt.png', 'Im_LeonardoDiCaprio.png'],same,0,0.733286799999405,1,80.95238095238095,
BRNA1411,3,neg,120,neg120_id16_im3.bmp_neg120_id13_im29.bmp,['Im_RobertDowneyJr.png', 'Im_OrlandoBloom.png', 'Im_DanielCraig.png', 'Im_PatrickDempsey.png', 'Im_RobertPattinson.png', 'Im_RyanGosling.png', 'Im_GeorgeClooney.png', 'Im_DanielRadcliffe.png', 'Im_BradPitt.png', 'Im_LeonardoDiCaprio.png'],diff,1,0.4167588000000251,2,80.95238095238095,
BRNA1411,3,neg,30,neg30_id17_im14.bmp_neg30_id20_im12.bmp,['Im_RobertDowneyJr.png', 'Im_OrlandoBloom.png', 'Im_DanielCraig.png', 'Im_PatrickDempsey.png', 'Im_RobertPattinson.png', 'Im_RyanGosling.png', 'Im_GeorgeClooney.png', 'Im_DanielRadcliffe.png', 'Im_BradPitt.png', 'Im_LeonardoDiCaprio.png'],diff,1,0.4166640000003099,3,80.95238095238095,
BRNA1411,3,neg,0,neg0_id4_im20.bmp_neg0_id7_im14.bmp,['Im_RobertDowneyJr.png', 'Im_OrlandoBloom.png', 'Im_DanielCraig.png', 'Im_PatrickDempsey.png', 'Im_RobertPattinson.png', 'Im_RyanGosling.png', 'Im_GeorgeClooney.png', 'Im_DanielRadcliffe.png', 'Im_BradPitt.png', 'Im_LeonardoDiCaprio.png'],diff,1,0.4335681000002296,4,80.95238095238095,
BRNA1411,3,neg,fs,negfs_id4_im7.bmp_negfs_id18_im18.bmp,['Im_RobertDowneyJr.png', 'Im_OrlandoBloom.png', 'Im_DanielCraig.png', 'Im_PatrickDempsey.png', 'Im_RobertPattinson.png', 'Im_RyanGosling.png', 'Im_GeorgeClooney.png', 'Im_DanielRadcliffe.png', 'Im_BradPitt.png', 'Im_LeonardoDiCaprio.png'],diff,1,0.42486139999982697,5,80.95238095238095,
BRNA1411,3,neg,120,neg120_id3_im6.bmp_neg120_id13_im15.bmp,['Im_RobertDowneyJr.png', 'Im_OrlandoBloom.png', 'Im_DanielCraig.png', 'Im_PatrickDempsey.png', 'Im_RobertPattinson.png', 'Im_RyanGosling.png', 'Im_GeorgeClooney.png', 'Im_DanielRadcliffe.png', 'Im_BradPitt.png', 'Im_LeonardoDiCaprio.png'],diff,1,0.4250538999995115,6,80.95238095238095,
BRNA1411,3,neg,30,neg30_id17_im8.bmp_neg30_id16_im19.bmp,['Im_RobertDowneyJr.png', 'Im_OrlandoBloom.png', 'Im_DanielCraig.png', 'Im_PatrickDempsey.png', 'Im_RobertPattinson.png', 'Im_RyanGosling.png', 'Im_GeorgeClooney.png', 'Im_DanielRadcliffe.png', 'Im_BradPitt.png', 'Im_LeonardoDiCaprio.png'],diff,1,0.41673979999995936,7,80.95238095238095,
BRNA1411,3,neg,150,neg150_id18_im11.bmp_neg150_id18_im19.bmp,['Im_RobertDowneyJr.png', 'Im_OrlandoBloom.png', 'Im_DanielCraig.png', 'Im_PatrickDempsey.png', 'Im_RobertPattinson.png', 'Im_RyanGosling.png', 'Im_GeorgeClooney.png', 'Im_DanielRadcliffe.png', 'Im_BradPitt.png', 'Im_LeonardoDiCaprio.png'],diff,0,2.383371299999453,7,80.95238095238095,
BRNA1411,3,neg,150,neg150_id3_im8.bmp_neg150_id7_im26.bmp,['Im_RobertDowneyJr.png', 'Im_OrlandoBloom.png', 'Im_DanielCraig.png', 'Im_PatrickDempsey.png', 'Im_RobertPattinson.png', 'Im_RyanGosling.png', 'Im_GeorgeClooney.png', 'Im_DanielRadcliffe.png', 'Im_BradPitt.png', 'Im_LeonardoDiCaprio.png'],same,0,0.4167014000004201,7,80.95238095238095,
BRNA1411,3,neg,60,neg60_id5_im1.bmp_neg60_id4_im15.bmp,['Im_RobertDowneyJr.png', 'Im_OrlandoBloom.png', 'Im_DanielCraig.png', 'Im_PatrickDempsey.png', 'Im_RobertPattinson.png', 'Im_RyanGosling.png', 'Im_GeorgeClooney.png', 'Im_DanielRadcliffe.png', 'Im_BradPitt.png', 'Im_LeonardoDiCaprio.png'],diff,1,0.42484150000018417,8,80.95238095238095,
BRNA1411,3,neg,90,neg90_id3_im6.bmp_neg90_id3_im8.bmp,['Im_RobertDowneyJr.png', 'Im_OrlandoBloom.png', 'Im_DanielCraig.png', 'Im_PatrickDempsey.png', 'Im_RobertPattinson.png', 'Im_RyanGosling.png', 'Im_GeorgeClooney.png', 'Im_DanielRadcliffe.png', 'Im_BradPitt.png', 'Im_LeonardoDiCaprio.png'],same,1,0.41676100000040606,9,80.95238095238095,
BRNA1411,3,neg,60,neg60_id16_im19.bmp_neg60_id17_im8.bmp,['Im_RobertDowneyJr.png', 'Im_OrlandoBloom.png', 'Im_DanielCraig.png', 'Im_PatrickDempsey.png', 'Im_RobertPattinson.png', 'Im_RyanGosling.png', 'Im_GeorgeClooney.png', 'Im_DanielRadcliffe.png', 'Im_BradPitt.png', 'Im_LeonardoDiCaprio.png'],diff,1,0.4167472999997699,10,80.95238095238095,
BRNA1411,4,pos,0,pos0_id4_im15.bmp_pos0_id19_im27.bmp,['Im_RobertDowneyJr.png', 'Im_OrlandoBloom.png', 'Im_DanielCraig.png', 'Im_PatrickDempsey.png', 'Im_RobertPattinson.png', 'Im_RyanGosling.png', 'Im_GeorgeClooney.png', 'Im_DanielRadcliffe.png', 'Im_BradPitt.png', 'Im_LeonardoDiCaprio.png'],diff,1,0.4250187999996342,11,80.95238095238095,
BRNA1411,4,pos,30,pos30_id20_im3.bmp_pos30_id20_im12.bmp,['Im_RobertDowneyJr.png', 'Im_OrlandoBloom.png', 'Im_DanielCraig.png', 'Im_PatrickDempsey.png', 'Im_RobertPattinson.png', 'Im_RyanGosling.png', 'Im_GeorgeClooney.png', 'Im_DanielRadcliffe.png', 'Im_BradPitt.png', 'Im_LeonardoDiCaprio.png'],same,1,0.4250813999997263,12,80.95238095238095,
BRNA1411,4,pos,150,pos150_id20_im12.bmp_pos150_id7_im15.bmp,['Im_RobertDowneyJr.png', 'Im_OrlandoBloom.png', 'Im_DanielCraig.png', 'Im_PatrickDempsey.png', 'Im_RobertPattinson.png', 'Im_RyanGosling.png', 'Im_GeorgeClooney.png', 'Im_DanielRadcliffe.png', 'Im_BradPitt.png', 'Im_LeonardoDiCaprio.png'],diff,1,0.4167725999996037,13,80.95238095238095,
BRNA1411,4,pos,fs,posfs_id5_im20.bmp_posfs_id17_im14.bmp,['Im_RobertDowneyJr.png', 'Im_OrlandoBloom.png', 'Im_DanielCraig.png', 'Im_PatrickDempsey.png', 'Im_RobertPattinson.png', 'Im_RyanGosling.png', 'Im_GeorgeClooney.png', 'Im_DanielRadcliffe.png', 'Im_BradPitt.png', 'Im_LeonardoDiCaprio.png'],diff,1,0.41673569999966276,14,80.95238095238095,
BRNA1411,4,pos,90,pos90_id18_im19.bmp_pos90_id18_im18.bmp,['Im_RobertDowneyJr.png', 'Im_OrlandoBloom.png', 'Im_DanielCraig.png', 'Im_PatrickDempsey.png', 'Im_RobertPattinson.png', 'Im_RyanGosling.png', 'Im_GeorgeClooney.png', 'Im_DanielRadcliffe.png', 'Im_BradPitt.png', 'Im_LeonardoDiCaprio.png'],diff,0,0.41673610000088956,14,80.95238095238095,
BRNA1411,4,pos,60,pos60_id7_im26.bmp_pos60_id7_im14.bmp,['Im_RobertDowneyJr.png', 'Im_OrlandoBloom.png', 'Im_DanielCraig.png', 'Im_PatrickDempsey.png', 'Im_RobertPattinson.png', 'Im_RyanGosling.png', 'Im_GeorgeClooney.png', 'Im_DanielRadcliffe.png', 'Im_BradPitt.png', 'Im_LeonardoDiCaprio.png'],same,1,0.42512170000009064,15,80.95238095238095,
BRNA1411,4,pos,0,pos0_id19_im4.bmp_pos0_id7_im15.bmp,['Im_RobertDowneyJr.png', 'Im_OrlandoBloom.png', 'Im_DanielCraig.png', 'Im_PatrickDempsey.png', 'Im_RobertPattinson.png', 'Im_RyanGosling.png', 'Im_GeorgeClooney.png', 'Im_DanielRadcliffe.png', 'Im_BradPitt.png', 'Im_LeonardoDiCaprio.png'],diff,1,0.41657690000010916,16,80.95238095238095,
BRNA1411,4,pos,90,pos90_id7_im26.bmp_pos90_id7_im15.bmp,['Im_RobertDowneyJr.png', 'Im_OrlandoBloom.png', 'Im_DanielCraig.png', 'Im_PatrickDempsey.png', 'Im_RobertPattinson.png', 'Im_RyanGosling.png', 'Im_GeorgeClooney.png', 'Im_DanielRadcliffe.png', 'Im_BradPitt.png', 'Im_LeonardoDiCaprio.png'],diff,0,1.2668917000000874,16,80.95238095238095,
BRNA1411,4,pos,120,pos120_id3_im6.bmp_pos120_id3_im8.bmp,['Im_RobertDowneyJr.png', 'Im_OrlandoBloom.png', 'Im_DanielCraig.png', 'Im_PatrickDempsey.png', 'Im_RobertPattinson.png', 'Im_RyanGosling.png', 'Im_GeorgeClooney.png', 'Im_DanielRadcliffe.png', 'Im_BradPitt.png', 'Im_LeonardoDiCaprio.png'],same,1,0.7585875000004307,17,80.95238095238095,
BRNA1411,4,pos,fs,posfs_id20_im3.bmp_posfs_id20_im12.bmp,['Im_RobertDowneyJr.png', 'Im_OrlandoBloom.png', 'Im_DanielCraig.png', 'Im_PatrickDempsey.png', 'Im_RobertPattinson.png', 'Im_RyanGosling.png', 'Im_GeorgeClooney.png', 'Im_DanielRadcliffe.png', 'Im_BradPitt.png', 'Im_LeonardoDiCaprio.png'],same,1,0.4167324000000008,18,80.95238095238095,
BRNA1411,4,pos,30,pos30_id20_im30.bmp_pos30_id4_im20.bmp,['Im_RobertDowneyJr.png', 'Im_OrlandoBloom.png', 'Im_DanielCraig.png', 'Im_PatrickDempsey.png', 'Im_RobertPattinson.png', 'Im_RyanGosling.png', 'Im_GeorgeClooney.png', 'Im_DanielRadcliffe.png', 'Im_BradPitt.png', 'Im_LeonardoDiCaprio.png'],diff,1,0.4085456000002523,19,80.95238095238095,
BRNA1411,4,pos,150,pos150_id3_im8.bmp_pos150_id3_im6.bmp,['Im_RobertDowneyJr.png', 'Im_OrlandoBloom.png', 'Im_DanielCraig.png', 'Im_PatrickDempsey.png', 'Im_RobertPattinson.png', 'Im_RyanGosling.png', 'Im_GeorgeClooney.png', 'Im_DanielRadcliffe.png', 'Im_BradPitt.png', 'Im_LeonardoDiCaprio.png'],same,1,0.42509900000004563,20,80.95238095238095,
BRNA1411,4,pos,120,pos120_id18_im11.bmp_pos120_id16_im2.bmp,['Im_RobertDowneyJr.png', 'Im_OrlandoBloom.png', 'Im_DanielCraig.png', 'Im_PatrickDempsey.png', 'Im_RobertPattinson.png', 'Im_RyanGosling.png', 'Im_GeorgeClooney.png', 'Im_DanielRadcliffe.png', 'Im_BradPitt.png', 'Im_LeonardoDiCaprio.png'],diff,1,0.4166918999999325,21,80.95238095238095,
BRNA1411,4,pos,60,pos60_id13_im15.bmp_pos60_id13_im29.bmp,['Im_RobertDowneyJr.png', 'Im_OrlandoBloom.png', 'Im_DanielCraig.png', 'Im_PatrickDempsey.png', 'Im_RobertPattinson.png', 'Im_RyanGosling.png', 'Im_GeorgeClooney.png', 'Im_DanielRadcliffe.png', 'Im_BradPitt.png', 'Im_LeonardoDiCaprio.png'],same,1,0.40848430000005465,22,80.95238095238095,
BRNA1411,5,inv,120,pos120_id17_im9.bmp_pos120_id17_im8.bmp,['Im_RobertDowneyJr.png', 'Im_OrlandoBloom.png', 'Im_DanielCraig.png', 'Im_PatrickDempsey.png', 'Im_RobertPattinson.png', 'Im_RyanGosling.png', 'Im_GeorgeClooney.png', 'Im_DanielRadcliffe.png', 'Im_BradPitt.png', 'Im_LeonardoDiCaprio.png'],same,1,0.583314500000597,23,80.95238095238095,
BRNA1411,5,inv,30,pos30_id17_im14.bmp_pos30_id5_im20.bmp,['Im_RobertDowneyJr.png', 'Im_OrlandoBloom.png', 'Im_DanielCraig.png', 'Im_PatrickDempsey.png', 'Im_RobertPattinson.png', 'Im_RyanGosling.png', 'Im_GeorgeClooney.png', 'Im_DanielRadcliffe.png', 'Im_BradPitt.png', 'Im_LeonardoDiCaprio.png'],diff,1,0.533223999999791,24,80.95238095238095,
BRNA1411,5,inv,fs,posfs_id3_im17.bmp_posfs_id16_im3.bmp,['Im_RobertDowneyJr.png', 'Im_OrlandoBloom.png', 'Im_DanielCraig.png', 'Im_PatrickDempsey.png', 'Im_RobertPattinson.png', 'Im_RyanGosling.png', 'Im_GeorgeClooney.png', 'Im_DanielRadcliffe.png', 'Im_BradPitt.png', 'Im_LeonardoDiCaprio.png'],diff,1,0.40855240000018966,25,80.95238095238095,
BRNA1411,5,inv,60,pos60_id20_im3.bmp_pos60_id5_im20.bmp,['Im_RobertDowneyJr.png', 'Im_OrlandoBloom.png', 'Im_DanielCraig.png', 'Im_PatrickDempsey.png', 'Im_RobertPattinson.png', 'Im_RyanGosling.png', 'Im_GeorgeClooney.png', 'Im_DanielRadcliffe.png', 'Im_BradPitt.png', 'Im_LeonardoDiCaprio.png'],diff,1,0.41675169999962236,26,80.95238095238095,
BRNA1411,5,inv,150,pos150_id7_im26.bmp_pos150_id7_im15.bmp,['Im_RobertDowneyJr.png', 'Im_OrlandoBloom.png', 'Im_DanielCraig.png', 'Im_PatrickDempsey.png', 'Im_RobertPattinson.png', 'Im_RyanGosling.png', 'Im_GeorgeClooney.png', 'Im_DanielRadcliffe.png', 'Im_BradPitt.png', 'Im_LeonardoDiCaprio.png'],same,1,0.5333827000004021,27,80.95238095238095,
BRNA1411,5,inv,0,pos0_id18_im11.bmp_pos0_id3_im8.bmp,['Im_RobertDowneyJr.png', 'Im_OrlandoBloom.png', 'Im_DanielCraig.png', 'Im_PatrickDempsey.png', 'Im_RobertPattinson.png', 'Im_RyanGosling.png', 'Im_GeorgeClooney.png', 'Im_DanielRadcliffe.png', 'Im_BradPitt.png', 'Im_LeonardoDiCaprio.png'],diff,1,0.4085543000001053,28,80.95238095238095,
BRNA1411,5,inv,0,pos0_id17_im14.bmp_pos0_id17_im8.bmp,['Im_RobertDowneyJr.png', 'Im_OrlandoBloom.png', 'Im_DanielCraig.png', 'Im_PatrickDempsey.png', 'Im_RobertPattinson.png', 'Im_RyanGosling.png', 'Im_GeorgeClooney.png', 'Im_DanielRadcliffe.png', 'Im_BradPitt.png', 'Im_LeonardoDiCaprio.png'],diff,0,0.6668804999999338,28,80.95238095238095,
BRNA1411,5,inv,90,pos90_id7_im26.bmp_pos90_id19_im4.bmp,['Im_RobertDowneyJr.png', 'Im_OrlandoBloom.png', 'Im_DanielCraig.png', 'Im_PatrickDempsey.png', 'Im_RobertPattinson.png', 'Im_RyanGosling.png', 'Im_GeorgeClooney.png', 'Im_DanielRadcliffe.png', 'Im_BradPitt.png', 'Im_LeonardoDiCaprio.png'],same,0,0.4252188999998907,28,80.95238095238095,
BRNA1411,5,inv,30,pos30_id17_im8.bmp_pos30_id17_im9.bmp,['Im_RobertDowneyJr.png', 'Im_OrlandoBloom.png', 'Im_DanielCraig.png', 'Im_PatrickDempsey.png', 'Im_RobertPattinson.png', 'Im_RyanGosling.png', 'Im_GeorgeClooney.png', 'Im_DanielRadcliffe.png', 'Im_BradPitt.png', 'Im_LeonardoDiCaprio.png'],same,1,0.425053900000421,29,80.95238095238095,
BRNA1411,5,inv,fs,posfs_id3_im17.bmp_posfs_id3_im6.bmp,['Im_RobertDowneyJr.png', 'Im_OrlandoBloom.png', 'Im_DanielCraig.png', 'Im_PatrickDempsey.png', 'Im_RobertPattinson.png', 'Im_RyanGosling.png', 'Im_GeorgeClooney.png', 'Im_DanielRadcliffe.png', 'Im_BradPitt.png', 'Im_LeonardoDiCaprio.png'],same,1,0.4167254000003595,30,80.95238095238095,
BRNA1411,5,inv,120,pos120_id4_im15.bmp_pos120_id4_im20.bmp,['Im_RobertDowneyJr.png', 'Im_OrlandoBloom.png', 'Im_DanielCraig.png', 'Im_PatrickDempsey.png', 'Im_RobertPattinson.png', 'Im_RyanGosling.png', 'Im_GeorgeClooney.png', 'Im_DanielRadcliffe.png', 'Im_BradPitt.png', 'Im_LeonardoDiCaprio.png'],same,1,0.4250747999994928,31,80.95238095238095,
BRNA1411,5,inv,150,pos150_id7_im26.bmp_pos150_id3_im8.bmp,['Im_RobertDowneyJr.png', 'Im_OrlandoBloom.png', 'Im_DanielCraig.png', 'Im_PatrickDempsey.png', 'Im_RobertPattinson.png', 'Im_RyanGosling.png', 'Im_GeorgeClooney.png', 'Im_DanielRadcliffe.png', 'Im_BradPitt.png', 'Im_LeonardoDiCaprio.png'],diff,1,0.416866000000482,32,80.95238095238095,
BRNA1411,5,inv,60,pos60_id5_im10.bmp_pos60_id20_im3.bmp,['Im_RobertDowneyJr.png', 'Im_OrlandoBloom.png', 'Im_DanielCraig.png', 'Im_PatrickDempsey.png', 'Im_RobertPattinson.png', 'Im_RyanGosling.png', 'Im_GeorgeClooney.png', 'Im_DanielRadcliffe.png', 'Im_BradPitt.png', 'Im_LeonardoDiCaprio.png'],diff,1,0.416756799999348,33,80.95238095238095,
BRNA1411,5,inv,90,pos90_id3_im6.bmp_pos90_id13_im15.bmp,['Im_RobertDowneyJr.png', 'Im_OrlandoBloom.png', 'Im_DanielCraig.png', 'Im_PatrickDempsey.png', 'Im_RobertPattinson.png', 'Im_RyanGosling.png', 'Im_GeorgeClooney.png', 'Im_DanielRadcliffe.png', 'Im_BradPitt.png', 'Im_LeonardoDiCaprio.png'],diff,1,0.9584001999992324,34,80.95238095238095,
BRNA1411,6,inv,150,pos150_id3_im6.bmp_pos150_id13_im15.bmp,['Im_RobertDowneyJr.png', 'Im_OrlandoBloom.png', 'Im_DanielCraig.png', 'Im_PatrickDempsey.png', 'Im_RobertPattinson.png', 'Im_RyanGosling.png', 'Im_GeorgeClooney.png', 'Im_DanielRadcliffe.png', 'Im_BradPitt.png', 'Im_LeonardoDiCaprio.png'],diff,1,0.44218220000038855,1,80.95238095238095,
BRNA1411,6,inv,fs,posfs_id18_im11.bmp_posfs_id16_im2.bmp,['Im_RobertDowneyJr.png', 'Im_OrlandoBloom.png', 'Im_DanielCraig.png', 'Im_PatrickDempsey.png', 'Im_RobertPattinson.png', 'Im_RyanGosling.png', 'Im_GeorgeClooney.png', 'Im_DanielRadcliffe.png', 'Im_BradPitt.png', 'Im_LeonardoDiCaprio.png'],diff,1,3.7500464000004285,2,80.95238095238095,
BRNA1411,6,inv,60,pos60_id13_im29.bmp_pos60_id20_im30.bmp,['Im_RobertDowneyJr.png', 'Im_OrlandoBloom.png', 'Im_DanielCraig.png', 'Im_PatrickDempsey.png', 'Im_RobertPattinson.png', 'Im_RyanGosling.png', 'Im_GeorgeClooney.png', 'Im_DanielRadcliffe.png', 'Im_BradPitt.png', 'Im_LeonardoDiCaprio.png'],diff,1,0.4167174000003797,3,80.95238095238095,
BRNA1411,6,inv,30,pos30_id5_im1.bmp_pos30_id13_im10.bmp,['Im_RobertDowneyJr.png', 'Im_OrlandoBloom.png', 'Im_DanielCraig.png', 'Im_PatrickDempsey.png', 'Im_RobertPattinson.png', 'Im_RyanGosling.png', 'Im_GeorgeClooney.png', 'Im_DanielRadcliffe.png', 'Im_BradPitt.png', 'Im_LeonardoDiCaprio.png'],diff,1,0.41665980000016134,4,80.95238095238095,
BRNA1411,6,inv,0,pos0_id3_im8.bmp_pos0_id3_im17.bmp,['Im_RobertDowneyJr.png', 'Im_OrlandoBloom.png', 'Im_DanielCraig.png', 'Im_PatrickDempsey.png', 'Im_RobertPattinson.png', 'Im_RyanGosling.png', 'Im_GeorgeClooney.png', 'Im_DanielRadcliffe.png', 'Im_BradPitt.png', 'Im_LeonardoDiCaprio.png'],same,1,0.48356539999986126,5,80.95238095238095,
BRNA1411,6,inv,60,pos60_id18_im11.bmp_pos60_id18_im18.bmp,['Im_RobertDowneyJr.png', 'Im_OrlandoBloom.png', 'Im_DanielCraig.png', 'Im_PatrickDempsey.png', 'Im_RobertPattinson.png', 'Im_RyanGosling.png', 'Im_GeorgeClooney.png', 'Im_DanielRadcliffe.png', 'Im_BradPitt.png', 'Im_LeonardoDiCaprio.png'],same,1,0.6833824000004824,6,80.95238095238095,
BRNA1411,6,inv,150,pos150_id17_im9.bmp_pos150_id7_im14.bmp,['Im_RobertDowneyJr.png', 'Im_OrlandoBloom.png', 'Im_DanielCraig.png', 'Im_PatrickDempsey.png', 'Im_RobertPattinson.png', 'Im_RyanGosling.png', 'Im_GeorgeClooney.png', 'Im_DanielRadcliffe.png', 'Im_BradPitt.png', 'Im_LeonardoDiCaprio.png'],diff,1,0.5669806000005337,7,80.95238095238095,
BRNA1411,6,inv,0,pos0_id4_im20.bmp_pos0_id4_im7.bmp,['Im_RobertDowneyJr.png', 'Im_OrlandoBloom.png', 'Im_DanielCraig.png', 'Im_PatrickDempsey.png', 'Im_RobertPattinson.png', 'Im_RyanGosling.png', 'Im_GeorgeClooney.png', 'Im_DanielRadcliffe.png', 'Im_BradPitt.png', 'Im_LeonardoDiCaprio.png'],same,1,0.46698229999947216,8,80.95238095238095,
BRNA1411,6,inv,120,pos120_id18_im19.bmp_pos120_id3_im6.bmp,['Im_RobertDowneyJr.png', 'Im_OrlandoBloom.png', 'Im_DanielCraig.png', 'Im_PatrickDempsey.png', 'Im_RobertPattinson.png', 'Im_RyanGosling.png', 'Im_GeorgeClooney.png', 'Im_DanielRadcliffe.png', 'Im_BradPitt.png', 'Im_LeonardoDiCaprio.png'],diff,1,0.5999818999998752,9,80.95238095238095,
BRNA1411,6,inv,fs,posfs_id3_im6.bmp_posfs_id13_im15.bmp,['Im_RobertDowneyJr.png', 'Im_OrlandoBloom.png', 'Im_DanielCraig.png', 'Im_PatrickDempsey.png', 'Im_RobertPattinson.png', 'Im_RyanGosling.png', 'Im_GeorgeClooney.png', 'Im_DanielRadcliffe.png', 'Im_BradPitt.png', 'Im_LeonardoDiCaprio.png'],diff,1,0.583266900000126,10,80.95238095238095,
BRNA1411,6,inv,30,pos30_id20_im12.bmp_pos30_id17_im14.bmp,['Im_RobertDowneyJr.png', 'Im_OrlandoBloom.png', 'Im_DanielCraig.png', 'Im_PatrickDempsey.png', 'Im_RobertPattinson.png', 'Im_RyanGosling.png', 'Im_GeorgeClooney.png', 'Im_DanielRadcliffe.png', 'Im_BradPitt.png', 'Im_LeonardoDiCaprio.png'],diff,1,0.6669542999998157,11,80.95238095238095,
BRNA1411,6,inv,120,pos120_id19_im27.bmp_pos120_id19_im4.bmp,['Im_RobertDowneyJr.png', 'Im_OrlandoBloom.png', 'Im_DanielCraig.png', 'Im_PatrickDempsey.png', 'Im_RobertPattinson.png', 'Im_RyanGosling.png', 'Im_GeorgeClooney.png', 'Im_DanielRadcliffe.png', 'Im_BradPitt.png', 'Im_LeonardoDiCaprio.png'],diff,0,0.4085739000001922,11,80.95238095238095,
BRNA1411,6,inv,90,pos90_id3_im17.bmp_pos90_id3_im6.bmp,['Im_RobertDowneyJr.png', 'Im_OrlandoBloom.png', 'Im_DanielCraig.png', 'Im_PatrickDempsey.png', 'Im_RobertPattinson.png', 'Im_RyanGosling.png', 'Im_GeorgeClooney.png', 'Im_DanielRadcliffe.png', 'Im_BradPitt.png', 'Im_LeonardoDiCaprio.png'],same,1,0.4168911999995544,12,80.95238095238095,
BRNA1411,6,inv,90,pos90_id18_im19.bmp_pos90_id18_im11.bmp,['Im_RobertDowneyJr.png', 'Im_OrlandoBloom.png', 'Im_DanielCraig.png', 'Im_PatrickDempsey.png', 'Im_RobertPattinson.png', 'Im_RyanGosling.png', 'Im_GeorgeClooney.png', 'Im_DanielRadcliffe.png', 'Im_BradPitt.png', 'Im_LeonardoDiCaprio.png'],same,1,0.4083844999995563,13,80.95238095238095,
BRNA1411,7,pos,0,pos0_id3_im6.bmp_pos0_id13_im15.bmp,['Im_RobertDowneyJr.png', 'Im_OrlandoBloom.png', 'Im_DanielCraig.png', 'Im_PatrickDempsey.png', 'Im_RobertPattinson.png', 'Im_RyanGosling.png', 'Im_GeorgeClooney.png', 'Im_DanielRadcliffe.png', 'Im_BradPitt.png', 'Im_LeonardoDiCaprio.png'],diff,1,0.6501226999998835,14,80.95238095238095,
BRNA1411,7,pos,30,pos30_id7_im15.bmp_pos30_id19_im4.bmp,['Im_RobertDowneyJr.png', 'Im_OrlandoBloom.png', 'Im_DanielCraig.png', 'Im_PatrickDempsey.png', 'Im_RobertPattinson.png', 'Im_RyanGosling.png', 'Im_GeorgeClooney.png', 'Im_DanielRadcliffe.png', 'Im_BradPitt.png', 'Im_LeonardoDiCaprio.png'],diff,1,0.4167896999997538,15,80.95238095238095,
BRNA1411,7,pos,150,pos150_id7_im15.bmp_pos150_id19_im4.bmp,['Im_RobertDowneyJr.png', 'Im_OrlandoBloom.png', 'Im_DanielCraig.png', 'Im_PatrickDempsey.png', 'Im_RobertPattinson.png', 'Im_RyanGosling.png', 'Im_GeorgeClooney.png', 'Im_DanielRadcliffe.png', 'Im_BradPitt.png', 'Im_LeonardoDiCaprio.png'],diff,1,0.4168086999998195,16,80.95238095238095,
BRNA1411,7,pos,60,pos60_id4_im15.bmp_pos60_id4_im7.bmp,['Im_RobertDowneyJr.png', 'Im_OrlandoBloom.png', 'Im_DanielCraig.png', 'Im_PatrickDempsey.png', 'Im_RobertPattinson.png', 'Im_RyanGosling.png', 'Im_GeorgeClooney.png', 'Im_DanielRadcliffe.png', 'Im_BradPitt.png', 'Im_LeonardoDiCaprio.png'],same,1,0.42496029999983875,17,80.95238095238095,
BRNA1411,7,pos,120,pos120_id19_im4.bmp_pos120_id7_im26.bmp,['Im_RobertDowneyJr.png', 'Im_OrlandoBloom.png', 'Im_DanielCraig.png', 'Im_PatrickDempsey.png', 'Im_RobertPattinson.png', 'Im_RyanGosling.png', 'Im_GeorgeClooney.png', 'Im_DanielRadcliffe.png', 'Im_BradPitt.png', 'Im_LeonardoDiCaprio.png'],diff,1,0.4168549999994866,18,80.95238095238095,
BRNA1411,7,pos,120,pos120_id20_im12.bmp_pos120_id20_im30.bmp,['Im_RobertDowneyJr.png', 'Im_OrlandoBloom.png', 'Im_DanielCraig.png', 'Im_PatrickDempsey.png', 'Im_RobertPattinson.png', 'Im_RyanGosling.png', 'Im_GeorgeClooney.png', 'Im_DanielRadcliffe.png', 'Im_BradPitt.png', 'Im_LeonardoDiCaprio.png'],same,1,0.4249595999999656,19,80.95238095238095,
BRNA1411,7,pos,90,pos90_id18_im18.bmp_pos90_id4_im7.bmp,['Im_RobertDowneyJr.png', 'Im_OrlandoBloom.png', 'Im_DanielCraig.png', 'Im_PatrickDempsey.png', 'Im_RobertPattinson.png', 'Im_RyanGosling.png', 'Im_GeorgeClooney.png', 'Im_DanielRadcliffe.png', 'Im_BradPitt.png', 'Im_LeonardoDiCaprio.png'],diff,1,0.5334257999993497,20,80.95238095238095,
BRNA1411,7,pos,fs,posfs_id20_im30.bmp_posfs_id4_im20.bmp,['Im_RobertDowneyJr.png', 'Im_OrlandoBloom.png', 'Im_DanielCraig.png', 'Im_PatrickDempsey.png', 'Im_RobertPattinson.png', 'Im_RyanGosling.png', 'Im_GeorgeClooney.png', 'Im_DanielRadcliffe.png', 'Im_BradPitt.png', 'Im_LeonardoDiCaprio.png'],diff,1,0.950277200000528,21,80.95238095238095,
BRNA1411,7,pos,fs,posfs_id4_im15.bmp_posfs_id19_im27.bmp,['Im_RobertDowneyJr.png', 'Im_OrlandoBloom.png', 'Im_DanielCraig.png', 'Im_PatrickDempsey.png', 'Im_RobertPattinson.png', 'Im_RyanGosling.png', 'Im_GeorgeClooney.png', 'Im_DanielRadcliffe.png', 'Im_BradPitt.png', 'Im_LeonardoDiCaprio.png'],diff,1,0.4336222000001726,22,80.95238095238095,
BRNA1411,7,pos,30,pos30_id13_im10.bmp_pos30_id13_im29.bmp,['Im_RobertDowneyJr.png', 'Im_OrlandoBloom.png', 'Im_DanielCraig.png', 'Im_PatrickDempsey.png', 'Im_RobertPattinson.png', 'Im_RyanGosling.png', 'Im_GeorgeClooney.png', 'Im_DanielRadcliffe.png', 'Im_BradPitt.png', 'Im_LeonardoDiCaprio.png'],diff,0,1.266964100000223,22,80.95238095238095,
BRNA1411,7,pos,60,pos60_id7_im14.bmp_pos60_id7_im15.bmp,['Im_RobertDowneyJr.png', 'Im_OrlandoBloom.png', 'Im_DanielCraig.png', 'Im_PatrickDempsey.png', 'Im_RobertPattinson.png', 'Im_RyanGosling.png', 'Im_GeorgeClooney.png', 'Im_DanielRadcliffe.png', 'Im_BradPitt.png', 'Im_LeonardoDiCaprio.png'],same,1,0.4752718999998251,23,80.95238095238095,
BRNA1411,7,pos,0,pos0_id18_im19.bmp_pos0_id4_im7.bmp,['Im_RobertDowneyJr.png', 'Im_OrlandoBloom.png', 'Im_DanielCraig.png', 'Im_PatrickDempsey.png', 'Im_RobertPattinson.png', 'Im_RyanGosling.png', 'Im_GeorgeClooney.png', 'Im_DanielRadcliffe.png', 'Im_BradPitt.png', 'Im_LeonardoDiCaprio.png'],diff,1,0.4251718000004985,24,80.95238095238095,
BRNA1411,7,pos,150,pos150_id20_im12.bmp_pos150_id17_im14.bmp,['Im_RobertDowneyJr.png', 'Im_OrlandoBloom.png', 'Im_DanielCraig.png', 'Im_PatrickDempsey.png', 'Im_RobertPattinson.png', 'Im_RyanGosling.png', 'Im_GeorgeClooney.png', 'Im_DanielRadcliffe.png', 'Im_BradPitt.png', 'Im_LeonardoDiCaprio.png'],diff,1,0.41655940000055125,25,80.95238095238095,
BRNA1411,7,pos,90,pos90_id7_im14.bmp_pos90_id7_im15.bmp,['Im_RobertDowneyJr.png', 'Im_OrlandoBloom.png', 'Im_DanielCraig.png', 'Im_PatrickDempsey.png', 'Im_RobertPattinson.png', 'Im_RyanGosling.png', 'Im_GeorgeClooney.png', 'Im_DanielRadcliffe.png', 'Im_BradPitt.png', 'Im_LeonardoDiCaprio.png'],same,1,0.692247099999804,26,80.95238095238095,
BRNA1411,8,neg,fs,negfs_id19_im8.bmp_negfs_id16_im19.bmp,['Im_RobertDowneyJr.png', 'Im_OrlandoBloom.png', 'Im_DanielCraig.png', 'Im_PatrickDempsey.png', 'Im_RobertPattinson.png', 'Im_RyanGosling.png', 'Im_GeorgeClooney.png', 'Im_DanielRadcliffe.png', 'Im_BradPitt.png', 'Im_LeonardoDiCaprio.png'],diff,1,0.5750346000004356,27,80.95238095238095,
BRNA1411,8,neg,90,neg90_id18_im18.bmp_neg90_id18_im19.bmp,['Im_RobertDowneyJr.png', 'Im_OrlandoBloom.png', 'Im_DanielCraig.png', 'Im_PatrickDempsey.png', 'Im_RobertPattinson.png', 'Im_RyanGosling.png', 'Im_GeorgeClooney.png', 'Im_DanielRadcliffe.png', 'Im_BradPitt.png', 'Im_LeonardoDiCaprio.png'],same,1,0.5333654999994906,28,80.95238095238095,
BRNA1411,8,neg,fs,negfs_id19_im8.bmp_negfs_id19_im27.bmp,['Im_RobertDowneyJr.png', 'Im_OrlandoBloom.png', 'Im_DanielCraig.png', 'Im_PatrickDempsey.png', 'Im_RobertPattinson.png', 'Im_RyanGosling.png', 'Im_GeorgeClooney.png', 'Im_DanielRadcliffe.png', 'Im_BradPitt.png', 'Im_LeonardoDiCaprio.png'],same,1,0.4083178000000771,29,80.95238095238095,
BRNA1411,8,neg,60,neg60_id13_im10.bmp_neg60_id13_im15.bmp,['Im_RobertDowneyJr.png', 'Im_OrlandoBloom.png', 'Im_DanielCraig.png', 'Im_PatrickDempsey.png', 'Im_RobertPattinson.png', 'Im_RyanGosling.png', 'Im_GeorgeClooney.png', 'Im_DanielRadcliffe.png', 'Im_BradPitt.png', 'Im_LeonardoDiCaprio.png'],same,1,0.4083921999999802,30,80.95238095238095,
BRNA1411,8,neg,120,neg120_id20_im30.bmp_neg120_id4_im20.bmp,['Im_RobertDowneyJr.png', 'Im_OrlandoBloom.png', 'Im_DanielCraig.png', 'Im_PatrickDempsey.png', 'Im_RobertPattinson.png', 'Im_RyanGosling.png', 'Im_GeorgeClooney.png', 'Im_DanielRadcliffe.png', 'Im_BradPitt.png', 'Im_LeonardoDiCaprio.png'],diff,1,0.41685229999984585,31,80.95238095238095,
BRNA1411,8,neg,30,neg30_id3_im8.bmp_neg30_id7_im26.bmp,['Im_RobertDowneyJr.png', 'Im_OrlandoBloom.png', 'Im_DanielCraig.png', 'Im_PatrickDempsey.png', 'Im_RobertPattinson.png', 'Im_RyanGosling.png', 'Im_GeorgeClooney.png', 'Im_DanielRadcliffe.png', 'Im_BradPitt.png', 'Im_LeonardoDiCaprio.png'],same,0,0.42532680000022083,31,80.95238095238095,
BRNA1411,8,neg,0,neg0_id20_im30.bmp_neg0_id20_im12.bmp,['Im_RobertDowneyJr.png', 'Im_OrlandoBloom.png', 'Im_DanielCraig.png', 'Im_PatrickDempsey.png', 'Im_RobertPattinson.png', 'Im_RyanGosling.png', 'Im_GeorgeClooney.png', 'Im_DanielRadcliffe.png', 'Im_BradPitt.png', 'Im_LeonardoDiCaprio.png'],same,1,0.45852560000002995,32,80.95238095238095,
BRNA1411,8,neg,150,neg150_id5_im1.bmp_neg150_id5_im10.bmp,['Im_RobertDowneyJr.png', 'Im_OrlandoBloom.png', 'Im_DanielCraig.png', 'Im_PatrickDempsey.png', 'Im_RobertPattinson.png', 'Im_RyanGosling.png', 'Im_GeorgeClooney.png', 'Im_DanielRadcliffe.png', 'Im_BradPitt.png', 'Im_LeonardoDiCaprio.png'],same,1,0.5918114999994941,33,80.95238095238095,
BRNA1411,8,neg,30,neg30_id20_im3.bmp_neg30_id5_im20.bmp,['Im_RobertDowneyJr.png', 'Im_OrlandoBloom.png', 'Im_DanielCraig.png', 'Im_PatrickDempsey.png', 'Im_RobertPattinson.png', 'Im_RyanGosling.png', 'Im_GeorgeClooney.png', 'Im_DanielRadcliffe.png', 'Im_BradPitt.png', 'Im_LeonardoDiCaprio.png'],diff,1,0.49170090000006894,34,80.95238095238095,
BRNA1411,8,neg,120,neg120_id4_im20.bmp_neg120_id7_im14.bmp,['Im_RobertDowneyJr.png', 'Im_OrlandoBloom.png', 'Im_DanielCraig.png', 'Im_PatrickDempsey.png', 'Im_RobertPattinson.png', 'Im_RyanGosling.png', 'Im_GeorgeClooney.png', 'Im_DanielRadcliffe.png', 'Im_BradPitt.png', 'Im_LeonardoDiCaprio.png'],diff,1,0.4168831000006321,35,80.95238095238095,
BRNA1411,8,neg,60,neg60_id17_im9.bmp_neg60_id19_im8.bmp,['Im_RobertDowneyJr.png', 'Im_OrlandoBloom.png', 'Im_DanielCraig.png', 'Im_PatrickDempsey.png', 'Im_RobertPattinson.png', 'Im_RyanGosling.png', 'Im_GeorgeClooney.png', 'Im_DanielRadcliffe.png', 'Im_BradPitt.png', 'Im_LeonardoDiCaprio.png'],same,0,0.42505530000016734,35,80.95238095238095,
BRNA1411,8,neg,0,neg0_id18_im11.bmp_neg0_id3_im8.bmp,['Im_RobertDowneyJr.png', 'Im_OrlandoBloom.png', 'Im_DanielCraig.png', 'Im_PatrickDempsey.png', 'Im_RobertPattinson.png', 'Im_RyanGosling.png', 'Im_GeorgeClooney.png', 'Im_DanielRadcliffe.png', 'Im_BradPitt.png', 'Im_LeonardoDiCaprio.png'],diff,1,0.42510459999994055,36,80.95238095238095,
BRNA1411,8,neg,150,neg150_id17_im8.bmp_neg150_id16_im19.bmp,['Im_RobertDowneyJr.png', 'Im_OrlandoBloom.png', 'Im_DanielCraig.png', 'Im_PatrickDempsey.png', 'Im_RobertPattinson.png', 'Im_RyanGosling.png', 'Im_GeorgeClooney.png', 'Im_DanielRadcliffe.png', 'Im_BradPitt.png', 'Im_LeonardoDiCaprio.png'],diff,1,0.5250201999997444,37,80.95238095238095,
BRNA1411,8,neg,90,neg90_id13_im15.bmp_neg90_id3_im6.bmp,['Im_RobertDowneyJr.png', 'Im_OrlandoBloom.png', 'Im_DanielCraig.png', 'Im_PatrickDempsey.png', 'Im_RobertPattinson.png', 'Im_RyanGosling.png', 'Im_GeorgeClooney.png', 'Im_DanielRadcliffe.png', 'Im_BradPitt.png', 'Im_LeonardoDiCaprio.png'],diff,1,0.5834374000005482,38,80.95238095238095,
BRNA1411,9,pos,60,pos60_id16_im2.bmp_pos60_id16_im19.bmp,['Im_RobertDowneyJr.png', 'Im_OrlandoBloom.png', 'Im_DanielCraig.png', 'Im_PatrickDempsey.png', 'Im_RobertPattinson.png', 'Im_RyanGosling.png', 'Im_GeorgeClooney.png', 'Im_DanielRadcliffe.png', 'Im_BradPitt.png', 'Im_LeonardoDiCaprio.png'],same,1,0.4251068000003215,1,90.47619047619048,
BRNA1411,9,pos,fs,posfs_id3_im6.bmp_posfs_id13_im15.bmp,['Im_RobertDowneyJr.png', 'Im_OrlandoBloom.png', 'Im_DanielCraig.png', 'Im_PatrickDempsey.png', 'Im_RobertPattinson.png', 'Im_RyanGosling.png', 'Im_GeorgeClooney.png', 'Im_DanielRadcliffe.png', 'Im_BradPitt.png', 'Im_LeonardoDiCaprio.png'],diff,1,0.41674330000023474,2,90.47619047619048,
BRNA1411,9,pos,90,pos90_id19_im27.bmp_pos90_id4_im15.bmp,['Im_RobertDowneyJr.png', 'Im_OrlandoBloom.png', 'Im_DanielCraig.png', 'Im_PatrickDempsey.png', 'Im_RobertPattinson.png', 'Im_RyanGosling.png', 'Im_GeorgeClooney.png', 'Im_DanielRadcliffe.png', 'Im_BradPitt.png', 'Im_LeonardoDiCaprio.png'],diff,1,0.4083898999997473,3,90.47619047619048,
BRNA1411,9,pos,150,pos150_id3_im6.bmp_pos150_id18_im19.bmp,['Im_RobertDowneyJr.png', 'Im_OrlandoBloom.png', 'Im_DanielCraig.png', 'Im_PatrickDempsey.png', 'Im_RobertPattinson.png', 'Im_RyanGosling.png', 'Im_GeorgeClooney.png', 'Im_DanielRadcliffe.png', 'Im_BradPitt.png', 'Im_LeonardoDiCaprio.png'],diff,1,0.4333816999996998,4,90.47619047619048,
BRNA1411,9,pos,0,pos0_id7_im15.bmp_pos0_id20_im12.bmp,['Im_RobertDowneyJr.png', 'Im_OrlandoBloom.png', 'Im_DanielCraig.png', 'Im_PatrickDempsey.png', 'Im_RobertPattinson.png', 'Im_RyanGosling.png', 'Im_GeorgeClooney.png', 'Im_DanielRadcliffe.png', 'Im_BradPitt.png', 'Im_LeonardoDiCaprio.png'],diff,1,0.416790299999775,5,90.47619047619048,
BRNA1411,9,pos,fs,posfs_id4_im7.bmp_posfs_id4_im15.bmp,['Im_RobertDowneyJr.png', 'Im_OrlandoBloom.png', 'Im_DanielCraig.png', 'Im_PatrickDempsey.png', 'Im_RobertPattinson.png', 'Im_RyanGosling.png', 'Im_GeorgeClooney.png', 'Im_DanielRadcliffe.png', 'Im_BradPitt.png', 'Im_LeonardoDiCaprio.png'],same,1,0.4249601999999868,6,90.47619047619048,
BRNA1411,9,pos,150,pos150_id7_im26.bmp_pos150_id7_im15.bmp,['Im_RobertDowneyJr.png', 'Im_OrlandoBloom.png', 'Im_DanielCraig.png', 'Im_PatrickDempsey.png', 'Im_RobertPattinson.png', 'Im_RyanGosling.png', 'Im_GeorgeClooney.png', 'Im_DanielRadcliffe.png', 'Im_BradPitt.png', 'Im_LeonardoDiCaprio.png'],same,1,0.42505419999997684,7,90.47619047619048,
BRNA1411,9,pos,30,pos30_id16_im2.bmp_pos30_id16_im3.bmp,['Im_RobertDowneyJr.png', 'Im_OrlandoBloom.png', 'Im_DanielCraig.png', 'Im_PatrickDempsey.png', 'Im_RobertPattinson.png', 'Im_RyanGosling.png', 'Im_GeorgeClooney.png', 'Im_DanielRadcliffe.png', 'Im_BradPitt.png', 'Im_LeonardoDiCaprio.png'],same,1,0.4167437999994945,8,90.47619047619048,
BRNA1411,9,pos,60,pos60_id16_im19.bmp_pos60_id16_im3.bmp,['Im_RobertDowneyJr.png', 'Im_OrlandoBloom.png', 'Im_DanielCraig.png', 'Im_PatrickDempsey.png', 'Im_RobertPattinson.png', 'Im_RyanGosling.png', 'Im_GeorgeClooney.png', 'Im_DanielRadcliffe.png', 'Im_BradPitt.png', 'Im_LeonardoDiCaprio.png'],same,1,0.42511579999973037,9,90.47619047619048,
