Sujet,Trial,Condition,Filter,Imname,Actor0,Actor1,Actor2,Actor3,Actor4,Actor5,Actor6,Actor7,Actor8,Actor9,Answer,Accu,RT,Score,Scoreperc, 
BRNA1411,train,inv,120,pos120_id5_im1.bmp_pos120_id5_im10.bmp,['Im_PatrickDempsey.png', 'Im_DanielCraig.png', 'Im_RyanGosling.png', 'Im_BradPitt.png', 'Im_LeonardoDiCaprio.png', 'Im_DanielRadcliffe.png', 'Im_RobertDowneyJr.png', 'Im_GeorgeClooney.png', 'Im_RobertPattinson.png', 'Im_OrlandoBloom.png'],same,1,0.4252699000026041,1,0,
BRNA1411,train,inv,fs,posfs_id13_im29.bmp_posfs_id13_im15.bmp,['Im_PatrickDempsey.png', 'Im_DanielCraig.png', 'Im_RyanGosling.png', 'Im_BradPitt.png', 'Im_LeonardoDiCaprio.png', 'Im_DanielRadcliffe.png', 'Im_RobertDowneyJr.png', 'Im_GeorgeClooney.png', 'Im_RobertPattinson.png', 'Im_OrlandoBloom.png'],diff,0,0.4250772000013967,1,0,
BRNA1411,train,inv,120,pos120_id5_im1.bmp_pos120_id5_im20.bmp,['Im_PatrickDempsey.png', 'Im_DanielCraig.png', 'Im_RyanGosling.png', 'Im_BradPitt.png', 'Im_LeonardoDiCaprio.png', 'Im_DanielRadcliffe.png', 'Im_RobertDowneyJr.png', 'Im_GeorgeClooney.png', 'Im_RobertPattinson.png', 'Im_OrlandoBloom.png'],same,1,0.40841200000068056,2,0,
BRNA1411,train,inv,0,pos0_id20_im3.bmp_pos0_id5_im20.bmp,['Im_PatrickDempsey.png', 'Im_DanielCraig.png', 'Im_RyanGosling.png', 'Im_BradPitt.png', 'Im_LeonardoDiCaprio.png', 'Im_DanielRadcliffe.png', 'Im_RobertDowneyJr.png', 'Im_GeorgeClooney.png', 'Im_RobertPattinson.png', 'Im_OrlandoBloom.png'],same,0,0.4499706000024162,2,0,
BRNA1411,train,inv,60,pos60_id7_im26.bmp_pos60_id3_im8.bmp,['Im_PatrickDempsey.png', 'Im_DanielCraig.png', 'Im_RyanGosling.png', 'Im_BradPitt.png', 'Im_LeonardoDiCaprio.png', 'Im_DanielRadcliffe.png', 'Im_RobertDowneyJr.png', 'Im_GeorgeClooney.png', 'Im_RobertPattinson.png', 'Im_OrlandoBloom.png'],diff,1,0.4751133999998274,3,0,
BRNA1411,train,inv,150,pos150_id20_im30.bmp_pos150_id13_im29.bmp,['Im_PatrickDempsey.png', 'Im_DanielCraig.png', 'Im_RyanGosling.png', 'Im_BradPitt.png', 'Im_LeonardoDiCaprio.png', 'Im_DanielRadcliffe.png', 'Im_RobertDowneyJr.png', 'Im_GeorgeClooney.png', 'Im_RobertPattinson.png', 'Im_OrlandoBloom.png'],diff,1,0.8002111000023433,4,0,
BRNA1411,train,inv,90,pos90_id4_im7.bmp_pos90_id4_im20.bmp,['Im_PatrickDempsey.png', 'Im_DanielCraig.png', 'Im_RyanGosling.png', 'Im_BradPitt.png', 'Im_LeonardoDiCaprio.png', 'Im_DanielRadcliffe.png', 'Im_RobertDowneyJr.png', 'Im_GeorgeClooney.png', 'Im_RobertPattinson.png', 'Im_OrlandoBloom.png'],same,1,0.45027049999771407,5,0,
BRNA1411,train,inv,0,pos0_id17_im9.bmp_pos0_id19_im8.bmp,['Im_PatrickDempsey.png', 'Im_DanielCraig.png', 'Im_RyanGosling.png', 'Im_BradPitt.png', 'Im_LeonardoDiCaprio.png', 'Im_DanielRadcliffe.png', 'Im_RobertDowneyJr.png', 'Im_GeorgeClooney.png', 'Im_RobertPattinson.png', 'Im_OrlandoBloom.png'],same,0,0.6584855000000971,5,0,
BRNA1411,train,inv,60,pos60_id4_im20.bmp_pos60_id4_im15.bmp,['Im_PatrickDempsey.png', 'Im_DanielCraig.png', 'Im_RyanGosling.png', 'Im_BradPitt.png', 'Im_LeonardoDiCaprio.png', 'Im_DanielRadcliffe.png', 'Im_RobertDowneyJr.png', 'Im_GeorgeClooney.png', 'Im_RobertPattinson.png', 'Im_OrlandoBloom.png'],same,1,0.416722200003278,6,0,
BRNA1411,train,inv,30,pos30_id5_im20.bmp_pos30_id20_im3.bmp,['Im_PatrickDempsey.png', 'Im_DanielCraig.png', 'Im_RyanGosling.png', 'Im_BradPitt.png', 'Im_LeonardoDiCaprio.png', 'Im_DanielRadcliffe.png', 'Im_RobertDowneyJr.png', 'Im_GeorgeClooney.png', 'Im_RobertPattinson.png', 'Im_OrlandoBloom.png'],same,0,0.4250419000018155,6,0,
BRNA1411,train,inv,150,pos150_id19_im4.bmp_pos150_id19_im8.bmp,['Im_PatrickDempsey.png', 'Im_DanielCraig.png', 'Im_RyanGosling.png', 'Im_BradPitt.png', 'Im_LeonardoDiCaprio.png', 'Im_DanielRadcliffe.png', 'Im_RobertDowneyJr.png', 'Im_GeorgeClooney.png', 'Im_RobertPattinson.png', 'Im_OrlandoBloom.png'],same,1,0.4084072000005108,7,0,
BRNA1411,train,inv,90,pos90_id16_im19.bmp_pos90_id16_im3.bmp,['Im_PatrickDempsey.png', 'Im_DanielCraig.png', 'Im_RyanGosling.png', 'Im_BradPitt.png', 'Im_LeonardoDiCaprio.png', 'Im_DanielRadcliffe.png', 'Im_RobertDowneyJr.png', 'Im_GeorgeClooney.png', 'Im_RobertPattinson.png', 'Im_OrlandoBloom.png'],diff,0,0.6917850999998336,7,0,
BRNA1411,train,inv,30,pos30_id17_im8.bmp_pos30_id5_im10.bmp,['Im_PatrickDempsey.png', 'Im_DanielCraig.png', 'Im_RyanGosling.png', 'Im_BradPitt.png', 'Im_LeonardoDiCaprio.png', 'Im_DanielRadcliffe.png', 'Im_RobertDowneyJr.png', 'Im_GeorgeClooney.png', 'Im_RobertPattinson.png', 'Im_OrlandoBloom.png'],diff,1,0.4251053000007232,8,0,
BRNA1411,train,inv,fs,posfs_id19_im27.bmp_posfs_id4_im15.bmp,['Im_PatrickDempsey.png', 'Im_DanielCraig.png', 'Im_RyanGosling.png', 'Im_BradPitt.png', 'Im_LeonardoDiCaprio.png', 'Im_DanielRadcliffe.png', 'Im_RobertDowneyJr.png', 'Im_GeorgeClooney.png', 'Im_RobertPattinson.png', 'Im_OrlandoBloom.png'],diff,1,0.41657630000190693,9,0,
BRNA1411,train,pos,60,pos60_id5_im10.bmp_pos60_id20_im3.bmp,['Im_PatrickDempsey.png', 'Im_DanielCraig.png', 'Im_RyanGosling.png', 'Im_BradPitt.png', 'Im_LeonardoDiCaprio.png', 'Im_DanielRadcliffe.png', 'Im_RobertDowneyJr.png', 'Im_GeorgeClooney.png', 'Im_RobertPattinson.png', 'Im_OrlandoBloom.png'],diff,1,0.4333927000006952,10,0,
BRNA1411,train,pos,120,pos120_id5_im10.bmp_pos120_id20_im3.bmp,['Im_PatrickDempsey.png', 'Im_DanielCraig.png', 'Im_RyanGosling.png', 'Im_BradPitt.png', 'Im_LeonardoDiCaprio.png', 'Im_DanielRadcliffe.png', 'Im_RobertDowneyJr.png', 'Im_GeorgeClooney.png', 'Im_RobertPattinson.png', 'Im_OrlandoBloom.png'],diff,1,0.4083460000001651,11,0,
BRNA1411,train,pos,0,pos0_id5_im20.bmp_pos0_id5_im1.bmp,['Im_PatrickDempsey.png', 'Im_DanielCraig.png', 'Im_RyanGosling.png', 'Im_BradPitt.png', 'Im_LeonardoDiCaprio.png', 'Im_DanielRadcliffe.png', 'Im_RobertDowneyJr.png', 'Im_GeorgeClooney.png', 'Im_RobertPattinson.png', 'Im_OrlandoBloom.png'],same,1,0.425122000000556,12,0,
BRNA1411,train,pos,60,pos60_id13_im10.bmp_pos60_id3_im17.bmp,['Im_PatrickDempsey.png', 'Im_DanielCraig.png', 'Im_RyanGosling.png', 'Im_BradPitt.png', 'Im_LeonardoDiCaprio.png', 'Im_DanielRadcliffe.png', 'Im_RobertDowneyJr.png', 'Im_GeorgeClooney.png', 'Im_RobertPattinson.png', 'Im_OrlandoBloom.png'],diff,1,0.41672939999989467,13,0,
BRNA1411,train,pos,150,pos150_id13_im29.bmp_pos150_id13_im15.bmp,['Im_PatrickDempsey.png', 'Im_DanielCraig.png', 'Im_RyanGosling.png', 'Im_BradPitt.png', 'Im_LeonardoDiCaprio.png', 'Im_DanielRadcliffe.png', 'Im_RobertDowneyJr.png', 'Im_GeorgeClooney.png', 'Im_RobertPattinson.png', 'Im_OrlandoBloom.png'],diff,0,0.4251954999999725,13,0,
BRNA1411,train,pos,fs,posfs_id7_im26.bmp_posfs_id7_im14.bmp,['Im_PatrickDempsey.png', 'Im_DanielCraig.png', 'Im_RyanGosling.png', 'Im_BradPitt.png', 'Im_LeonardoDiCaprio.png', 'Im_DanielRadcliffe.png', 'Im_RobertDowneyJr.png', 'Im_GeorgeClooney.png', 'Im_RobertPattinson.png', 'Im_OrlandoBloom.png'],same,1,0.533358100001351,14,0,
BRNA1411,train,pos,fs,posfs_id16_im2.bmp_posfs_id19_im27.bmp,['Im_PatrickDempsey.png', 'Im_DanielCraig.png', 'Im_RyanGosling.png', 'Im_BradPitt.png', 'Im_LeonardoDiCaprio.png', 'Im_DanielRadcliffe.png', 'Im_RobertDowneyJr.png', 'Im_GeorgeClooney.png', 'Im_RobertPattinson.png', 'Im_OrlandoBloom.png'],diff,1,0.4082945000009204,15,0,
BRNA1411,train,pos,150,pos150_id19_im27.bmp_pos150_id19_im4.bmp,['Im_PatrickDempsey.png', 'Im_DanielCraig.png', 'Im_RyanGosling.png', 'Im_BradPitt.png', 'Im_LeonardoDiCaprio.png', 'Im_DanielRadcliffe.png', 'Im_RobertDowneyJr.png', 'Im_GeorgeClooney.png', 'Im_RobertPattinson.png', 'Im_OrlandoBloom.png'],same,1,0.4084431000010227,16,0,
BRNA1411,train,pos,90,pos90_id16_im3.bmp_pos90_id16_im19.bmp,['Im_PatrickDempsey.png', 'Im_DanielCraig.png', 'Im_RyanGosling.png', 'Im_BradPitt.png', 'Im_LeonardoDiCaprio.png', 'Im_DanielRadcliffe.png', 'Im_RobertDowneyJr.png', 'Im_GeorgeClooney.png', 'Im_RobertPattinson.png', 'Im_OrlandoBloom.png'],diff,0,0.41674170000260347,16,0,
BRNA1411,train,pos,120,pos120_id5_im20.bmp_pos120_id17_im14.bmp,['Im_PatrickDempsey.png', 'Im_DanielCraig.png', 'Im_RyanGosling.png', 'Im_BradPitt.png', 'Im_LeonardoDiCaprio.png', 'Im_DanielRadcliffe.png', 'Im_RobertDowneyJr.png', 'Im_GeorgeClooney.png', 'Im_RobertPattinson.png', 'Im_OrlandoBloom.png'],diff,1,0.4248234999977285,17,0,
BRNA1411,train,pos,0,pos0_id17_im9.bmp_pos0_id17_im14.bmp,['Im_PatrickDempsey.png', 'Im_DanielCraig.png', 'Im_RyanGosling.png', 'Im_BradPitt.png', 'Im_LeonardoDiCaprio.png', 'Im_DanielRadcliffe.png', 'Im_RobertDowneyJr.png', 'Im_GeorgeClooney.png', 'Im_RobertPattinson.png', 'Im_OrlandoBloom.png'],same,1,0.42521680000209017,18,0,
BRNA1411,train,pos,30,pos30_id3_im8.bmp_pos30_id7_im26.bmp,['Im_PatrickDempsey.png', 'Im_DanielCraig.png', 'Im_RyanGosling.png', 'Im_BradPitt.png', 'Im_LeonardoDiCaprio.png', 'Im_DanielRadcliffe.png', 'Im_RobertDowneyJr.png', 'Im_GeorgeClooney.png', 'Im_RobertPattinson.png', 'Im_OrlandoBloom.png'],same,0,0.4250716000024113,18,0,
BRNA1411,train,pos,90,pos90_id17_im8.bmp_pos90_id5_im10.bmp,['Im_PatrickDempsey.png', 'Im_DanielCraig.png', 'Im_RyanGosling.png', 'Im_BradPitt.png', 'Im_LeonardoDiCaprio.png', 'Im_DanielRadcliffe.png', 'Im_RobertDowneyJr.png', 'Im_GeorgeClooney.png', 'Im_RobertPattinson.png', 'Im_OrlandoBloom.png'],diff,1,0.4083360000004177,19,0,
BRNA1411,train,pos,30,pos30_id20_im3.bmp_pos30_id5_im10.bmp,['Im_PatrickDempsey.png', 'Im_DanielCraig.png', 'Im_RyanGosling.png', 'Im_BradPitt.png', 'Im_LeonardoDiCaprio.png', 'Im_DanielRadcliffe.png', 'Im_RobertDowneyJr.png', 'Im_GeorgeClooney.png', 'Im_RobertPattinson.png', 'Im_OrlandoBloom.png'],diff,1,0.4083905999978015,20,0,
BRNA1411,train,neg,0,neg0_id13_im29.bmp_neg0_id20_im30.bmp,['Im_PatrickDempsey.png', 'Im_DanielCraig.png', 'Im_RyanGosling.png', 'Im_BradPitt.png', 'Im_LeonardoDiCaprio.png', 'Im_DanielRadcliffe.png', 'Im_RobertDowneyJr.png', 'Im_GeorgeClooney.png', 'Im_RobertPattinson.png', 'Im_OrlandoBloom.png'],diff,1,0.6252357000012125,21,0,
BRNA1411,train,neg,60,neg60_id13_im10.bmp_neg60_id3_im17.bmp,['Im_PatrickDempsey.png', 'Im_DanielCraig.png', 'Im_RyanGosling.png', 'Im_BradPitt.png', 'Im_LeonardoDiCaprio.png', 'Im_DanielRadcliffe.png', 'Im_RobertDowneyJr.png', 'Im_GeorgeClooney.png', 'Im_RobertPattinson.png', 'Im_OrlandoBloom.png'],diff,1,0.65836230000059,22,0,
BRNA1411,train,neg,60,neg60_id4_im15.bmp_neg60_id19_im27.bmp,['Im_PatrickDempsey.png', 'Im_DanielCraig.png', 'Im_RyanGosling.png', 'Im_BradPitt.png', 'Im_LeonardoDiCaprio.png', 'Im_DanielRadcliffe.png', 'Im_RobertDowneyJr.png', 'Im_GeorgeClooney.png', 'Im_RobertPattinson.png', 'Im_OrlandoBloom.png'],same,0,0.5250407999992603,22,0,
BRNA1411,train,neg,30,neg30_id17_im8.bmp_neg30_id17_im9.bmp,['Im_PatrickDempsey.png', 'Im_DanielCraig.png', 'Im_RyanGosling.png', 'Im_BradPitt.png', 'Im_LeonardoDiCaprio.png', 'Im_DanielRadcliffe.png', 'Im_RobertDowneyJr.png', 'Im_GeorgeClooney.png', 'Im_RobertPattinson.png', 'Im_OrlandoBloom.png'],same,1,0.4917648000009649,23,0,
BRNA1411,train,neg,0,neg0_id17_im9.bmp_neg0_id17_im8.bmp,['Im_PatrickDempsey.png', 'Im_DanielCraig.png', 'Im_RyanGosling.png', 'Im_BradPitt.png', 'Im_LeonardoDiCaprio.png', 'Im_DanielRadcliffe.png', 'Im_RobertDowneyJr.png', 'Im_GeorgeClooney.png', 'Im_RobertPattinson.png', 'Im_OrlandoBloom.png'],same,1,0.5416815999997198,24,0,
BRNA1411,train,neg,fs,negfs_id19_im27.bmp_negfs_id4_im15.bmp,['Im_PatrickDempsey.png', 'Im_DanielCraig.png', 'Im_RyanGosling.png', 'Im_BradPitt.png', 'Im_LeonardoDiCaprio.png', 'Im_DanielRadcliffe.png', 'Im_RobertDowneyJr.png', 'Im_GeorgeClooney.png', 'Im_RobertPattinson.png', 'Im_OrlandoBloom.png'],diff,1,0.40832339999906253,25,0,
BRNA1411,train,neg,150,neg150_id5_im1.bmp_neg150_id13_im10.bmp,['Im_PatrickDempsey.png', 'Im_DanielCraig.png', 'Im_RyanGosling.png', 'Im_BradPitt.png', 'Im_LeonardoDiCaprio.png', 'Im_DanielRadcliffe.png', 'Im_RobertDowneyJr.png', 'Im_GeorgeClooney.png', 'Im_RobertPattinson.png', 'Im_OrlandoBloom.png'],diff,1,0.500277900002402,26,0,
BRNA1411,train,neg,120,neg120_id5_im1.bmp_neg120_id4_im15.bmp,['Im_PatrickDempsey.png', 'Im_DanielCraig.png', 'Im_RyanGosling.png', 'Im_BradPitt.png', 'Im_LeonardoDiCaprio.png', 'Im_DanielRadcliffe.png', 'Im_RobertDowneyJr.png', 'Im_GeorgeClooney.png', 'Im_RobertPattinson.png', 'Im_OrlandoBloom.png'],diff,1,0.44989799999893876,27,0,
BRNA1411,train,neg,120,neg120_id4_im15.bmp_neg120_id4_im20.bmp,['Im_PatrickDempsey.png', 'Im_DanielCraig.png', 'Im_RyanGosling.png', 'Im_BradPitt.png', 'Im_LeonardoDiCaprio.png', 'Im_DanielRadcliffe.png', 'Im_RobertDowneyJr.png', 'Im_GeorgeClooney.png', 'Im_RobertPattinson.png', 'Im_OrlandoBloom.png'],same,1,0.6251086999982363,28,0,
BRNA1411,train,neg,fs,negfs_id5_im20.bmp_negfs_id5_im1.bmp,['Im_PatrickDempsey.png', 'Im_DanielCraig.png', 'Im_RyanGosling.png', 'Im_BradPitt.png', 'Im_LeonardoDiCaprio.png', 'Im_DanielRadcliffe.png', 'Im_RobertDowneyJr.png', 'Im_GeorgeClooney.png', 'Im_RobertPattinson.png', 'Im_OrlandoBloom.png'],same,1,0.42510690000199247,29,0,
BRNA1411,train,neg,30,neg30_id17_im9.bmp_neg30_id19_im8.bmp,['Im_PatrickDempsey.png', 'Im_DanielCraig.png', 'Im_RyanGosling.png', 'Im_BradPitt.png', 'Im_LeonardoDiCaprio.png', 'Im_DanielRadcliffe.png', 'Im_RobertDowneyJr.png', 'Im_GeorgeClooney.png', 'Im_RobertPattinson.png', 'Im_OrlandoBloom.png'],diff,1,0.4250422000004619,30,0,
BRNA1411,train,neg,90,neg90_id16_im3.bmp_neg90_id16_im2.bmp,['Im_PatrickDempsey.png', 'Im_DanielCraig.png', 'Im_RyanGosling.png', 'Im_BradPitt.png', 'Im_LeonardoDiCaprio.png', 'Im_DanielRadcliffe.png', 'Im_RobertDowneyJr.png', 'Im_GeorgeClooney.png', 'Im_RobertPattinson.png', 'Im_OrlandoBloom.png'],same,1,0.5000860999971337,31,0,
BRNA1411,train,neg,90,neg90_id20_im12.bmp_neg90_id20_im30.bmp,['Im_PatrickDempsey.png', 'Im_DanielCraig.png', 'Im_RyanGosling.png', 'Im_BradPitt.png', 'Im_LeonardoDiCaprio.png', 'Im_DanielRadcliffe.png', 'Im_RobertDowneyJr.png', 'Im_GeorgeClooney.png', 'Im_RobertPattinson.png', 'Im_OrlandoBloom.png'],same,1,0.6252551000034146,32,0,
BRNA1411,train,neg,150,neg150_id16_im3.bmp_neg150_id16_im2.bmp,['Im_PatrickDempsey.png', 'Im_DanielCraig.png', 'Im_RyanGosling.png', 'Im_BradPitt.png', 'Im_LeonardoDiCaprio.png', 'Im_DanielRadcliffe.png', 'Im_RobertDowneyJr.png', 'Im_GeorgeClooney.png', 'Im_RobertPattinson.png', 'Im_OrlandoBloom.png'],same,1,0.40836230000059004,33,0,
BRNA1411,train,inv,120,pos120_id18_im19.bmp_pos120_id4_im7.bmp,['Im_PatrickDempsey.png', 'Im_DanielCraig.png', 'Im_RyanGosling.png', 'Im_BradPitt.png', 'Im_LeonardoDiCaprio.png', 'Im_DanielRadcliffe.png', 'Im_RobertDowneyJr.png', 'Im_GeorgeClooney.png', 'Im_RobertPattinson.png', 'Im_OrlandoBloom.png'],same,0,0.41668619999836665,0,78.57142857142857,
BRNA1411,train,inv,150,pos150_id7_im14.bmp_pos150_id4_im20.bmp,['Im_PatrickDempsey.png', 'Im_DanielCraig.png', 'Im_RyanGosling.png', 'Im_BradPitt.png', 'Im_LeonardoDiCaprio.png', 'Im_DanielRadcliffe.png', 'Im_RobertDowneyJr.png', 'Im_GeorgeClooney.png', 'Im_RobertPattinson.png', 'Im_OrlandoBloom.png'],diff,1,0.4083384000005026,1,78.57142857142857,
BRNA1411,train,inv,60,pos60_id20_im30.bmp_pos60_id20_im3.bmp,['Im_PatrickDempsey.png', 'Im_DanielCraig.png', 'Im_RyanGosling.png', 'Im_BradPitt.png', 'Im_LeonardoDiCaprio.png', 'Im_DanielRadcliffe.png', 'Im_RobertDowneyJr.png', 'Im_GeorgeClooney.png', 'Im_RobertPattinson.png', 'Im_OrlandoBloom.png'],diff,0,1.066588599998795,1,78.57142857142857,
BRNA1411,train,inv,30,pos30_id7_im26.bmp_pos30_id3_im8.bmp,['Im_PatrickDempsey.png', 'Im_DanielCraig.png', 'Im_RyanGosling.png', 'Im_BradPitt.png', 'Im_LeonardoDiCaprio.png', 'Im_DanielRadcliffe.png', 'Im_RobertDowneyJr.png', 'Im_GeorgeClooney.png', 'Im_RobertPattinson.png', 'Im_OrlandoBloom.png'],diff,1,2.80030540000007,2,78.57142857142857,
BRNA1411,train,inv,0,pos0_id17_im14.bmp_pos0_id5_im20.bmp,['Im_PatrickDempsey.png', 'Im_DanielCraig.png', 'Im_RyanGosling.png', 'Im_BradPitt.png', 'Im_LeonardoDiCaprio.png', 'Im_DanielRadcliffe.png', 'Im_RobertDowneyJr.png', 'Im_GeorgeClooney.png', 'Im_RobertPattinson.png', 'Im_OrlandoBloom.png'],same,0,0.4417468999999983,2,78.57142857142857,
BRNA1411,train,inv,90,pos90_id13_im15.bmp_pos90_id13_im10.bmp,['Im_PatrickDempsey.png', 'Im_DanielCraig.png', 'Im_RyanGosling.png', 'Im_BradPitt.png', 'Im_LeonardoDiCaprio.png', 'Im_DanielRadcliffe.png', 'Im_RobertDowneyJr.png', 'Im_GeorgeClooney.png', 'Im_RobertPattinson.png', 'Im_OrlandoBloom.png'],same,1,0.40837070000270614,3,78.57142857142857,
BRNA1411,train,inv,fs,posfs_id20_im30.bmp_posfs_id4_im20.bmp,['Im_PatrickDempsey.png', 'Im_DanielCraig.png', 'Im_RyanGosling.png', 'Im_BradPitt.png', 'Im_LeonardoDiCaprio.png', 'Im_DanielRadcliffe.png', 'Im_RobertDowneyJr.png', 'Im_GeorgeClooney.png', 'Im_RobertPattinson.png', 'Im_OrlandoBloom.png'],diff,1,0.524966900000436,4,78.57142857142857,
BRNA1411,train,inv,150,pos150_id18_im19.bmp_pos150_id18_im11.bmp,['Im_PatrickDempsey.png', 'Im_DanielCraig.png', 'Im_RyanGosling.png', 'Im_BradPitt.png', 'Im_LeonardoDiCaprio.png', 'Im_DanielRadcliffe.png', 'Im_RobertDowneyJr.png', 'Im_GeorgeClooney.png', 'Im_RobertPattinson.png', 'Im_OrlandoBloom.png'],same,1,0.4084008999998332,5,78.57142857142857,
BRNA1411,train,inv,0,pos0_id7_im15.bmp_pos0_id7_im26.bmp,['Im_PatrickDempsey.png', 'Im_DanielCraig.png', 'Im_RyanGosling.png', 'Im_BradPitt.png', 'Im_LeonardoDiCaprio.png', 'Im_DanielRadcliffe.png', 'Im_RobertDowneyJr.png', 'Im_GeorgeClooney.png', 'Im_RobertPattinson.png', 'Im_OrlandoBloom.png'],same,1,0.42501939999783644,6,78.57142857142857,
BRNA1411,train,inv,120,pos120_id16_im19.bmp_pos120_id16_im2.bmp,['Im_PatrickDempsey.png', 'Im_DanielCraig.png', 'Im_RyanGosling.png', 'Im_BradPitt.png', 'Im_LeonardoDiCaprio.png', 'Im_DanielRadcliffe.png', 'Im_RobertDowneyJr.png', 'Im_GeorgeClooney.png', 'Im_RobertPattinson.png', 'Im_OrlandoBloom.png'],same,1,1.1416927999998734,7,78.57142857142857,
BRNA1411,train,inv,60,pos60_id16_im3.bmp_pos60_id3_im17.bmp,['Im_PatrickDempsey.png', 'Im_DanielCraig.png', 'Im_RyanGosling.png', 'Im_BradPitt.png', 'Im_LeonardoDiCaprio.png', 'Im_DanielRadcliffe.png', 'Im_RobertDowneyJr.png', 'Im_GeorgeClooney.png', 'Im_RobertPattinson.png', 'Im_OrlandoBloom.png'],diff,1,0.4998659000011685,8,78.57142857142857,
BRNA1411,train,inv,30,pos30_id7_im14.bmp_pos30_id17_im9.bmp,['Im_PatrickDempsey.png', 'Im_DanielCraig.png', 'Im_RyanGosling.png', 'Im_BradPitt.png', 'Im_LeonardoDiCaprio.png', 'Im_DanielRadcliffe.png', 'Im_RobertDowneyJr.png', 'Im_GeorgeClooney.png', 'Im_RobertPattinson.png', 'Im_OrlandoBloom.png'],diff,1,0.6586863000011363,9,78.57142857142857,
BRNA1411,train,inv,90,pos90_id5_im1.bmp_pos90_id5_im20.bmp,['Im_PatrickDempsey.png', 'Im_DanielCraig.png', 'Im_RyanGosling.png', 'Im_BradPitt.png', 'Im_LeonardoDiCaprio.png', 'Im_DanielRadcliffe.png', 'Im_RobertDowneyJr.png', 'Im_GeorgeClooney.png', 'Im_RobertPattinson.png', 'Im_OrlandoBloom.png'],same,1,0.4250432999979239,10,78.57142857142857,
BRNA1411,train,inv,fs,posfs_id7_im14.bmp_posfs_id4_im20.bmp,['Im_PatrickDempsey.png', 'Im_DanielCraig.png', 'Im_RyanGosling.png', 'Im_BradPitt.png', 'Im_LeonardoDiCaprio.png', 'Im_DanielRadcliffe.png', 'Im_RobertDowneyJr.png', 'Im_GeorgeClooney.png', 'Im_RobertPattinson.png', 'Im_OrlandoBloom.png'],diff,1,0.4167723999998998,11,78.57142857142857,
BRNA1411,train,neg,0,neg0_id7_im15.bmp_neg0_id7_im14.bmp,['Im_PatrickDempsey.png', 'Im_DanielCraig.png', 'Im_RyanGosling.png', 'Im_BradPitt.png', 'Im_LeonardoDiCaprio.png', 'Im_DanielRadcliffe.png', 'Im_RobertDowneyJr.png', 'Im_GeorgeClooney.png', 'Im_RobertPattinson.png', 'Im_OrlandoBloom.png'],same,1,0.4748911999995471,12,78.57142857142857,
BRNA1411,train,neg,60,neg60_id4_im20.bmp_neg60_id20_im30.bmp,['Im_PatrickDempsey.png', 'Im_DanielCraig.png', 'Im_RyanGosling.png', 'Im_BradPitt.png', 'Im_LeonardoDiCaprio.png', 'Im_DanielRadcliffe.png', 'Im_RobertDowneyJr.png', 'Im_GeorgeClooney.png', 'Im_RobertPattinson.png', 'Im_OrlandoBloom.png'],diff,1,0.4166920999996364,13,78.57142857142857,
BRNA1411,train,neg,150,neg150_id19_im4.bmp_neg150_id19_im27.bmp,['Im_PatrickDempsey.png', 'Im_DanielCraig.png', 'Im_RyanGosling.png', 'Im_BradPitt.png', 'Im_LeonardoDiCaprio.png', 'Im_DanielRadcliffe.png', 'Im_RobertDowneyJr.png', 'Im_GeorgeClooney.png', 'Im_RobertPattinson.png', 'Im_OrlandoBloom.png'],same,1,0.6832724999985658,14,78.57142857142857,
BRNA1411,train,neg,60,neg60_id7_im14.bmp_neg60_id7_im26.bmp,['Im_PatrickDempsey.png', 'Im_DanielCraig.png', 'Im_RyanGosling.png', 'Im_BradPitt.png', 'Im_LeonardoDiCaprio.png', 'Im_DanielRadcliffe.png', 'Im_RobertDowneyJr.png', 'Im_GeorgeClooney.png', 'Im_RobertPattinson.png', 'Im_OrlandoBloom.png'],same,1,0.6916904999998224,15,78.57142857142857,
BRNA1411,train,neg,150,neg150_id18_im19.bmp_neg150_id3_im6.bmp,['Im_PatrickDempsey.png', 'Im_DanielCraig.png', 'Im_RyanGosling.png', 'Im_BradPitt.png', 'Im_LeonardoDiCaprio.png', 'Im_DanielRadcliffe.png', 'Im_RobertDowneyJr.png', 'Im_GeorgeClooney.png', 'Im_RobertPattinson.png', 'Im_OrlandoBloom.png'],diff,1,0.41665179999836255,16,78.57142857142857,
BRNA1411,train,neg,120,neg120_id19_im4.bmp_neg120_id7_im26.bmp,['Im_PatrickDempsey.png', 'Im_DanielCraig.png', 'Im_RyanGosling.png', 'Im_BradPitt.png', 'Im_LeonardoDiCaprio.png', 'Im_DanielRadcliffe.png', 'Im_RobertDowneyJr.png', 'Im_GeorgeClooney.png', 'Im_RobertPattinson.png', 'Im_OrlandoBloom.png'],same,0,0.41669960000217543,16,78.57142857142857,
BRNA1411,train,neg,0,neg0_id5_im1.bmp_neg0_id13_im10.bmp,['Im_PatrickDempsey.png', 'Im_DanielCraig.png', 'Im_RyanGosling.png', 'Im_BradPitt.png', 'Im_LeonardoDiCaprio.png', 'Im_DanielRadcliffe.png', 'Im_RobertDowneyJr.png', 'Im_GeorgeClooney.png', 'Im_RobertPattinson.png', 'Im_OrlandoBloom.png'],diff,1,0.858474100001331,17,78.57142857142857,
BRNA1411,train,neg,30,neg30_id4_im7.bmp_neg30_id18_im19.bmp,['Im_PatrickDempsey.png', 'Im_DanielCraig.png', 'Im_RyanGosling.png', 'Im_BradPitt.png', 'Im_LeonardoDiCaprio.png', 'Im_DanielRadcliffe.png', 'Im_RobertDowneyJr.png', 'Im_GeorgeClooney.png', 'Im_RobertPattinson.png', 'Im_OrlandoBloom.png'],diff,1,0.6918562999999267,18,78.57142857142857,
BRNA1411,train,neg,30,neg30_id7_im26.bmp_neg30_id19_im4.bmp,['Im_PatrickDempsey.png', 'Im_DanielCraig.png', 'Im_RyanGosling.png', 'Im_BradPitt.png', 'Im_LeonardoDiCaprio.png', 'Im_DanielRadcliffe.png', 'Im_RobertDowneyJr.png', 'Im_GeorgeClooney.png', 'Im_RobertPattinson.png', 'Im_OrlandoBloom.png'],diff,1,0.4333935999966343,19,78.57142857142857,
BRNA1411,train,neg,fs,negfs_id4_im20.bmp_negfs_id4_im15.bmp,['Im_PatrickDempsey.png', 'Im_DanielCraig.png', 'Im_RyanGosling.png', 'Im_BradPitt.png', 'Im_LeonardoDiCaprio.png', 'Im_DanielRadcliffe.png', 'Im_RobertDowneyJr.png', 'Im_GeorgeClooney.png', 'Im_RobertPattinson.png', 'Im_OrlandoBloom.png'],same,1,0.40817729999980656,20,78.57142857142857,
BRNA1411,train,neg,90,neg90_id18_im11.bmp_neg90_id16_im2.bmp,['Im_PatrickDempsey.png', 'Im_DanielCraig.png', 'Im_RyanGosling.png', 'Im_BradPitt.png', 'Im_LeonardoDiCaprio.png', 'Im_DanielRadcliffe.png', 'Im_RobertDowneyJr.png', 'Im_GeorgeClooney.png', 'Im_RobertPattinson.png', 'Im_OrlandoBloom.png'],same,0,0.991960300001665,20,78.57142857142857,
BRNA1411,train,neg,fs,negfs_id5_im10.bmp_negfs_id5_im20.bmp,['Im_PatrickDempsey.png', 'Im_DanielCraig.png', 'Im_RyanGosling.png', 'Im_BradPitt.png', 'Im_LeonardoDiCaprio.png', 'Im_DanielRadcliffe.png', 'Im_RobertDowneyJr.png', 'Im_GeorgeClooney.png', 'Im_RobertPattinson.png', 'Im_OrlandoBloom.png'],same,1,0.44992180000190274,21,78.57142857142857,
BRNA1411,train,neg,90,neg90_id20_im12.bmp_neg90_id17_im14.bmp,['Im_PatrickDempsey.png', 'Im_DanielCraig.png', 'Im_RyanGosling.png', 'Im_BradPitt.png', 'Im_LeonardoDiCaprio.png', 'Im_DanielRadcliffe.png', 'Im_RobertDowneyJr.png', 'Im_GeorgeClooney.png', 'Im_RobertPattinson.png', 'Im_OrlandoBloom.png'],same,0,0.7583679999988817,21,78.57142857142857,
BRNA1411,train,neg,120,neg120_id7_im14.bmp_neg120_id17_im9.bmp,['Im_PatrickDempsey.png', 'Im_DanielCraig.png', 'Im_RyanGosling.png', 'Im_BradPitt.png', 'Im_LeonardoDiCaprio.png', 'Im_DanielRadcliffe.png', 'Im_RobertDowneyJr.png', 'Im_GeorgeClooney.png', 'Im_RobertPattinson.png', 'Im_OrlandoBloom.png'],diff,1,0.5917794999986654,22,78.57142857142857,
BRNA1411,train,inv,90,pos90_id20_im3.bmp_pos90_id20_im30.bmp,['Im_PatrickDempsey.png', 'Im_DanielCraig.png', 'Im_RyanGosling.png', 'Im_BradPitt.png', 'Im_LeonardoDiCaprio.png', 'Im_DanielRadcliffe.png', 'Im_RobertDowneyJr.png', 'Im_GeorgeClooney.png', 'Im_RobertPattinson.png', 'Im_OrlandoBloom.png'],diff,0,0.9089366999978665,22,78.57142857142857,
BRNA1411,train,inv,30,pos30_id17_im14.bmp_pos30_id17_im9.bmp,['Im_PatrickDempsey.png', 'Im_DanielCraig.png', 'Im_RyanGosling.png', 'Im_BradPitt.png', 'Im_LeonardoDiCaprio.png', 'Im_DanielRadcliffe.png', 'Im_RobertDowneyJr.png', 'Im_GeorgeClooney.png', 'Im_RobertPattinson.png', 'Im_OrlandoBloom.png'],diff,0,0.4253218999983801,22,78.57142857142857,
BRNA1411,train,inv,60,pos60_id16_im2.bmp_pos60_id16_im19.bmp,['Im_PatrickDempsey.png', 'Im_DanielCraig.png', 'Im_RyanGosling.png', 'Im_BradPitt.png', 'Im_LeonardoDiCaprio.png', 'Im_DanielRadcliffe.png', 'Im_RobertDowneyJr.png', 'Im_GeorgeClooney.png', 'Im_RobertPattinson.png', 'Im_OrlandoBloom.png'],diff,0,0.4085132000000158,22,78.57142857142857,
BRNA1411,train,inv,120,pos120_id20_im3.bmp_pos120_id5_im10.bmp,['Im_PatrickDempsey.png', 'Im_DanielCraig.png', 'Im_RyanGosling.png', 'Im_BradPitt.png', 'Im_LeonardoDiCaprio.png', 'Im_DanielRadcliffe.png', 'Im_RobertDowneyJr.png', 'Im_GeorgeClooney.png', 'Im_RobertPattinson.png', 'Im_OrlandoBloom.png'],diff,1,0.41690680000101565,23,78.57142857142857,
BRNA1411,train,inv,120,pos120_id7_im14.bmp_pos120_id7_im15.bmp,['Im_PatrickDempsey.png', 'Im_DanielCraig.png', 'Im_RyanGosling.png', 'Im_BradPitt.png', 'Im_LeonardoDiCaprio.png', 'Im_DanielRadcliffe.png', 'Im_RobertDowneyJr.png', 'Im_GeorgeClooney.png', 'Im_RobertPattinson.png', 'Im_OrlandoBloom.png'],diff,0,0.40840319999915664,23,78.57142857142857,
BRNA1411,train,inv,150,pos150_id3_im8.bmp_pos150_id18_im11.bmp,['Im_PatrickDempsey.png', 'Im_DanielCraig.png', 'Im_RyanGosling.png', 'Im_BradPitt.png', 'Im_LeonardoDiCaprio.png', 'Im_DanielRadcliffe.png', 'Im_RobertDowneyJr.png', 'Im_GeorgeClooney.png', 'Im_RobertPattinson.png', 'Im_OrlandoBloom.png'],diff,1,0.4750691999979608,24,78.57142857142857,
BRNA1411,train,inv,fs,posfs_id7_im26.bmp_posfs_id7_im15.bmp,['Im_PatrickDempsey.png', 'Im_DanielCraig.png', 'Im_RyanGosling.png', 'Im_BradPitt.png', 'Im_LeonardoDiCaprio.png', 'Im_DanielRadcliffe.png', 'Im_RobertDowneyJr.png', 'Im_GeorgeClooney.png', 'Im_RobertPattinson.png', 'Im_OrlandoBloom.png'],same,1,0.4919810999999754,25,78.57142857142857,
BRNA1411,train,inv,fs,posfs_id19_im4.bmp_posfs_id19_im8.bmp,['Im_PatrickDempsey.png', 'Im_DanielCraig.png', 'Im_RyanGosling.png', 'Im_BradPitt.png', 'Im_LeonardoDiCaprio.png', 'Im_DanielRadcliffe.png', 'Im_RobertDowneyJr.png', 'Im_GeorgeClooney.png', 'Im_RobertPattinson.png', 'Im_OrlandoBloom.png'],same,1,0.42500920000020415,26,78.57142857142857,
BRNA1411,train,inv,150,pos150_id5_im20.bmp_pos150_id5_im1.bmp,['Im_PatrickDempsey.png', 'Im_DanielCraig.png', 'Im_RyanGosling.png', 'Im_BradPitt.png', 'Im_LeonardoDiCaprio.png', 'Im_DanielRadcliffe.png', 'Im_RobertDowneyJr.png', 'Im_GeorgeClooney.png', 'Im_RobertPattinson.png', 'Im_OrlandoBloom.png'],diff,0,0.7832256000001507,26,78.57142857142857,
BRNA1411,train,inv,0,pos0_id13_im10.bmp_pos0_id3_im17.bmp,['Im_PatrickDempsey.png', 'Im_DanielCraig.png', 'Im_RyanGosling.png', 'Im_BradPitt.png', 'Im_LeonardoDiCaprio.png', 'Im_DanielRadcliffe.png', 'Im_RobertDowneyJr.png', 'Im_GeorgeClooney.png', 'Im_RobertPattinson.png', 'Im_OrlandoBloom.png'],same,0,1.0086229000007734,26,78.57142857142857,
BRNA1411,train,inv,0,pos0_id20_im12.bmp_pos0_id20_im30.bmp,['Im_PatrickDempsey.png', 'Im_DanielCraig.png', 'Im_RyanGosling.png', 'Im_BradPitt.png', 'Im_LeonardoDiCaprio.png', 'Im_DanielRadcliffe.png', 'Im_RobertDowneyJr.png', 'Im_GeorgeClooney.png', 'Im_RobertPattinson.png', 'Im_OrlandoBloom.png'],same,1,0.4084212000016123,27,78.57142857142857,
BRNA1411,train,inv,30,pos30_id20_im30.bmp_pos30_id20_im3.bmp,['Im_PatrickDempsey.png', 'Im_DanielCraig.png', 'Im_RyanGosling.png', 'Im_BradPitt.png', 'Im_LeonardoDiCaprio.png', 'Im_DanielRadcliffe.png', 'Im_RobertDowneyJr.png', 'Im_GeorgeClooney.png', 'Im_RobertPattinson.png', 'Im_OrlandoBloom.png'],diff,0,0.8585130000028585,27,78.57142857142857,
BRNA1411,train,inv,60,pos60_id3_im6.bmp_pos60_id13_im15.bmp,['Im_PatrickDempsey.png', 'Im_DanielCraig.png', 'Im_RyanGosling.png', 'Im_BradPitt.png', 'Im_LeonardoDiCaprio.png', 'Im_DanielRadcliffe.png', 'Im_RobertDowneyJr.png', 'Im_GeorgeClooney.png', 'Im_RobertPattinson.png', 'Im_OrlandoBloom.png'],diff,1,0.4334165000000212,28,78.57142857142857,
BRNA1411,train,inv,90,pos90_id19_im27.bmp_pos90_id4_im15.bmp,['Im_PatrickDempsey.png', 'Im_DanielCraig.png', 'Im_RyanGosling.png', 'Im_BradPitt.png', 'Im_LeonardoDiCaprio.png', 'Im_DanielRadcliffe.png', 'Im_RobertDowneyJr.png', 'Im_GeorgeClooney.png', 'Im_RobertPattinson.png', 'Im_OrlandoBloom.png'],diff,1,0.46680560000095284,29,78.57142857142857,
BRNA1411,train,pos,0,pos0_id5_im10.bmp_pos0_id20_im3.bmp,['Im_PatrickDempsey.png', 'Im_DanielCraig.png', 'Im_RyanGosling.png', 'Im_BradPitt.png', 'Im_LeonardoDiCaprio.png', 'Im_DanielRadcliffe.png', 'Im_RobertDowneyJr.png', 'Im_GeorgeClooney.png', 'Im_RobertPattinson.png', 'Im_OrlandoBloom.png'],diff,1,0.4247792999994999,1,69.04761904761905,
BRNA1411,train,pos,90,pos90_id20_im30.bmp_pos90_id13_im29.bmp,['Im_PatrickDempsey.png', 'Im_DanielCraig.png', 'Im_RyanGosling.png', 'Im_BradPitt.png', 'Im_LeonardoDiCaprio.png', 'Im_DanielRadcliffe.png', 'Im_RobertDowneyJr.png', 'Im_GeorgeClooney.png', 'Im_RobertPattinson.png', 'Im_OrlandoBloom.png'],diff,1,0.4165769999999611,2,69.04761904761905,
BRNA1411,train,pos,30,pos30_id19_im27.bmp_pos30_id4_im15.bmp,['Im_PatrickDempsey.png', 'Im_DanielCraig.png', 'Im_RyanGosling.png', 'Im_BradPitt.png', 'Im_LeonardoDiCaprio.png', 'Im_DanielRadcliffe.png', 'Im_RobertDowneyJr.png', 'Im_GeorgeClooney.png', 'Im_RobertPattinson.png', 'Im_OrlandoBloom.png'],diff,1,0.4250441000003775,3,69.04761904761905,
BRNA1411,train,pos,0,pos0_id3_im17.bmp_pos0_id3_im6.bmp,['Im_PatrickDempsey.png', 'Im_DanielCraig.png', 'Im_RyanGosling.png', 'Im_BradPitt.png', 'Im_LeonardoDiCaprio.png', 'Im_DanielRadcliffe.png', 'Im_RobertDowneyJr.png', 'Im_GeorgeClooney.png', 'Im_RobertPattinson.png', 'Im_OrlandoBloom.png'],same,1,0.5252239000001282,4,69.04761904761905,
BRNA1411,train,pos,fs,posfs_id16_im3.bmp_posfs_id16_im2.bmp,['Im_PatrickDempsey.png', 'Im_DanielCraig.png', 'Im_RyanGosling.png', 'Im_BradPitt.png', 'Im_LeonardoDiCaprio.png', 'Im_DanielRadcliffe.png', 'Im_RobertDowneyJr.png', 'Im_GeorgeClooney.png', 'Im_RobertPattinson.png', 'Im_OrlandoBloom.png'],none,1,4.425067600001057,4,69.04761904761905,
BRNA1411,train,pos,90,pos90_id3_im17.bmp_pos90_id3_im6.bmp,['Im_PatrickDempsey.png', 'Im_DanielCraig.png', 'Im_RyanGosling.png', 'Im_BradPitt.png', 'Im_LeonardoDiCaprio.png', 'Im_DanielRadcliffe.png', 'Im_RobertDowneyJr.png', 'Im_GeorgeClooney.png', 'Im_RobertPattinson.png', 'Im_OrlandoBloom.png'],diff,0,3.508489900003042,4,69.04761904761905,
BRNA1411,train,pos,120,pos120_id16_im3.bmp_pos120_id13_im29.bmp,['Im_PatrickDempsey.png', 'Im_DanielCraig.png', 'Im_RyanGosling.png', 'Im_BradPitt.png', 'Im_LeonardoDiCaprio.png', 'Im_DanielRadcliffe.png', 'Im_RobertDowneyJr.png', 'Im_GeorgeClooney.png', 'Im_RobertPattinson.png', 'Im_OrlandoBloom.png'],diff,1,0.4417147999993176,5,69.04761904761905,
BRNA1411,train,pos,60,pos60_id3_im17.bmp_pos60_id16_im3.bmp,['Im_PatrickDempsey.png', 'Im_DanielCraig.png', 'Im_RyanGosling.png', 'Im_BradPitt.png', 'Im_LeonardoDiCaprio.png', 'Im_DanielRadcliffe.png', 'Im_RobertDowneyJr.png', 'Im_GeorgeClooney.png', 'Im_RobertPattinson.png', 'Im_OrlandoBloom.png'],diff,1,0.416684299998451,6,69.04761904761905,
BRNA1411,train,pos,150,pos150_id16_im19.bmp_pos150_id16_im2.bmp,['Im_PatrickDempsey.png', 'Im_DanielCraig.png', 'Im_RyanGosling.png', 'Im_BradPitt.png', 'Im_LeonardoDiCaprio.png', 'Im_DanielRadcliffe.png', 'Im_RobertDowneyJr.png', 'Im_GeorgeClooney.png', 'Im_RobertPattinson.png', 'Im_OrlandoBloom.png'],same,1,0.5505499000028067,7,69.04761904761905,
BRNA1411,train,pos,60,pos60_id18_im11.bmp_pos60_id16_im2.bmp,['Im_PatrickDempsey.png', 'Im_DanielCraig.png', 'Im_RyanGosling.png', 'Im_BradPitt.png', 'Im_LeonardoDiCaprio.png', 'Im_DanielRadcliffe.png', 'Im_RobertDowneyJr.png', 'Im_GeorgeClooney.png', 'Im_RobertPattinson.png', 'Im_OrlandoBloom.png'],diff,1,0.5333898999997473,8,69.04761904761905,
BRNA1411,train,pos,150,pos150_id20_im3.bmp_pos150_id20_im30.bmp,['Im_PatrickDempsey.png', 'Im_DanielCraig.png', 'Im_RyanGosling.png', 'Im_BradPitt.png', 'Im_LeonardoDiCaprio.png', 'Im_DanielRadcliffe.png', 'Im_RobertDowneyJr.png', 'Im_GeorgeClooney.png', 'Im_RobertPattinson.png', 'Im_OrlandoBloom.png'],same,1,0.425061400001141,9,69.04761904761905,
BRNA1411,train,pos,30,pos30_id17_im9.bmp_pos30_id17_im8.bmp,['Im_PatrickDempsey.png', 'Im_DanielCraig.png', 'Im_RyanGosling.png', 'Im_BradPitt.png', 'Im_LeonardoDiCaprio.png', 'Im_DanielRadcliffe.png', 'Im_RobertDowneyJr.png', 'Im_GeorgeClooney.png', 'Im_RobertPattinson.png', 'Im_OrlandoBloom.png'],same,1,0.42508319999978994,10,69.04761904761905,
BRNA1411,train,pos,fs,posfs_id18_im18.bmp_posfs_id13_im15.bmp,['Im_PatrickDempsey.png', 'Im_DanielCraig.png', 'Im_RyanGosling.png', 'Im_BradPitt.png', 'Im_LeonardoDiCaprio.png', 'Im_DanielRadcliffe.png', 'Im_RobertDowneyJr.png', 'Im_GeorgeClooney.png', 'Im_RobertPattinson.png', 'Im_OrlandoBloom.png'],diff,1,0.46673729999747593,11,69.04761904761905,
BRNA1411,train,pos,120,pos120_id19_im27.bmp_pos120_id19_im8.bmp,['Im_PatrickDempsey.png', 'Im_DanielCraig.png', 'Im_RyanGosling.png', 'Im_BradPitt.png', 'Im_LeonardoDiCaprio.png', 'Im_DanielRadcliffe.png', 'Im_RobertDowneyJr.png', 'Im_GeorgeClooney.png', 'Im_RobertPattinson.png', 'Im_OrlandoBloom.png'],same,1,0.4250662000013108,12,69.04761904761905,
BRNA1411,train,inv,150,pos150_id4_im7.bmp_pos150_id18_im19.bmp,['Im_PatrickDempsey.png', 'Im_DanielCraig.png', 'Im_RyanGosling.png', 'Im_BradPitt.png', 'Im_LeonardoDiCaprio.png', 'Im_DanielRadcliffe.png', 'Im_RobertDowneyJr.png', 'Im_GeorgeClooney.png', 'Im_RobertPattinson.png', 'Im_OrlandoBloom.png'],diff,1,0.4333124000004318,13,69.04761904761905,
BRNA1411,train,inv,120,pos120_id18_im18.bmp_pos120_id18_im11.bmp,['Im_PatrickDempsey.png', 'Im_DanielCraig.png', 'Im_RyanGosling.png', 'Im_BradPitt.png', 'Im_LeonardoDiCaprio.png', 'Im_DanielRadcliffe.png', 'Im_RobertDowneyJr.png', 'Im_GeorgeClooney.png', 'Im_RobertPattinson.png', 'Im_OrlandoBloom.png'],same,1,0.41676989999905345,14,69.04761904761905,
BRNA1411,train,inv,fs,posfs_id5_im10.bmp_posfs_id20_im3.bmp,['Im_PatrickDempsey.png', 'Im_DanielCraig.png', 'Im_RyanGosling.png', 'Im_BradPitt.png', 'Im_LeonardoDiCaprio.png', 'Im_DanielRadcliffe.png', 'Im_RobertDowneyJr.png', 'Im_GeorgeClooney.png', 'Im_RobertPattinson.png', 'Im_OrlandoBloom.png'],diff,1,0.4250869999996212,15,69.04761904761905,
BRNA1411,train,inv,0,pos0_id5_im10.bmp_pos0_id17_im8.bmp,['Im_PatrickDempsey.png', 'Im_DanielCraig.png', 'Im_RyanGosling.png', 'Im_BradPitt.png', 'Im_LeonardoDiCaprio.png', 'Im_DanielRadcliffe.png', 'Im_RobertDowneyJr.png', 'Im_GeorgeClooney.png', 'Im_RobertPattinson.png', 'Im_OrlandoBloom.png'],diff,1,0.4417982999984815,16,69.04761904761905,
BRNA1411,train,inv,150,pos150_id19_im8.bmp_pos150_id17_im9.bmp,['Im_PatrickDempsey.png', 'Im_DanielCraig.png', 'Im_RyanGosling.png', 'Im_BradPitt.png', 'Im_LeonardoDiCaprio.png', 'Im_DanielRadcliffe.png', 'Im_RobertDowneyJr.png', 'Im_GeorgeClooney.png', 'Im_RobertPattinson.png', 'Im_OrlandoBloom.png'],diff,1,0.5248744999989867,17,69.04761904761905,
BRNA1411,train,inv,60,pos60_id18_im18.bmp_pos60_id4_im7.bmp,['Im_PatrickDempsey.png', 'Im_DanielCraig.png', 'Im_RyanGosling.png', 'Im_BradPitt.png', 'Im_LeonardoDiCaprio.png', 'Im_DanielRadcliffe.png', 'Im_RobertDowneyJr.png', 'Im_GeorgeClooney.png', 'Im_RobertPattinson.png', 'Im_OrlandoBloom.png'],diff,1,1.2166849999994156,18,69.04761904761905,
BRNA1411,train,inv,30,pos30_id7_im15.bmp_pos30_id7_im14.bmp,['Im_PatrickDempsey.png', 'Im_DanielCraig.png', 'Im_RyanGosling.png', 'Im_BradPitt.png', 'Im_LeonardoDiCaprio.png', 'Im_DanielRadcliffe.png', 'Im_RobertDowneyJr.png', 'Im_GeorgeClooney.png', 'Im_RobertPattinson.png', 'Im_OrlandoBloom.png'],diff,0,0.43340559999705874,18,69.04761904761905,
BRNA1411,train,inv,30,pos30_id4_im7.bmp_pos30_id4_im15.bmp,['Im_PatrickDempsey.png', 'Im_DanielCraig.png', 'Im_RyanGosling.png', 'Im_BradPitt.png', 'Im_LeonardoDiCaprio.png', 'Im_DanielRadcliffe.png', 'Im_RobertDowneyJr.png', 'Im_GeorgeClooney.png', 'Im_RobertPattinson.png', 'Im_OrlandoBloom.png'],same,1,0.41673530000116443,19,69.04761904761905,
BRNA1411,train,inv,90,pos90_id16_im2.bmp_pos90_id19_im27.bmp,['Im_PatrickDempsey.png', 'Im_DanielCraig.png', 'Im_RyanGosling.png', 'Im_BradPitt.png', 'Im_LeonardoDiCaprio.png', 'Im_DanielRadcliffe.png', 'Im_RobertDowneyJr.png', 'Im_GeorgeClooney.png', 'Im_RobertPattinson.png', 'Im_OrlandoBloom.png'],same,0,0.46667859999797656,19,69.04761904761905,
BRNA1411,train,inv,120,pos120_id7_im15.bmp_pos120_id19_im4.bmp,['Im_PatrickDempsey.png', 'Im_DanielCraig.png', 'Im_RyanGosling.png', 'Im_BradPitt.png', 'Im_LeonardoDiCaprio.png', 'Im_DanielRadcliffe.png', 'Im_RobertDowneyJr.png', 'Im_GeorgeClooney.png', 'Im_RobertPattinson.png', 'Im_OrlandoBloom.png'],same,0,0.8667134999996051,19,69.04761904761905,
BRNA1411,train,inv,0,pos0_id18_im11.bmp_pos0_id18_im19.bmp,['Im_PatrickDempsey.png', 'Im_DanielCraig.png', 'Im_RyanGosling.png', 'Im_BradPitt.png', 'Im_LeonardoDiCaprio.png', 'Im_DanielRadcliffe.png', 'Im_RobertDowneyJr.png', 'Im_GeorgeClooney.png', 'Im_RobertPattinson.png', 'Im_OrlandoBloom.png'],diff,0,0.41674650000277325,19,69.04761904761905,
BRNA1411,train,inv,90,pos90_id19_im4.bmp_pos90_id19_im8.bmp,['Im_PatrickDempsey.png', 'Im_DanielCraig.png', 'Im_RyanGosling.png', 'Im_BradPitt.png', 'Im_LeonardoDiCaprio.png', 'Im_DanielRadcliffe.png', 'Im_RobertDowneyJr.png', 'Im_GeorgeClooney.png', 'Im_RobertPattinson.png', 'Im_OrlandoBloom.png'],same,1,0.6581932000008237,20,69.04761904761905,
BRNA1411,train,inv,fs,posfs_id7_im14.bmp_posfs_id7_im26.bmp,['Im_PatrickDempsey.png', 'Im_DanielCraig.png', 'Im_RyanGosling.png', 'Im_BradPitt.png', 'Im_LeonardoDiCaprio.png', 'Im_DanielRadcliffe.png', 'Im_RobertDowneyJr.png', 'Im_GeorgeClooney.png', 'Im_RobertPattinson.png', 'Im_OrlandoBloom.png'],same,1,0.4666598999974667,21,69.04761904761905,
BRNA1411,train,inv,60,pos60_id19_im8.bmp_pos60_id19_im4.bmp,['Im_PatrickDempsey.png', 'Im_DanielCraig.png', 'Im_RyanGosling.png', 'Im_BradPitt.png', 'Im_LeonardoDiCaprio.png', 'Im_DanielRadcliffe.png', 'Im_RobertDowneyJr.png', 'Im_GeorgeClooney.png', 'Im_RobertPattinson.png', 'Im_OrlandoBloom.png'],same,1,0.8579430999998294,22,69.04761904761905,
BRNA1411,train,neg,fs,negfs_id18_im18.bmp_negfs_id18_im11.bmp,['Im_PatrickDempsey.png', 'Im_DanielCraig.png', 'Im_RyanGosling.png', 'Im_BradPitt.png', 'Im_LeonardoDiCaprio.png', 'Im_DanielRadcliffe.png', 'Im_RobertDowneyJr.png', 'Im_GeorgeClooney.png', 'Im_RobertPattinson.png', 'Im_OrlandoBloom.png'],same,1,0.5919128000023193,23,69.04761904761905,
BRNA1411,train,neg,90,neg90_id5_im20.bmp_neg90_id5_im10.bmp,['Im_PatrickDempsey.png', 'Im_DanielCraig.png', 'Im_RyanGosling.png', 'Im_BradPitt.png', 'Im_LeonardoDiCaprio.png', 'Im_DanielRadcliffe.png', 'Im_RobertDowneyJr.png', 'Im_GeorgeClooney.png', 'Im_RobertPattinson.png', 'Im_OrlandoBloom.png'],same,1,0.4165486999991117,24,69.04761904761905,
BRNA1411,train,neg,30,neg30_id17_im8.bmp_neg30_id17_im14.bmp,['Im_PatrickDempsey.png', 'Im_DanielCraig.png', 'Im_RyanGosling.png', 'Im_BradPitt.png', 'Im_LeonardoDiCaprio.png', 'Im_DanielRadcliffe.png', 'Im_RobertDowneyJr.png', 'Im_GeorgeClooney.png', 'Im_RobertPattinson.png', 'Im_OrlandoBloom.png'],same,1,0.4665784999997413,25,69.04761904761905,
BRNA1411,train,neg,150,neg150_id19_im27.bmp_neg150_id19_im8.bmp,['Im_PatrickDempsey.png', 'Im_DanielCraig.png', 'Im_RyanGosling.png', 'Im_BradPitt.png', 'Im_LeonardoDiCaprio.png', 'Im_DanielRadcliffe.png', 'Im_RobertDowneyJr.png', 'Im_GeorgeClooney.png', 'Im_RobertPattinson.png', 'Im_OrlandoBloom.png'],same,1,0.42534949999753735,26,69.04761904761905,
BRNA1411,train,neg,0,neg0_id3_im6.bmp_neg0_id13_im15.bmp,['Im_PatrickDempsey.png', 'Im_DanielCraig.png', 'Im_RyanGosling.png', 'Im_BradPitt.png', 'Im_LeonardoDiCaprio.png', 'Im_DanielRadcliffe.png', 'Im_RobertDowneyJr.png', 'Im_GeorgeClooney.png', 'Im_RobertPattinson.png', 'Im_OrlandoBloom.png'],diff,1,0.5419427000015276,27,69.04761904761905,
BRNA1411,train,neg,fs,negfs_id3_im8.bmp_negfs_id3_im17.bmp,['Im_PatrickDempsey.png', 'Im_DanielCraig.png', 'Im_RyanGosling.png', 'Im_BradPitt.png', 'Im_LeonardoDiCaprio.png', 'Im_DanielRadcliffe.png', 'Im_RobertDowneyJr.png', 'Im_GeorgeClooney.png', 'Im_RobertPattinson.png', 'Im_OrlandoBloom.png'],same,1,0.42524459999913233,28,69.04761904761905,
BRNA1411,train,neg,150,neg150_id5_im10.bmp_neg150_id20_im3.bmp,['Im_PatrickDempsey.png', 'Im_DanielCraig.png', 'Im_RyanGosling.png', 'Im_BradPitt.png', 'Im_LeonardoDiCaprio.png', 'Im_DanielRadcliffe.png', 'Im_RobertDowneyJr.png', 'Im_GeorgeClooney.png', 'Im_RobertPattinson.png', 'Im_OrlandoBloom.png'],diff,1,0.42505870000240975,29,69.04761904761905,
BRNA1411,train,neg,120,neg120_id16_im2.bmp_neg120_id16_im19.bmp,['Im_PatrickDempsey.png', 'Im_DanielCraig.png', 'Im_RyanGosling.png', 'Im_BradPitt.png', 'Im_LeonardoDiCaprio.png', 'Im_DanielRadcliffe.png', 'Im_RobertDowneyJr.png', 'Im_GeorgeClooney.png', 'Im_RobertPattinson.png', 'Im_OrlandoBloom.png'],same,1,0.43336510000153794,30,69.04761904761905,
BRNA1411,train,neg,0,neg0_id13_im15.bmp_neg0_id13_im29.bmp,['Im_PatrickDempsey.png', 'Im_DanielCraig.png', 'Im_RyanGosling.png', 'Im_BradPitt.png', 'Im_LeonardoDiCaprio.png', 'Im_DanielRadcliffe.png', 'Im_RobertDowneyJr.png', 'Im_GeorgeClooney.png', 'Im_RobertPattinson.png', 'Im_OrlandoBloom.png'],diff,0,1.5003087000004598,30,69.04761904761905,
BRNA1411,train,neg,90,neg90_id20_im3.bmp_neg90_id5_im20.bmp,['Im_PatrickDempsey.png', 'Im_DanielCraig.png', 'Im_RyanGosling.png', 'Im_BradPitt.png', 'Im_LeonardoDiCaprio.png', 'Im_DanielRadcliffe.png', 'Im_RobertDowneyJr.png', 'Im_GeorgeClooney.png', 'Im_RobertPattinson.png', 'Im_OrlandoBloom.png'],diff,1,0.4167577000007441,31,69.04761904761905,
BRNA1411,train,neg,60,neg60_id4_im7.bmp_neg60_id18_im18.bmp,['Im_PatrickDempsey.png', 'Im_DanielCraig.png', 'Im_RyanGosling.png', 'Im_BradPitt.png', 'Im_LeonardoDiCaprio.png', 'Im_DanielRadcliffe.png', 'Im_RobertDowneyJr.png', 'Im_GeorgeClooney.png', 'Im_RobertPattinson.png', 'Im_OrlandoBloom.png'],diff,1,0.40838459999940824,32,69.04761904761905,
BRNA1411,train,neg,30,neg30_id13_im10.bmp_neg30_id3_im17.bmp,['Im_PatrickDempsey.png', 'Im_DanielCraig.png', 'Im_RyanGosling.png', 'Im_BradPitt.png', 'Im_LeonardoDiCaprio.png', 'Im_DanielRadcliffe.png', 'Im_RobertDowneyJr.png', 'Im_GeorgeClooney.png', 'Im_RobertPattinson.png', 'Im_OrlandoBloom.png'],diff,1,0.5669512000022223,33,69.04761904761905,
BRNA1411,train,neg,120,neg120_id5_im20.bmp_neg120_id5_im1.bmp,['Im_PatrickDempsey.png', 'Im_DanielCraig.png', 'Im_RyanGosling.png', 'Im_BradPitt.png', 'Im_LeonardoDiCaprio.png', 'Im_DanielRadcliffe.png', 'Im_RobertDowneyJr.png', 'Im_GeorgeClooney.png', 'Im_RobertPattinson.png', 'Im_OrlandoBloom.png'],same,1,0.6081780999993498,34,69.04761904761905,
BRNA1411,train,neg,60,neg60_id17_im8.bmp_neg60_id17_im14.bmp,['Im_PatrickDempsey.png', 'Im_DanielCraig.png', 'Im_RyanGosling.png', 'Im_BradPitt.png', 'Im_LeonardoDiCaprio.png', 'Im_DanielRadcliffe.png', 'Im_RobertDowneyJr.png', 'Im_GeorgeClooney.png', 'Im_RobertPattinson.png', 'Im_OrlandoBloom.png'],same,1,0.42474120000042603,35,69.04761904761905,
BRNA1411,train,pos,90,pos90_id16_im2.bmp_pos90_id19_im27.bmp,['Im_PatrickDempsey.png', 'Im_DanielCraig.png', 'Im_RyanGosling.png', 'Im_BradPitt.png', 'Im_LeonardoDiCaprio.png', 'Im_DanielRadcliffe.png', 'Im_RobertDowneyJr.png', 'Im_GeorgeClooney.png', 'Im_RobertPattinson.png', 'Im_OrlandoBloom.png'],diff,1,0.4335332999980892,1,83.33333333333333,
BRNA1411,train,pos,0,pos0_id19_im8.bmp_pos0_id17_im9.bmp,['Im_PatrickDempsey.png', 'Im_DanielCraig.png', 'Im_RyanGosling.png', 'Im_BradPitt.png', 'Im_LeonardoDiCaprio.png', 'Im_DanielRadcliffe.png', 'Im_RobertDowneyJr.png', 'Im_GeorgeClooney.png', 'Im_RobertPattinson.png', 'Im_OrlandoBloom.png'],diff,1,0.4249232000001939,2,83.33333333333333,
BRNA1411,train,pos,120,pos120_id7_im14.bmp_pos120_id7_im26.bmp,['Im_PatrickDempsey.png', 'Im_DanielCraig.png', 'Im_RyanGosling.png', 'Im_BradPitt.png', 'Im_LeonardoDiCaprio.png', 'Im_DanielRadcliffe.png', 'Im_RobertDowneyJr.png', 'Im_GeorgeClooney.png', 'Im_RobertPattinson.png', 'Im_OrlandoBloom.png'],same,1,0.5749852000008104,3,83.33333333333333,
BRNA1411,train,pos,30,pos30_id4_im15.bmp_pos30_id4_im7.bmp,['Im_PatrickDempsey.png', 'Im_DanielCraig.png', 'Im_RyanGosling.png', 'Im_BradPitt.png', 'Im_LeonardoDiCaprio.png', 'Im_DanielRadcliffe.png', 'Im_RobertDowneyJr.png', 'Im_GeorgeClooney.png', 'Im_RobertPattinson.png', 'Im_OrlandoBloom.png'],same,1,0.41697000000203843,4,83.33333333333333,
BRNA1411,train,pos,150,pos150_id17_im14.bmp_pos150_id5_im20.bmp,['Im_PatrickDempsey.png', 'Im_DanielCraig.png', 'Im_RyanGosling.png', 'Im_BradPitt.png', 'Im_LeonardoDiCaprio.png', 'Im_DanielRadcliffe.png', 'Im_RobertDowneyJr.png', 'Im_GeorgeClooney.png', 'Im_RobertPattinson.png', 'Im_OrlandoBloom.png'],diff,1,0.4251196000004711,5,83.33333333333333,
BRNA1411,train,pos,0,pos0_id13_im29.bmp_pos0_id16_im3.bmp,['Im_PatrickDempsey.png', 'Im_DanielCraig.png', 'Im_RyanGosling.png', 'Im_BradPitt.png', 'Im_LeonardoDiCaprio.png', 'Im_DanielRadcliffe.png', 'Im_RobertDowneyJr.png', 'Im_GeorgeClooney.png', 'Im_RobertPattinson.png', 'Im_OrlandoBloom.png'],diff,1,0.40855809999993653,6,83.33333333333333,
BRNA1411,train,pos,60,pos60_id13_im15.bmp_pos60_id13_im10.bmp,['Im_PatrickDempsey.png', 'Im_DanielCraig.png', 'Im_RyanGosling.png', 'Im_BradPitt.png', 'Im_LeonardoDiCaprio.png', 'Im_DanielRadcliffe.png', 'Im_RobertDowneyJr.png', 'Im_GeorgeClooney.png', 'Im_RobertPattinson.png', 'Im_OrlandoBloom.png'],same,1,0.4167696000004071,7,83.33333333333333,
BRNA1411,train,pos,30,pos30_id16_im19.bmp_pos30_id17_im8.bmp,['Im_PatrickDempsey.png', 'Im_DanielCraig.png', 'Im_RyanGosling.png', 'Im_BradPitt.png', 'Im_LeonardoDiCaprio.png', 'Im_DanielRadcliffe.png', 'Im_RobertDowneyJr.png', 'Im_GeorgeClooney.png', 'Im_RobertPattinson.png', 'Im_OrlandoBloom.png'],diff,1,0.4166843999992125,8,83.33333333333333,
BRNA1411,train,pos,fs,posfs_id7_im14.bmp_posfs_id17_im9.bmp,['Im_PatrickDempsey.png', 'Im_DanielCraig.png', 'Im_RyanGosling.png', 'Im_BradPitt.png', 'Im_LeonardoDiCaprio.png', 'Im_DanielRadcliffe.png', 'Im_RobertDowneyJr.png', 'Im_GeorgeClooney.png', 'Im_RobertPattinson.png', 'Im_OrlandoBloom.png'],diff,1,0.574897400001646,9,83.33333333333333,
BRNA1411,train,pos,90,pos90_id3_im8.bmp_pos90_id3_im17.bmp,['Im_PatrickDempsey.png', 'Im_DanielCraig.png', 'Im_RyanGosling.png', 'Im_BradPitt.png', 'Im_LeonardoDiCaprio.png', 'Im_DanielRadcliffe.png', 'Im_RobertDowneyJr.png', 'Im_GeorgeClooney.png', 'Im_RobertPattinson.png', 'Im_OrlandoBloom.png'],diff,0,0.9087437999987742,9,83.33333333333333,
BRNA1411,train,pos,120,pos120_id19_im27.bmp_pos120_id4_im15.bmp,['Im_PatrickDempsey.png', 'Im_DanielCraig.png', 'Im_RyanGosling.png', 'Im_BradPitt.png', 'Im_LeonardoDiCaprio.png', 'Im_DanielRadcliffe.png', 'Im_RobertDowneyJr.png', 'Im_GeorgeClooney.png', 'Im_RobertPattinson.png', 'Im_OrlandoBloom.png'],diff,1,1.3080203999998048,10,83.33333333333333,
BRNA1411,train,pos,150,pos150_id18_im11.bmp_pos150_id3_im8.bmp,['Im_PatrickDempsey.png', 'Im_DanielCraig.png', 'Im_RyanGosling.png', 'Im_BradPitt.png', 'Im_LeonardoDiCaprio.png', 'Im_DanielRadcliffe.png', 'Im_RobertDowneyJr.png', 'Im_GeorgeClooney.png', 'Im_RobertPattinson.png', 'Im_OrlandoBloom.png'],diff,1,0.43327399999907357,11,83.33333333333333,
BRNA1411,train,pos,fs,posfs_id5_im20.bmp_posfs_id5_im10.bmp,['Im_PatrickDempsey.png', 'Im_DanielCraig.png', 'Im_RyanGosling.png', 'Im_BradPitt.png', 'Im_LeonardoDiCaprio.png', 'Im_DanielRadcliffe.png', 'Im_RobertDowneyJr.png', 'Im_GeorgeClooney.png', 'Im_RobertPattinson.png', 'Im_OrlandoBloom.png'],same,1,0.4081283999985317,12,83.33333333333333,
BRNA1411,train,pos,60,pos60_id3_im8.bmp_pos60_id3_im6.bmp,['Im_PatrickDempsey.png', 'Im_DanielCraig.png', 'Im_RyanGosling.png', 'Im_BradPitt.png', 'Im_LeonardoDiCaprio.png', 'Im_DanielRadcliffe.png', 'Im_RobertDowneyJr.png', 'Im_GeorgeClooney.png', 'Im_RobertPattinson.png', 'Im_OrlandoBloom.png'],same,1,0.4167668000009144,13,83.33333333333333,
BRNA1411,train,pos,60,pos60_id7_im15.bmp_pos60_id19_im4.bmp,['Im_PatrickDempsey.png', 'Im_DanielCraig.png', 'Im_RyanGosling.png', 'Im_BradPitt.png', 'Im_LeonardoDiCaprio.png', 'Im_DanielRadcliffe.png', 'Im_RobertDowneyJr.png', 'Im_GeorgeClooney.png', 'Im_RobertPattinson.png', 'Im_OrlandoBloom.png'],diff,1,0.8917460999982723,14,83.33333333333333,
BRNA1411,train,pos,0,pos0_id13_im10.bmp_pos0_id5_im1.bmp,['Im_PatrickDempsey.png', 'Im_DanielCraig.png', 'Im_RyanGosling.png', 'Im_BradPitt.png', 'Im_LeonardoDiCaprio.png', 'Im_DanielRadcliffe.png', 'Im_RobertDowneyJr.png', 'Im_GeorgeClooney.png', 'Im_RobertPattinson.png', 'Im_OrlandoBloom.png'],diff,1,0.4083935999988171,15,83.33333333333333,
BRNA1411,train,pos,150,pos150_id5_im1.bmp_pos150_id4_im15.bmp,['Im_PatrickDempsey.png', 'Im_DanielCraig.png', 'Im_RyanGosling.png', 'Im_BradPitt.png', 'Im_LeonardoDiCaprio.png', 'Im_DanielRadcliffe.png', 'Im_RobertDowneyJr.png', 'Im_GeorgeClooney.png', 'Im_RobertPattinson.png', 'Im_OrlandoBloom.png'],diff,1,0.4252018000006501,16,83.33333333333333,
BRNA1411,train,pos,60,pos60_id20_im30.bmp_pos60_id4_im20.bmp,['Im_PatrickDempsey.png', 'Im_DanielCraig.png', 'Im_RyanGosling.png', 'Im_BradPitt.png', 'Im_LeonardoDiCaprio.png', 'Im_DanielRadcliffe.png', 'Im_RobertDowneyJr.png', 'Im_GeorgeClooney.png', 'Im_RobertPattinson.png', 'Im_OrlandoBloom.png'],same,0,0.8833749999976135,16,83.33333333333333,
BRNA1411,train,pos,150,pos150_id17_im14.bmp_pos150_id17_im8.bmp,['Im_PatrickDempsey.png', 'Im_DanielCraig.png', 'Im_RyanGosling.png', 'Im_BradPitt.png', 'Im_LeonardoDiCaprio.png', 'Im_DanielRadcliffe.png', 'Im_RobertDowneyJr.png', 'Im_GeorgeClooney.png', 'Im_RobertPattinson.png', 'Im_OrlandoBloom.png'],same,1,0.4333611000001838,17,83.33333333333333,
BRNA1411,train,pos,120,pos120_id16_im19.bmp_pos120_id19_im8.bmp,['Im_PatrickDempsey.png', 'Im_DanielCraig.png', 'Im_RyanGosling.png', 'Im_BradPitt.png', 'Im_LeonardoDiCaprio.png', 'Im_DanielRadcliffe.png', 'Im_RobertDowneyJr.png', 'Im_GeorgeClooney.png', 'Im_RobertPattinson.png', 'Im_OrlandoBloom.png'],diff,1,0.4333599999990838,18,83.33333333333333,
BRNA1411,train,pos,0,pos0_id20_im12.bmp_pos0_id17_im14.bmp,['Im_PatrickDempsey.png', 'Im_DanielCraig.png', 'Im_RyanGosling.png', 'Im_BradPitt.png', 'Im_LeonardoDiCaprio.png', 'Im_DanielRadcliffe.png', 'Im_RobertDowneyJr.png', 'Im_GeorgeClooney.png', 'Im_RobertPattinson.png', 'Im_OrlandoBloom.png'],diff,1,0.5169872000005853,19,83.33333333333333,
BRNA1411,train,pos,30,pos30_id7_im26.bmp_pos30_id7_im14.bmp,['Im_PatrickDempsey.png', 'Im_DanielCraig.png', 'Im_RyanGosling.png', 'Im_BradPitt.png', 'Im_LeonardoDiCaprio.png', 'Im_DanielRadcliffe.png', 'Im_RobertDowneyJr.png', 'Im_GeorgeClooney.png', 'Im_RobertPattinson.png', 'Im_OrlandoBloom.png'],same,1,0.416685399999551,20,83.33333333333333,
BRNA1411,train,pos,120,pos120_id18_im18.bmp_pos120_id4_im7.bmp,['Im_PatrickDempsey.png', 'Im_DanielCraig.png', 'Im_RyanGosling.png', 'Im_BradPitt.png', 'Im_LeonardoDiCaprio.png', 'Im_DanielRadcliffe.png', 'Im_RobertDowneyJr.png', 'Im_GeorgeClooney.png', 'Im_RobertPattinson.png', 'Im_OrlandoBloom.png'],diff,1,0.416851999998471,21,83.33333333333333,
BRNA1411,train,pos,fs,posfs_id18_im19.bmp_posfs_id18_im11.bmp,['Im_PatrickDempsey.png', 'Im_DanielCraig.png', 'Im_RyanGosling.png', 'Im_BradPitt.png', 'Im_LeonardoDiCaprio.png', 'Im_DanielRadcliffe.png', 'Im_RobertDowneyJr.png', 'Im_GeorgeClooney.png', 'Im_RobertPattinson.png', 'Im_OrlandoBloom.png'],same,1,0.41670169999997597,22,83.33333333333333,
BRNA1411,train,pos,90,pos90_id20_im3.bmp_pos90_id5_im20.bmp,['Im_PatrickDempsey.png', 'Im_DanielCraig.png', 'Im_RyanGosling.png', 'Im_BradPitt.png', 'Im_LeonardoDiCaprio.png', 'Im_DanielRadcliffe.png', 'Im_RobertDowneyJr.png', 'Im_GeorgeClooney.png', 'Im_RobertPattinson.png', 'Im_OrlandoBloom.png'],diff,1,0.4250639999991108,23,83.33333333333333,
BRNA1411,train,pos,30,pos30_id3_im6.bmp_pos30_id18_im19.bmp,['Im_PatrickDempsey.png', 'Im_DanielCraig.png', 'Im_RyanGosling.png', 'Im_BradPitt.png', 'Im_LeonardoDiCaprio.png', 'Im_DanielRadcliffe.png', 'Im_RobertDowneyJr.png', 'Im_GeorgeClooney.png', 'Im_RobertPattinson.png', 'Im_OrlandoBloom.png'],diff,1,0.6083787999996275,24,83.33333333333333,
BRNA1411,train,pos,fs,posfs_id13_im10.bmp_posfs_id5_im1.bmp,['Im_PatrickDempsey.png', 'Im_DanielCraig.png', 'Im_RyanGosling.png', 'Im_BradPitt.png', 'Im_LeonardoDiCaprio.png', 'Im_DanielRadcliffe.png', 'Im_RobertDowneyJr.png', 'Im_GeorgeClooney.png', 'Im_RobertPattinson.png', 'Im_OrlandoBloom.png'],diff,1,0.5003897000024153,25,83.33333333333333,
BRNA1411,train,pos,90,pos90_id17_im8.bmp_pos90_id16_im19.bmp,['Im_PatrickDempsey.png', 'Im_DanielCraig.png', 'Im_RyanGosling.png', 'Im_BradPitt.png', 'Im_LeonardoDiCaprio.png', 'Im_DanielRadcliffe.png', 'Im_RobertDowneyJr.png', 'Im_GeorgeClooney.png', 'Im_RobertPattinson.png', 'Im_OrlandoBloom.png'],diff,1,0.4330841999981203,26,83.33333333333333,
BRNA1411,train,neg,90,neg90_id7_im15.bmp_neg90_id7_im26.bmp,['Im_PatrickDempsey.png', 'Im_DanielCraig.png', 'Im_RyanGosling.png', 'Im_BradPitt.png', 'Im_LeonardoDiCaprio.png', 'Im_DanielRadcliffe.png', 'Im_RobertDowneyJr.png', 'Im_GeorgeClooney.png', 'Im_RobertPattinson.png', 'Im_OrlandoBloom.png'],same,1,0.7251538999989862,27,83.33333333333333,
BRNA1411,train,neg,fs,negfs_id3_im6.bmp_negfs_id18_im19.bmp,['Im_PatrickDempsey.png', 'Im_DanielCraig.png', 'Im_RyanGosling.png', 'Im_BradPitt.png', 'Im_LeonardoDiCaprio.png', 'Im_DanielRadcliffe.png', 'Im_RobertDowneyJr.png', 'Im_GeorgeClooney.png', 'Im_RobertPattinson.png', 'Im_OrlandoBloom.png'],diff,1,0.4919391000003088,28,83.33333333333333,
BRNA1411,train,neg,120,neg120_id13_im10.bmp_neg120_id3_im17.bmp,['Im_PatrickDempsey.png', 'Im_DanielCraig.png', 'Im_RyanGosling.png', 'Im_BradPitt.png', 'Im_LeonardoDiCaprio.png', 'Im_DanielRadcliffe.png', 'Im_RobertDowneyJr.png', 'Im_GeorgeClooney.png', 'Im_RobertPattinson.png', 'Im_OrlandoBloom.png'],diff,1,0.4748250000011467,29,83.33333333333333,
BRNA1411,train,neg,150,neg150_id13_im10.bmp_neg150_id13_im15.bmp,['Im_PatrickDempsey.png', 'Im_DanielCraig.png', 'Im_RyanGosling.png', 'Im_BradPitt.png', 'Im_LeonardoDiCaprio.png', 'Im_DanielRadcliffe.png', 'Im_RobertDowneyJr.png', 'Im_GeorgeClooney.png', 'Im_RobertPattinson.png', 'Im_OrlandoBloom.png'],same,1,0.5252611999967485,30,83.33333333333333,
BRNA1411,train,neg,0,neg0_id17_im9.bmp_neg0_id19_im8.bmp,['Im_PatrickDempsey.png', 'Im_DanielCraig.png', 'Im_RyanGosling.png', 'Im_BradPitt.png', 'Im_LeonardoDiCaprio.png', 'Im_DanielRadcliffe.png', 'Im_RobertDowneyJr.png', 'Im_GeorgeClooney.png', 'Im_RobertPattinson.png', 'Im_OrlandoBloom.png'],diff,1,0.4252297000020917,31,83.33333333333333,
BRNA1411,train,neg,0,neg0_id5_im1.bmp_neg0_id4_im15.bmp,['Im_PatrickDempsey.png', 'Im_DanielCraig.png', 'Im_RyanGosling.png', 'Im_BradPitt.png', 'Im_LeonardoDiCaprio.png', 'Im_DanielRadcliffe.png', 'Im_RobertDowneyJr.png', 'Im_GeorgeClooney.png', 'Im_RobertPattinson.png', 'Im_OrlandoBloom.png'],diff,1,0.42507320000004256,32,83.33333333333333,
BRNA1411,train,neg,120,neg120_id17_im14.bmp_neg120_id20_im12.bmp,['Im_PatrickDempsey.png', 'Im_DanielCraig.png', 'Im_RyanGosling.png', 'Im_BradPitt.png', 'Im_LeonardoDiCaprio.png', 'Im_DanielRadcliffe.png', 'Im_RobertDowneyJr.png', 'Im_GeorgeClooney.png', 'Im_RobertPattinson.png', 'Im_OrlandoBloom.png'],same,0,1.1249919000001682,32,83.33333333333333,
BRNA1411,train,neg,30,neg30_id20_im12.bmp_neg30_id20_im30.bmp,['Im_PatrickDempsey.png', 'Im_DanielCraig.png', 'Im_RyanGosling.png', 'Im_BradPitt.png', 'Im_LeonardoDiCaprio.png', 'Im_DanielRadcliffe.png', 'Im_RobertDowneyJr.png', 'Im_GeorgeClooney.png', 'Im_RobertPattinson.png', 'Im_OrlandoBloom.png'],same,1,0.4418660000010277,33,83.33333333333333,
BRNA1411,train,neg,30,neg30_id16_im2.bmp_neg30_id18_im11.bmp,['Im_PatrickDempsey.png', 'Im_DanielCraig.png', 'Im_RyanGosling.png', 'Im_BradPitt.png', 'Im_LeonardoDiCaprio.png', 'Im_DanielRadcliffe.png', 'Im_RobertDowneyJr.png', 'Im_GeorgeClooney.png', 'Im_RobertPattinson.png', 'Im_OrlandoBloom.png'],diff,1,0.4166791999996349,34,83.33333333333333,
BRNA1411,train,neg,60,neg60_id5_im20.bmp_neg60_id5_im1.bmp,['Im_PatrickDempsey.png', 'Im_DanielCraig.png', 'Im_RyanGosling.png', 'Im_BradPitt.png', 'Im_LeonardoDiCaprio.png', 'Im_DanielRadcliffe.png', 'Im_RobertDowneyJr.png', 'Im_GeorgeClooney.png', 'Im_RobertPattinson.png', 'Im_OrlandoBloom.png'],same,1,0.4170818999991752,35,83.33333333333333,
BRNA1411,train,neg,fs,negfs_id3_im6.bmp_negfs_id13_im15.bmp,['Im_PatrickDempsey.png', 'Im_DanielCraig.png', 'Im_RyanGosling.png', 'Im_BradPitt.png', 'Im_LeonardoDiCaprio.png', 'Im_DanielRadcliffe.png', 'Im_RobertDowneyJr.png', 'Im_GeorgeClooney.png', 'Im_RobertPattinson.png', 'Im_OrlandoBloom.png'],diff,1,0.41681729999982053,36,83.33333333333333,
BRNA1411,train,neg,150,neg150_id16_im19.bmp_neg150_id16_im3.bmp,['Im_PatrickDempsey.png', 'Im_DanielCraig.png', 'Im_RyanGosling.png', 'Im_BradPitt.png', 'Im_LeonardoDiCaprio.png', 'Im_DanielRadcliffe.png', 'Im_RobertDowneyJr.png', 'Im_GeorgeClooney.png', 'Im_RobertPattinson.png', 'Im_OrlandoBloom.png'],same,1,0.45006280000234256,37,83.33333333333333,
BRNA1411,train,neg,90,neg90_id17_im14.bmp_neg90_id17_im8.bmp,['Im_PatrickDempsey.png', 'Im_DanielCraig.png', 'Im_RyanGosling.png', 'Im_BradPitt.png', 'Im_LeonardoDiCaprio.png', 'Im_DanielRadcliffe.png', 'Im_RobertDowneyJr.png', 'Im_GeorgeClooney.png', 'Im_RobertPattinson.png', 'Im_OrlandoBloom.png'],same,1,0.4415705999999773,38,83.33333333333333,
BRNA1411,train,neg,60,neg60_id5_im20.bmp_neg60_id17_im14.bmp,['Im_PatrickDempsey.png', 'Im_DanielCraig.png', 'Im_RyanGosling.png', 'Im_BradPitt.png', 'Im_LeonardoDiCaprio.png', 'Im_DanielRadcliffe.png', 'Im_RobertDowneyJr.png', 'Im_GeorgeClooney.png', 'Im_RobertPattinson.png', 'Im_OrlandoBloom.png'],diff,1,0.6419316999999864,39,83.33333333333333,
BRNA1411,0,inv,90,pos90_id5_im10.bmp_pos90_id17_im8.bmp,['Im_PatrickDempsey.png', 'Im_DanielCraig.png', 'Im_RyanGosling.png', 'Im_BradPitt.png', 'Im_LeonardoDiCaprio.png', 'Im_DanielRadcliffe.png', 'Im_RobertDowneyJr.png', 'Im_GeorgeClooney.png', 'Im_RobertPattinson.png', 'Im_OrlandoBloom.png'],diff,1,0.633187799998268,1,0,
BRNA1411,0,inv,60,pos60_id16_im3.bmp_pos60_id16_im19.bmp,['Im_PatrickDempsey.png', 'Im_DanielCraig.png', 'Im_RyanGosling.png', 'Im_BradPitt.png', 'Im_LeonardoDiCaprio.png', 'Im_DanielRadcliffe.png', 'Im_RobertDowneyJr.png', 'Im_GeorgeClooney.png', 'Im_RobertPattinson.png', 'Im_OrlandoBloom.png'],same,1,0.4167825000004086,2,0,
BRNA1411,0,inv,0,pos0_id17_im9.bmp_pos0_id17_im8.bmp,['Im_PatrickDempsey.png', 'Im_DanielCraig.png', 'Im_RyanGosling.png', 'Im_BradPitt.png', 'Im_LeonardoDiCaprio.png', 'Im_DanielRadcliffe.png', 'Im_RobertDowneyJr.png', 'Im_GeorgeClooney.png', 'Im_RobertPattinson.png', 'Im_OrlandoBloom.png'],diff,0,0.416744900001504,2,0,
BRNA1411,0,inv,120,pos120_id20_im30.bmp_pos120_id13_im29.bmp,['Im_PatrickDempsey.png', 'Im_DanielCraig.png', 'Im_RyanGosling.png', 'Im_BradPitt.png', 'Im_LeonardoDiCaprio.png', 'Im_DanielRadcliffe.png', 'Im_RobertDowneyJr.png', 'Im_GeorgeClooney.png', 'Im_RobertPattinson.png', 'Im_OrlandoBloom.png'],diff,1,0.42507779999868944,3,0,
BRNA1411,0,inv,30,pos30_id7_im15.bmp_pos30_id20_im12.bmp,['Im_PatrickDempsey.png', 'Im_DanielCraig.png', 'Im_RyanGosling.png', 'Im_BradPitt.png', 'Im_LeonardoDiCaprio.png', 'Im_DanielRadcliffe.png', 'Im_RobertDowneyJr.png', 'Im_GeorgeClooney.png', 'Im_RobertPattinson.png', 'Im_OrlandoBloom.png'],diff,1,0.41677680000066175,4,0,
BRNA1411,0,inv,60,pos60_id7_im26.bmp_pos60_id19_im4.bmp,['Im_PatrickDempsey.png', 'Im_DanielCraig.png', 'Im_RyanGosling.png', 'Im_BradPitt.png', 'Im_LeonardoDiCaprio.png', 'Im_DanielRadcliffe.png', 'Im_RobertDowneyJr.png', 'Im_GeorgeClooney.png', 'Im_RobertPattinson.png', 'Im_OrlandoBloom.png'],diff,1,0.42508389999784413,5,0,
BRNA1411,0,inv,30,pos30_id7_im14.bmp_pos30_id4_im20.bmp,['Im_PatrickDempsey.png', 'Im_DanielCraig.png', 'Im_RyanGosling.png', 'Im_BradPitt.png', 'Im_LeonardoDiCaprio.png', 'Im_DanielRadcliffe.png', 'Im_RobertDowneyJr.png', 'Im_GeorgeClooney.png', 'Im_RobertPattinson.png', 'Im_OrlandoBloom.png'],diff,1,0.4250718000002962,6,0,
BRNA1411,0,inv,150,pos150_id20_im12.bmp_pos150_id20_im30.bmp,['Im_PatrickDempsey.png', 'Im_DanielCraig.png', 'Im_RyanGosling.png', 'Im_BradPitt.png', 'Im_LeonardoDiCaprio.png', 'Im_DanielRadcliffe.png', 'Im_RobertDowneyJr.png', 'Im_GeorgeClooney.png', 'Im_RobertPattinson.png', 'Im_OrlandoBloom.png'],same,1,0.42505739999978687,7,0,
BRNA1411,0,inv,90,pos90_id18_im19.bmp_pos90_id4_im7.bmp,['Im_PatrickDempsey.png', 'Im_DanielCraig.png', 'Im_RyanGosling.png', 'Im_BradPitt.png', 'Im_LeonardoDiCaprio.png', 'Im_DanielRadcliffe.png', 'Im_RobertDowneyJr.png', 'Im_GeorgeClooney.png', 'Im_RobertPattinson.png', 'Im_OrlandoBloom.png'],diff,1,0.6003103000002739,8,0,
BRNA1411,0,inv,150,pos150_id16_im3.bmp_pos150_id3_im17.bmp,['Im_PatrickDempsey.png', 'Im_DanielCraig.png', 'Im_RyanGosling.png', 'Im_BradPitt.png', 'Im_LeonardoDiCaprio.png', 'Im_DanielRadcliffe.png', 'Im_RobertDowneyJr.png', 'Im_GeorgeClooney.png', 'Im_RobertPattinson.png', 'Im_OrlandoBloom.png'],diff,1,0.41673010000158683,9,0,
BRNA1411,0,inv,fs,posfs_id18_im19.bmp_posfs_id3_im6.bmp,['Im_PatrickDempsey.png', 'Im_DanielCraig.png', 'Im_RyanGosling.png', 'Im_BradPitt.png', 'Im_LeonardoDiCaprio.png', 'Im_DanielRadcliffe.png', 'Im_RobertDowneyJr.png', 'Im_GeorgeClooney.png', 'Im_RobertPattinson.png', 'Im_OrlandoBloom.png'],diff,1,0.42512949999945704,10,0,
BRNA1411,0,inv,0,pos0_id20_im30.bmp_pos0_id13_im29.bmp,['Im_PatrickDempsey.png', 'Im_DanielCraig.png', 'Im_RyanGosling.png', 'Im_BradPitt.png', 'Im_LeonardoDiCaprio.png', 'Im_DanielRadcliffe.png', 'Im_RobertDowneyJr.png', 'Im_GeorgeClooney.png', 'Im_RobertPattinson.png', 'Im_OrlandoBloom.png'],diff,1,0.4168226000001596,11,0,
BRNA1411,0,inv,120,pos120_id20_im12.bmp_pos120_id20_im3.bmp,['Im_PatrickDempsey.png', 'Im_DanielCraig.png', 'Im_RyanGosling.png', 'Im_BradPitt.png', 'Im_LeonardoDiCaprio.png', 'Im_DanielRadcliffe.png', 'Im_RobertDowneyJr.png', 'Im_GeorgeClooney.png', 'Im_RobertPattinson.png', 'Im_OrlandoBloom.png'],same,1,0.5507885000006354,12,0,
BRNA1411,0,inv,fs,posfs_id20_im12.bmp_posfs_id20_im30.bmp,['Im_PatrickDempsey.png', 'Im_DanielCraig.png', 'Im_RyanGosling.png', 'Im_BradPitt.png', 'Im_LeonardoDiCaprio.png', 'Im_DanielRadcliffe.png', 'Im_RobertDowneyJr.png', 'Im_GeorgeClooney.png', 'Im_RobertPattinson.png', 'Im_OrlandoBloom.png'],same,1,0.4250924000007217,13,0,
BRNA1411,1,pos,60,pos60_id20_im3.bmp_pos60_id20_im30.bmp,['Im_PatrickDempsey.png', 'Im_DanielCraig.png', 'Im_RyanGosling.png', 'Im_BradPitt.png', 'Im_LeonardoDiCaprio.png', 'Im_DanielRadcliffe.png', 'Im_RobertDowneyJr.png', 'Im_GeorgeClooney.png', 'Im_RobertPattinson.png', 'Im_OrlandoBloom.png'],same,1,0.42533490000278107,14,0,
BRNA1411,1,pos,0,pos0_id7_im14.bmp_pos0_id4_im20.bmp,['Im_PatrickDempsey.png', 'Im_DanielCraig.png', 'Im_RyanGosling.png', 'Im_BradPitt.png', 'Im_LeonardoDiCaprio.png', 'Im_DanielRadcliffe.png', 'Im_RobertDowneyJr.png', 'Im_GeorgeClooney.png', 'Im_RobertPattinson.png', 'Im_OrlandoBloom.png'],diff,1,0.42501309999715886,15,0,
BRNA1411,1,pos,0,pos0_id7_im26.bmp_pos0_id19_im4.bmp,['Im_PatrickDempsey.png', 'Im_DanielCraig.png', 'Im_RyanGosling.png', 'Im_BradPitt.png', 'Im_LeonardoDiCaprio.png', 'Im_DanielRadcliffe.png', 'Im_RobertDowneyJr.png', 'Im_GeorgeClooney.png', 'Im_RobertPattinson.png', 'Im_OrlandoBloom.png'],diff,1,0.42503360000046086,16,0,
BRNA1411,1,pos,150,pos150_id4_im20.bmp_pos150_id7_im14.bmp,['Im_PatrickDempsey.png', 'Im_DanielCraig.png', 'Im_RyanGosling.png', 'Im_BradPitt.png', 'Im_LeonardoDiCaprio.png', 'Im_DanielRadcliffe.png', 'Im_RobertDowneyJr.png', 'Im_GeorgeClooney.png', 'Im_RobertPattinson.png', 'Im_OrlandoBloom.png'],diff,1,0.4084000000002561,17,0,
BRNA1411,1,pos,150,pos150_id7_im14.bmp_pos150_id7_im15.bmp,['Im_PatrickDempsey.png', 'Im_DanielCraig.png', 'Im_RyanGosling.png', 'Im_BradPitt.png', 'Im_LeonardoDiCaprio.png', 'Im_DanielRadcliffe.png', 'Im_RobertDowneyJr.png', 'Im_GeorgeClooney.png', 'Im_RobertPattinson.png', 'Im_OrlandoBloom.png'],same,1,0.42512150000038673,18,0,
BRNA1411,1,pos,30,pos30_id4_im20.bmp_pos30_id4_im15.bmp,['Im_PatrickDempsey.png', 'Im_DanielCraig.png', 'Im_RyanGosling.png', 'Im_BradPitt.png', 'Im_LeonardoDiCaprio.png', 'Im_DanielRadcliffe.png', 'Im_RobertDowneyJr.png', 'Im_GeorgeClooney.png', 'Im_RobertPattinson.png', 'Im_OrlandoBloom.png'],same,1,0.4250836999999592,19,0,
BRNA1411,1,pos,90,pos90_id3_im6.bmp_pos90_id18_im19.bmp,['Im_PatrickDempsey.png', 'Im_DanielCraig.png', 'Im_RyanGosling.png', 'Im_BradPitt.png', 'Im_LeonardoDiCaprio.png', 'Im_DanielRadcliffe.png', 'Im_RobertDowneyJr.png', 'Im_GeorgeClooney.png', 'Im_RobertPattinson.png', 'Im_OrlandoBloom.png'],diff,1,0.42504899999767076,20,0,
BRNA1411,1,pos,120,pos120_id4_im7.bmp_pos120_id4_im20.bmp,['Im_PatrickDempsey.png', 'Im_DanielCraig.png', 'Im_RyanGosling.png', 'Im_BradPitt.png', 'Im_LeonardoDiCaprio.png', 'Im_DanielRadcliffe.png', 'Im_RobertDowneyJr.png', 'Im_GeorgeClooney.png', 'Im_RobertPattinson.png', 'Im_OrlandoBloom.png'],same,1,0.4167392999988806,21,0,
BRNA1411,1,pos,fs,posfs_id19_im4.bmp_posfs_id7_im15.bmp,['Im_PatrickDempsey.png', 'Im_DanielCraig.png', 'Im_RyanGosling.png', 'Im_BradPitt.png', 'Im_LeonardoDiCaprio.png', 'Im_DanielRadcliffe.png', 'Im_RobertDowneyJr.png', 'Im_GeorgeClooney.png', 'Im_RobertPattinson.png', 'Im_OrlandoBloom.png'],diff,1,0.4168381999988924,22,0,
BRNA1411,1,pos,120,pos120_id4_im7.bmp_pos120_id4_im15.bmp,['Im_PatrickDempsey.png', 'Im_DanielCraig.png', 'Im_RyanGosling.png', 'Im_BradPitt.png', 'Im_LeonardoDiCaprio.png', 'Im_DanielRadcliffe.png', 'Im_RobertDowneyJr.png', 'Im_GeorgeClooney.png', 'Im_RobertPattinson.png', 'Im_OrlandoBloom.png'],same,1,0.433407199998328,23,0,
BRNA1411,1,pos,90,pos90_id20_im3.bmp_pos90_id5_im10.bmp,['Im_PatrickDempsey.png', 'Im_DanielCraig.png', 'Im_RyanGosling.png', 'Im_BradPitt.png', 'Im_LeonardoDiCaprio.png', 'Im_DanielRadcliffe.png', 'Im_RobertDowneyJr.png', 'Im_GeorgeClooney.png', 'Im_RobertPattinson.png', 'Im_OrlandoBloom.png'],diff,1,0.40854420000323444,24,0,
BRNA1411,1,pos,30,pos30_id7_im26.bmp_pos30_id19_im4.bmp,['Im_PatrickDempsey.png', 'Im_DanielCraig.png', 'Im_RyanGosling.png', 'Im_BradPitt.png', 'Im_LeonardoDiCaprio.png', 'Im_DanielRadcliffe.png', 'Im_RobertDowneyJr.png', 'Im_GeorgeClooney.png', 'Im_RobertPattinson.png', 'Im_OrlandoBloom.png'],diff,1,0.42503930000020773,25,0,
BRNA1411,1,pos,60,pos60_id17_im8.bmp_pos60_id17_im14.bmp,['Im_PatrickDempsey.png', 'Im_DanielCraig.png', 'Im_RyanGosling.png', 'Im_BradPitt.png', 'Im_LeonardoDiCaprio.png', 'Im_DanielRadcliffe.png', 'Im_RobertDowneyJr.png', 'Im_GeorgeClooney.png', 'Im_RobertPattinson.png', 'Im_OrlandoBloom.png'],same,1,0.5506507999998576,26,0,
BRNA1411,1,pos,fs,posfs_id5_im1.bmp_posfs_id5_im10.bmp,['Im_PatrickDempsey.png', 'Im_DanielCraig.png', 'Im_RyanGosling.png', 'Im_BradPitt.png', 'Im_LeonardoDiCaprio.png', 'Im_DanielRadcliffe.png', 'Im_RobertDowneyJr.png', 'Im_GeorgeClooney.png', 'Im_RobertPattinson.png', 'Im_OrlandoBloom.png'],same,1,0.4334768000007898,27,0,
BRNA1411,2,neg,60,neg60_id19_im4.bmp_neg60_id19_im8.bmp,['Im_PatrickDempsey.png', 'Im_DanielCraig.png', 'Im_RyanGosling.png', 'Im_BradPitt.png', 'Im_LeonardoDiCaprio.png', 'Im_DanielRadcliffe.png', 'Im_RobertDowneyJr.png', 'Im_GeorgeClooney.png', 'Im_RobertPattinson.png', 'Im_OrlandoBloom.png'],same,1,0.8752561000001151,28,0,
BRNA1411,2,neg,90,neg90_id20_im30.bmp_neg90_id4_im20.bmp,['Im_PatrickDempsey.png', 'Im_DanielCraig.png', 'Im_RyanGosling.png', 'Im_BradPitt.png', 'Im_LeonardoDiCaprio.png', 'Im_DanielRadcliffe.png', 'Im_RobertDowneyJr.png', 'Im_GeorgeClooney.png', 'Im_RobertPattinson.png', 'Im_OrlandoBloom.png'],diff,1,0.4337277999984508,29,0,
BRNA1411,2,neg,150,neg150_id3_im17.bmp_neg150_id16_im3.bmp,['Im_PatrickDempsey.png', 'Im_DanielCraig.png', 'Im_RyanGosling.png', 'Im_BradPitt.png', 'Im_LeonardoDiCaprio.png', 'Im_DanielRadcliffe.png', 'Im_RobertDowneyJr.png', 'Im_GeorgeClooney.png', 'Im_RobertPattinson.png', 'Im_OrlandoBloom.png'],diff,1,0.41673740000260295,30,0,
BRNA1411,2,neg,fs,negfs_id3_im8.bmp_negfs_id18_im11.bmp,['Im_PatrickDempsey.png', 'Im_DanielCraig.png', 'Im_RyanGosling.png', 'Im_BradPitt.png', 'Im_LeonardoDiCaprio.png', 'Im_DanielRadcliffe.png', 'Im_RobertDowneyJr.png', 'Im_GeorgeClooney.png', 'Im_RobertPattinson.png', 'Im_OrlandoBloom.png'],diff,1,0.4333795000020473,31,0,
BRNA1411,2,neg,30,neg30_id4_im15.bmp_neg30_id4_im7.bmp,['Im_PatrickDempsey.png', 'Im_DanielCraig.png', 'Im_RyanGosling.png', 'Im_BradPitt.png', 'Im_LeonardoDiCaprio.png', 'Im_DanielRadcliffe.png', 'Im_RobertDowneyJr.png', 'Im_GeorgeClooney.png', 'Im_RobertPattinson.png', 'Im_OrlandoBloom.png'],same,1,0.416827099998045,32,0,
BRNA1411,2,neg,30,neg30_id5_im10.bmp_neg30_id5_im1.bmp,['Im_PatrickDempsey.png', 'Im_DanielCraig.png', 'Im_RyanGosling.png', 'Im_BradPitt.png', 'Im_LeonardoDiCaprio.png', 'Im_DanielRadcliffe.png', 'Im_RobertDowneyJr.png', 'Im_GeorgeClooney.png', 'Im_RobertPattinson.png', 'Im_OrlandoBloom.png'],same,1,0.41678789999787114,33,0,
BRNA1411,2,neg,0,neg0_id17_im9.bmp_neg0_id17_im14.bmp,['Im_PatrickDempsey.png', 'Im_DanielCraig.png', 'Im_RyanGosling.png', 'Im_BradPitt.png', 'Im_LeonardoDiCaprio.png', 'Im_DanielRadcliffe.png', 'Im_RobertDowneyJr.png', 'Im_GeorgeClooney.png', 'Im_RobertPattinson.png', 'Im_OrlandoBloom.png'],diff,0,0.4498468999991019,33,0,
BRNA1411,2,neg,fs,negfs_id17_im8.bmp_negfs_id17_im9.bmp,['Im_PatrickDempsey.png', 'Im_DanielCraig.png', 'Im_RyanGosling.png', 'Im_BradPitt.png', 'Im_LeonardoDiCaprio.png', 'Im_DanielRadcliffe.png', 'Im_RobertDowneyJr.png', 'Im_GeorgeClooney.png', 'Im_RobertPattinson.png', 'Im_OrlandoBloom.png'],same,1,0.4250620999991952,34,0,
BRNA1411,2,neg,150,neg150_id18_im18.bmp_neg150_id18_im11.bmp,['Im_PatrickDempsey.png', 'Im_DanielCraig.png', 'Im_RyanGosling.png', 'Im_BradPitt.png', 'Im_LeonardoDiCaprio.png', 'Im_DanielRadcliffe.png', 'Im_RobertDowneyJr.png', 'Im_GeorgeClooney.png', 'Im_RobertPattinson.png', 'Im_OrlandoBloom.png'],same,1,0.4252304000001459,35,0,
BRNA1411,2,neg,60,neg60_id20_im3.bmp_neg60_id5_im20.bmp,['Im_PatrickDempsey.png', 'Im_DanielCraig.png', 'Im_RyanGosling.png', 'Im_BradPitt.png', 'Im_LeonardoDiCaprio.png', 'Im_DanielRadcliffe.png', 'Im_RobertDowneyJr.png', 'Im_GeorgeClooney.png', 'Im_RobertPattinson.png', 'Im_OrlandoBloom.png'],diff,1,0.42505680000249413,36,0,
BRNA1411,2,neg,90,neg90_id7_im14.bmp_neg90_id7_im26.bmp,['Im_PatrickDempsey.png', 'Im_DanielCraig.png', 'Im_RyanGosling.png', 'Im_BradPitt.png', 'Im_LeonardoDiCaprio.png', 'Im_DanielRadcliffe.png', 'Im_RobertDowneyJr.png', 'Im_GeorgeClooney.png', 'Im_RobertPattinson.png', 'Im_OrlandoBloom.png'],diff,0,0.41673399999854155,36,0,
BRNA1411,2,neg,0,neg0_id3_im8.bmp_neg0_id3_im17.bmp,['Im_PatrickDempsey.png', 'Im_DanielCraig.png', 'Im_RyanGosling.png', 'Im_BradPitt.png', 'Im_LeonardoDiCaprio.png', 'Im_DanielRadcliffe.png', 'Im_RobertDowneyJr.png', 'Im_GeorgeClooney.png', 'Im_RobertPattinson.png', 'Im_OrlandoBloom.png'],same,1,0.41674390000116546,37,0,
BRNA1411,2,neg,120,neg120_id20_im12.bmp_neg120_id20_im3.bmp,['Im_PatrickDempsey.png', 'Im_DanielCraig.png', 'Im_RyanGosling.png', 'Im_BradPitt.png', 'Im_LeonardoDiCaprio.png', 'Im_DanielRadcliffe.png', 'Im_RobertDowneyJr.png', 'Im_GeorgeClooney.png', 'Im_RobertPattinson.png', 'Im_OrlandoBloom.png'],same,1,0.41676550000192947,38,0,
BRNA1411,2,neg,120,neg120_id17_im9.bmp_neg120_id17_im14.bmp,['Im_PatrickDempsey.png', 'Im_DanielCraig.png', 'Im_RyanGosling.png', 'Im_BradPitt.png', 'Im_LeonardoDiCaprio.png', 'Im_DanielRadcliffe.png', 'Im_RobertDowneyJr.png', 'Im_GeorgeClooney.png', 'Im_RobertPattinson.png', 'Im_OrlandoBloom.png'],same,1,0.4834607999982836,39,0,
BRNA1411,3,inv,60,pos60_id5_im1.bmp_pos60_id5_im20.bmp,['Im_PatrickDempsey.png', 'Im_DanielCraig.png', 'Im_RyanGosling.png', 'Im_BradPitt.png', 'Im_LeonardoDiCaprio.png', 'Im_DanielRadcliffe.png', 'Im_RobertDowneyJr.png', 'Im_GeorgeClooney.png', 'Im_RobertPattinson.png', 'Im_OrlandoBloom.png'],same,1,0.41683479999846895,1,92.85714285714286,
BRNA1411,3,inv,120,pos120_id7_im26.bmp_pos120_id7_im14.bmp,['Im_PatrickDempsey.png', 'Im_DanielCraig.png', 'Im_RyanGosling.png', 'Im_BradPitt.png', 'Im_LeonardoDiCaprio.png', 'Im_DanielRadcliffe.png', 'Im_RobertDowneyJr.png', 'Im_GeorgeClooney.png', 'Im_RobertPattinson.png', 'Im_OrlandoBloom.png'],same,1,0.42509509999945294,2,92.85714285714286,
BRNA1411,3,inv,0,pos0_id18_im11.bmp_pos0_id18_im18.bmp,['Im_PatrickDempsey.png', 'Im_DanielCraig.png', 'Im_RyanGosling.png', 'Im_BradPitt.png', 'Im_LeonardoDiCaprio.png', 'Im_DanielRadcliffe.png', 'Im_RobertDowneyJr.png', 'Im_GeorgeClooney.png', 'Im_RobertPattinson.png', 'Im_OrlandoBloom.png'],same,1,0.5083239999985381,3,92.85714285714286,
BRNA1411,3,inv,fs,posfs_id13_im15.bmp_posfs_id13_im10.bmp,['Im_PatrickDempsey.png', 'Im_DanielCraig.png', 'Im_RyanGosling.png', 'Im_BradPitt.png', 'Im_LeonardoDiCaprio.png', 'Im_DanielRadcliffe.png', 'Im_RobertDowneyJr.png', 'Im_GeorgeClooney.png', 'Im_RobertPattinson.png', 'Im_OrlandoBloom.png'],same,1,0.4084145999986504,4,92.85714285714286,
BRNA1411,3,inv,150,pos150_id16_im19.bmp_pos150_id19_im8.bmp,['Im_PatrickDempsey.png', 'Im_DanielCraig.png', 'Im_RyanGosling.png', 'Im_BradPitt.png', 'Im_LeonardoDiCaprio.png', 'Im_DanielRadcliffe.png', 'Im_RobertDowneyJr.png', 'Im_GeorgeClooney.png', 'Im_RobertPattinson.png', 'Im_OrlandoBloom.png'],diff,1,1.017658400000073,5,92.85714285714286,
BRNA1411,3,inv,fs,posfs_id19_im27.bmp_posfs_id19_im4.bmp,['Im_PatrickDempsey.png', 'Im_DanielCraig.png', 'Im_RyanGosling.png', 'Im_BradPitt.png', 'Im_LeonardoDiCaprio.png', 'Im_DanielRadcliffe.png', 'Im_RobertDowneyJr.png', 'Im_GeorgeClooney.png', 'Im_RobertPattinson.png', 'Im_OrlandoBloom.png'],same,1,0.4167347000002337,6,92.85714285714286,
BRNA1411,3,inv,30,pos30_id4_im20.bmp_pos30_id20_im30.bmp,['Im_PatrickDempsey.png', 'Im_DanielCraig.png', 'Im_RyanGosling.png', 'Im_BradPitt.png', 'Im_LeonardoDiCaprio.png', 'Im_DanielRadcliffe.png', 'Im_RobertDowneyJr.png', 'Im_GeorgeClooney.png', 'Im_RobertPattinson.png', 'Im_OrlandoBloom.png'],diff,1,0.5085795999984839,7,92.85714285714286,
BRNA1411,3,inv,30,pos30_id18_im11.bmp_pos30_id18_im18.bmp,['Im_PatrickDempsey.png', 'Im_DanielCraig.png', 'Im_RyanGosling.png', 'Im_BradPitt.png', 'Im_LeonardoDiCaprio.png', 'Im_DanielRadcliffe.png', 'Im_RobertDowneyJr.png', 'Im_GeorgeClooney.png', 'Im_RobertPattinson.png', 'Im_OrlandoBloom.png'],same,1,0.8585099000010814,8,92.85714285714286,
BRNA1411,3,inv,120,pos120_id5_im10.bmp_pos120_id5_im20.bmp,['Im_PatrickDempsey.png', 'Im_DanielCraig.png', 'Im_RyanGosling.png', 'Im_BradPitt.png', 'Im_LeonardoDiCaprio.png', 'Im_DanielRadcliffe.png', 'Im_RobertDowneyJr.png', 'Im_GeorgeClooney.png', 'Im_RobertPattinson.png', 'Im_OrlandoBloom.png'],same,1,0.9750803999995696,9,92.85714285714286,
BRNA1411,3,inv,90,pos90_id18_im11.bmp_pos90_id3_im8.bmp,['Im_PatrickDempsey.png', 'Im_DanielCraig.png', 'Im_RyanGosling.png', 'Im_BradPitt.png', 'Im_LeonardoDiCaprio.png', 'Im_DanielRadcliffe.png', 'Im_RobertDowneyJr.png', 'Im_GeorgeClooney.png', 'Im_RobertPattinson.png', 'Im_OrlandoBloom.png'],diff,1,0.5499336000029871,10,92.85714285714286,
BRNA1411,3,inv,150,pos150_id16_im2.bmp_pos150_id16_im19.bmp,['Im_PatrickDempsey.png', 'Im_DanielCraig.png', 'Im_RyanGosling.png', 'Im_BradPitt.png', 'Im_LeonardoDiCaprio.png', 'Im_DanielRadcliffe.png', 'Im_RobertDowneyJr.png', 'Im_GeorgeClooney.png', 'Im_RobertPattinson.png', 'Im_OrlandoBloom.png'],same,1,0.4167563000009977,11,92.85714285714286,
BRNA1411,3,inv,0,pos0_id4_im15.bmp_pos0_id4_im20.bmp,['Im_PatrickDempsey.png', 'Im_DanielCraig.png', 'Im_RyanGosling.png', 'Im_BradPitt.png', 'Im_LeonardoDiCaprio.png', 'Im_DanielRadcliffe.png', 'Im_RobertDowneyJr.png', 'Im_GeorgeClooney.png', 'Im_RobertPattinson.png', 'Im_OrlandoBloom.png'],diff,0,1.108471899999131,11,92.85714285714286,
BRNA1411,3,inv,60,pos60_id5_im1.bmp_pos60_id5_im10.bmp,['Im_PatrickDempsey.png', 'Im_DanielCraig.png', 'Im_RyanGosling.png', 'Im_BradPitt.png', 'Im_LeonardoDiCaprio.png', 'Im_DanielRadcliffe.png', 'Im_RobertDowneyJr.png', 'Im_GeorgeClooney.png', 'Im_RobertPattinson.png', 'Im_OrlandoBloom.png'],same,1,0.41685100000177044,12,92.85714285714286,
BRNA1411,3,inv,90,pos90_id13_im10.bmp_pos90_id3_im17.bmp,['Im_PatrickDempsey.png', 'Im_DanielCraig.png', 'Im_RyanGosling.png', 'Im_BradPitt.png', 'Im_LeonardoDiCaprio.png', 'Im_DanielRadcliffe.png', 'Im_RobertDowneyJr.png', 'Im_GeorgeClooney.png', 'Im_RobertPattinson.png', 'Im_OrlandoBloom.png'],diff,1,0.8336347000004025,13,92.85714285714286,
BRNA1411,4,pos,120,pos120_id20_im30.bmp_pos120_id20_im3.bmp,['Im_PatrickDempsey.png', 'Im_DanielCraig.png', 'Im_RyanGosling.png', 'Im_BradPitt.png', 'Im_LeonardoDiCaprio.png', 'Im_DanielRadcliffe.png', 'Im_RobertDowneyJr.png', 'Im_GeorgeClooney.png', 'Im_RobertPattinson.png', 'Im_OrlandoBloom.png'],same,1,0.4252317000027688,14,92.85714285714286,
BRNA1411,4,pos,90,pos90_id3_im17.bmp_pos90_id13_im10.bmp,['Im_PatrickDempsey.png', 'Im_DanielCraig.png', 'Im_RyanGosling.png', 'Im_BradPitt.png', 'Im_LeonardoDiCaprio.png', 'Im_DanielRadcliffe.png', 'Im_RobertDowneyJr.png', 'Im_GeorgeClooney.png', 'Im_RobertPattinson.png', 'Im_OrlandoBloom.png'],diff,1,0.416749299998628,15,92.85714285714286,
BRNA1411,4,pos,0,pos0_id3_im8.bmp_pos0_id3_im17.bmp,['Im_PatrickDempsey.png', 'Im_DanielCraig.png', 'Im_RyanGosling.png', 'Im_BradPitt.png', 'Im_LeonardoDiCaprio.png', 'Im_DanielRadcliffe.png', 'Im_RobertDowneyJr.png', 'Im_GeorgeClooney.png', 'Im_RobertPattinson.png', 'Im_OrlandoBloom.png'],same,1,0.4250520999994478,16,92.85714285714286,
BRNA1411,4,pos,30,pos30_id4_im15.bmp_pos30_id5_im1.bmp,['Im_PatrickDempsey.png', 'Im_DanielCraig.png', 'Im_RyanGosling.png', 'Im_BradPitt.png', 'Im_LeonardoDiCaprio.png', 'Im_DanielRadcliffe.png', 'Im_RobertDowneyJr.png', 'Im_GeorgeClooney.png', 'Im_RobertPattinson.png', 'Im_OrlandoBloom.png'],diff,1,0.416592400000809,17,92.85714285714286,
BRNA1411,4,pos,60,pos60_id18_im11.bmp_pos60_id3_im8.bmp,['Im_PatrickDempsey.png', 'Im_DanielCraig.png', 'Im_RyanGosling.png', 'Im_BradPitt.png', 'Im_LeonardoDiCaprio.png', 'Im_DanielRadcliffe.png', 'Im_RobertDowneyJr.png', 'Im_GeorgeClooney.png', 'Im_RobertPattinson.png', 'Im_OrlandoBloom.png'],diff,1,0.4084318000022904,18,92.85714285714286,
BRNA1411,4,pos,fs,posfs_id20_im12.bmp_posfs_id20_im30.bmp,['Im_PatrickDempsey.png', 'Im_DanielCraig.png', 'Im_RyanGosling.png', 'Im_BradPitt.png', 'Im_LeonardoDiCaprio.png', 'Im_DanielRadcliffe.png', 'Im_RobertDowneyJr.png', 'Im_GeorgeClooney.png', 'Im_RobertPattinson.png', 'Im_OrlandoBloom.png'],same,1,0.45009229999777745,19,92.85714285714286,
BRNA1411,4,pos,60,pos60_id13_im10.bmp_pos60_id5_im1.bmp,['Im_PatrickDempsey.png', 'Im_DanielCraig.png', 'Im_RyanGosling.png', 'Im_BradPitt.png', 'Im_LeonardoDiCaprio.png', 'Im_DanielRadcliffe.png', 'Im_RobertDowneyJr.png', 'Im_GeorgeClooney.png', 'Im_RobertPattinson.png', 'Im_OrlandoBloom.png'],diff,1,0.416615099999035,20,92.85714285714286,
BRNA1411,4,pos,120,pos120_id17_im14.bmp_pos120_id17_im9.bmp,['Im_PatrickDempsey.png', 'Im_DanielCraig.png', 'Im_RyanGosling.png', 'Im_BradPitt.png', 'Im_LeonardoDiCaprio.png', 'Im_DanielRadcliffe.png', 'Im_RobertDowneyJr.png', 'Im_GeorgeClooney.png', 'Im_RobertPattinson.png', 'Im_OrlandoBloom.png'],same,1,0.5667969000023731,21,92.85714285714286,
BRNA1411,4,pos,30,pos30_id5_im1.bmp_pos30_id5_im10.bmp,['Im_PatrickDempsey.png', 'Im_DanielCraig.png', 'Im_RyanGosling.png', 'Im_BradPitt.png', 'Im_LeonardoDiCaprio.png', 'Im_DanielRadcliffe.png', 'Im_RobertDowneyJr.png', 'Im_GeorgeClooney.png', 'Im_RobertPattinson.png', 'Im_OrlandoBloom.png'],same,1,0.4167473000015889,22,92.85714285714286,
BRNA1411,4,pos,0,pos0_id3_im8.bmp_pos0_id3_im6.bmp,['Im_PatrickDempsey.png', 'Im_DanielCraig.png', 'Im_RyanGosling.png', 'Im_BradPitt.png', 'Im_LeonardoDiCaprio.png', 'Im_DanielRadcliffe.png', 'Im_RobertDowneyJr.png', 'Im_GeorgeClooney.png', 'Im_RobertPattinson.png', 'Im_OrlandoBloom.png'],same,1,0.41677619999973103,23,92.85714285714286,
BRNA1411,4,pos,150,pos150_id20_im3.bmp_pos150_id20_im12.bmp,['Im_PatrickDempsey.png', 'Im_DanielCraig.png', 'Im_RyanGosling.png', 'Im_BradPitt.png', 'Im_LeonardoDiCaprio.png', 'Im_DanielRadcliffe.png', 'Im_RobertDowneyJr.png', 'Im_GeorgeClooney.png', 'Im_RobertPattinson.png', 'Im_OrlandoBloom.png'],same,1,0.41680210000049556,24,92.85714285714286,
BRNA1411,4,pos,fs,posfs_id7_im15.bmp_posfs_id7_im26.bmp,['Im_PatrickDempsey.png', 'Im_DanielCraig.png', 'Im_RyanGosling.png', 'Im_BradPitt.png', 'Im_LeonardoDiCaprio.png', 'Im_DanielRadcliffe.png', 'Im_RobertDowneyJr.png', 'Im_GeorgeClooney.png', 'Im_RobertPattinson.png', 'Im_OrlandoBloom.png'],diff,0,0.908551799999259,24,92.85714285714286,
BRNA1411,4,pos,150,pos150_id3_im8.bmp_pos150_id7_im26.bmp,['Im_PatrickDempsey.png', 'Im_DanielCraig.png', 'Im_RyanGosling.png', 'Im_BradPitt.png', 'Im_LeonardoDiCaprio.png', 'Im_DanielRadcliffe.png', 'Im_RobertDowneyJr.png', 'Im_GeorgeClooney.png', 'Im_RobertPattinson.png', 'Im_OrlandoBloom.png'],diff,1,0.4669813000000431,25,92.85714285714286,
BRNA1411,4,pos,90,pos90_id18_im19.bmp_pos90_id4_im7.bmp,['Im_PatrickDempsey.png', 'Im_DanielCraig.png', 'Im_RyanGosling.png', 'Im_BradPitt.png', 'Im_LeonardoDiCaprio.png', 'Im_DanielRadcliffe.png', 'Im_RobertDowneyJr.png', 'Im_GeorgeClooney.png', 'Im_RobertPattinson.png', 'Im_OrlandoBloom.png'],diff,1,0.5170266000022821,26,92.85714285714286,
BRNA1411,5,neg,90,neg90_id20_im12.bmp_neg90_id20_im3.bmp,['Im_PatrickDempsey.png', 'Im_DanielCraig.png', 'Im_RyanGosling.png', 'Im_BradPitt.png', 'Im_LeonardoDiCaprio.png', 'Im_DanielRadcliffe.png', 'Im_RobertDowneyJr.png', 'Im_GeorgeClooney.png', 'Im_RobertPattinson.png', 'Im_OrlandoBloom.png'],diff,0,0.42515110000022105,26,92.85714285714286,
BRNA1411,5,neg,0,neg0_id20_im3.bmp_neg0_id5_im10.bmp,['Im_PatrickDempsey.png', 'Im_DanielCraig.png', 'Im_RyanGosling.png', 'Im_BradPitt.png', 'Im_LeonardoDiCaprio.png', 'Im_DanielRadcliffe.png', 'Im_RobertDowneyJr.png', 'Im_GeorgeClooney.png', 'Im_RobertPattinson.png', 'Im_OrlandoBloom.png'],diff,1,0.42498360000172397,27,92.85714285714286,
BRNA1411,5,neg,150,neg150_id18_im19.bmp_neg150_id18_im18.bmp,['Im_PatrickDempsey.png', 'Im_DanielCraig.png', 'Im_RyanGosling.png', 'Im_BradPitt.png', 'Im_LeonardoDiCaprio.png', 'Im_DanielRadcliffe.png', 'Im_RobertDowneyJr.png', 'Im_GeorgeClooney.png', 'Im_RobertPattinson.png', 'Im_OrlandoBloom.png'],diff,0,0.4248995999987528,27,92.85714285714286,
BRNA1411,5,neg,120,neg120_id16_im3.bmp_neg120_id16_im2.bmp,['Im_PatrickDempsey.png', 'Im_DanielCraig.png', 'Im_RyanGosling.png', 'Im_BradPitt.png', 'Im_LeonardoDiCaprio.png', 'Im_DanielRadcliffe.png', 'Im_RobertDowneyJr.png', 'Im_GeorgeClooney.png', 'Im_RobertPattinson.png', 'Im_OrlandoBloom.png'],same,1,0.4167253999985405,28,92.85714285714286,
BRNA1411,5,neg,30,neg30_id18_im18.bmp_neg30_id4_im7.bmp,['Im_PatrickDempsey.png', 'Im_DanielCraig.png', 'Im_RyanGosling.png', 'Im_BradPitt.png', 'Im_LeonardoDiCaprio.png', 'Im_DanielRadcliffe.png', 'Im_RobertDowneyJr.png', 'Im_GeorgeClooney.png', 'Im_RobertPattinson.png', 'Im_OrlandoBloom.png'],diff,1,0.4252912000010838,29,92.85714285714286,
BRNA1411,5,neg,120,neg120_id7_im15.bmp_neg120_id7_im26.bmp,['Im_PatrickDempsey.png', 'Im_DanielCraig.png', 'Im_RyanGosling.png', 'Im_BradPitt.png', 'Im_LeonardoDiCaprio.png', 'Im_DanielRadcliffe.png', 'Im_RobertDowneyJr.png', 'Im_GeorgeClooney.png', 'Im_RobertPattinson.png', 'Im_OrlandoBloom.png'],same,1,0.4250958000011451,30,92.85714285714286,
BRNA1411,5,neg,fs,negfs_id7_im15.bmp_negfs_id7_im26.bmp,['Im_PatrickDempsey.png', 'Im_DanielCraig.png', 'Im_RyanGosling.png', 'Im_BradPitt.png', 'Im_LeonardoDiCaprio.png', 'Im_DanielRadcliffe.png', 'Im_RobertDowneyJr.png', 'Im_GeorgeClooney.png', 'Im_RobertPattinson.png', 'Im_OrlandoBloom.png'],same,1,0.41677310000159196,31,92.85714285714286,
BRNA1411,5,neg,30,neg30_id13_im29.bmp_neg30_id13_im10.bmp,['Im_PatrickDempsey.png', 'Im_DanielCraig.png', 'Im_RyanGosling.png', 'Im_BradPitt.png', 'Im_LeonardoDiCaprio.png', 'Im_DanielRadcliffe.png', 'Im_RobertDowneyJr.png', 'Im_GeorgeClooney.png', 'Im_RobertPattinson.png', 'Im_OrlandoBloom.png'],diff,0,0.5666130999998131,31,92.85714285714286,
BRNA1411,5,neg,fs,negfs_id20_im12.bmp_negfs_id20_im3.bmp,['Im_PatrickDempsey.png', 'Im_DanielCraig.png', 'Im_RyanGosling.png', 'Im_BradPitt.png', 'Im_LeonardoDiCaprio.png', 'Im_DanielRadcliffe.png', 'Im_RobertDowneyJr.png', 'Im_GeorgeClooney.png', 'Im_RobertPattinson.png', 'Im_OrlandoBloom.png'],same,1,0.41668790000039735,32,92.85714285714286,
BRNA1411,5,neg,60,neg60_id7_im26.bmp_neg60_id7_im15.bmp,['Im_PatrickDempsey.png', 'Im_DanielCraig.png', 'Im_RyanGosling.png', 'Im_BradPitt.png', 'Im_LeonardoDiCaprio.png', 'Im_DanielRadcliffe.png', 'Im_RobertDowneyJr.png', 'Im_GeorgeClooney.png', 'Im_RobertPattinson.png', 'Im_OrlandoBloom.png'],same,1,0.4167486000005738,33,92.85714285714286,
BRNA1411,5,neg,0,neg0_id16_im3.bmp_neg0_id16_im2.bmp,['Im_PatrickDempsey.png', 'Im_DanielCraig.png', 'Im_RyanGosling.png', 'Im_BradPitt.png', 'Im_LeonardoDiCaprio.png', 'Im_DanielRadcliffe.png', 'Im_RobertDowneyJr.png', 'Im_GeorgeClooney.png', 'Im_RobertPattinson.png', 'Im_OrlandoBloom.png'],same,1,0.4167148000015004,34,92.85714285714286,
BRNA1411,5,neg,60,neg60_id13_im15.bmp_neg60_id13_im29.bmp,['Im_PatrickDempsey.png', 'Im_DanielCraig.png', 'Im_RyanGosling.png', 'Im_BradPitt.png', 'Im_LeonardoDiCaprio.png', 'Im_DanielRadcliffe.png', 'Im_RobertDowneyJr.png', 'Im_GeorgeClooney.png', 'Im_RobertPattinson.png', 'Im_OrlandoBloom.png'],diff,0,0.5499546999999438,34,92.85714285714286,
BRNA1411,5,neg,150,neg150_id7_im15.bmp_neg150_id7_im26.bmp,['Im_PatrickDempsey.png', 'Im_DanielCraig.png', 'Im_RyanGosling.png', 'Im_BradPitt.png', 'Im_LeonardoDiCaprio.png', 'Im_DanielRadcliffe.png', 'Im_RobertDowneyJr.png', 'Im_GeorgeClooney.png', 'Im_RobertPattinson.png', 'Im_OrlandoBloom.png'],same,1,0.4167665999993915,35,92.85714285714286,
BRNA1411,5,neg,90,neg90_id18_im19.bmp_neg90_id18_im11.bmp,['Im_PatrickDempsey.png', 'Im_DanielCraig.png', 'Im_RyanGosling.png', 'Im_BradPitt.png', 'Im_LeonardoDiCaprio.png', 'Im_DanielRadcliffe.png', 'Im_RobertDowneyJr.png', 'Im_GeorgeClooney.png', 'Im_RobertPattinson.png', 'Im_OrlandoBloom.png'],same,1,0.5334704000015336,36,92.85714285714286,
BRNA1411,6,inv,60,pos60_id19_im8.bmp_pos60_id19_im27.bmp,['Im_PatrickDempsey.png', 'Im_DanielCraig.png', 'Im_RyanGosling.png', 'Im_BradPitt.png', 'Im_LeonardoDiCaprio.png', 'Im_DanielRadcliffe.png', 'Im_RobertDowneyJr.png', 'Im_GeorgeClooney.png', 'Im_RobertPattinson.png', 'Im_OrlandoBloom.png'],same,1,1.166994799998065,1,85.71428571428571,
BRNA1411,6,inv,fs,posfs_id16_im3.bmp_posfs_id16_im2.bmp,['Im_PatrickDempsey.png', 'Im_DanielCraig.png', 'Im_RyanGosling.png', 'Im_BradPitt.png', 'Im_LeonardoDiCaprio.png', 'Im_DanielRadcliffe.png', 'Im_RobertDowneyJr.png', 'Im_GeorgeClooney.png', 'Im_RobertPattinson.png', 'Im_OrlandoBloom.png'],same,1,0.41672269999980927,2,85.71428571428571,
BRNA1411,6,inv,90,pos90_id7_im26.bmp_pos90_id3_im8.bmp,['Im_PatrickDempsey.png', 'Im_DanielCraig.png', 'Im_RyanGosling.png', 'Im_BradPitt.png', 'Im_LeonardoDiCaprio.png', 'Im_DanielRadcliffe.png', 'Im_RobertDowneyJr.png', 'Im_GeorgeClooney.png', 'Im_RobertPattinson.png', 'Im_OrlandoBloom.png'],same,0,0.41673029999947175,2,85.71428571428571,
BRNA1411,6,inv,0,pos0_id3_im8.bmp_pos0_id7_im26.bmp,['Im_PatrickDempsey.png', 'Im_DanielCraig.png', 'Im_RyanGosling.png', 'Im_BradPitt.png', 'Im_LeonardoDiCaprio.png', 'Im_DanielRadcliffe.png', 'Im_RobertDowneyJr.png', 'Im_GeorgeClooney.png', 'Im_RobertPattinson.png', 'Im_OrlandoBloom.png'],diff,1,0.5250702999983332,3,85.71428571428571,
BRNA1411,6,inv,30,pos30_id3_im8.bmp_pos30_id3_im6.bmp,['Im_PatrickDempsey.png', 'Im_DanielCraig.png', 'Im_RyanGosling.png', 'Im_BradPitt.png', 'Im_LeonardoDiCaprio.png', 'Im_DanielRadcliffe.png', 'Im_RobertDowneyJr.png', 'Im_GeorgeClooney.png', 'Im_RobertPattinson.png', 'Im_OrlandoBloom.png'],same,1,0.4250499000008858,4,85.71428571428571,
BRNA1411,6,inv,150,pos150_id19_im8.bmp_pos150_id19_im27.bmp,['Im_PatrickDempsey.png', 'Im_DanielCraig.png', 'Im_RyanGosling.png', 'Im_BradPitt.png', 'Im_LeonardoDiCaprio.png', 'Im_DanielRadcliffe.png', 'Im_RobertDowneyJr.png', 'Im_GeorgeClooney.png', 'Im_RobertPattinson.png', 'Im_OrlandoBloom.png'],same,1,0.42527010000048904,5,85.71428571428571,
BRNA1411,6,inv,60,pos60_id18_im11.bmp_pos60_id3_im8.bmp,['Im_PatrickDempsey.png', 'Im_DanielCraig.png', 'Im_RyanGosling.png', 'Im_BradPitt.png', 'Im_LeonardoDiCaprio.png', 'Im_DanielRadcliffe.png', 'Im_RobertDowneyJr.png', 'Im_GeorgeClooney.png', 'Im_RobertPattinson.png', 'Im_OrlandoBloom.png'],diff,1,0.4168755999999121,6,85.71428571428571,
BRNA1411,6,inv,120,pos120_id19_im4.bmp_pos120_id7_im26.bmp,['Im_PatrickDempsey.png', 'Im_DanielCraig.png', 'Im_RyanGosling.png', 'Im_BradPitt.png', 'Im_LeonardoDiCaprio.png', 'Im_DanielRadcliffe.png', 'Im_RobertDowneyJr.png', 'Im_GeorgeClooney.png', 'Im_RobertPattinson.png', 'Im_OrlandoBloom.png'],same,0,0.5002114000017173,6,85.71428571428571,
BRNA1411,6,inv,30,pos30_id13_im29.bmp_pos30_id20_im30.bmp,['Im_PatrickDempsey.png', 'Im_DanielCraig.png', 'Im_RyanGosling.png', 'Im_BradPitt.png', 'Im_LeonardoDiCaprio.png', 'Im_DanielRadcliffe.png', 'Im_RobertDowneyJr.png', 'Im_GeorgeClooney.png', 'Im_RobertPattinson.png', 'Im_OrlandoBloom.png'],diff,1,0.40857279999909224,7,85.71428571428571,
BRNA1411,6,inv,90,pos90_id4_im15.bmp_pos90_id4_im20.bmp,['Im_PatrickDempsey.png', 'Im_DanielCraig.png', 'Im_RyanGosling.png', 'Im_BradPitt.png', 'Im_LeonardoDiCaprio.png', 'Im_DanielRadcliffe.png', 'Im_RobertDowneyJr.png', 'Im_GeorgeClooney.png', 'Im_RobertPattinson.png', 'Im_OrlandoBloom.png'],diff,0,0.42505240000173217,7,85.71428571428571,
BRNA1411,6,inv,150,pos150_id16_im2.bmp_pos150_id19_im27.bmp,['Im_PatrickDempsey.png', 'Im_DanielCraig.png', 'Im_RyanGosling.png', 'Im_BradPitt.png', 'Im_LeonardoDiCaprio.png', 'Im_DanielRadcliffe.png', 'Im_RobertDowneyJr.png', 'Im_GeorgeClooney.png', 'Im_RobertPattinson.png', 'Im_OrlandoBloom.png'],same,0,0.41674540000167326,7,85.71428571428571,
BRNA1411,6,inv,120,pos120_id17_im9.bmp_pos120_id7_im14.bmp,['Im_PatrickDempsey.png', 'Im_DanielCraig.png', 'Im_RyanGosling.png', 'Im_BradPitt.png', 'Im_LeonardoDiCaprio.png', 'Im_DanielRadcliffe.png', 'Im_RobertDowneyJr.png', 'Im_GeorgeClooney.png', 'Im_RobertPattinson.png', 'Im_OrlandoBloom.png'],diff,1,0.4250653000017337,8,85.71428571428571,
BRNA1411,6,inv,fs,posfs_id4_im7.bmp_posfs_id4_im15.bmp,['Im_PatrickDempsey.png', 'Im_DanielCraig.png', 'Im_RyanGosling.png', 'Im_BradPitt.png', 'Im_LeonardoDiCaprio.png', 'Im_DanielRadcliffe.png', 'Im_RobertDowneyJr.png', 'Im_GeorgeClooney.png', 'Im_RobertPattinson.png', 'Im_OrlandoBloom.png'],same,1,0.4250955999996222,9,85.71428571428571,
BRNA1411,6,inv,0,pos0_id3_im6.bmp_pos0_id3_im17.bmp,['Im_PatrickDempsey.png', 'Im_DanielCraig.png', 'Im_RyanGosling.png', 'Im_BradPitt.png', 'Im_LeonardoDiCaprio.png', 'Im_DanielRadcliffe.png', 'Im_RobertDowneyJr.png', 'Im_GeorgeClooney.png', 'Im_RobertPattinson.png', 'Im_OrlandoBloom.png'],same,1,0.4250462999989395,10,85.71428571428571,
BRNA1411,7,inv,150,pos150_id16_im2.bmp_pos150_id16_im3.bmp,['Im_PatrickDempsey.png', 'Im_DanielCraig.png', 'Im_RyanGosling.png', 'Im_BradPitt.png', 'Im_LeonardoDiCaprio.png', 'Im_DanielRadcliffe.png', 'Im_RobertDowneyJr.png', 'Im_GeorgeClooney.png', 'Im_RobertPattinson.png', 'Im_OrlandoBloom.png'],same,1,0.40833370000109426,11,85.71428571428571,
BRNA1411,7,inv,30,pos30_id19_im4.bmp_pos30_id19_im27.bmp,['Im_PatrickDempsey.png', 'Im_DanielCraig.png', 'Im_RyanGosling.png', 'Im_BradPitt.png', 'Im_LeonardoDiCaprio.png', 'Im_DanielRadcliffe.png', 'Im_RobertDowneyJr.png', 'Im_GeorgeClooney.png', 'Im_RobertPattinson.png', 'Im_OrlandoBloom.png'],diff,0,0.4086118000013812,11,85.71428571428571,
BRNA1411,7,inv,fs,posfs_id4_im7.bmp_posfs_id18_im19.bmp,['Im_PatrickDempsey.png', 'Im_DanielCraig.png', 'Im_RyanGosling.png', 'Im_BradPitt.png', 'Im_LeonardoDiCaprio.png', 'Im_DanielRadcliffe.png', 'Im_RobertDowneyJr.png', 'Im_GeorgeClooney.png', 'Im_RobertPattinson.png', 'Im_OrlandoBloom.png'],diff,1,0.4167269999998098,12,85.71428571428571,
BRNA1411,7,inv,150,pos150_id13_im29.bmp_pos150_id13_im15.bmp,['Im_PatrickDempsey.png', 'Im_DanielCraig.png', 'Im_RyanGosling.png', 'Im_BradPitt.png', 'Im_LeonardoDiCaprio.png', 'Im_DanielRadcliffe.png', 'Im_RobertDowneyJr.png', 'Im_GeorgeClooney.png', 'Im_RobertPattinson.png', 'Im_OrlandoBloom.png'],diff,0,0.42529389999981504,12,85.71428571428571,
BRNA1411,7,inv,90,pos90_id13_im29.bmp_pos90_id13_im15.bmp,['Im_PatrickDempsey.png', 'Im_DanielCraig.png', 'Im_RyanGosling.png', 'Im_BradPitt.png', 'Im_LeonardoDiCaprio.png', 'Im_DanielRadcliffe.png', 'Im_RobertDowneyJr.png', 'Im_GeorgeClooney.png', 'Im_RobertPattinson.png', 'Im_OrlandoBloom.png'],same,1,0.41674910000074306,13,85.71428571428571,
BRNA1411,7,inv,fs,posfs_id3_im8.bmp_posfs_id18_im11.bmp,['Im_PatrickDempsey.png', 'Im_DanielCraig.png', 'Im_RyanGosling.png', 'Im_BradPitt.png', 'Im_LeonardoDiCaprio.png', 'Im_DanielRadcliffe.png', 'Im_RobertDowneyJr.png', 'Im_GeorgeClooney.png', 'Im_RobertPattinson.png', 'Im_OrlandoBloom.png'],diff,1,0.43323900000177673,14,85.71428571428571,
BRNA1411,7,inv,60,pos60_id4_im15.bmp_pos60_id19_im27.bmp,['Im_PatrickDempsey.png', 'Im_DanielCraig.png', 'Im_RyanGosling.png', 'Im_BradPitt.png', 'Im_LeonardoDiCaprio.png', 'Im_DanielRadcliffe.png', 'Im_RobertDowneyJr.png', 'Im_GeorgeClooney.png', 'Im_RobertPattinson.png', 'Im_OrlandoBloom.png'],diff,1,0.45831059999909485,15,85.71428571428571,
BRNA1411,7,inv,60,pos60_id20_im12.bmp_pos60_id20_im30.bmp,['Im_PatrickDempsey.png', 'Im_DanielCraig.png', 'Im_RyanGosling.png', 'Im_BradPitt.png', 'Im_LeonardoDiCaprio.png', 'Im_DanielRadcliffe.png', 'Im_RobertDowneyJr.png', 'Im_GeorgeClooney.png', 'Im_RobertPattinson.png', 'Im_OrlandoBloom.png'],same,1,0.4250820000015665,16,85.71428571428571,
BRNA1411,7,inv,0,pos0_id16_im19.bmp_pos0_id16_im3.bmp,['Im_PatrickDempsey.png', 'Im_DanielCraig.png', 'Im_RyanGosling.png', 'Im_BradPitt.png', 'Im_LeonardoDiCaprio.png', 'Im_DanielRadcliffe.png', 'Im_RobertDowneyJr.png', 'Im_GeorgeClooney.png', 'Im_RobertPattinson.png', 'Im_OrlandoBloom.png'],diff,0,0.7499989999996615,16,85.71428571428571,
BRNA1411,7,inv,30,pos30_id18_im11.bmp_pos30_id3_im8.bmp,['Im_PatrickDempsey.png', 'Im_DanielCraig.png', 'Im_RyanGosling.png', 'Im_BradPitt.png', 'Im_LeonardoDiCaprio.png', 'Im_DanielRadcliffe.png', 'Im_RobertDowneyJr.png', 'Im_GeorgeClooney.png', 'Im_RobertPattinson.png', 'Im_OrlandoBloom.png'],diff,1,0.4168978999987303,17,85.71428571428571,
BRNA1411,7,inv,90,pos90_id19_im4.bmp_pos90_id19_im27.bmp,['Im_PatrickDempsey.png', 'Im_DanielCraig.png', 'Im_RyanGosling.png', 'Im_BradPitt.png', 'Im_LeonardoDiCaprio.png', 'Im_DanielRadcliffe.png', 'Im_RobertDowneyJr.png', 'Im_GeorgeClooney.png', 'Im_RobertPattinson.png', 'Im_OrlandoBloom.png'],diff,0,0.42520499999955064,17,85.71428571428571,
BRNA1411,7,inv,120,pos120_id13_im15.bmp_pos120_id13_im10.bmp,['Im_PatrickDempsey.png', 'Im_DanielCraig.png', 'Im_RyanGosling.png', 'Im_BradPitt.png', 'Im_LeonardoDiCaprio.png', 'Im_DanielRadcliffe.png', 'Im_RobertDowneyJr.png', 'Im_GeorgeClooney.png', 'Im_RobertPattinson.png', 'Im_OrlandoBloom.png'],same,1,0.4251332999992883,18,85.71428571428571,
BRNA1411,7,inv,120,pos120_id18_im19.bmp_pos120_id18_im11.bmp,['Im_PatrickDempsey.png', 'Im_DanielCraig.png', 'Im_RyanGosling.png', 'Im_BradPitt.png', 'Im_LeonardoDiCaprio.png', 'Im_DanielRadcliffe.png', 'Im_RobertDowneyJr.png', 'Im_GeorgeClooney.png', 'Im_RobertPattinson.png', 'Im_OrlandoBloom.png'],same,1,0.42508539999835193,19,85.71428571428571,
BRNA1411,7,inv,0,pos0_id20_im12.bmp_pos0_id20_im3.bmp,['Im_PatrickDempsey.png', 'Im_DanielCraig.png', 'Im_RyanGosling.png', 'Im_BradPitt.png', 'Im_LeonardoDiCaprio.png', 'Im_DanielRadcliffe.png', 'Im_RobertDowneyJr.png', 'Im_GeorgeClooney.png', 'Im_RobertPattinson.png', 'Im_OrlandoBloom.png'],same,1,0.4250906000015675,20,85.71428571428571,
BRNA1411,8,pos,fs,posfs_id7_im26.bmp_posfs_id3_im8.bmp,['Im_PatrickDempsey.png', 'Im_DanielCraig.png', 'Im_RyanGosling.png', 'Im_BradPitt.png', 'Im_LeonardoDiCaprio.png', 'Im_DanielRadcliffe.png', 'Im_RobertDowneyJr.png', 'Im_GeorgeClooney.png', 'Im_RobertPattinson.png', 'Im_OrlandoBloom.png'],diff,1,0.42483829999764566,21,85.71428571428571,
BRNA1411,8,pos,0,pos0_id5_im20.bmp_pos0_id17_im14.bmp,['Im_PatrickDempsey.png', 'Im_DanielCraig.png', 'Im_RyanGosling.png', 'Im_BradPitt.png', 'Im_LeonardoDiCaprio.png', 'Im_DanielRadcliffe.png', 'Im_RobertDowneyJr.png', 'Im_GeorgeClooney.png', 'Im_RobertPattinson.png', 'Im_OrlandoBloom.png'],diff,1,0.4165830999991158,22,85.71428571428571,
BRNA1411,8,pos,120,pos120_id17_im8.bmp_pos120_id16_im19.bmp,['Im_PatrickDempsey.png', 'Im_DanielCraig.png', 'Im_RyanGosling.png', 'Im_BradPitt.png', 'Im_LeonardoDiCaprio.png', 'Im_DanielRadcliffe.png', 'Im_RobertDowneyJr.png', 'Im_GeorgeClooney.png', 'Im_RobertPattinson.png', 'Im_OrlandoBloom.png'],diff,1,0.4249604999968142,23,85.71428571428571,
BRNA1411,8,pos,0,pos0_id19_im8.bmp_pos0_id16_im19.bmp,['Im_PatrickDempsey.png', 'Im_DanielCraig.png', 'Im_RyanGosling.png', 'Im_BradPitt.png', 'Im_LeonardoDiCaprio.png', 'Im_DanielRadcliffe.png', 'Im_RobertDowneyJr.png', 'Im_GeorgeClooney.png', 'Im_RobertPattinson.png', 'Im_OrlandoBloom.png'],diff,1,0.5831906999992498,24,85.71428571428571,
BRNA1411,8,pos,30,pos30_id20_im12.bmp_pos30_id17_im14.bmp,['Im_PatrickDempsey.png', 'Im_DanielCraig.png', 'Im_RyanGosling.png', 'Im_BradPitt.png', 'Im_LeonardoDiCaprio.png', 'Im_DanielRadcliffe.png', 'Im_RobertDowneyJr.png', 'Im_GeorgeClooney.png', 'Im_RobertPattinson.png', 'Im_OrlandoBloom.png'],diff,1,0.41680360000100336,25,85.71428571428571,
BRNA1411,8,pos,fs,posfs_id17_im8.bmp_posfs_id5_im10.bmp,['Im_PatrickDempsey.png', 'Im_DanielCraig.png', 'Im_RyanGosling.png', 'Im_BradPitt.png', 'Im_LeonardoDiCaprio.png', 'Im_DanielRadcliffe.png', 'Im_RobertDowneyJr.png', 'Im_GeorgeClooney.png', 'Im_RobertPattinson.png', 'Im_OrlandoBloom.png'],diff,1,0.4250833000005514,26,85.71428571428571,
BRNA1411,8,pos,150,pos150_id16_im19.bmp_pos150_id17_im8.bmp,['Im_PatrickDempsey.png', 'Im_DanielCraig.png', 'Im_RyanGosling.png', 'Im_BradPitt.png', 'Im_LeonardoDiCaprio.png', 'Im_DanielRadcliffe.png', 'Im_RobertDowneyJr.png', 'Im_GeorgeClooney.png', 'Im_RobertPattinson.png', 'Im_OrlandoBloom.png'],diff,1,0.6666824999992969,27,85.71428571428571,
BRNA1411,8,pos,60,pos60_id7_im26.bmp_pos60_id7_im15.bmp,['Im_PatrickDempsey.png', 'Im_DanielCraig.png', 'Im_RyanGosling.png', 'Im_BradPitt.png', 'Im_LeonardoDiCaprio.png', 'Im_DanielRadcliffe.png', 'Im_RobertDowneyJr.png', 'Im_GeorgeClooney.png', 'Im_RobertPattinson.png', 'Im_OrlandoBloom.png'],same,1,0.7001944000003277,28,85.71428571428571,
BRNA1411,8,pos,30,pos30_id3_im8.bmp_pos30_id3_im6.bmp,['Im_PatrickDempsey.png', 'Im_DanielCraig.png', 'Im_RyanGosling.png', 'Im_BradPitt.png', 'Im_LeonardoDiCaprio.png', 'Im_DanielRadcliffe.png', 'Im_RobertDowneyJr.png', 'Im_GeorgeClooney.png', 'Im_RobertPattinson.png', 'Im_OrlandoBloom.png'],same,1,0.41674549999879673,29,85.71428571428571,
BRNA1411,8,pos,90,pos90_id19_im4.bmp_pos90_id19_im8.bmp,['Im_PatrickDempsey.png', 'Im_DanielCraig.png', 'Im_RyanGosling.png', 'Im_BradPitt.png', 'Im_LeonardoDiCaprio.png', 'Im_DanielRadcliffe.png', 'Im_RobertDowneyJr.png', 'Im_GeorgeClooney.png', 'Im_RobertPattinson.png', 'Im_OrlandoBloom.png'],same,1,0.7836151000010432,30,85.71428571428571,
