Sujet,Trial,Condition,Filter,Imname,Actor0,Actor1,Actor2,Actor3,Actor4,Actor5,Actor6,Actor7,Actor8,Actor9,Answer,Accu,RT,Score,Scoreperc, 
CHPA0602,_,posfs_ElijahWood_im19.bmp,ElijahWood,PatrickDempsey,PatrickDempsey,RyanReynolds,BenAffleck,OrlandoBloom,,,,,4,16.78375750000123,
CHPA0602,_,posfs_KeanuReeves_im1.bmp,KeanuReeves,LeonardoDiCaprio,LeonardoDiCaprio,BradPitt,JustinTimberlake,RobertPattinson,,,,,posfs_KeanuReeves_im1.bmp,5.638898000001063,
CHPA0602,_,posfs_BenStiller_im16.bmp,BenStiller,KeanuReeves,KeanuReeves,MattDamon,JustinTimberlake,BenAffleck,,,,,posfs_BenStiller_im16.bmp,7.562950200001069,
CHPA0602,_,posfs_PatrickDempsey_im8.bmp,PatrickDempsey,BenStiller,BenStiller,MattDamon,BradPitt,RyanGosling,,,,,3,5.6342379999987315,
CHPA0602,_,posfs_KeanuReeves_im2.bmp,KeanuReeves,HughJackman,HughJackman,GeorgeClooney,RobertPattinson,BenStiller,,,,,4,3.1593216999972356,
CHPA0602,_,posfs_DanielCraig_im7.bmp,DanielCraig,BenAffleck,BenAffleck,KeanuReeves,PatrickDempsey,DanielRadcliffe,,,,,posfs_DanielCraig_im7.bmp,10.151166399999056,
CHPA0602,_,posfs_BenAffleck_im24.bmp,BenAffleck,OrlandoBloom,OrlandoBloom,DanielRadcliffe,MattDamon,GeorgeClooney,,,,,4,1.9265181000009761,
CHPA0602,_,posfs_GeorgeClooney_im23.bmp,GeorgeClooney,BenAffleck,BenAffleck,MattDamon,OrlandoBloom,KeanuReeves,,,,,posfs_GeorgeClooney_im23.bmp,1.9433543000013742,
CHPA0602,_,posfs_RobertDowneyJr_im19.bmp,RobertDowneyJr,DanielRadcliffe,DanielRadcliffe,DanielCraig,PatrickDempsey,BenStiller,,,,,4,2.6792294000006223,
CHPA0602,_,posfs_DanielRadcliffe_im1.bmp,DanielRadcliffe,BradPitt,BradPitt,LeonardoDiCaprio,BenStiller,RobertPattinson,,,,,posfs_DanielRadcliffe_im1.bmp,1.7221673000021838,
CHPA0602,_,posfs_RyanGosling_im12.bmp,RyanGosling,PatrickDempsey,PatrickDempsey,RyanReynolds,BradPitt,DanielCraig,,,,,posfs_RyanGosling_im12.bmp,1.5404865999989852,
CHPA0602,_,posfs_RobertPattinson_im4.bmp,RobertPattinson,DanielRadcliffe,DanielRadcliffe,RyanGosling,MattDamon,ElijahWood,,,,,posfs_RobertPattinson_im4.bmp,1.8043833000010636,
CHPA0602,_,posfs_BenStiller_im7.bmp,BenStiller,LeonardoDiCaprio,LeonardoDiCaprio,RyanGosling,DanielCraig,PatrickDempsey,,,,,3,5.1938989000009315,
CHPA0602,_,posfs_PatrickDempsey_im14.bmp,PatrickDempsey,KeanuReeves,KeanuReeves,RobertDowneyJr,HughJackman,RyanReynolds,,,,,4,1.9291521000013745,
CHPA0602,_,posfs_JustinTimberlake_im18.bmp,JustinTimberlake,ElijahWood,ElijahWood,RyanGosling,DanielRadcliffe,LeonardoDiCaprio,,,,,posfs_JustinTimberlake_im18.bmp,4.53756059999796,
CHPA0602,_,posfs_HughJackman_im21.bmp,HughJackman,OrlandoBloom,OrlandoBloom,GeorgeClooney,RyanGosling,BradPitt,,,,,4,2.930376399999659,
CHPA0602,_,posfs_BradPitt_im6.bmp,BradPitt,RyanGosling,RyanGosling,RobertDowneyJr,OrlandoBloom,HughJackman,,,,,posfs_BradPitt_im6.bmp,1.779661100001249,
CHPA0602,_,posfs_RyanGosling_im25.bmp,RyanGosling,DanielCraig,DanielCraig,KeanuReeves,BradPitt,MattDamon,,,,,posfs_RyanGosling_im25.bmp,9.050365600000077,
CHPA0602,_,posfs_RobertDowneyJr_im18.bmp,RobertDowneyJr,MattDamon,MattDamon,BradPitt,GeorgeClooney,JustinTimberlake,,,,,posfs_RobertDowneyJr_im18.bmp,2.846545000000333,
CHPA0602,_,posfs_JustinTimberlake_im1.bmp,JustinTimberlake,BenAffleck,BenAffleck,ElijahWood,PatrickDempsey,HughJackman,,,,,posfs_JustinTimberlake_im1.bmp,2.6428856999991694,
CHPA0602,_,posfs_BenAffleck_im8.bmp,BenAffleck,OrlandoBloom,OrlandoBloom,RobertPattinson,RyanReynolds,MattDamon,,,,,4,1.462734000000637,
CHPA0602,_,posfs_HughJackman_im13.bmp,HughJackman,BradPitt,BradPitt,PatrickDempsey,MattDamon,RobertPattinson,,,,,4,1.2001220999991347,
CHPA0602,_,posfs_RobertDowneyJr_im11.bmp,RobertDowneyJr,HughJackman,HughJackman,RyanGosling,JustinTimberlake,BenStiller,,,,,4,2.4379666999993788,
CHPA0602,_,posfs_GeorgeClooney_im15.bmp,GeorgeClooney,JustinTimberlake,JustinTimberlake,DanielRadcliffe,DanielCraig,BenAffleck,,,,,posfs_GeorgeClooney_im15.bmp,2.5165430000015476,
CHPA0602,_,posfs_PatrickDempsey_im9.bmp,PatrickDempsey,HughJackman,HughJackman,RobertDowneyJr,KeanuReeves,BenAffleck,,,,,4,2.333169399997132,
CHPA0602,_,posfs_JustinTimberlake_im4.bmp,JustinTimberlake,BenStiller,BenStiller,RobertDowneyJr,OrlandoBloom,PatrickDempsey,,,,,posfs_JustinTimberlake_im4.bmp,1.6612878999985696,
CHPA0602,_,posfs_KeanuReeves_im8.bmp,KeanuReeves,BenAffleck,BenAffleck,LeonardoDiCaprio,RyanGosling,GeorgeClooney,,,,,4,34.67272199999934,
CHPA0602,_,posfs_GeorgeClooney_im14.bmp,GeorgeClooney,KeanuReeves,KeanuReeves,LeonardoDiCaprio,PatrickDempsey,RobertPattinson,,,,,posfs_GeorgeClooney_im14.bmp,1.9242521000014676,
CHPA0602,_,posfs_RobertPattinson_im8.bmp,RobertPattinson,DanielRadcliffe,DanielRadcliffe,OrlandoBloom,MattDamon,RyanGosling,,,,,posfs_RobertPattinson_im8.bmp,0.9095793999986199,
CHPA0602,_,posfs_LeonardoDiCaprio_im10.bmp,LeonardoDiCaprio,BenStiller,BenStiller,RyanGosling,PatrickDempsey,RobertPattinson,,,,,posfs_LeonardoDiCaprio_im10.bmp,2.4386481000001368,
CHPA0602,_,posfs_RyanReynolds_im17.bmp,RyanReynolds,PatrickDempsey,PatrickDempsey,ElijahWood,BenStiller,BradPitt,,,,,4,1.395137600000453,
CHPA0602,_,posfs_RyanReynolds_im3.bmp,RyanReynolds,BenAffleck,BenAffleck,DanielCraig,MattDamon,OrlandoBloom,,,,,4,0.8318369000007806,
CHPA0602,_,posfs_HughJackman_im18.bmp,HughJackman,LeonardoDiCaprio,LeonardoDiCaprio,BradPitt,RyanGosling,DanielRadcliffe,,,,,4,1.1329903000005288,
CHPA0602,_,posfs_LeonardoDiCaprio_im24.bmp,LeonardoDiCaprio,DanielCraig,DanielCraig,BradPitt,PatrickDempsey,RyanGosling,,,,,posfs_LeonardoDiCaprio_im24.bmp,1.3504696999989392,
CHPA0602,_,posfs_DanielCraig_im20.bmp,DanielCraig,BenStiller,BenStiller,BradPitt,LeonardoDiCaprio,OrlandoBloom,,,,,posfs_DanielCraig_im20.bmp,3.3106554000005417,
CHPA0602,_,posfs_JustinTimberlake_im17.bmp,JustinTimberlake,MattDamon,MattDamon,LeonardoDiCaprio,ElijahWood,GeorgeClooney,,,,,posfs_JustinTimberlake_im17.bmp,1.184358999998949,
CHPA0602,_,posfs_RobertPattinson_im27.bmp,RobertPattinson,RyanReynolds,RyanReynolds,OrlandoBloom,MattDamon,KeanuReeves,,,,,posfs_RobertPattinson_im27.bmp,1.1906503999998677,
CHPA0602,_,posfs_MattDamon_im18.bmp,MattDamon,DanielCraig,DanielCraig,PatrickDempsey,DanielRadcliffe,ElijahWood,,,,,posfs_MattDamon_im18.bmp,2.6210546999973303,
CHPA0602,_,posfs_PatrickDempsey_im16.bmp,PatrickDempsey,BradPitt,BradPitt,DanielCraig,DanielRadcliffe,LeonardoDiCaprio,,,,,4,2.1384701000024506,
CHPA0602,_,posfs_RobertDowneyJr_im4.bmp,RobertDowneyJr,RyanGosling,RyanGosling,BradPitt,HughJackman,ElijahWood,,,,,4,0.8977016999997431,
CHPA0602,_,posfs_BenStiller_im2.bmp,BenStiller,RobertDowneyJr,RobertDowneyJr,GeorgeClooney,DanielCraig,RyanReynolds,,,,,4,0.8351265000019339,
CHPA0602,_,posfs_OrlandoBloom_im3.bmp,OrlandoBloom,RobertPattinson,RobertPattinson,RyanReynolds,RyanGosling,RobertDowneyJr,,,,,4,1.5172198000000208,
CHPA0602,_,posfs_ElijahWood_im12.bmp,ElijahWood,DanielRadcliffe,DanielRadcliffe,RobertDowneyJr,GeorgeClooney,BenStiller,,,,,4,4.185075500001403,
CHPA0602,_,posfs_BenStiller_im3.bmp,BenStiller,ElijahWood,ElijahWood,JustinTimberlake,BradPitt,RobertDowneyJr,,,,,posfs_BenStiller_im3.bmp,6.304940400001215,
CHPA0602,_,posfs_BenAffleck_im4.bmp,BenAffleck,BenStiller,BenStiller,KeanuReeves,ElijahWood,PatrickDempsey,,,,,4,2.3850396999987424,
CHPA0602,_,posfs_DanielRadcliffe_im20.bmp,DanielRadcliffe,GeorgeClooney,GeorgeClooney,ElijahWood,RobertPattinson,KeanuReeves,,,,,posfs_DanielRadcliffe_im20.bmp,2.4957615999992413,
CHPA0602,_,posfs_ElijahWood_im23.bmp,ElijahWood,BenAffleck,BenAffleck,RyanGosling,BenStiller,RobertDowneyJr,,,,,4,1.194105299997318,
CHPA0602,_,posfs_RyanReynolds_im16.bmp,RyanReynolds,OrlandoBloom,OrlandoBloom,RobertPattinson,RyanGosling,LeonardoDiCaprio,,,,,posfs_RyanReynolds_im16.bmp,3.640249899999617,
CHPA0602,_,posfs_MattDamon_im16.bmp,MattDamon,LeonardoDiCaprio,LeonardoDiCaprio,RyanGosling,KeanuReeves,BenStiller,,,,,posfs_MattDamon_im16.bmp,4.2364396999983,
CHPA0602,_,posfs_BradPitt_im8.bmp,BradPitt,BenStiller,BenStiller,BenAffleck,OrlandoBloom,RobertPattinson,,,,,posfs_BradPitt_im8.bmp,2.841050900002301,
CHPA0602,_,posfs_BenAffleck_im21.bmp,BenAffleck,RyanGosling,RyanGosling,GeorgeClooney,ElijahWood,BradPitt,,,,,4,1.2687351999993552,
CHPA0602,_,posfs_HughJackman_im20.bmp,HughJackman,JustinTimberlake,JustinTimberlake,RyanReynolds,DanielCraig,OrlandoBloom,,,,,4,0.9269080000012764,
CHPA0602,_,posfs_LeonardoDiCaprio_im15.bmp,LeonardoDiCaprio,RobertPattinson,RobertPattinson,DanielCraig,BradPitt,DanielRadcliffe,,,,,posfs_LeonardoDiCaprio_im15.bmp,2.4396439000011014,
CHPA0602,_,posfs_OrlandoBloom_im19.bmp,OrlandoBloom,ElijahWood,ElijahWood,DanielCraig,PatrickDempsey,LeonardoDiCaprio,,,,,4,2.8368453000002773,
CHPA0602,_,posfs_GeorgeClooney_im26.bmp,GeorgeClooney,LeonardoDiCaprio,LeonardoDiCaprio,RobertPattinson,BenAffleck,ElijahWood,,,,,posfs_GeorgeClooney_im26.bmp,3.2574864999987767,
CHPA0602,_,posfs_OrlandoBloom_im30.bmp,OrlandoBloom,JustinTimberlake,JustinTimberlake,BradPitt,KeanuReeves,RyanGosling,,,,,posfs_OrlandoBloom_im30.bmp,12.908519600001455,
CHPA0602,_,posfs_DanielCraig_im8.bmp,DanielCraig,RobertPattinson,RobertPattinson,BenAffleck,BenStiller,LeonardoDiCaprio,,,,,2,2.5186734999988403,
CHPA0602,_,posfs_MattDamon_im24.bmp,MattDamon,RobertDowneyJr,RobertDowneyJr,BradPitt,HughJackman,RobertPattinson,,,,,1,5.088321899998846,
CHPA0602,_,posfs_MattDamon_im9.bmp,MattDamon,BradPitt,BradPitt,HughJackman,DanielCraig,LeonardoDiCaprio,,,,,0,3.650752300000022,
CHPA0602,_,posfs_ElijahWood_im18.bmp,ElijahWood,PatrickDempsey,PatrickDempsey,JustinTimberlake,RobertPattinson,RobertDowneyJr,,,,,4,3.4629114999988815,
CHPA0602,_,posfs_OrlandoBloom_im2.bmp,OrlandoBloom,BenAffleck,BenAffleck,RyanGosling,MattDamon,RobertDowneyJr,,,,,posfs_OrlandoBloom_im2.bmp,1.6982116000035603,
CHPA0602,_,posfs_DanielRadcliffe_im10.bmp,DanielRadcliffe,LeonardoDiCaprio,LeonardoDiCaprio,KeanuReeves,ElijahWood,MattDamon,,,,,posfs_DanielRadcliffe_im10.bmp,2.4448713999991014,
CHPA0602,_,posfs_KeanuReeves_im10.bmp,KeanuReeves,MattDamon,MattDamon,OrlandoBloom,PatrickDempsey,LeonardoDiCaprio,,,,,4,2.233430700001918,
CHPA0602,_,posfs_LeonardoDiCaprio_im29.bmp,LeonardoDiCaprio,RobertDowneyJr,RobertDowneyJr,PatrickDempsey,OrlandoBloom,DanielCraig,,,,,posfs_LeonardoDiCaprio_im29.bmp,1.8853221000026679,
CHPA0602,_,posfs_RobertPattinson_im30.bmp,RobertPattinson,DanielRadcliffe,DanielRadcliffe,DanielCraig,BenAffleck,JustinTimberlake,,,,,posfs_RobertPattinson_im30.bmp,1.0637900000001537,
CHPA0602,_,posfs_RyanGosling_im3.bmp,RyanGosling,RobertPattinson,RobertPattinson,PatrickDempsey,DanielCraig,JustinTimberlake,,,,,posfs_RyanGosling_im3.bmp,4.458792199999152,
CHPA0602,_,posfs_DanielCraig_im15.bmp,DanielCraig,BenAffleck,BenAffleck,MattDamon,BenStiller,HughJackman,,,,,2,3.462771200000134,
CHPA0602,_,posfs_DanielRadcliffe_im8.bmp,DanielRadcliffe,MattDamon,MattDamon,PatrickDempsey,RyanReynolds,RobertDowneyJr,,,,,posfs_DanielRadcliffe_im8.bmp,2.4911281000022427,
CHPA0602,_,posfs_BradPitt_im14.bmp,BradPitt,MattDamon,MattDamon,DanielCraig,OrlandoBloom,LeonardoDiCaprio,,,,,posfs_BradPitt_im14.bmp,2.644680099998368,
CHPA0602,_,posfs_BradPitt_im17.bmp,BradPitt,PatrickDempsey,PatrickDempsey,LeonardoDiCaprio,JustinTimberlake,HughJackman,,,,,posfs_BradPitt_im17.bmp,1.8885539999973844,
CHPA0602,_,posfs_RyanReynolds_im22.bmp,RyanReynolds,JustinTimberlake,JustinTimberlake,BradPitt,KeanuReeves,LeonardoDiCaprio,,,,,4,2.074600099997042,
CHPA0602,_,posfs_RyanGosling_im30.bmp,RyanGosling,RyanReynolds,RyanReynolds,DanielCraig,PatrickDempsey,RobertPattinson,,,,,4,17.12578570000187,
CHPA0602,train,pos,fs,posfs_id3_im17.bmp_posfs_id13_im29.bmp,['Im_MattDamon.png', 'Im_OrlandoBloom.png', 'Im_BradPitt.png', 'Im_DanielCraig.png', 'Im_GeorgeClooney.png', 'Im_LeonardoDiCaprio.png', 'Im_RobertPattinson.png', 'Im_DanielRadcliffe.png', 'Im_JustinTimberlake.png', 'Im_BenStiller.png'],diff,1,1.7418244000000414,1,0,
CHPA0602,train,pos,fs,posfs_id13_im10.bmp_posfs_id13_im29.bmp,['Im_MattDamon.png', 'Im_OrlandoBloom.png', 'Im_BradPitt.png', 'Im_DanielCraig.png', 'Im_GeorgeClooney.png', 'Im_LeonardoDiCaprio.png', 'Im_RobertPattinson.png', 'Im_DanielRadcliffe.png', 'Im_JustinTimberlake.png', 'Im_BenStiller.png'],same,1,1.3337066999993112,2,0,
CHPA0602,train,pos,fs,posfs_id10_im18.bmp_posfs_id10_im17.bmp,['Im_MattDamon.png', 'Im_OrlandoBloom.png', 'Im_BradPitt.png', 'Im_DanielCraig.png', 'Im_GeorgeClooney.png', 'Im_LeonardoDiCaprio.png', 'Im_RobertPattinson.png', 'Im_DanielRadcliffe.png', 'Im_JustinTimberlake.png', 'Im_BenStiller.png'],same,1,0.7836602999996103,3,0,
CHPA0602,train,pos,fs,posfs_id10_im17.bmp_posfs_id3_im6.bmp,['Im_MattDamon.png', 'Im_OrlandoBloom.png', 'Im_BradPitt.png', 'Im_DanielCraig.png', 'Im_GeorgeClooney.png', 'Im_LeonardoDiCaprio.png', 'Im_RobertPattinson.png', 'Im_DanielRadcliffe.png', 'Im_JustinTimberlake.png', 'Im_BenStiller.png'],diff,1,0.5416418000022531,4,0,
CHPA0602,train,pos,fs,posfs_id19_im27.bmp_posfs_id4_im15.bmp,['Im_MattDamon.png', 'Im_OrlandoBloom.png', 'Im_BradPitt.png', 'Im_DanielCraig.png', 'Im_GeorgeClooney.png', 'Im_LeonardoDiCaprio.png', 'Im_RobertPattinson.png', 'Im_DanielRadcliffe.png', 'Im_JustinTimberlake.png', 'Im_BenStiller.png'],diff,1,0.5250634000003629,5,0,
CHPA0602,train,pos,fs,posfs_id10_im1.bmp_posfs_id5_im1.bmp,['Im_MattDamon.png', 'Im_OrlandoBloom.png', 'Im_BradPitt.png', 'Im_DanielCraig.png', 'Im_GeorgeClooney.png', 'Im_LeonardoDiCaprio.png', 'Im_RobertPattinson.png', 'Im_DanielRadcliffe.png', 'Im_JustinTimberlake.png', 'Im_BenStiller.png'],diff,1,0.666547000000719,6,0,
CHPA0602,train,pos,fs,posfs_id14_im16.bmp_posfs_id14_im18.bmp,['Im_MattDamon.png', 'Im_OrlandoBloom.png', 'Im_BradPitt.png', 'Im_DanielCraig.png', 'Im_GeorgeClooney.png', 'Im_LeonardoDiCaprio.png', 'Im_RobertPattinson.png', 'Im_DanielRadcliffe.png', 'Im_JustinTimberlake.png', 'Im_BenStiller.png'],same,1,0.583484499999031,7,0,
CHPA0602,train,pos,fs,posfs_id19_im27.bmp_posfs_id13_im15.bmp,['Im_MattDamon.png', 'Im_OrlandoBloom.png', 'Im_BradPitt.png', 'Im_DanielCraig.png', 'Im_GeorgeClooney.png', 'Im_LeonardoDiCaprio.png', 'Im_RobertPattinson.png', 'Im_DanielRadcliffe.png', 'Im_JustinTimberlake.png', 'Im_BenStiller.png'],diff,1,0.6913866999966558,8,0,
CHPA0602,train,pos,fs,posfs_id16_im3.bmp_posfs_id16_im2.bmp,['Im_MattDamon.png', 'Im_OrlandoBloom.png', 'Im_BradPitt.png', 'Im_DanielCraig.png', 'Im_GeorgeClooney.png', 'Im_LeonardoDiCaprio.png', 'Im_RobertPattinson.png', 'Im_DanielRadcliffe.png', 'Im_JustinTimberlake.png', 'Im_BenStiller.png'],same,1,0.5417876999999862,9,0,
CHPA0602,train,pos,fs,posfs_id19_im8.bmp_posfs_id19_im4.bmp,['Im_MattDamon.png', 'Im_OrlandoBloom.png', 'Im_BradPitt.png', 'Im_DanielCraig.png', 'Im_GeorgeClooney.png', 'Im_LeonardoDiCaprio.png', 'Im_RobertPattinson.png', 'Im_DanielRadcliffe.png', 'Im_JustinTimberlake.png', 'Im_BenStiller.png'],same,1,0.5084849000013492,10,0,
CHPA0602,train,pos,fs,posfs_id14_im16.bmp_posfs_id14_im24.bmp,['Im_MattDamon.png', 'Im_OrlandoBloom.png', 'Im_BradPitt.png', 'Im_DanielCraig.png', 'Im_GeorgeClooney.png', 'Im_LeonardoDiCaprio.png', 'Im_RobertPattinson.png', 'Im_DanielRadcliffe.png', 'Im_JustinTimberlake.png', 'Im_BenStiller.png'],same,1,0.6248522000023513,11,0,
CHPA0602,train,pos,fs,posfs_id19_im4.bmp_posfs_id19_im27.bmp,['Im_MattDamon.png', 'Im_OrlandoBloom.png', 'Im_BradPitt.png', 'Im_DanielCraig.png', 'Im_GeorgeClooney.png', 'Im_LeonardoDiCaprio.png', 'Im_RobertPattinson.png', 'Im_DanielRadcliffe.png', 'Im_JustinTimberlake.png', 'Im_BenStiller.png'],same,1,0.5498771999991732,12,0,
CHPA0602,train,pos,fs,posfs_id13_im15.bmp_posfs_id16_im19.bmp,['Im_MattDamon.png', 'Im_OrlandoBloom.png', 'Im_BradPitt.png', 'Im_DanielCraig.png', 'Im_GeorgeClooney.png', 'Im_LeonardoDiCaprio.png', 'Im_RobertPattinson.png', 'Im_DanielRadcliffe.png', 'Im_JustinTimberlake.png', 'Im_BenStiller.png'],diff,1,0.5666218999976991,13,0,
CHPA0602,train,pos,fs,posfs_id5_im10.bmp_posfs_id5_im20.bmp,['Im_MattDamon.png', 'Im_OrlandoBloom.png', 'Im_BradPitt.png', 'Im_DanielCraig.png', 'Im_GeorgeClooney.png', 'Im_LeonardoDiCaprio.png', 'Im_RobertPattinson.png', 'Im_DanielRadcliffe.png', 'Im_JustinTimberlake.png', 'Im_BenStiller.png'],same,1,0.6835031000009621,14,0,
CHPA0602,train,pos,fs,posfs_id16_im3.bmp_posfs_id3_im6.bmp,['Im_MattDamon.png', 'Im_OrlandoBloom.png', 'Im_BradPitt.png', 'Im_DanielCraig.png', 'Im_GeorgeClooney.png', 'Im_LeonardoDiCaprio.png', 'Im_RobertPattinson.png', 'Im_DanielRadcliffe.png', 'Im_JustinTimberlake.png', 'Im_BenStiller.png'],diff,1,0.5835444999975152,15,0,
CHPA0602,train,pos,fs,posfs_id2_im3.bmp_posfs_id2_im2.bmp,['Im_MattDamon.png', 'Im_OrlandoBloom.png', 'Im_BradPitt.png', 'Im_DanielCraig.png', 'Im_GeorgeClooney.png', 'Im_LeonardoDiCaprio.png', 'Im_RobertPattinson.png', 'Im_DanielRadcliffe.png', 'Im_JustinTimberlake.png', 'Im_BenStiller.png'],same,1,0.7498969000007492,16,0,
CHPA0602,train,pos,fs,posfs_id10_im18.bmp_posfs_id13_im29.bmp,['Im_MattDamon.png', 'Im_OrlandoBloom.png', 'Im_BradPitt.png', 'Im_DanielCraig.png', 'Im_GeorgeClooney.png', 'Im_LeonardoDiCaprio.png', 'Im_RobertPattinson.png', 'Im_DanielRadcliffe.png', 'Im_JustinTimberlake.png', 'Im_BenStiller.png'],diff,1,0.5249876000016229,17,0,
CHPA0602,train,pos,fs,posfs_id10_im18.bmp_posfs_id2_im3.bmp,['Im_MattDamon.png', 'Im_OrlandoBloom.png', 'Im_BradPitt.png', 'Im_DanielCraig.png', 'Im_GeorgeClooney.png', 'Im_LeonardoDiCaprio.png', 'Im_RobertPattinson.png', 'Im_DanielRadcliffe.png', 'Im_JustinTimberlake.png', 'Im_BenStiller.png'],diff,1,0.641620200000034,18,0,
CHPA0602,train,pos,fs,posfs_id4_im20.bmp_posfs_id7_im14.bmp,['Im_MattDamon.png', 'Im_OrlandoBloom.png', 'Im_BradPitt.png', 'Im_DanielCraig.png', 'Im_GeorgeClooney.png', 'Im_LeonardoDiCaprio.png', 'Im_RobertPattinson.png', 'Im_DanielRadcliffe.png', 'Im_JustinTimberlake.png', 'Im_BenStiller.png'],diff,1,0.9085089000000153,19,0,
CHPA0602,train,pos,fs,posfs_id4_im7.bmp_posfs_id4_im15.bmp,['Im_MattDamon.png', 'Im_OrlandoBloom.png', 'Im_BradPitt.png', 'Im_DanielCraig.png', 'Im_GeorgeClooney.png', 'Im_LeonardoDiCaprio.png', 'Im_RobertPattinson.png', 'Im_DanielRadcliffe.png', 'Im_JustinTimberlake.png', 'Im_BenStiller.png'],same,1,0.6249564999998256,20,0,
CHPA0602,train,inv,fs,posfs_id3_im6.bmp_posfs_id3_im17.bmp,['Im_MattDamon.png', 'Im_OrlandoBloom.png', 'Im_BradPitt.png', 'Im_DanielCraig.png', 'Im_GeorgeClooney.png', 'Im_LeonardoDiCaprio.png', 'Im_RobertPattinson.png', 'Im_DanielRadcliffe.png', 'Im_JustinTimberlake.png', 'Im_BenStiller.png'],same,1,1.4499935999992886,1,0,
CHPA0602,train,inv,fs,posfs_id4_im7.bmp_posfs_id4_im15.bmp,['Im_MattDamon.png', 'Im_OrlandoBloom.png', 'Im_BradPitt.png', 'Im_DanielCraig.png', 'Im_GeorgeClooney.png', 'Im_LeonardoDiCaprio.png', 'Im_RobertPattinson.png', 'Im_DanielRadcliffe.png', 'Im_JustinTimberlake.png', 'Im_BenStiller.png'],same,1,0.425087399999029,2,0,
CHPA0602,train,inv,fs,posfs_id13_im15.bmp_posfs_id13_im29.bmp,['Im_MattDamon.png', 'Im_OrlandoBloom.png', 'Im_BradPitt.png', 'Im_DanielCraig.png', 'Im_GeorgeClooney.png', 'Im_LeonardoDiCaprio.png', 'Im_RobertPattinson.png', 'Im_DanielRadcliffe.png', 'Im_JustinTimberlake.png', 'Im_BenStiller.png'],same,1,1.0417514000000665,3,0,
CHPA0602,train,pos,fs,posfs_id10_im1.bmp_posfs_id10_im17.bmp,['Im_MattDamon.png', 'Im_OrlandoBloom.png', 'Im_BradPitt.png', 'Im_DanielCraig.png', 'Im_GeorgeClooney.png', 'Im_LeonardoDiCaprio.png', 'Im_RobertPattinson.png', 'Im_DanielRadcliffe.png', 'Im_JustinTimberlake.png', 'Im_BenStiller.png'],same,1,0.4166689000012411,4,0,
CHPA0602,train,pos,fs,posfs_id3_im17.bmp_posfs_id10_im1.bmp,['Im_MattDamon.png', 'Im_OrlandoBloom.png', 'Im_BradPitt.png', 'Im_DanielCraig.png', 'Im_GeorgeClooney.png', 'Im_LeonardoDiCaprio.png', 'Im_RobertPattinson.png', 'Im_DanielRadcliffe.png', 'Im_JustinTimberlake.png', 'Im_BenStiller.png'],diff,1,0.4333972000022186,5,0,
CHPA0602,train,inv,fs,posfs_id4_im20.bmp_posfs_id4_im15.bmp,['Im_MattDamon.png', 'Im_OrlandoBloom.png', 'Im_BradPitt.png', 'Im_DanielCraig.png', 'Im_GeorgeClooney.png', 'Im_LeonardoDiCaprio.png', 'Im_RobertPattinson.png', 'Im_DanielRadcliffe.png', 'Im_JustinTimberlake.png', 'Im_BenStiller.png'],same,1,0.4167747999999847,6,0,
CHPA0602,train,inv,fs,posfs_id3_im17.bmp_posfs_id10_im1.bmp,['Im_MattDamon.png', 'Im_OrlandoBloom.png', 'Im_BradPitt.png', 'Im_DanielCraig.png', 'Im_GeorgeClooney.png', 'Im_LeonardoDiCaprio.png', 'Im_RobertPattinson.png', 'Im_DanielRadcliffe.png', 'Im_JustinTimberlake.png', 'Im_BenStiller.png'],diff,1,0.4336026999990281,7,0,
CHPA0602,train,pos,fs,posfs_id10_im18.bmp_posfs_id2_im3.bmp,['Im_MattDamon.png', 'Im_OrlandoBloom.png', 'Im_BradPitt.png', 'Im_DanielCraig.png', 'Im_GeorgeClooney.png', 'Im_LeonardoDiCaprio.png', 'Im_RobertPattinson.png', 'Im_DanielRadcliffe.png', 'Im_JustinTimberlake.png', 'Im_BenStiller.png'],diff,1,0.40838929999881657,8,0,
CHPA0602,train,neg,fs,negfs_id4_im15.bmp_negfs_id4_im20.bmp,['Im_MattDamon.png', 'Im_OrlandoBloom.png', 'Im_BradPitt.png', 'Im_DanielCraig.png', 'Im_GeorgeClooney.png', 'Im_LeonardoDiCaprio.png', 'Im_RobertPattinson.png', 'Im_DanielRadcliffe.png', 'Im_JustinTimberlake.png', 'Im_BenStiller.png'],same,1,0.4668768000010459,9,0,
CHPA0602,train,pos,fs,posfs_id16_im3.bmp_posfs_id16_im2.bmp,['Im_MattDamon.png', 'Im_OrlandoBloom.png', 'Im_BradPitt.png', 'Im_DanielCraig.png', 'Im_GeorgeClooney.png', 'Im_LeonardoDiCaprio.png', 'Im_RobertPattinson.png', 'Im_DanielRadcliffe.png', 'Im_JustinTimberlake.png', 'Im_BenStiller.png'],same,1,0.4167349999988801,10,0,
CHPA0602,train,pos,fs,posfs_id10_im17.bmp_posfs_id10_im18.bmp,['Im_MattDamon.png', 'Im_OrlandoBloom.png', 'Im_BradPitt.png', 'Im_DanielCraig.png', 'Im_GeorgeClooney.png', 'Im_LeonardoDiCaprio.png', 'Im_RobertPattinson.png', 'Im_DanielRadcliffe.png', 'Im_JustinTimberlake.png', 'Im_BenStiller.png'],same,1,0.42520539999895846,11,0,
CHPA0602,train,inv,fs,posfs_id5_im20.bmp_posfs_id14_im16.bmp,['Im_MattDamon.png', 'Im_OrlandoBloom.png', 'Im_BradPitt.png', 'Im_DanielCraig.png', 'Im_GeorgeClooney.png', 'Im_LeonardoDiCaprio.png', 'Im_RobertPattinson.png', 'Im_DanielRadcliffe.png', 'Im_JustinTimberlake.png', 'Im_BenStiller.png'],diff,1,0.42503759999817703,12,0,
CHPA0602,train,inv,fs,posfs_id4_im7.bmp_posfs_id16_im2.bmp,['Im_MattDamon.png', 'Im_OrlandoBloom.png', 'Im_BradPitt.png', 'Im_DanielCraig.png', 'Im_GeorgeClooney.png', 'Im_LeonardoDiCaprio.png', 'Im_RobertPattinson.png', 'Im_DanielRadcliffe.png', 'Im_JustinTimberlake.png', 'Im_BenStiller.png'],diff,1,0.42504969999936293,13,0,
CHPA0602,train,inv,fs,posfs_id5_im20.bmp_posfs_id5_im1.bmp,['Im_MattDamon.png', 'Im_OrlandoBloom.png', 'Im_BradPitt.png', 'Im_DanielCraig.png', 'Im_GeorgeClooney.png', 'Im_LeonardoDiCaprio.png', 'Im_RobertPattinson.png', 'Im_DanielRadcliffe.png', 'Im_JustinTimberlake.png', 'Im_BenStiller.png'],same,1,0.9502513999977964,14,0,
CHPA0602,train,inv,fs,posfs_id3_im8.bmp_posfs_id3_im6.bmp,['Im_MattDamon.png', 'Im_OrlandoBloom.png', 'Im_BradPitt.png', 'Im_DanielCraig.png', 'Im_GeorgeClooney.png', 'Im_LeonardoDiCaprio.png', 'Im_RobertPattinson.png', 'Im_DanielRadcliffe.png', 'Im_JustinTimberlake.png', 'Im_BenStiller.png'],same,1,0.4334558000009565,15,0,
CHPA0602,train,pos,fs,posfs_id7_im14.bmp_posfs_id14_im24.bmp,['Im_MattDamon.png', 'Im_OrlandoBloom.png', 'Im_BradPitt.png', 'Im_DanielCraig.png', 'Im_GeorgeClooney.png', 'Im_LeonardoDiCaprio.png', 'Im_RobertPattinson.png', 'Im_DanielRadcliffe.png', 'Im_JustinTimberlake.png', 'Im_BenStiller.png'],diff,1,0.4248383999984071,16,0,
CHPA0602,train,neg,fs,negfs_id10_im1.bmp_negfs_id10_im18.bmp,['Im_MattDamon.png', 'Im_OrlandoBloom.png', 'Im_BradPitt.png', 'Im_DanielCraig.png', 'Im_GeorgeClooney.png', 'Im_LeonardoDiCaprio.png', 'Im_RobertPattinson.png', 'Im_DanielRadcliffe.png', 'Im_JustinTimberlake.png', 'Im_BenStiller.png'],same,1,1.7752269999982673,17,0,
CHPA0602,train,pos,fs,posfs_id3_im17.bmp_posfs_id3_im8.bmp,['Im_MattDamon.png', 'Im_OrlandoBloom.png', 'Im_BradPitt.png', 'Im_DanielCraig.png', 'Im_GeorgeClooney.png', 'Im_LeonardoDiCaprio.png', 'Im_RobertPattinson.png', 'Im_DanielRadcliffe.png', 'Im_JustinTimberlake.png', 'Im_BenStiller.png'],same,1,0.4251509999994596,18,0,
CHPA0602,train,pos,fs,posfs_id19_im8.bmp_posfs_id14_im24.bmp,['Im_MattDamon.png', 'Im_OrlandoBloom.png', 'Im_BradPitt.png', 'Im_DanielCraig.png', 'Im_GeorgeClooney.png', 'Im_LeonardoDiCaprio.png', 'Im_RobertPattinson.png', 'Im_DanielRadcliffe.png', 'Im_JustinTimberlake.png', 'Im_BenStiller.png'],diff,1,0.41662929999802145,19,0,
CHPA0602,train,pos,fs,posfs_id2_im16.bmp_posfs_id7_im15.bmp,['Im_MattDamon.png', 'Im_OrlandoBloom.png', 'Im_BradPitt.png', 'Im_DanielCraig.png', 'Im_GeorgeClooney.png', 'Im_LeonardoDiCaprio.png', 'Im_RobertPattinson.png', 'Im_DanielRadcliffe.png', 'Im_JustinTimberlake.png', 'Im_BenStiller.png'],diff,1,0.4084225999977207,20,0,
CHPA0602,train,neg,90,neg90_id5_im10.bmp_neg90_id14_im18.bmp,['Im_MattDamon.png', 'Im_OrlandoBloom.png', 'Im_BradPitt.png', 'Im_DanielCraig.png', 'Im_GeorgeClooney.png', 'Im_LeonardoDiCaprio.png', 'Im_RobertPattinson.png', 'Im_DanielRadcliffe.png', 'Im_JustinTimberlake.png', 'Im_BenStiller.png'],diff,1,0.42512250000072527,1,0,
CHPA0602,train,neg,120,neg120_id2_im2.bmp_neg120_id2_im3.bmp,['Im_MattDamon.png', 'Im_OrlandoBloom.png', 'Im_BradPitt.png', 'Im_DanielCraig.png', 'Im_GeorgeClooney.png', 'Im_LeonardoDiCaprio.png', 'Im_RobertPattinson.png', 'Im_DanielRadcliffe.png', 'Im_JustinTimberlake.png', 'Im_BenStiller.png'],same,1,0.4333039999983157,2,0,
CHPA0602,train,neg,30,neg30_id3_im8.bmp_neg30_id3_im6.bmp,['Im_MattDamon.png', 'Im_OrlandoBloom.png', 'Im_BradPitt.png', 'Im_DanielCraig.png', 'Im_GeorgeClooney.png', 'Im_LeonardoDiCaprio.png', 'Im_RobertPattinson.png', 'Im_DanielRadcliffe.png', 'Im_JustinTimberlake.png', 'Im_BenStiller.png'],same,1,0.4083199999986391,3,0,
CHPA0602,train,neg,fs,negfs_id4_im15.bmp_negfs_id4_im20.bmp,['Im_MattDamon.png', 'Im_OrlandoBloom.png', 'Im_BradPitt.png', 'Im_DanielCraig.png', 'Im_GeorgeClooney.png', 'Im_LeonardoDiCaprio.png', 'Im_RobertPattinson.png', 'Im_DanielRadcliffe.png', 'Im_JustinTimberlake.png', 'Im_BenStiller.png'],same,1,0.4330450999987079,4,0,
CHPA0602,train,neg,60,neg60_id16_im2.bmp_neg60_id10_im17.bmp,['Im_MattDamon.png', 'Im_OrlandoBloom.png', 'Im_BradPitt.png', 'Im_DanielCraig.png', 'Im_GeorgeClooney.png', 'Im_LeonardoDiCaprio.png', 'Im_RobertPattinson.png', 'Im_DanielRadcliffe.png', 'Im_JustinTimberlake.png', 'Im_BenStiller.png'],diff,1,0.4247256999988167,5,0,
CHPA0602,train,neg,60,neg60_id2_im16.bmp_neg60_id2_im2.bmp,['Im_MattDamon.png', 'Im_OrlandoBloom.png', 'Im_BradPitt.png', 'Im_DanielCraig.png', 'Im_GeorgeClooney.png', 'Im_LeonardoDiCaprio.png', 'Im_RobertPattinson.png', 'Im_DanielRadcliffe.png', 'Im_JustinTimberlake.png', 'Im_BenStiller.png'],diff,0,0.5668509000024642,5,0,
CHPA0602,train,neg,90,neg90_id14_im18.bmp_neg90_id14_im16.bmp,['Im_MattDamon.png', 'Im_OrlandoBloom.png', 'Im_BradPitt.png', 'Im_DanielCraig.png', 'Im_GeorgeClooney.png', 'Im_LeonardoDiCaprio.png', 'Im_RobertPattinson.png', 'Im_DanielRadcliffe.png', 'Im_JustinTimberlake.png', 'Im_BenStiller.png'],same,1,0.4085315999982413,6,0,
CHPA0602,train,neg,0,neg0_id19_im8.bmp_neg0_id14_im24.bmp,['Im_MattDamon.png', 'Im_OrlandoBloom.png', 'Im_BradPitt.png', 'Im_DanielCraig.png', 'Im_GeorgeClooney.png', 'Im_LeonardoDiCaprio.png', 'Im_RobertPattinson.png', 'Im_DanielRadcliffe.png', 'Im_JustinTimberlake.png', 'Im_BenStiller.png'],diff,1,0.4250724999983504,7,0,
CHPA0602,train,neg,120,neg120_id16_im19.bmp_neg120_id3_im8.bmp,['Im_MattDamon.png', 'Im_OrlandoBloom.png', 'Im_BradPitt.png', 'Im_DanielCraig.png', 'Im_GeorgeClooney.png', 'Im_LeonardoDiCaprio.png', 'Im_RobertPattinson.png', 'Im_DanielRadcliffe.png', 'Im_JustinTimberlake.png', 'Im_BenStiller.png'],diff,1,0.4416770000025281,8,0,
CHPA0602,train,neg,fs,negfs_id2_im3.bmp_negfs_id4_im20.bmp,['Im_MattDamon.png', 'Im_OrlandoBloom.png', 'Im_BradPitt.png', 'Im_DanielCraig.png', 'Im_GeorgeClooney.png', 'Im_LeonardoDiCaprio.png', 'Im_RobertPattinson.png', 'Im_DanielRadcliffe.png', 'Im_JustinTimberlake.png', 'Im_BenStiller.png'],same,0,0.441677200000413,8,0,
CHPA0602,train,neg,150,neg150_id2_im2.bmp_neg150_id5_im20.bmp,['Im_MattDamon.png', 'Im_OrlandoBloom.png', 'Im_BradPitt.png', 'Im_DanielCraig.png', 'Im_GeorgeClooney.png', 'Im_LeonardoDiCaprio.png', 'Im_RobertPattinson.png', 'Im_DanielRadcliffe.png', 'Im_JustinTimberlake.png', 'Im_BenStiller.png'],diff,1,0.42508509999970556,9,0,
CHPA0602,train,neg,150,neg150_id19_im4.bmp_neg150_id19_im27.bmp,['Im_MattDamon.png', 'Im_OrlandoBloom.png', 'Im_BradPitt.png', 'Im_DanielCraig.png', 'Im_GeorgeClooney.png', 'Im_LeonardoDiCaprio.png', 'Im_RobertPattinson.png', 'Im_DanielRadcliffe.png', 'Im_JustinTimberlake.png', 'Im_BenStiller.png'],same,1,0.7998510999968858,10,0,
CHPA0602,train,neg,30,neg30_id7_im14.bmp_neg30_id7_im26.bmp,['Im_MattDamon.png', 'Im_OrlandoBloom.png', 'Im_BradPitt.png', 'Im_DanielCraig.png', 'Im_GeorgeClooney.png', 'Im_LeonardoDiCaprio.png', 'Im_RobertPattinson.png', 'Im_DanielRadcliffe.png', 'Im_JustinTimberlake.png', 'Im_BenStiller.png'],diff,0,0.4167287000018405,10,0,
CHPA0602,train,neg,0,neg0_id5_im10.bmp_neg0_id5_im20.bmp,['Im_MattDamon.png', 'Im_OrlandoBloom.png', 'Im_BradPitt.png', 'Im_DanielCraig.png', 'Im_GeorgeClooney.png', 'Im_LeonardoDiCaprio.png', 'Im_RobertPattinson.png', 'Im_DanielRadcliffe.png', 'Im_JustinTimberlake.png', 'Im_BenStiller.png'],diff,0,0.43340939999689,10,0,
CHPA0602,train,inv,0,pos0_id5_im10.bmp_pos0_id5_im1.bmp,['Im_MattDamon.png', 'Im_OrlandoBloom.png', 'Im_BradPitt.png', 'Im_DanielCraig.png', 'Im_GeorgeClooney.png', 'Im_LeonardoDiCaprio.png', 'Im_RobertPattinson.png', 'Im_DanielRadcliffe.png', 'Im_JustinTimberlake.png', 'Im_BenStiller.png'],diff,0,0.8417081000006874,10,0,
CHPA0602,train,inv,90,pos90_id16_im2.bmp_pos90_id4_im7.bmp,['Im_MattDamon.png', 'Im_OrlandoBloom.png', 'Im_BradPitt.png', 'Im_DanielCraig.png', 'Im_GeorgeClooney.png', 'Im_LeonardoDiCaprio.png', 'Im_RobertPattinson.png', 'Im_DanielRadcliffe.png', 'Im_JustinTimberlake.png', 'Im_BenStiller.png'],diff,1,0.6583209000018542,11,0,
CHPA0602,train,inv,0,pos0_id14_im16.bmp_pos0_id2_im16.bmp,['Im_MattDamon.png', 'Im_OrlandoBloom.png', 'Im_BradPitt.png', 'Im_DanielCraig.png', 'Im_GeorgeClooney.png', 'Im_LeonardoDiCaprio.png', 'Im_RobertPattinson.png', 'Im_DanielRadcliffe.png', 'Im_JustinTimberlake.png', 'Im_BenStiller.png'],same,0,0.600161799997295,11,0,
CHPA0602,train,inv,30,pos30_id14_im16.bmp_pos30_id5_im20.bmp,['Im_MattDamon.png', 'Im_OrlandoBloom.png', 'Im_BradPitt.png', 'Im_DanielCraig.png', 'Im_GeorgeClooney.png', 'Im_LeonardoDiCaprio.png', 'Im_RobertPattinson.png', 'Im_DanielRadcliffe.png', 'Im_JustinTimberlake.png', 'Im_BenStiller.png'],diff,1,0.841626699999324,12,0,
CHPA0602,train,inv,150,pos150_id2_im3.bmp_pos150_id4_im20.bmp,['Im_MattDamon.png', 'Im_OrlandoBloom.png', 'Im_BradPitt.png', 'Im_DanielCraig.png', 'Im_GeorgeClooney.png', 'Im_LeonardoDiCaprio.png', 'Im_RobertPattinson.png', 'Im_DanielRadcliffe.png', 'Im_JustinTimberlake.png', 'Im_BenStiller.png'],same,0,0.4413882000008016,12,0,
CHPA0602,train,inv,60,pos60_id10_im1.bmp_pos60_id10_im18.bmp,['Im_MattDamon.png', 'Im_OrlandoBloom.png', 'Im_BradPitt.png', 'Im_DanielCraig.png', 'Im_GeorgeClooney.png', 'Im_LeonardoDiCaprio.png', 'Im_RobertPattinson.png', 'Im_DanielRadcliffe.png', 'Im_JustinTimberlake.png', 'Im_BenStiller.png'],diff,0,0.9417051000018546,12,0,
CHPA0602,train,inv,120,pos120_id16_im2.bmp_pos120_id16_im3.bmp,['Im_MattDamon.png', 'Im_OrlandoBloom.png', 'Im_BradPitt.png', 'Im_DanielCraig.png', 'Im_GeorgeClooney.png', 'Im_LeonardoDiCaprio.png', 'Im_RobertPattinson.png', 'Im_DanielRadcliffe.png', 'Im_JustinTimberlake.png', 'Im_BenStiller.png'],same,1,0.9667088000023796,13,0,
CHPA0602,train,inv,30,pos30_id2_im16.bmp_pos30_id14_im16.bmp,['Im_MattDamon.png', 'Im_OrlandoBloom.png', 'Im_BradPitt.png', 'Im_DanielCraig.png', 'Im_GeorgeClooney.png', 'Im_LeonardoDiCaprio.png', 'Im_RobertPattinson.png', 'Im_DanielRadcliffe.png', 'Im_JustinTimberlake.png', 'Im_BenStiller.png'],diff,1,0.44175860000177636,14,0,
CHPA0602,train,inv,fs,posfs_id3_im6.bmp_posfs_id16_im3.bmp,['Im_MattDamon.png', 'Im_OrlandoBloom.png', 'Im_BradPitt.png', 'Im_DanielCraig.png', 'Im_GeorgeClooney.png', 'Im_LeonardoDiCaprio.png', 'Im_RobertPattinson.png', 'Im_DanielRadcliffe.png', 'Im_JustinTimberlake.png', 'Im_BenStiller.png'],diff,1,0.8335685999991256,15,0,
CHPA0602,train,inv,fs,posfs_id14_im18.bmp_posfs_id14_im24.bmp,['Im_MattDamon.png', 'Im_OrlandoBloom.png', 'Im_BradPitt.png', 'Im_DanielCraig.png', 'Im_GeorgeClooney.png', 'Im_LeonardoDiCaprio.png', 'Im_RobertPattinson.png', 'Im_DanielRadcliffe.png', 'Im_JustinTimberlake.png', 'Im_BenStiller.png'],same,1,0.40838500000245403,16,0,
CHPA0602,train,inv,60,pos60_id3_im8.bmp_pos60_id3_im17.bmp,['Im_MattDamon.png', 'Im_OrlandoBloom.png', 'Im_BradPitt.png', 'Im_DanielCraig.png', 'Im_GeorgeClooney.png', 'Im_LeonardoDiCaprio.png', 'Im_RobertPattinson.png', 'Im_DanielRadcliffe.png', 'Im_JustinTimberlake.png', 'Im_BenStiller.png'],same,1,0.7085027000030095,17,0,
CHPA0602,train,inv,120,pos120_id14_im16.bmp_pos120_id14_im24.bmp,['Im_MattDamon.png', 'Im_OrlandoBloom.png', 'Im_BradPitt.png', 'Im_DanielCraig.png', 'Im_GeorgeClooney.png', 'Im_LeonardoDiCaprio.png', 'Im_RobertPattinson.png', 'Im_DanielRadcliffe.png', 'Im_JustinTimberlake.png', 'Im_BenStiller.png'],diff,0,0.48352169999998296,17,0,
CHPA0602,train,inv,90,pos90_id10_im17.bmp_pos90_id16_im2.bmp,['Im_MattDamon.png', 'Im_OrlandoBloom.png', 'Im_BradPitt.png', 'Im_DanielCraig.png', 'Im_GeorgeClooney.png', 'Im_LeonardoDiCaprio.png', 'Im_RobertPattinson.png', 'Im_DanielRadcliffe.png', 'Im_JustinTimberlake.png', 'Im_BenStiller.png'],diff,1,0.6916584999999031,18,0,
CHPA0602,train,inv,150,pos150_id16_im19.bmp_pos150_id16_im2.bmp,['Im_MattDamon.png', 'Im_OrlandoBloom.png', 'Im_BradPitt.png', 'Im_DanielCraig.png', 'Im_GeorgeClooney.png', 'Im_LeonardoDiCaprio.png', 'Im_RobertPattinson.png', 'Im_DanielRadcliffe.png', 'Im_JustinTimberlake.png', 'Im_BenStiller.png'],same,1,0.4081638000025123,19,0,
CHPA0602,train,pos,90,pos90_id4_im7.bmp_pos90_id4_im20.bmp,['Im_MattDamon.png', 'Im_OrlandoBloom.png', 'Im_BradPitt.png', 'Im_DanielCraig.png', 'Im_GeorgeClooney.png', 'Im_LeonardoDiCaprio.png', 'Im_RobertPattinson.png', 'Im_DanielRadcliffe.png', 'Im_JustinTimberlake.png', 'Im_BenStiller.png'],same,1,0.40835359999982757,20,0,
CHPA0602,train,pos,fs,posfs_id10_im18.bmp_posfs_id2_im3.bmp,['Im_MattDamon.png', 'Im_OrlandoBloom.png', 'Im_BradPitt.png', 'Im_DanielCraig.png', 'Im_GeorgeClooney.png', 'Im_LeonardoDiCaprio.png', 'Im_RobertPattinson.png', 'Im_DanielRadcliffe.png', 'Im_JustinTimberlake.png', 'Im_BenStiller.png'],diff,1,0.40840489999754936,21,0,
CHPA0602,train,pos,90,pos90_id3_im8.bmp_pos90_id16_im19.bmp,['Im_MattDamon.png', 'Im_OrlandoBloom.png', 'Im_BradPitt.png', 'Im_DanielCraig.png', 'Im_GeorgeClooney.png', 'Im_LeonardoDiCaprio.png', 'Im_RobertPattinson.png', 'Im_DanielRadcliffe.png', 'Im_JustinTimberlake.png', 'Im_BenStiller.png'],diff,1,0.4247871000006853,22,0,
CHPA0602,train,pos,30,pos30_id10_im17.bmp_pos30_id10_im18.bmp,['Im_MattDamon.png', 'Im_OrlandoBloom.png', 'Im_BradPitt.png', 'Im_DanielCraig.png', 'Im_GeorgeClooney.png', 'Im_LeonardoDiCaprio.png', 'Im_RobertPattinson.png', 'Im_DanielRadcliffe.png', 'Im_JustinTimberlake.png', 'Im_BenStiller.png'],same,1,0.42499709999901825,23,0,
CHPA0602,train,pos,0,pos0_id14_im18.bmp_pos0_id13_im10.bmp,['Im_MattDamon.png', 'Im_OrlandoBloom.png', 'Im_BradPitt.png', 'Im_DanielCraig.png', 'Im_GeorgeClooney.png', 'Im_LeonardoDiCaprio.png', 'Im_RobertPattinson.png', 'Im_DanielRadcliffe.png', 'Im_JustinTimberlake.png', 'Im_BenStiller.png'],diff,1,0.7247750999995333,24,0,
CHPA0602,train,pos,30,pos30_id5_im20.bmp_pos30_id2_im2.bmp,['Im_MattDamon.png', 'Im_OrlandoBloom.png', 'Im_BradPitt.png', 'Im_DanielCraig.png', 'Im_GeorgeClooney.png', 'Im_LeonardoDiCaprio.png', 'Im_RobertPattinson.png', 'Im_DanielRadcliffe.png', 'Im_JustinTimberlake.png', 'Im_BenStiller.png'],diff,1,0.4169072000004235,25,0,
CHPA0602,train,pos,60,pos60_id3_im6.bmp_pos60_id10_im17.bmp,['Im_MattDamon.png', 'Im_OrlandoBloom.png', 'Im_BradPitt.png', 'Im_DanielCraig.png', 'Im_GeorgeClooney.png', 'Im_LeonardoDiCaprio.png', 'Im_RobertPattinson.png', 'Im_DanielRadcliffe.png', 'Im_JustinTimberlake.png', 'Im_BenStiller.png'],diff,1,0.4331342000004952,26,0,
CHPA0602,train,pos,120,pos120_id4_im15.bmp_pos120_id19_im27.bmp,['Im_MattDamon.png', 'Im_OrlandoBloom.png', 'Im_BradPitt.png', 'Im_DanielCraig.png', 'Im_GeorgeClooney.png', 'Im_LeonardoDiCaprio.png', 'Im_RobertPattinson.png', 'Im_DanielRadcliffe.png', 'Im_JustinTimberlake.png', 'Im_BenStiller.png'],diff,1,0.43332290000034845,27,0,
CHPA0602,train,pos,0,pos0_id10_im1.bmp_pos0_id10_im17.bmp,['Im_MattDamon.png', 'Im_OrlandoBloom.png', 'Im_BradPitt.png', 'Im_DanielCraig.png', 'Im_GeorgeClooney.png', 'Im_LeonardoDiCaprio.png', 'Im_RobertPattinson.png', 'Im_DanielRadcliffe.png', 'Im_JustinTimberlake.png', 'Im_BenStiller.png'],same,1,0.4169063000008464,28,0,
CHPA0602,train,pos,120,pos120_id4_im7.bmp_pos120_id16_im3.bmp,['Im_MattDamon.png', 'Im_OrlandoBloom.png', 'Im_BradPitt.png', 'Im_DanielCraig.png', 'Im_GeorgeClooney.png', 'Im_LeonardoDiCaprio.png', 'Im_RobertPattinson.png', 'Im_DanielRadcliffe.png', 'Im_JustinTimberlake.png', 'Im_BenStiller.png'],diff,1,0.4251600000025064,29,0,
CHPA0602,train,pos,150,pos150_id13_im10.bmp_pos150_id19_im8.bmp,['Im_MattDamon.png', 'Im_OrlandoBloom.png', 'Im_BradPitt.png', 'Im_DanielCraig.png', 'Im_GeorgeClooney.png', 'Im_LeonardoDiCaprio.png', 'Im_RobertPattinson.png', 'Im_DanielRadcliffe.png', 'Im_JustinTimberlake.png', 'Im_BenStiller.png'],diff,1,0.6082960999992792,30,0,
CHPA0602,train,pos,fs,posfs_id10_im18.bmp_posfs_id13_im29.bmp,['Im_MattDamon.png', 'Im_OrlandoBloom.png', 'Im_BradPitt.png', 'Im_DanielCraig.png', 'Im_GeorgeClooney.png', 'Im_LeonardoDiCaprio.png', 'Im_RobertPattinson.png', 'Im_DanielRadcliffe.png', 'Im_JustinTimberlake.png', 'Im_BenStiller.png'],diff,1,0.41673850000006496,31,0,
CHPA0602,train,pos,150,pos150_id3_im6.bmp_pos150_id3_im17.bmp,['Im_MattDamon.png', 'Im_OrlandoBloom.png', 'Im_BradPitt.png', 'Im_DanielCraig.png', 'Im_GeorgeClooney.png', 'Im_LeonardoDiCaprio.png', 'Im_RobertPattinson.png', 'Im_DanielRadcliffe.png', 'Im_JustinTimberlake.png', 'Im_BenStiller.png'],same,1,0.4083983000018634,32,0,
CHPA0602,train,pos,60,pos60_id4_im15.bmp_pos60_id4_im20.bmp,['Im_MattDamon.png', 'Im_OrlandoBloom.png', 'Im_BradPitt.png', 'Im_DanielCraig.png', 'Im_GeorgeClooney.png', 'Im_LeonardoDiCaprio.png', 'Im_RobertPattinson.png', 'Im_DanielRadcliffe.png', 'Im_JustinTimberlake.png', 'Im_BenStiller.png'],same,1,0.4333413999993354,33,0,
CHPA0602,train,neg,30,neg30_id3_im17.bmp_neg30_id10_im1.bmp,['Im_MattDamon.png', 'Im_OrlandoBloom.png', 'Im_BradPitt.png', 'Im_DanielCraig.png', 'Im_GeorgeClooney.png', 'Im_LeonardoDiCaprio.png', 'Im_RobertPattinson.png', 'Im_DanielRadcliffe.png', 'Im_JustinTimberlake.png', 'Im_BenStiller.png'],same,0,0.4166858000025968,0,78.57142857142857,
CHPA0602,train,neg,30,neg30_id19_im4.bmp_neg30_id19_im27.bmp,['Im_MattDamon.png', 'Im_OrlandoBloom.png', 'Im_BradPitt.png', 'Im_DanielCraig.png', 'Im_GeorgeClooney.png', 'Im_LeonardoDiCaprio.png', 'Im_RobertPattinson.png', 'Im_DanielRadcliffe.png', 'Im_JustinTimberlake.png', 'Im_BenStiller.png'],same,1,0.4251167999973404,1,78.57142857142857,
CHPA0602,train,neg,90,neg90_id16_im3.bmp_neg90_id4_im7.bmp,['Im_MattDamon.png', 'Im_OrlandoBloom.png', 'Im_BradPitt.png', 'Im_DanielCraig.png', 'Im_GeorgeClooney.png', 'Im_LeonardoDiCaprio.png', 'Im_RobertPattinson.png', 'Im_DanielRadcliffe.png', 'Im_JustinTimberlake.png', 'Im_BenStiller.png'],diff,1,0.5582475000010163,2,78.57142857142857,
CHPA0602,train,neg,60,neg60_id5_im20.bmp_neg60_id5_im10.bmp,['Im_MattDamon.png', 'Im_OrlandoBloom.png', 'Im_BradPitt.png', 'Im_DanielCraig.png', 'Im_GeorgeClooney.png', 'Im_LeonardoDiCaprio.png', 'Im_RobertPattinson.png', 'Im_DanielRadcliffe.png', 'Im_JustinTimberlake.png', 'Im_BenStiller.png'],same,1,0.5583415999972203,3,78.57142857142857,
CHPA0602,train,neg,90,neg90_id10_im1.bmp_neg90_id10_im18.bmp,['Im_MattDamon.png', 'Im_OrlandoBloom.png', 'Im_BradPitt.png', 'Im_DanielCraig.png', 'Im_GeorgeClooney.png', 'Im_LeonardoDiCaprio.png', 'Im_RobertPattinson.png', 'Im_DanielRadcliffe.png', 'Im_JustinTimberlake.png', 'Im_BenStiller.png'],same,1,0.5333771000005072,4,78.57142857142857,
CHPA0602,train,neg,0,neg0_id2_im2.bmp_neg0_id5_im20.bmp,['Im_MattDamon.png', 'Im_OrlandoBloom.png', 'Im_BradPitt.png', 'Im_DanielCraig.png', 'Im_GeorgeClooney.png', 'Im_LeonardoDiCaprio.png', 'Im_RobertPattinson.png', 'Im_DanielRadcliffe.png', 'Im_JustinTimberlake.png', 'Im_BenStiller.png'],same,0,0.43342690000281436,4,78.57142857142857,
CHPA0602,train,neg,120,neg120_id10_im18.bmp_neg120_id10_im17.bmp,['Im_MattDamon.png', 'Im_OrlandoBloom.png', 'Im_BradPitt.png', 'Im_DanielCraig.png', 'Im_GeorgeClooney.png', 'Im_LeonardoDiCaprio.png', 'Im_RobertPattinson.png', 'Im_DanielRadcliffe.png', 'Im_JustinTimberlake.png', 'Im_BenStiller.png'],diff,0,0.708278899997822,4,78.57142857142857,
CHPA0602,train,neg,fs,negfs_id7_im14.bmp_negfs_id7_im15.bmp,['Im_MattDamon.png', 'Im_OrlandoBloom.png', 'Im_BradPitt.png', 'Im_DanielCraig.png', 'Im_GeorgeClooney.png', 'Im_LeonardoDiCaprio.png', 'Im_RobertPattinson.png', 'Im_DanielRadcliffe.png', 'Im_JustinTimberlake.png', 'Im_BenStiller.png'],same,1,0.4083974000022863,5,78.57142857142857,
CHPA0602,train,neg,0,neg0_id13_im15.bmp_neg0_id13_im29.bmp,['Im_MattDamon.png', 'Im_OrlandoBloom.png', 'Im_BradPitt.png', 'Im_DanielCraig.png', 'Im_GeorgeClooney.png', 'Im_LeonardoDiCaprio.png', 'Im_RobertPattinson.png', 'Im_DanielRadcliffe.png', 'Im_JustinTimberlake.png', 'Im_BenStiller.png'],same,1,0.4834305000003951,6,78.57142857142857,
CHPA0602,train,neg,fs,negfs_id16_im19.bmp_negfs_id16_im3.bmp,['Im_MattDamon.png', 'Im_OrlandoBloom.png', 'Im_BradPitt.png', 'Im_DanielCraig.png', 'Im_GeorgeClooney.png', 'Im_LeonardoDiCaprio.png', 'Im_RobertPattinson.png', 'Im_DanielRadcliffe.png', 'Im_JustinTimberlake.png', 'Im_BenStiller.png'],same,1,0.5839435999987472,7,78.57142857142857,
CHPA0602,train,neg,60,neg60_id10_im17.bmp_neg60_id3_im6.bmp,['Im_MattDamon.png', 'Im_OrlandoBloom.png', 'Im_BradPitt.png', 'Im_DanielCraig.png', 'Im_GeorgeClooney.png', 'Im_LeonardoDiCaprio.png', 'Im_RobertPattinson.png', 'Im_DanielRadcliffe.png', 'Im_JustinTimberlake.png', 'Im_BenStiller.png'],same,0,0.6167721999991045,7,78.57142857142857,
CHPA0602,train,neg,150,neg150_id13_im15.bmp_neg150_id13_im29.bmp,['Im_MattDamon.png', 'Im_OrlandoBloom.png', 'Im_BradPitt.png', 'Im_DanielCraig.png', 'Im_GeorgeClooney.png', 'Im_LeonardoDiCaprio.png', 'Im_RobertPattinson.png', 'Im_DanielRadcliffe.png', 'Im_JustinTimberlake.png', 'Im_BenStiller.png'],diff,0,0.4083572000017739,7,78.57142857142857,
CHPA0602,train,neg,150,neg150_id19_im27.bmp_neg150_id4_im15.bmp,['Im_MattDamon.png', 'Im_OrlandoBloom.png', 'Im_BradPitt.png', 'Im_DanielCraig.png', 'Im_GeorgeClooney.png', 'Im_LeonardoDiCaprio.png', 'Im_RobertPattinson.png', 'Im_DanielRadcliffe.png', 'Im_JustinTimberlake.png', 'Im_BenStiller.png'],same,0,0.40840119999847957,7,78.57142857142857,
CHPA0602,train,neg,120,neg120_id2_im16.bmp_neg120_id2_im2.bmp,['Im_MattDamon.png', 'Im_OrlandoBloom.png', 'Im_BradPitt.png', 'Im_DanielCraig.png', 'Im_GeorgeClooney.png', 'Im_LeonardoDiCaprio.png', 'Im_RobertPattinson.png', 'Im_DanielRadcliffe.png', 'Im_JustinTimberlake.png', 'Im_BenStiller.png'],diff,0,0.749984800000675,7,78.57142857142857,
CHPA0602,train,inv,30,pos30_id10_im17.bmp_pos30_id16_im2.bmp,['Im_MattDamon.png', 'Im_OrlandoBloom.png', 'Im_BradPitt.png', 'Im_DanielCraig.png', 'Im_GeorgeClooney.png', 'Im_LeonardoDiCaprio.png', 'Im_RobertPattinson.png', 'Im_DanielRadcliffe.png', 'Im_JustinTimberlake.png', 'Im_BenStiller.png'],diff,1,0.9753730999982508,8,78.57142857142857,
CHPA0602,train,inv,120,pos120_id2_im3.bmp_pos120_id2_im2.bmp,['Im_MattDamon.png', 'Im_OrlandoBloom.png', 'Im_BradPitt.png', 'Im_DanielCraig.png', 'Im_GeorgeClooney.png', 'Im_LeonardoDiCaprio.png', 'Im_RobertPattinson.png', 'Im_DanielRadcliffe.png', 'Im_JustinTimberlake.png', 'Im_BenStiller.png'],diff,0,1.3085823000001255,8,78.57142857142857,
CHPA0602,train,inv,0,pos0_id5_im20.bmp_pos0_id5_im10.bmp,['Im_MattDamon.png', 'Im_OrlandoBloom.png', 'Im_BradPitt.png', 'Im_DanielCraig.png', 'Im_GeorgeClooney.png', 'Im_LeonardoDiCaprio.png', 'Im_RobertPattinson.png', 'Im_DanielRadcliffe.png', 'Im_JustinTimberlake.png', 'Im_BenStiller.png'],diff,0,0.8168011999987357,8,78.57142857142857,
CHPA0602,train,inv,0,pos0_id14_im18.bmp_pos0_id5_im10.bmp,['Im_MattDamon.png', 'Im_OrlandoBloom.png', 'Im_BradPitt.png', 'Im_DanielCraig.png', 'Im_GeorgeClooney.png', 'Im_LeonardoDiCaprio.png', 'Im_RobertPattinson.png', 'Im_DanielRadcliffe.png', 'Im_JustinTimberlake.png', 'Im_BenStiller.png'],diff,1,0.8497102000001178,9,78.57142857142857,
CHPA0602,train,inv,60,pos60_id5_im10.bmp_pos60_id2_im2.bmp,['Im_MattDamon.png', 'Im_OrlandoBloom.png', 'Im_BradPitt.png', 'Im_DanielCraig.png', 'Im_GeorgeClooney.png', 'Im_LeonardoDiCaprio.png', 'Im_RobertPattinson.png', 'Im_DanielRadcliffe.png', 'Im_JustinTimberlake.png', 'Im_BenStiller.png'],diff,1,0.5668045000020356,10,78.57142857142857,
CHPA0602,train,inv,fs,posfs_id16_im2.bmp_posfs_id10_im17.bmp,['Im_MattDamon.png', 'Im_OrlandoBloom.png', 'Im_BradPitt.png', 'Im_DanielCraig.png', 'Im_GeorgeClooney.png', 'Im_LeonardoDiCaprio.png', 'Im_RobertPattinson.png', 'Im_DanielRadcliffe.png', 'Im_JustinTimberlake.png', 'Im_BenStiller.png'],diff,1,0.40834880000329576,11,78.57142857142857,
CHPA0602,train,inv,90,pos90_id3_im8.bmp_pos90_id16_im19.bmp,['Im_MattDamon.png', 'Im_OrlandoBloom.png', 'Im_BradPitt.png', 'Im_DanielCraig.png', 'Im_GeorgeClooney.png', 'Im_LeonardoDiCaprio.png', 'Im_RobertPattinson.png', 'Im_DanielRadcliffe.png', 'Im_JustinTimberlake.png', 'Im_BenStiller.png'],diff,1,0.5502197000023443,12,78.57142857142857,
CHPA0602,train,inv,150,pos150_id5_im1.bmp_pos150_id5_im10.bmp,['Im_MattDamon.png', 'Im_OrlandoBloom.png', 'Im_BradPitt.png', 'Im_DanielCraig.png', 'Im_GeorgeClooney.png', 'Im_LeonardoDiCaprio.png', 'Im_RobertPattinson.png', 'Im_DanielRadcliffe.png', 'Im_JustinTimberlake.png', 'Im_BenStiller.png'],diff,0,1.1168819000013173,12,78.57142857142857,
CHPA0602,train,inv,60,pos60_id10_im1.bmp_pos60_id5_im1.bmp,['Im_MattDamon.png', 'Im_OrlandoBloom.png', 'Im_BradPitt.png', 'Im_DanielCraig.png', 'Im_GeorgeClooney.png', 'Im_LeonardoDiCaprio.png', 'Im_RobertPattinson.png', 'Im_DanielRadcliffe.png', 'Im_JustinTimberlake.png', 'Im_BenStiller.png'],diff,1,0.4334080000007816,13,78.57142857142857,
CHPA0602,train,inv,fs,posfs_id2_im3.bmp_posfs_id2_im2.bmp,['Im_MattDamon.png', 'Im_OrlandoBloom.png', 'Im_BradPitt.png', 'Im_DanielCraig.png', 'Im_GeorgeClooney.png', 'Im_LeonardoDiCaprio.png', 'Im_RobertPattinson.png', 'Im_DanielRadcliffe.png', 'Im_JustinTimberlake.png', 'Im_BenStiller.png'],same,1,0.42499120000138646,14,78.57142857142857,
CHPA0602,train,inv,90,pos90_id10_im1.bmp_pos90_id3_im17.bmp,['Im_MattDamon.png', 'Im_OrlandoBloom.png', 'Im_BradPitt.png', 'Im_DanielCraig.png', 'Im_GeorgeClooney.png', 'Im_LeonardoDiCaprio.png', 'Im_RobertPattinson.png', 'Im_DanielRadcliffe.png', 'Im_JustinTimberlake.png', 'Im_BenStiller.png'],same,0,0.7164501999977801,14,78.57142857142857,
CHPA0602,train,inv,150,pos150_id10_im18.bmp_pos150_id2_im3.bmp,['Im_MattDamon.png', 'Im_OrlandoBloom.png', 'Im_BradPitt.png', 'Im_DanielCraig.png', 'Im_GeorgeClooney.png', 'Im_LeonardoDiCaprio.png', 'Im_RobertPattinson.png', 'Im_DanielRadcliffe.png', 'Im_JustinTimberlake.png', 'Im_BenStiller.png'],same,0,1.1917919000006805,14,78.57142857142857,
CHPA0602,train,inv,30,pos30_id19_im8.bmp_pos30_id19_im4.bmp,['Im_MattDamon.png', 'Im_OrlandoBloom.png', 'Im_BradPitt.png', 'Im_DanielCraig.png', 'Im_GeorgeClooney.png', 'Im_LeonardoDiCaprio.png', 'Im_RobertPattinson.png', 'Im_DanielRadcliffe.png', 'Im_JustinTimberlake.png', 'Im_BenStiller.png'],same,1,0.6672027999993588,15,78.57142857142857,
CHPA0602,train,inv,120,pos120_id13_im15.bmp_pos120_id19_im27.bmp,['Im_MattDamon.png', 'Im_OrlandoBloom.png', 'Im_BradPitt.png', 'Im_DanielCraig.png', 'Im_GeorgeClooney.png', 'Im_LeonardoDiCaprio.png', 'Im_RobertPattinson.png', 'Im_DanielRadcliffe.png', 'Im_JustinTimberlake.png', 'Im_BenStiller.png'],same,0,0.4170659999981581,15,78.57142857142857,
CHPA0602,train,pos,60,pos60_id2_im16.bmp_pos60_id14_im16.bmp,['Im_MattDamon.png', 'Im_OrlandoBloom.png', 'Im_BradPitt.png', 'Im_DanielCraig.png', 'Im_GeorgeClooney.png', 'Im_LeonardoDiCaprio.png', 'Im_RobertPattinson.png', 'Im_DanielRadcliffe.png', 'Im_JustinTimberlake.png', 'Im_BenStiller.png'],diff,1,0.4248903000006976,16,78.57142857142857,
CHPA0602,train,pos,30,pos30_id2_im16.bmp_pos30_id2_im3.bmp,['Im_MattDamon.png', 'Im_OrlandoBloom.png', 'Im_BradPitt.png', 'Im_DanielCraig.png', 'Im_GeorgeClooney.png', 'Im_LeonardoDiCaprio.png', 'Im_RobertPattinson.png', 'Im_DanielRadcliffe.png', 'Im_JustinTimberlake.png', 'Im_BenStiller.png'],same,1,0.4167252999977791,17,78.57142857142857,
CHPA0602,train,pos,0,pos0_id3_im6.bmp_pos0_id16_im3.bmp,['Im_MattDamon.png', 'Im_OrlandoBloom.png', 'Im_BradPitt.png', 'Im_DanielCraig.png', 'Im_GeorgeClooney.png', 'Im_LeonardoDiCaprio.png', 'Im_RobertPattinson.png', 'Im_DanielRadcliffe.png', 'Im_JustinTimberlake.png', 'Im_BenStiller.png'],diff,1,0.42497200000070734,18,78.57142857142857,
CHPA0602,train,pos,fs,posfs_id4_im15.bmp_posfs_id4_im7.bmp,['Im_MattDamon.png', 'Im_OrlandoBloom.png', 'Im_BradPitt.png', 'Im_DanielCraig.png', 'Im_GeorgeClooney.png', 'Im_LeonardoDiCaprio.png', 'Im_RobertPattinson.png', 'Im_DanielRadcliffe.png', 'Im_JustinTimberlake.png', 'Im_BenStiller.png'],same,1,0.42511889999877894,19,78.57142857142857,
CHPA0602,train,pos,90,pos90_id16_im2.bmp_pos90_id4_im7.bmp,['Im_MattDamon.png', 'Im_OrlandoBloom.png', 'Im_BradPitt.png', 'Im_DanielCraig.png', 'Im_GeorgeClooney.png', 'Im_LeonardoDiCaprio.png', 'Im_RobertPattinson.png', 'Im_DanielRadcliffe.png', 'Im_JustinTimberlake.png', 'Im_BenStiller.png'],diff,1,0.41666579999946407,20,78.57142857142857,
CHPA0602,train,pos,150,pos150_id5_im10.bmp_pos150_id5_im1.bmp,['Im_MattDamon.png', 'Im_OrlandoBloom.png', 'Im_BradPitt.png', 'Im_DanielCraig.png', 'Im_GeorgeClooney.png', 'Im_LeonardoDiCaprio.png', 'Im_RobertPattinson.png', 'Im_DanielRadcliffe.png', 'Im_JustinTimberlake.png', 'Im_BenStiller.png'],same,1,0.42513379999945755,21,78.57142857142857,
CHPA0602,train,pos,60,pos60_id4_im7.bmp_pos60_id16_im2.bmp,['Im_MattDamon.png', 'Im_OrlandoBloom.png', 'Im_BradPitt.png', 'Im_DanielCraig.png', 'Im_GeorgeClooney.png', 'Im_LeonardoDiCaprio.png', 'Im_RobertPattinson.png', 'Im_DanielRadcliffe.png', 'Im_JustinTimberlake.png', 'Im_BenStiller.png'],diff,1,0.4167285000003176,22,78.57142857142857,
CHPA0602,train,pos,90,pos90_id19_im4.bmp_pos90_id7_im15.bmp,['Im_MattDamon.png', 'Im_OrlandoBloom.png', 'Im_BradPitt.png', 'Im_DanielCraig.png', 'Im_GeorgeClooney.png', 'Im_LeonardoDiCaprio.png', 'Im_RobertPattinson.png', 'Im_DanielRadcliffe.png', 'Im_JustinTimberlake.png', 'Im_BenStiller.png'],diff,1,0.42537649999940186,23,78.57142857142857,
CHPA0602,train,pos,150,pos150_id7_im14.bmp_pos150_id14_im24.bmp,['Im_MattDamon.png', 'Im_OrlandoBloom.png', 'Im_BradPitt.png', 'Im_DanielCraig.png', 'Im_GeorgeClooney.png', 'Im_LeonardoDiCaprio.png', 'Im_RobertPattinson.png', 'Im_DanielRadcliffe.png', 'Im_JustinTimberlake.png', 'Im_BenStiller.png'],diff,1,0.4250132000015583,24,78.57142857142857,
CHPA0602,train,pos,fs,posfs_id7_im14.bmp_posfs_id4_im20.bmp,['Im_MattDamon.png', 'Im_OrlandoBloom.png', 'Im_BradPitt.png', 'Im_DanielCraig.png', 'Im_GeorgeClooney.png', 'Im_LeonardoDiCaprio.png', 'Im_RobertPattinson.png', 'Im_DanielRadcliffe.png', 'Im_JustinTimberlake.png', 'Im_BenStiller.png'],diff,1,0.41667120000056457,25,78.57142857142857,
CHPA0602,train,pos,0,pos0_id7_im14.bmp_pos0_id7_im15.bmp,['Im_MattDamon.png', 'Im_OrlandoBloom.png', 'Im_BradPitt.png', 'Im_DanielCraig.png', 'Im_GeorgeClooney.png', 'Im_LeonardoDiCaprio.png', 'Im_RobertPattinson.png', 'Im_DanielRadcliffe.png', 'Im_JustinTimberlake.png', 'Im_BenStiller.png'],same,1,0.5585905000007187,26,78.57142857142857,
CHPA0602,train,pos,120,pos120_id16_im19.bmp_pos120_id13_im15.bmp,['Im_MattDamon.png', 'Im_OrlandoBloom.png', 'Im_BradPitt.png', 'Im_DanielCraig.png', 'Im_GeorgeClooney.png', 'Im_LeonardoDiCaprio.png', 'Im_RobertPattinson.png', 'Im_DanielRadcliffe.png', 'Im_JustinTimberlake.png', 'Im_BenStiller.png'],diff,1,0.43310090000159107,27,78.57142857142857,
CHPA0602,train,pos,30,pos30_id13_im15.bmp_pos30_id13_im29.bmp,['Im_MattDamon.png', 'Im_OrlandoBloom.png', 'Im_BradPitt.png', 'Im_DanielCraig.png', 'Im_GeorgeClooney.png', 'Im_LeonardoDiCaprio.png', 'Im_RobertPattinson.png', 'Im_DanielRadcliffe.png', 'Im_JustinTimberlake.png', 'Im_BenStiller.png'],diff,0,0.6750958000011451,27,78.57142857142857,
CHPA0602,train,pos,120,pos120_id13_im10.bmp_pos120_id14_im18.bmp,['Im_MattDamon.png', 'Im_OrlandoBloom.png', 'Im_BradPitt.png', 'Im_DanielCraig.png', 'Im_GeorgeClooney.png', 'Im_LeonardoDiCaprio.png', 'Im_RobertPattinson.png', 'Im_DanielRadcliffe.png', 'Im_JustinTimberlake.png', 'Im_BenStiller.png'],diff,1,0.8002279000029375,28,78.57142857142857,
CHPA0602,train,neg,120,neg120_id13_im29.bmp_neg120_id3_im17.bmp,['Im_MattDamon.png', 'Im_OrlandoBloom.png', 'Im_BradPitt.png', 'Im_DanielCraig.png', 'Im_GeorgeClooney.png', 'Im_LeonardoDiCaprio.png', 'Im_RobertPattinson.png', 'Im_DanielRadcliffe.png', 'Im_JustinTimberlake.png', 'Im_BenStiller.png'],diff,1,0.766760799997428,1,66.66666666666667,
CHPA0602,train,neg,60,neg60_id4_im15.bmp_neg60_id4_im7.bmp,['Im_MattDamon.png', 'Im_OrlandoBloom.png', 'Im_BradPitt.png', 'Im_DanielCraig.png', 'Im_GeorgeClooney.png', 'Im_LeonardoDiCaprio.png', 'Im_RobertPattinson.png', 'Im_DanielRadcliffe.png', 'Im_JustinTimberlake.png', 'Im_BenStiller.png'],same,1,0.42509309999877587,2,66.66666666666667,
CHPA0602,train,neg,120,neg120_id19_im8.bmp_neg120_id19_im27.bmp,['Im_MattDamon.png', 'Im_OrlandoBloom.png', 'Im_BradPitt.png', 'Im_DanielCraig.png', 'Im_GeorgeClooney.png', 'Im_LeonardoDiCaprio.png', 'Im_RobertPattinson.png', 'Im_DanielRadcliffe.png', 'Im_JustinTimberlake.png', 'Im_BenStiller.png'],same,1,0.9251240999983565,3,66.66666666666667,
CHPA0602,train,neg,150,neg150_id3_im8.bmp_neg150_id3_im17.bmp,['Im_MattDamon.png', 'Im_OrlandoBloom.png', 'Im_BradPitt.png', 'Im_DanielCraig.png', 'Im_GeorgeClooney.png', 'Im_LeonardoDiCaprio.png', 'Im_RobertPattinson.png', 'Im_DanielRadcliffe.png', 'Im_JustinTimberlake.png', 'Im_BenStiller.png'],diff,0,0.41670090000116033,3,66.66666666666667,
CHPA0602,train,neg,60,neg60_id13_im29.bmp_neg60_id13_im15.bmp,['Im_MattDamon.png', 'Im_OrlandoBloom.png', 'Im_BradPitt.png', 'Im_DanielCraig.png', 'Im_GeorgeClooney.png', 'Im_LeonardoDiCaprio.png', 'Im_RobertPattinson.png', 'Im_DanielRadcliffe.png', 'Im_JustinTimberlake.png', 'Im_BenStiller.png'],same,1,0.40842630000042845,4,66.66666666666667,
CHPA0602,train,neg,0,neg0_id2_im3.bmp_neg0_id4_im20.bmp,['Im_MattDamon.png', 'Im_OrlandoBloom.png', 'Im_BradPitt.png', 'Im_DanielCraig.png', 'Im_GeorgeClooney.png', 'Im_LeonardoDiCaprio.png', 'Im_RobertPattinson.png', 'Im_DanielRadcliffe.png', 'Im_JustinTimberlake.png', 'Im_BenStiller.png'],same,0,0.5584438000005321,4,66.66666666666667,
CHPA0602,train,neg,fs,negfs_id10_im18.bmp_negfs_id13_im29.bmp,['Im_MattDamon.png', 'Im_OrlandoBloom.png', 'Im_BradPitt.png', 'Im_DanielCraig.png', 'Im_GeorgeClooney.png', 'Im_LeonardoDiCaprio.png', 'Im_RobertPattinson.png', 'Im_DanielRadcliffe.png', 'Im_JustinTimberlake.png', 'Im_BenStiller.png'],diff,1,0.7337135999987368,5,66.66666666666667,
CHPA0602,train,neg,90,neg90_id19_im27.bmp_neg90_id4_im15.bmp,['Im_MattDamon.png', 'Im_OrlandoBloom.png', 'Im_BradPitt.png', 'Im_DanielCraig.png', 'Im_GeorgeClooney.png', 'Im_LeonardoDiCaprio.png', 'Im_RobertPattinson.png', 'Im_DanielRadcliffe.png', 'Im_JustinTimberlake.png', 'Im_BenStiller.png'],diff,1,0.4751646999975492,6,66.66666666666667,
CHPA0602,train,neg,30,neg30_id13_im10.bmp_neg30_id14_im18.bmp,['Im_MattDamon.png', 'Im_OrlandoBloom.png', 'Im_BradPitt.png', 'Im_DanielCraig.png', 'Im_GeorgeClooney.png', 'Im_LeonardoDiCaprio.png', 'Im_RobertPattinson.png', 'Im_DanielRadcliffe.png', 'Im_JustinTimberlake.png', 'Im_BenStiller.png'],diff,1,0.891582299998845,7,66.66666666666667,
CHPA0602,train,neg,90,neg90_id13_im15.bmp_neg90_id13_im10.bmp,['Im_MattDamon.png', 'Im_OrlandoBloom.png', 'Im_BradPitt.png', 'Im_DanielCraig.png', 'Im_GeorgeClooney.png', 'Im_LeonardoDiCaprio.png', 'Im_RobertPattinson.png', 'Im_DanielRadcliffe.png', 'Im_JustinTimberlake.png', 'Im_BenStiller.png'],same,1,0.517097100000683,8,66.66666666666667,
CHPA0602,train,neg,30,neg30_id7_im15.bmp_neg30_id7_im14.bmp,['Im_MattDamon.png', 'Im_OrlandoBloom.png', 'Im_BradPitt.png', 'Im_DanielCraig.png', 'Im_GeorgeClooney.png', 'Im_LeonardoDiCaprio.png', 'Im_RobertPattinson.png', 'Im_DanielRadcliffe.png', 'Im_JustinTimberlake.png', 'Im_BenStiller.png'],same,1,0.5335612000017136,9,66.66666666666667,
CHPA0602,train,neg,150,neg150_id13_im10.bmp_neg150_id14_im18.bmp,['Im_MattDamon.png', 'Im_OrlandoBloom.png', 'Im_BradPitt.png', 'Im_DanielCraig.png', 'Im_GeorgeClooney.png', 'Im_LeonardoDiCaprio.png', 'Im_RobertPattinson.png', 'Im_DanielRadcliffe.png', 'Im_JustinTimberlake.png', 'Im_BenStiller.png'],diff,1,1.241834699998435,10,66.66666666666667,
CHPA0602,train,neg,0,neg0_id19_im8.bmp_neg0_id13_im10.bmp,['Im_MattDamon.png', 'Im_OrlandoBloom.png', 'Im_BradPitt.png', 'Im_DanielCraig.png', 'Im_GeorgeClooney.png', 'Im_LeonardoDiCaprio.png', 'Im_RobertPattinson.png', 'Im_DanielRadcliffe.png', 'Im_JustinTimberlake.png', 'Im_BenStiller.png'],diff,1,0.42506460000004154,11,66.66666666666667,
CHPA0602,train,neg,fs,negfs_id14_im16.bmp_negfs_id2_im16.bmp,['Im_MattDamon.png', 'Im_OrlandoBloom.png', 'Im_BradPitt.png', 'Im_DanielCraig.png', 'Im_GeorgeClooney.png', 'Im_LeonardoDiCaprio.png', 'Im_RobertPattinson.png', 'Im_DanielRadcliffe.png', 'Im_JustinTimberlake.png', 'Im_BenStiller.png'],diff,1,0.42519480000191834,12,66.66666666666667,
CHPA0602,train,inv,fs,posfs_id14_im24.bmp_posfs_id14_im16.bmp,['Im_MattDamon.png', 'Im_OrlandoBloom.png', 'Im_BradPitt.png', 'Im_DanielCraig.png', 'Im_GeorgeClooney.png', 'Im_LeonardoDiCaprio.png', 'Im_RobertPattinson.png', 'Im_DanielRadcliffe.png', 'Im_JustinTimberlake.png', 'Im_BenStiller.png'],diff,0,0.9000006999995094,12,66.66666666666667,
CHPA0602,train,inv,150,pos150_id3_im6.bmp_pos150_id3_im17.bmp,['Im_MattDamon.png', 'Im_OrlandoBloom.png', 'Im_BradPitt.png', 'Im_DanielCraig.png', 'Im_GeorgeClooney.png', 'Im_LeonardoDiCaprio.png', 'Im_RobertPattinson.png', 'Im_DanielRadcliffe.png', 'Im_JustinTimberlake.png', 'Im_BenStiller.png'],diff,0,0.49170930000036606,12,66.66666666666667,
CHPA0602,train,inv,150,pos150_id14_im16.bmp_pos150_id2_im16.bmp,['Im_MattDamon.png', 'Im_OrlandoBloom.png', 'Im_BradPitt.png', 'Im_DanielCraig.png', 'Im_GeorgeClooney.png', 'Im_LeonardoDiCaprio.png', 'Im_RobertPattinson.png', 'Im_DanielRadcliffe.png', 'Im_JustinTimberlake.png', 'Im_BenStiller.png'],diff,1,0.5919279000008828,13,66.66666666666667,
CHPA0602,train,inv,fs,posfs_id4_im15.bmp_posfs_id4_im7.bmp,['Im_MattDamon.png', 'Im_OrlandoBloom.png', 'Im_BradPitt.png', 'Im_DanielCraig.png', 'Im_GeorgeClooney.png', 'Im_LeonardoDiCaprio.png', 'Im_RobertPattinson.png', 'Im_DanielRadcliffe.png', 'Im_JustinTimberlake.png', 'Im_BenStiller.png'],same,1,0.708322299997235,14,66.66666666666667,
CHPA0602,train,inv,120,pos120_id4_im7.bmp_pos120_id16_im3.bmp,['Im_MattDamon.png', 'Im_OrlandoBloom.png', 'Im_BradPitt.png', 'Im_DanielCraig.png', 'Im_GeorgeClooney.png', 'Im_LeonardoDiCaprio.png', 'Im_RobertPattinson.png', 'Im_DanielRadcliffe.png', 'Im_JustinTimberlake.png', 'Im_BenStiller.png'],diff,1,0.6917176999995718,15,66.66666666666667,
CHPA0602,train,inv,0,pos0_id4_im20.bmp_pos0_id2_im3.bmp,['Im_MattDamon.png', 'Im_OrlandoBloom.png', 'Im_BradPitt.png', 'Im_DanielCraig.png', 'Im_GeorgeClooney.png', 'Im_LeonardoDiCaprio.png', 'Im_RobertPattinson.png', 'Im_DanielRadcliffe.png', 'Im_JustinTimberlake.png', 'Im_BenStiller.png'],same,0,1.0583015000011073,15,66.66666666666667,
CHPA0602,train,inv,90,pos90_id4_im7.bmp_pos90_id16_im3.bmp,['Im_MattDamon.png', 'Im_OrlandoBloom.png', 'Im_BradPitt.png', 'Im_DanielCraig.png', 'Im_GeorgeClooney.png', 'Im_LeonardoDiCaprio.png', 'Im_RobertPattinson.png', 'Im_DanielRadcliffe.png', 'Im_JustinTimberlake.png', 'Im_BenStiller.png'],diff,1,1.0417930000003253,16,66.66666666666667,
CHPA0602,train,inv,90,pos90_id16_im19.bmp_pos90_id16_im2.bmp,['Im_MattDamon.png', 'Im_OrlandoBloom.png', 'Im_BradPitt.png', 'Im_DanielCraig.png', 'Im_GeorgeClooney.png', 'Im_LeonardoDiCaprio.png', 'Im_RobertPattinson.png', 'Im_DanielRadcliffe.png', 'Im_JustinTimberlake.png', 'Im_BenStiller.png'],diff,0,1.9497193000024708,16,66.66666666666667,
CHPA0602,train,inv,60,pos60_id10_im1.bmp_pos60_id3_im17.bmp,['Im_MattDamon.png', 'Im_OrlandoBloom.png', 'Im_BradPitt.png', 'Im_DanielCraig.png', 'Im_GeorgeClooney.png', 'Im_LeonardoDiCaprio.png', 'Im_RobertPattinson.png', 'Im_DanielRadcliffe.png', 'Im_JustinTimberlake.png', 'Im_BenStiller.png'],same,0,0.6915794999986247,16,66.66666666666667,
CHPA0602,train,inv,0,pos0_id14_im18.bmp_pos0_id13_im10.bmp,['Im_MattDamon.png', 'Im_OrlandoBloom.png', 'Im_BradPitt.png', 'Im_DanielCraig.png', 'Im_GeorgeClooney.png', 'Im_LeonardoDiCaprio.png', 'Im_RobertPattinson.png', 'Im_DanielRadcliffe.png', 'Im_JustinTimberlake.png', 'Im_BenStiller.png'],diff,1,0.4751412000005075,17,66.66666666666667,
CHPA0602,train,inv,30,pos30_id4_im20.bmp_pos30_id2_im3.bmp,['Im_MattDamon.png', 'Im_OrlandoBloom.png', 'Im_BradPitt.png', 'Im_DanielCraig.png', 'Im_GeorgeClooney.png', 'Im_LeonardoDiCaprio.png', 'Im_RobertPattinson.png', 'Im_DanielRadcliffe.png', 'Im_JustinTimberlake.png', 'Im_BenStiller.png'],diff,1,0.625220599999011,18,66.66666666666667,
CHPA0602,train,inv,120,pos120_id3_im17.bmp_pos120_id3_im8.bmp,['Im_MattDamon.png', 'Im_OrlandoBloom.png', 'Im_BradPitt.png', 'Im_DanielCraig.png', 'Im_GeorgeClooney.png', 'Im_LeonardoDiCaprio.png', 'Im_RobertPattinson.png', 'Im_DanielRadcliffe.png', 'Im_JustinTimberlake.png', 'Im_BenStiller.png'],diff,0,0.7502448000013828,18,66.66666666666667,
CHPA0602,train,inv,60,pos60_id3_im6.bmp_pos60_id3_im8.bmp,['Im_MattDamon.png', 'Im_OrlandoBloom.png', 'Im_BradPitt.png', 'Im_DanielCraig.png', 'Im_GeorgeClooney.png', 'Im_LeonardoDiCaprio.png', 'Im_RobertPattinson.png', 'Im_DanielRadcliffe.png', 'Im_JustinTimberlake.png', 'Im_BenStiller.png'],diff,0,0.4499647000011464,18,66.66666666666667,
CHPA0602,train,inv,30,pos30_id14_im16.bmp_pos30_id14_im24.bmp,['Im_MattDamon.png', 'Im_OrlandoBloom.png', 'Im_BradPitt.png', 'Im_DanielCraig.png', 'Im_GeorgeClooney.png', 'Im_LeonardoDiCaprio.png', 'Im_RobertPattinson.png', 'Im_DanielRadcliffe.png', 'Im_JustinTimberlake.png', 'Im_BenStiller.png'],same,1,0.7837656999981846,19,66.66666666666667,
CHPA0602,train,pos,90,pos90_id13_im15.bmp_pos90_id19_im27.bmp,['Im_MattDamon.png', 'Im_OrlandoBloom.png', 'Im_BradPitt.png', 'Im_DanielCraig.png', 'Im_GeorgeClooney.png', 'Im_LeonardoDiCaprio.png', 'Im_RobertPattinson.png', 'Im_DanielRadcliffe.png', 'Im_JustinTimberlake.png', 'Im_BenStiller.png'],diff,1,0.458257300000696,20,66.66666666666667,
CHPA0602,train,pos,150,pos150_id14_im18.bmp_pos150_id13_im10.bmp,['Im_MattDamon.png', 'Im_OrlandoBloom.png', 'Im_BradPitt.png', 'Im_DanielCraig.png', 'Im_GeorgeClooney.png', 'Im_LeonardoDiCaprio.png', 'Im_RobertPattinson.png', 'Im_DanielRadcliffe.png', 'Im_JustinTimberlake.png', 'Im_BenStiller.png'],diff,1,0.5252093000017339,21,66.66666666666667,
CHPA0602,train,pos,30,pos30_id7_im26.bmp_pos30_id3_im8.bmp,['Im_MattDamon.png', 'Im_OrlandoBloom.png', 'Im_BradPitt.png', 'Im_DanielCraig.png', 'Im_GeorgeClooney.png', 'Im_LeonardoDiCaprio.png', 'Im_RobertPattinson.png', 'Im_DanielRadcliffe.png', 'Im_JustinTimberlake.png', 'Im_BenStiller.png'],diff,1,0.424684999998135,22,66.66666666666667,
CHPA0602,train,pos,90,pos90_id13_im29.bmp_pos90_id13_im15.bmp,['Im_MattDamon.png', 'Im_OrlandoBloom.png', 'Im_BradPitt.png', 'Im_DanielCraig.png', 'Im_GeorgeClooney.png', 'Im_LeonardoDiCaprio.png', 'Im_RobertPattinson.png', 'Im_DanielRadcliffe.png', 'Im_JustinTimberlake.png', 'Im_BenStiller.png'],same,1,0.6668712999999116,23,66.66666666666667,
CHPA0602,train,pos,60,pos60_id7_im26.bmp_pos60_id7_im15.bmp,['Im_MattDamon.png', 'Im_OrlandoBloom.png', 'Im_BradPitt.png', 'Im_DanielCraig.png', 'Im_GeorgeClooney.png', 'Im_LeonardoDiCaprio.png', 'Im_RobertPattinson.png', 'Im_DanielRadcliffe.png', 'Im_JustinTimberlake.png', 'Im_BenStiller.png'],same,1,0.4249897999980021,24,66.66666666666667,
CHPA0602,train,pos,120,pos120_id13_im15.bmp_pos120_id19_im27.bmp,['Im_MattDamon.png', 'Im_OrlandoBloom.png', 'Im_BradPitt.png', 'Im_DanielCraig.png', 'Im_GeorgeClooney.png', 'Im_LeonardoDiCaprio.png', 'Im_RobertPattinson.png', 'Im_DanielRadcliffe.png', 'Im_JustinTimberlake.png', 'Im_BenStiller.png'],diff,1,0.408332099999825,25,66.66666666666667,
CHPA0602,train,pos,120,pos120_id19_im4.bmp_pos120_id19_im27.bmp,['Im_MattDamon.png', 'Im_OrlandoBloom.png', 'Im_BradPitt.png', 'Im_DanielCraig.png', 'Im_GeorgeClooney.png', 'Im_LeonardoDiCaprio.png', 'Im_RobertPattinson.png', 'Im_DanielRadcliffe.png', 'Im_JustinTimberlake.png', 'Im_BenStiller.png'],same,1,0.4167678000012529,26,66.66666666666667,
CHPA0602,train,pos,fs,posfs_id4_im20.bmp_posfs_id4_im7.bmp,['Im_MattDamon.png', 'Im_OrlandoBloom.png', 'Im_BradPitt.png', 'Im_DanielCraig.png', 'Im_GeorgeClooney.png', 'Im_LeonardoDiCaprio.png', 'Im_RobertPattinson.png', 'Im_DanielRadcliffe.png', 'Im_JustinTimberlake.png', 'Im_BenStiller.png'],same,1,0.4083952999972098,27,66.66666666666667,
CHPA0602,train,pos,60,pos60_id5_im10.bmp_pos60_id5_im20.bmp,['Im_MattDamon.png', 'Im_OrlandoBloom.png', 'Im_BradPitt.png', 'Im_DanielCraig.png', 'Im_GeorgeClooney.png', 'Im_LeonardoDiCaprio.png', 'Im_RobertPattinson.png', 'Im_DanielRadcliffe.png', 'Im_JustinTimberlake.png', 'Im_BenStiller.png'],same,1,0.4247386999995797,28,66.66666666666667,
CHPA0602,train,pos,0,pos0_id16_im2.bmp_pos0_id16_im3.bmp,['Im_MattDamon.png', 'Im_OrlandoBloom.png', 'Im_BradPitt.png', 'Im_DanielCraig.png', 'Im_GeorgeClooney.png', 'Im_LeonardoDiCaprio.png', 'Im_RobertPattinson.png', 'Im_DanielRadcliffe.png', 'Im_JustinTimberlake.png', 'Im_BenStiller.png'],same,1,0.40839629999754834,29,66.66666666666667,
CHPA0602,train,pos,0,pos0_id2_im3.bmp_pos0_id2_im16.bmp,['Im_MattDamon.png', 'Im_OrlandoBloom.png', 'Im_BradPitt.png', 'Im_DanielCraig.png', 'Im_GeorgeClooney.png', 'Im_LeonardoDiCaprio.png', 'Im_RobertPattinson.png', 'Im_DanielRadcliffe.png', 'Im_JustinTimberlake.png', 'Im_BenStiller.png'],same,1,0.41647260000172537,30,66.66666666666667,
CHPA0602,train,pos,fs,posfs_id5_im10.bmp_posfs_id2_im2.bmp,['Im_MattDamon.png', 'Im_OrlandoBloom.png', 'Im_BradPitt.png', 'Im_DanielCraig.png', 'Im_GeorgeClooney.png', 'Im_LeonardoDiCaprio.png', 'Im_RobertPattinson.png', 'Im_DanielRadcliffe.png', 'Im_JustinTimberlake.png', 'Im_BenStiller.png'],diff,1,0.4083595999982208,31,66.66666666666667,
CHPA0602,train,pos,150,pos150_id16_im2.bmp_pos150_id16_im3.bmp,['Im_MattDamon.png', 'Im_OrlandoBloom.png', 'Im_BradPitt.png', 'Im_DanielCraig.png', 'Im_GeorgeClooney.png', 'Im_LeonardoDiCaprio.png', 'Im_RobertPattinson.png', 'Im_DanielRadcliffe.png', 'Im_JustinTimberlake.png', 'Im_BenStiller.png'],same,1,0.42497170000206097,32,66.66666666666667,
CHPA0602,train,pos,30,pos30_id14_im18.bmp_pos30_id13_im10.bmp,['Im_MattDamon.png', 'Im_OrlandoBloom.png', 'Im_BradPitt.png', 'Im_DanielCraig.png', 'Im_GeorgeClooney.png', 'Im_LeonardoDiCaprio.png', 'Im_RobertPattinson.png', 'Im_DanielRadcliffe.png', 'Im_JustinTimberlake.png', 'Im_BenStiller.png'],diff,1,0.5751366000004055,33,66.66666666666667,
CHPA0602,train,pos,0,pos0_id19_im27.bmp_pos0_id4_im15.bmp,['Im_MattDamon.png', 'Im_OrlandoBloom.png', 'Im_BradPitt.png', 'Im_DanielCraig.png', 'Im_GeorgeClooney.png', 'Im_LeonardoDiCaprio.png', 'Im_RobertPattinson.png', 'Im_DanielRadcliffe.png', 'Im_JustinTimberlake.png', 'Im_BenStiller.png'],diff,1,0.40836789999957546,1,78.57142857142857,
CHPA0602,train,pos,90,pos90_id14_im24.bmp_pos90_id14_im16.bmp,['Im_MattDamon.png', 'Im_OrlandoBloom.png', 'Im_BradPitt.png', 'Im_DanielCraig.png', 'Im_GeorgeClooney.png', 'Im_LeonardoDiCaprio.png', 'Im_RobertPattinson.png', 'Im_DanielRadcliffe.png', 'Im_JustinTimberlake.png', 'Im_BenStiller.png'],same,1,0.549985800000286,2,78.57142857142857,
CHPA0602,train,pos,150,pos150_id3_im8.bmp_pos150_id3_im6.bmp,['Im_MattDamon.png', 'Im_OrlandoBloom.png', 'Im_BradPitt.png', 'Im_DanielCraig.png', 'Im_GeorgeClooney.png', 'Im_LeonardoDiCaprio.png', 'Im_RobertPattinson.png', 'Im_DanielRadcliffe.png', 'Im_JustinTimberlake.png', 'Im_BenStiller.png'],same,1,0.641730400002416,3,78.57142857142857,
CHPA0602,train,pos,fs,posfs_id16_im19.bmp_posfs_id16_im2.bmp,['Im_MattDamon.png', 'Im_OrlandoBloom.png', 'Im_BradPitt.png', 'Im_DanielCraig.png', 'Im_GeorgeClooney.png', 'Im_LeonardoDiCaprio.png', 'Im_RobertPattinson.png', 'Im_DanielRadcliffe.png', 'Im_JustinTimberlake.png', 'Im_BenStiller.png'],same,1,0.43333720000009635,4,78.57142857142857,
CHPA0602,train,pos,fs,posfs_id16_im3.bmp_posfs_id16_im19.bmp,['Im_MattDamon.png', 'Im_OrlandoBloom.png', 'Im_BradPitt.png', 'Im_DanielCraig.png', 'Im_GeorgeClooney.png', 'Im_LeonardoDiCaprio.png', 'Im_RobertPattinson.png', 'Im_DanielRadcliffe.png', 'Im_JustinTimberlake.png', 'Im_BenStiller.png'],same,1,0.4167569999990519,5,78.57142857142857,
CHPA0602,train,pos,60,pos60_id2_im3.bmp_pos60_id2_im2.bmp,['Im_MattDamon.png', 'Im_OrlandoBloom.png', 'Im_BradPitt.png', 'Im_DanielCraig.png', 'Im_GeorgeClooney.png', 'Im_LeonardoDiCaprio.png', 'Im_RobertPattinson.png', 'Im_DanielRadcliffe.png', 'Im_JustinTimberlake.png', 'Im_BenStiller.png'],same,1,0.4085181999980705,6,78.57142857142857,
CHPA0602,train,pos,60,pos60_id5_im1.bmp_pos60_id10_im1.bmp,['Im_MattDamon.png', 'Im_OrlandoBloom.png', 'Im_BradPitt.png', 'Im_DanielCraig.png', 'Im_GeorgeClooney.png', 'Im_LeonardoDiCaprio.png', 'Im_RobertPattinson.png', 'Im_DanielRadcliffe.png', 'Im_JustinTimberlake.png', 'Im_BenStiller.png'],diff,1,0.43354330000147456,7,78.57142857142857,
CHPA0602,train,pos,0,pos0_id7_im26.bmp_pos0_id19_im4.bmp,['Im_MattDamon.png', 'Im_OrlandoBloom.png', 'Im_BradPitt.png', 'Im_DanielCraig.png', 'Im_GeorgeClooney.png', 'Im_LeonardoDiCaprio.png', 'Im_RobertPattinson.png', 'Im_DanielRadcliffe.png', 'Im_JustinTimberlake.png', 'Im_BenStiller.png'],diff,1,0.40810849999979837,8,78.57142857142857,
CHPA0602,train,pos,120,pos120_id2_im3.bmp_pos120_id4_im20.bmp,['Im_MattDamon.png', 'Im_OrlandoBloom.png', 'Im_BradPitt.png', 'Im_DanielCraig.png', 'Im_GeorgeClooney.png', 'Im_LeonardoDiCaprio.png', 'Im_RobertPattinson.png', 'Im_DanielRadcliffe.png', 'Im_JustinTimberlake.png', 'Im_BenStiller.png'],diff,1,1.0503341000003275,9,78.57142857142857,
CHPA0602,train,pos,90,pos90_id10_im1.bmp_pos90_id10_im17.bmp,['Im_MattDamon.png', 'Im_OrlandoBloom.png', 'Im_BradPitt.png', 'Im_DanielCraig.png', 'Im_GeorgeClooney.png', 'Im_LeonardoDiCaprio.png', 'Im_RobertPattinson.png', 'Im_DanielRadcliffe.png', 'Im_JustinTimberlake.png', 'Im_BenStiller.png'],same,1,0.4750424000012572,10,78.57142857142857,
CHPA0602,train,pos,30,pos30_id7_im14.bmp_pos30_id7_im26.bmp,['Im_MattDamon.png', 'Im_OrlandoBloom.png', 'Im_BradPitt.png', 'Im_DanielCraig.png', 'Im_GeorgeClooney.png', 'Im_LeonardoDiCaprio.png', 'Im_RobertPattinson.png', 'Im_DanielRadcliffe.png', 'Im_JustinTimberlake.png', 'Im_BenStiller.png'],same,1,0.4164082999996026,11,78.57142857142857,
CHPA0602,train,pos,30,pos30_id5_im10.bmp_pos30_id14_im18.bmp,['Im_MattDamon.png', 'Im_OrlandoBloom.png', 'Im_BradPitt.png', 'Im_DanielCraig.png', 'Im_GeorgeClooney.png', 'Im_LeonardoDiCaprio.png', 'Im_RobertPattinson.png', 'Im_DanielRadcliffe.png', 'Im_JustinTimberlake.png', 'Im_BenStiller.png'],diff,1,0.42505570000139414,12,78.57142857142857,
CHPA0602,train,pos,150,pos150_id5_im1.bmp_pos150_id4_im15.bmp,['Im_MattDamon.png', 'Im_OrlandoBloom.png', 'Im_BradPitt.png', 'Im_DanielCraig.png', 'Im_GeorgeClooney.png', 'Im_LeonardoDiCaprio.png', 'Im_RobertPattinson.png', 'Im_DanielRadcliffe.png', 'Im_JustinTimberlake.png', 'Im_BenStiller.png'],diff,1,0.4250699000003806,13,78.57142857142857,
CHPA0602,train,pos,120,pos120_id3_im17.bmp_pos120_id3_im6.bmp,['Im_MattDamon.png', 'Im_OrlandoBloom.png', 'Im_BradPitt.png', 'Im_DanielCraig.png', 'Im_GeorgeClooney.png', 'Im_LeonardoDiCaprio.png', 'Im_RobertPattinson.png', 'Im_DanielRadcliffe.png', 'Im_JustinTimberlake.png', 'Im_BenStiller.png'],diff,0,0.41669399999955203,13,78.57142857142857,
CHPA0602,train,inv,0,pos0_id10_im17.bmp_pos0_id16_im2.bmp,['Im_MattDamon.png', 'Im_OrlandoBloom.png', 'Im_BradPitt.png', 'Im_DanielCraig.png', 'Im_GeorgeClooney.png', 'Im_LeonardoDiCaprio.png', 'Im_RobertPattinson.png', 'Im_DanielRadcliffe.png', 'Im_JustinTimberlake.png', 'Im_BenStiller.png'],diff,1,0.41659749999962514,14,78.57142857142857,
CHPA0602,train,inv,90,pos90_id10_im1.bmp_pos90_id10_im17.bmp,['Im_MattDamon.png', 'Im_OrlandoBloom.png', 'Im_BradPitt.png', 'Im_DanielCraig.png', 'Im_GeorgeClooney.png', 'Im_LeonardoDiCaprio.png', 'Im_RobertPattinson.png', 'Im_DanielRadcliffe.png', 'Im_JustinTimberlake.png', 'Im_BenStiller.png'],diff,0,0.49170549999689683,14,78.57142857142857,
CHPA0602,train,inv,150,pos150_id7_im26.bmp_pos150_id7_im15.bmp,['Im_MattDamon.png', 'Im_OrlandoBloom.png', 'Im_BradPitt.png', 'Im_DanielCraig.png', 'Im_GeorgeClooney.png', 'Im_LeonardoDiCaprio.png', 'Im_RobertPattinson.png', 'Im_DanielRadcliffe.png', 'Im_JustinTimberlake.png', 'Im_BenStiller.png'],same,1,0.4166521000006469,15,78.57142857142857,
CHPA0602,train,inv,90,pos90_id7_im14.bmp_pos90_id7_im15.bmp,['Im_MattDamon.png', 'Im_OrlandoBloom.png', 'Im_BradPitt.png', 'Im_DanielCraig.png', 'Im_GeorgeClooney.png', 'Im_LeonardoDiCaprio.png', 'Im_RobertPattinson.png', 'Im_DanielRadcliffe.png', 'Im_JustinTimberlake.png', 'Im_BenStiller.png'],same,1,0.5001326999990852,16,78.57142857142857,
CHPA0602,train,inv,0,pos0_id4_im7.bmp_pos0_id16_im2.bmp,['Im_MattDamon.png', 'Im_OrlandoBloom.png', 'Im_BradPitt.png', 'Im_DanielCraig.png', 'Im_GeorgeClooney.png', 'Im_LeonardoDiCaprio.png', 'Im_RobertPattinson.png', 'Im_DanielRadcliffe.png', 'Im_JustinTimberlake.png', 'Im_BenStiller.png'],diff,1,0.4327610000000277,17,78.57142857142857,
CHPA0602,train,inv,30,pos30_id7_im15.bmp_pos30_id2_im16.bmp,['Im_MattDamon.png', 'Im_OrlandoBloom.png', 'Im_BradPitt.png', 'Im_DanielCraig.png', 'Im_GeorgeClooney.png', 'Im_LeonardoDiCaprio.png', 'Im_RobertPattinson.png', 'Im_DanielRadcliffe.png', 'Im_JustinTimberlake.png', 'Im_BenStiller.png'],same,0,0.42503860000215354,17,78.57142857142857,
CHPA0602,train,inv,fs,posfs_id19_im4.bmp_posfs_id7_im15.bmp,['Im_MattDamon.png', 'Im_OrlandoBloom.png', 'Im_BradPitt.png', 'Im_DanielCraig.png', 'Im_GeorgeClooney.png', 'Im_LeonardoDiCaprio.png', 'Im_RobertPattinson.png', 'Im_DanielRadcliffe.png', 'Im_JustinTimberlake.png', 'Im_BenStiller.png'],diff,1,0.41656150000198977,18,78.57142857142857,
CHPA0602,train,inv,150,pos150_id19_im8.bmp_pos150_id13_im10.bmp,['Im_MattDamon.png', 'Im_OrlandoBloom.png', 'Im_BradPitt.png', 'Im_DanielCraig.png', 'Im_GeorgeClooney.png', 'Im_LeonardoDiCaprio.png', 'Im_RobertPattinson.png', 'Im_DanielRadcliffe.png', 'Im_JustinTimberlake.png', 'Im_BenStiller.png'],diff,1,0.45861580000200775,19,78.57142857142857,
CHPA0602,train,inv,30,pos30_id19_im4.bmp_pos30_id7_im15.bmp,['Im_MattDamon.png', 'Im_OrlandoBloom.png', 'Im_BradPitt.png', 'Im_DanielCraig.png', 'Im_GeorgeClooney.png', 'Im_LeonardoDiCaprio.png', 'Im_RobertPattinson.png', 'Im_DanielRadcliffe.png', 'Im_JustinTimberlake.png', 'Im_BenStiller.png'],diff,1,0.4167151000001468,20,78.57142857142857,
CHPA0602,train,inv,60,pos60_id10_im18.bmp_pos60_id2_im3.bmp,['Im_MattDamon.png', 'Im_OrlandoBloom.png', 'Im_BradPitt.png', 'Im_DanielCraig.png', 'Im_GeorgeClooney.png', 'Im_LeonardoDiCaprio.png', 'Im_RobertPattinson.png', 'Im_DanielRadcliffe.png', 'Im_JustinTimberlake.png', 'Im_BenStiller.png'],diff,1,0.408099599997513,21,78.57142857142857,
CHPA0602,train,inv,120,pos120_id14_im24.bmp_pos120_id7_im14.bmp,['Im_MattDamon.png', 'Im_OrlandoBloom.png', 'Im_BradPitt.png', 'Im_DanielCraig.png', 'Im_GeorgeClooney.png', 'Im_LeonardoDiCaprio.png', 'Im_RobertPattinson.png', 'Im_DanielRadcliffe.png', 'Im_JustinTimberlake.png', 'Im_BenStiller.png'],diff,1,0.43337419999807025,22,78.57142857142857,
CHPA0602,train,inv,fs,posfs_id2_im3.bmp_posfs_id2_im16.bmp,['Im_MattDamon.png', 'Im_OrlandoBloom.png', 'Im_BradPitt.png', 'Im_DanielCraig.png', 'Im_GeorgeClooney.png', 'Im_LeonardoDiCaprio.png', 'Im_RobertPattinson.png', 'Im_DanielRadcliffe.png', 'Im_JustinTimberlake.png', 'Im_BenStiller.png'],same,1,0.4164000999990094,23,78.57142857142857,
CHPA0602,train,inv,120,pos120_id14_im18.bmp_pos120_id14_im16.bmp,['Im_MattDamon.png', 'Im_OrlandoBloom.png', 'Im_BradPitt.png', 'Im_DanielCraig.png', 'Im_GeorgeClooney.png', 'Im_LeonardoDiCaprio.png', 'Im_RobertPattinson.png', 'Im_DanielRadcliffe.png', 'Im_JustinTimberlake.png', 'Im_BenStiller.png'],same,1,0.4753534999981639,24,78.57142857142857,
CHPA0602,train,inv,60,pos60_id7_im14.bmp_pos60_id7_im15.bmp,['Im_MattDamon.png', 'Im_OrlandoBloom.png', 'Im_BradPitt.png', 'Im_DanielCraig.png', 'Im_GeorgeClooney.png', 'Im_LeonardoDiCaprio.png', 'Im_RobertPattinson.png', 'Im_DanielRadcliffe.png', 'Im_JustinTimberlake.png', 'Im_BenStiller.png'],same,1,0.42500939999808907,25,78.57142857142857,
CHPA0602,train,neg,0,neg0_id14_im18.bmp_neg0_id5_im10.bmp,['Im_MattDamon.png', 'Im_OrlandoBloom.png', 'Im_BradPitt.png', 'Im_DanielCraig.png', 'Im_GeorgeClooney.png', 'Im_LeonardoDiCaprio.png', 'Im_RobertPattinson.png', 'Im_DanielRadcliffe.png', 'Im_JustinTimberlake.png', 'Im_BenStiller.png'],diff,1,0.4082601000009163,26,78.57142857142857,
CHPA0602,train,neg,30,neg30_id4_im15.bmp_neg30_id19_im27.bmp,['Im_MattDamon.png', 'Im_OrlandoBloom.png', 'Im_BradPitt.png', 'Im_DanielCraig.png', 'Im_GeorgeClooney.png', 'Im_LeonardoDiCaprio.png', 'Im_RobertPattinson.png', 'Im_DanielRadcliffe.png', 'Im_JustinTimberlake.png', 'Im_BenStiller.png'],same,0,0.40861450000011246,26,78.57142857142857,
CHPA0602,train,neg,30,neg30_id5_im20.bmp_neg30_id2_im2.bmp,['Im_MattDamon.png', 'Im_OrlandoBloom.png', 'Im_BradPitt.png', 'Im_DanielCraig.png', 'Im_GeorgeClooney.png', 'Im_LeonardoDiCaprio.png', 'Im_RobertPattinson.png', 'Im_DanielRadcliffe.png', 'Im_JustinTimberlake.png', 'Im_BenStiller.png'],diff,1,0.42510889999903156,27,78.57142857142857,
CHPA0602,train,neg,60,neg60_id10_im1.bmp_neg60_id10_im18.bmp,['Im_MattDamon.png', 'Im_OrlandoBloom.png', 'Im_BradPitt.png', 'Im_DanielCraig.png', 'Im_GeorgeClooney.png', 'Im_LeonardoDiCaprio.png', 'Im_RobertPattinson.png', 'Im_DanielRadcliffe.png', 'Im_JustinTimberlake.png', 'Im_BenStiller.png'],diff,0,0.408365600000252,27,78.57142857142857,
CHPA0602,train,neg,60,neg60_id7_im15.bmp_neg60_id7_im26.bmp,['Im_MattDamon.png', 'Im_OrlandoBloom.png', 'Im_BradPitt.png', 'Im_DanielCraig.png', 'Im_GeorgeClooney.png', 'Im_LeonardoDiCaprio.png', 'Im_RobertPattinson.png', 'Im_DanielRadcliffe.png', 'Im_JustinTimberlake.png', 'Im_BenStiller.png'],diff,0,0.8499851000015042,27,78.57142857142857,
CHPA0602,train,neg,90,neg90_id13_im10.bmp_neg90_id13_im29.bmp,['Im_MattDamon.png', 'Im_OrlandoBloom.png', 'Im_BradPitt.png', 'Im_DanielCraig.png', 'Im_GeorgeClooney.png', 'Im_LeonardoDiCaprio.png', 'Im_RobertPattinson.png', 'Im_DanielRadcliffe.png', 'Im_JustinTimberlake.png', 'Im_BenStiller.png'],same,1,0.4667557000029774,28,78.57142857142857,
CHPA0602,train,neg,fs,negfs_id3_im8.bmp_negfs_id3_im17.bmp,['Im_MattDamon.png', 'Im_OrlandoBloom.png', 'Im_BradPitt.png', 'Im_DanielCraig.png', 'Im_GeorgeClooney.png', 'Im_LeonardoDiCaprio.png', 'Im_RobertPattinson.png', 'Im_DanielRadcliffe.png', 'Im_JustinTimberlake.png', 'Im_BenStiller.png'],same,1,0.7001282999990508,29,78.57142857142857,
CHPA0602,train,neg,90,neg90_id5_im20.bmp_neg90_id14_im16.bmp,['Im_MattDamon.png', 'Im_OrlandoBloom.png', 'Im_BradPitt.png', 'Im_DanielCraig.png', 'Im_GeorgeClooney.png', 'Im_LeonardoDiCaprio.png', 'Im_RobertPattinson.png', 'Im_DanielRadcliffe.png', 'Im_JustinTimberlake.png', 'Im_BenStiller.png'],diff,1,0.5748775000029127,30,78.57142857142857,
CHPA0602,train,neg,150,neg150_id3_im6.bmp_neg150_id16_im3.bmp,['Im_MattDamon.png', 'Im_OrlandoBloom.png', 'Im_BradPitt.png', 'Im_DanielCraig.png', 'Im_GeorgeClooney.png', 'Im_LeonardoDiCaprio.png', 'Im_RobertPattinson.png', 'Im_DanielRadcliffe.png', 'Im_JustinTimberlake.png', 'Im_BenStiller.png'],diff,1,0.4752623999993375,31,78.57142857142857,
CHPA0602,train,neg,fs,negfs_id16_im2.bmp_negfs_id4_im7.bmp,['Im_MattDamon.png', 'Im_OrlandoBloom.png', 'Im_BradPitt.png', 'Im_DanielCraig.png', 'Im_GeorgeClooney.png', 'Im_LeonardoDiCaprio.png', 'Im_RobertPattinson.png', 'Im_DanielRadcliffe.png', 'Im_JustinTimberlake.png', 'Im_BenStiller.png'],diff,1,0.41661540000131936,32,78.57142857142857,
CHPA0602,train,neg,120,neg120_id2_im3.bmp_neg120_id4_im20.bmp,['Im_MattDamon.png', 'Im_OrlandoBloom.png', 'Im_BradPitt.png', 'Im_DanielCraig.png', 'Im_GeorgeClooney.png', 'Im_LeonardoDiCaprio.png', 'Im_RobertPattinson.png', 'Im_DanielRadcliffe.png', 'Im_JustinTimberlake.png', 'Im_BenStiller.png'],same,0,0.7749059999987367,32,78.57142857142857,
CHPA0602,train,neg,120,neg120_id4_im7.bmp_neg120_id16_im3.bmp,['Im_MattDamon.png', 'Im_OrlandoBloom.png', 'Im_BradPitt.png', 'Im_DanielCraig.png', 'Im_GeorgeClooney.png', 'Im_LeonardoDiCaprio.png', 'Im_RobertPattinson.png', 'Im_DanielRadcliffe.png', 'Im_JustinTimberlake.png', 'Im_BenStiller.png'],diff,1,0.4330608999989636,33,78.57142857142857,
CHPA0602,train,neg,150,neg150_id4_im15.bmp_neg150_id4_im20.bmp,['Im_MattDamon.png', 'Im_OrlandoBloom.png', 'Im_BradPitt.png', 'Im_DanielCraig.png', 'Im_GeorgeClooney.png', 'Im_LeonardoDiCaprio.png', 'Im_RobertPattinson.png', 'Im_DanielRadcliffe.png', 'Im_JustinTimberlake.png', 'Im_BenStiller.png'],diff,0,0.6586791999980051,33,78.57142857142857,
CHPA0602,train,neg,0,neg0_id13_im10.bmp_neg0_id13_im15.bmp,['Im_MattDamon.png', 'Im_OrlandoBloom.png', 'Im_BradPitt.png', 'Im_DanielCraig.png', 'Im_GeorgeClooney.png', 'Im_LeonardoDiCaprio.png', 'Im_RobertPattinson.png', 'Im_DanielRadcliffe.png', 'Im_JustinTimberlake.png', 'Im_BenStiller.png'],diff,0,1.3831824000008055,33,78.57142857142857,
CHPA0602,0,inv,60,pos60_id19_im8.bmp_pos60_id19_im4.bmp,['Im_MattDamon.png', 'Im_OrlandoBloom.png', 'Im_BradPitt.png', 'Im_DanielCraig.png', 'Im_GeorgeClooney.png', 'Im_LeonardoDiCaprio.png', 'Im_RobertPattinson.png', 'Im_DanielRadcliffe.png', 'Im_JustinTimberlake.png', 'Im_BenStiller.png'],diff,0,0.8251869999985502,0,0,
CHPA0602,0,inv,fs,posfs_id3_im17.bmp_posfs_id10_im1.bmp,['Im_MattDamon.png', 'Im_OrlandoBloom.png', 'Im_BradPitt.png', 'Im_DanielCraig.png', 'Im_GeorgeClooney.png', 'Im_LeonardoDiCaprio.png', 'Im_RobertPattinson.png', 'Im_DanielRadcliffe.png', 'Im_JustinTimberlake.png', 'Im_BenStiller.png'],diff,1,0.5002910000002885,1,0,
CHPA0602,0,inv,30,pos30_id10_im1.bmp_pos30_id5_im1.bmp,['Im_MattDamon.png', 'Im_OrlandoBloom.png', 'Im_BradPitt.png', 'Im_DanielCraig.png', 'Im_GeorgeClooney.png', 'Im_LeonardoDiCaprio.png', 'Im_RobertPattinson.png', 'Im_DanielRadcliffe.png', 'Im_JustinTimberlake.png', 'Im_BenStiller.png'],diff,1,0.41681880000032834,2,0,
CHPA0602,0,inv,0,pos0_id3_im17.bmp_pos0_id3_im8.bmp,['Im_MattDamon.png', 'Im_OrlandoBloom.png', 'Im_BradPitt.png', 'Im_DanielCraig.png', 'Im_GeorgeClooney.png', 'Im_LeonardoDiCaprio.png', 'Im_RobertPattinson.png', 'Im_DanielRadcliffe.png', 'Im_JustinTimberlake.png', 'Im_BenStiller.png'],same,1,0.6756113000010373,3,0,
CHPA0602,0,inv,fs,posfs_id5_im20.bmp_posfs_id2_im2.bmp,['Im_MattDamon.png', 'Im_OrlandoBloom.png', 'Im_BradPitt.png', 'Im_DanielCraig.png', 'Im_GeorgeClooney.png', 'Im_LeonardoDiCaprio.png', 'Im_RobertPattinson.png', 'Im_DanielRadcliffe.png', 'Im_JustinTimberlake.png', 'Im_BenStiller.png'],diff,1,0.4251107999989472,4,0,
CHPA0602,0,inv,30,pos30_id13_im29.bmp_pos30_id10_im18.bmp,['Im_MattDamon.png', 'Im_OrlandoBloom.png', 'Im_BradPitt.png', 'Im_DanielCraig.png', 'Im_GeorgeClooney.png', 'Im_LeonardoDiCaprio.png', 'Im_RobertPattinson.png', 'Im_DanielRadcliffe.png', 'Im_JustinTimberlake.png', 'Im_BenStiller.png'],diff,1,0.6169866000018374,5,0,
CHPA0602,0,inv,0,pos0_id13_im10.bmp_pos0_id13_im15.bmp,['Im_MattDamon.png', 'Im_OrlandoBloom.png', 'Im_BradPitt.png', 'Im_DanielCraig.png', 'Im_GeorgeClooney.png', 'Im_LeonardoDiCaprio.png', 'Im_RobertPattinson.png', 'Im_DanielRadcliffe.png', 'Im_JustinTimberlake.png', 'Im_BenStiller.png'],same,1,0.6918439000000944,6,0,
CHPA0602,0,inv,150,pos150_id14_im18.bmp_pos150_id14_im24.bmp,['Im_MattDamon.png', 'Im_OrlandoBloom.png', 'Im_BradPitt.png', 'Im_DanielCraig.png', 'Im_GeorgeClooney.png', 'Im_LeonardoDiCaprio.png', 'Im_RobertPattinson.png', 'Im_DanielRadcliffe.png', 'Im_JustinTimberlake.png', 'Im_BenStiller.png'],same,1,0.42512969999734196,7,0,
CHPA0602,0,inv,60,pos60_id10_im18.bmp_pos60_id10_im17.bmp,['Im_MattDamon.png', 'Im_OrlandoBloom.png', 'Im_BradPitt.png', 'Im_DanielCraig.png', 'Im_GeorgeClooney.png', 'Im_LeonardoDiCaprio.png', 'Im_RobertPattinson.png', 'Im_DanielRadcliffe.png', 'Im_JustinTimberlake.png', 'Im_BenStiller.png'],diff,0,0.40839649999907124,7,0,
CHPA0602,0,inv,150,pos150_id5_im10.bmp_pos150_id2_im2.bmp,['Im_MattDamon.png', 'Im_OrlandoBloom.png', 'Im_BradPitt.png', 'Im_DanielCraig.png', 'Im_GeorgeClooney.png', 'Im_LeonardoDiCaprio.png', 'Im_RobertPattinson.png', 'Im_DanielRadcliffe.png', 'Im_JustinTimberlake.png', 'Im_BenStiller.png'],diff,1,0.4166210000003048,8,0,
CHPA0602,0,inv,120,pos120_id13_im10.bmp_pos120_id19_im8.bmp,['Im_MattDamon.png', 'Im_OrlandoBloom.png', 'Im_BradPitt.png', 'Im_DanielCraig.png', 'Im_GeorgeClooney.png', 'Im_LeonardoDiCaprio.png', 'Im_RobertPattinson.png', 'Im_DanielRadcliffe.png', 'Im_JustinTimberlake.png', 'Im_BenStiller.png'],diff,1,0.41665889999785577,9,0,
CHPA0602,0,inv,120,pos120_id2_im16.bmp_pos120_id2_im2.bmp,['Im_MattDamon.png', 'Im_OrlandoBloom.png', 'Im_BradPitt.png', 'Im_DanielCraig.png', 'Im_GeorgeClooney.png', 'Im_LeonardoDiCaprio.png', 'Im_RobertPattinson.png', 'Im_DanielRadcliffe.png', 'Im_JustinTimberlake.png', 'Im_BenStiller.png'],same,1,1.2087723999975424,10,0,
CHPA0602,0,inv,90,pos90_id13_im29.bmp_pos90_id13_im10.bmp,['Im_MattDamon.png', 'Im_OrlandoBloom.png', 'Im_BradPitt.png', 'Im_DanielCraig.png', 'Im_GeorgeClooney.png', 'Im_LeonardoDiCaprio.png', 'Im_RobertPattinson.png', 'Im_DanielRadcliffe.png', 'Im_JustinTimberlake.png', 'Im_BenStiller.png'],diff,0,0.4333824999994249,10,0,
CHPA0602,0,inv,90,pos90_id10_im17.bmp_pos90_id3_im6.bmp,['Im_MattDamon.png', 'Im_OrlandoBloom.png', 'Im_BradPitt.png', 'Im_DanielCraig.png', 'Im_GeorgeClooney.png', 'Im_LeonardoDiCaprio.png', 'Im_RobertPattinson.png', 'Im_DanielRadcliffe.png', 'Im_JustinTimberlake.png', 'Im_BenStiller.png'],diff,1,0.7000984000005701,11,0,
CHPA0602,1,pos,0,pos0_id10_im1.bmp_pos0_id3_im17.bmp,['Im_MattDamon.png', 'Im_OrlandoBloom.png', 'Im_BradPitt.png', 'Im_DanielCraig.png', 'Im_GeorgeClooney.png', 'Im_LeonardoDiCaprio.png', 'Im_RobertPattinson.png', 'Im_DanielRadcliffe.png', 'Im_JustinTimberlake.png', 'Im_BenStiller.png'],diff,1,0.4166708999982802,12,0,
CHPA0602,1,pos,150,pos150_id19_im4.bmp_pos150_id7_im15.bmp,['Im_MattDamon.png', 'Im_OrlandoBloom.png', 'Im_BradPitt.png', 'Im_DanielCraig.png', 'Im_GeorgeClooney.png', 'Im_LeonardoDiCaprio.png', 'Im_RobertPattinson.png', 'Im_DanielRadcliffe.png', 'Im_JustinTimberlake.png', 'Im_BenStiller.png'],diff,1,0.41660029999911785,13,0,
CHPA0602,1,pos,90,pos90_id14_im18.bmp_pos90_id14_im16.bmp,['Im_MattDamon.png', 'Im_OrlandoBloom.png', 'Im_BradPitt.png', 'Im_DanielCraig.png', 'Im_GeorgeClooney.png', 'Im_LeonardoDiCaprio.png', 'Im_RobertPattinson.png', 'Im_DanielRadcliffe.png', 'Im_JustinTimberlake.png', 'Im_BenStiller.png'],diff,0,0.4668175999977393,13,0,
CHPA0602,1,pos,fs,posfs_id3_im17.bmp_posfs_id13_im29.bmp,['Im_MattDamon.png', 'Im_OrlandoBloom.png', 'Im_BradPitt.png', 'Im_DanielCraig.png', 'Im_GeorgeClooney.png', 'Im_LeonardoDiCaprio.png', 'Im_RobertPattinson.png', 'Im_DanielRadcliffe.png', 'Im_JustinTimberlake.png', 'Im_BenStiller.png'],same,0,0.4252328000002308,13,0,
CHPA0602,1,pos,30,pos30_id3_im17.bmp_pos30_id3_im8.bmp,['Im_MattDamon.png', 'Im_OrlandoBloom.png', 'Im_BradPitt.png', 'Im_DanielCraig.png', 'Im_GeorgeClooney.png', 'Im_LeonardoDiCaprio.png', 'Im_RobertPattinson.png', 'Im_DanielRadcliffe.png', 'Im_JustinTimberlake.png', 'Im_BenStiller.png'],diff,0,1.9669758999989426,13,0,
CHPA0602,1,pos,30,pos30_id2_im2.bmp_pos30_id2_im16.bmp,['Im_MattDamon.png', 'Im_OrlandoBloom.png', 'Im_BradPitt.png', 'Im_DanielCraig.png', 'Im_GeorgeClooney.png', 'Im_LeonardoDiCaprio.png', 'Im_RobertPattinson.png', 'Im_DanielRadcliffe.png', 'Im_JustinTimberlake.png', 'Im_BenStiller.png'],same,1,0.42504940000071656,14,0,
CHPA0602,1,pos,0,pos0_id3_im6.bmp_pos0_id10_im17.bmp,['Im_MattDamon.png', 'Im_OrlandoBloom.png', 'Im_BradPitt.png', 'Im_DanielCraig.png', 'Im_GeorgeClooney.png', 'Im_LeonardoDiCaprio.png', 'Im_RobertPattinson.png', 'Im_DanielRadcliffe.png', 'Im_JustinTimberlake.png', 'Im_BenStiller.png'],diff,1,0.6419889999997395,15,0,
CHPA0602,1,pos,150,pos150_id19_im27.bmp_pos150_id19_im4.bmp,['Im_MattDamon.png', 'Im_OrlandoBloom.png', 'Im_BradPitt.png', 'Im_DanielCraig.png', 'Im_GeorgeClooney.png', 'Im_LeonardoDiCaprio.png', 'Im_RobertPattinson.png', 'Im_DanielRadcliffe.png', 'Im_JustinTimberlake.png', 'Im_BenStiller.png'],same,1,0.41667129999768804,16,0,
CHPA0602,1,pos,90,pos90_id7_im14.bmp_pos90_id4_im20.bmp,['Im_MattDamon.png', 'Im_OrlandoBloom.png', 'Im_BradPitt.png', 'Im_DanielCraig.png', 'Im_GeorgeClooney.png', 'Im_LeonardoDiCaprio.png', 'Im_RobertPattinson.png', 'Im_DanielRadcliffe.png', 'Im_JustinTimberlake.png', 'Im_BenStiller.png'],diff,1,0.47509550000177114,17,0,
CHPA0602,1,pos,120,pos120_id4_im7.bmp_pos120_id16_im2.bmp,['Im_MattDamon.png', 'Im_OrlandoBloom.png', 'Im_BradPitt.png', 'Im_DanielCraig.png', 'Im_GeorgeClooney.png', 'Im_LeonardoDiCaprio.png', 'Im_RobertPattinson.png', 'Im_DanielRadcliffe.png', 'Im_JustinTimberlake.png', 'Im_BenStiller.png'],diff,1,0.4167407999993884,18,0,
CHPA0602,1,pos,120,pos120_id13_im29.bmp_pos120_id13_im10.bmp,['Im_MattDamon.png', 'Im_OrlandoBloom.png', 'Im_BradPitt.png', 'Im_DanielCraig.png', 'Im_GeorgeClooney.png', 'Im_LeonardoDiCaprio.png', 'Im_RobertPattinson.png', 'Im_DanielRadcliffe.png', 'Im_JustinTimberlake.png', 'Im_BenStiller.png'],same,1,0.4084592999970482,19,0,
CHPA0602,1,pos,fs,posfs_id13_im10.bmp_posfs_id13_im29.bmp,['Im_MattDamon.png', 'Im_OrlandoBloom.png', 'Im_BradPitt.png', 'Im_DanielCraig.png', 'Im_GeorgeClooney.png', 'Im_LeonardoDiCaprio.png', 'Im_RobertPattinson.png', 'Im_DanielRadcliffe.png', 'Im_JustinTimberlake.png', 'Im_BenStiller.png'],same,1,0.4333721000002697,20,0,
CHPA0602,1,pos,60,pos60_id19_im8.bmp_pos60_id14_im24.bmp,['Im_MattDamon.png', 'Im_OrlandoBloom.png', 'Im_BradPitt.png', 'Im_DanielCraig.png', 'Im_GeorgeClooney.png', 'Im_LeonardoDiCaprio.png', 'Im_RobertPattinson.png', 'Im_DanielRadcliffe.png', 'Im_JustinTimberlake.png', 'Im_BenStiller.png'],diff,1,0.4167206999991322,21,0,
CHPA0602,1,pos,60,pos60_id19_im4.bmp_pos60_id19_im8.bmp,['Im_MattDamon.png', 'Im_OrlandoBloom.png', 'Im_BradPitt.png', 'Im_DanielCraig.png', 'Im_GeorgeClooney.png', 'Im_LeonardoDiCaprio.png', 'Im_RobertPattinson.png', 'Im_DanielRadcliffe.png', 'Im_JustinTimberlake.png', 'Im_BenStiller.png'],same,1,0.408339600002364,22,0,
CHPA0602,2,neg,150,neg150_id14_im18.bmp_neg150_id14_im16.bmp,['Im_MattDamon.png', 'Im_OrlandoBloom.png', 'Im_BradPitt.png', 'Im_DanielCraig.png', 'Im_GeorgeClooney.png', 'Im_LeonardoDiCaprio.png', 'Im_RobertPattinson.png', 'Im_DanielRadcliffe.png', 'Im_JustinTimberlake.png', 'Im_BenStiller.png'],diff,0,0.5914405000003171,22,0,
CHPA0602,2,neg,30,neg30_id19_im8.bmp_neg30_id13_im10.bmp,['Im_MattDamon.png', 'Im_OrlandoBloom.png', 'Im_BradPitt.png', 'Im_DanielCraig.png', 'Im_GeorgeClooney.png', 'Im_LeonardoDiCaprio.png', 'Im_RobertPattinson.png', 'Im_DanielRadcliffe.png', 'Im_JustinTimberlake.png', 'Im_BenStiller.png'],same,0,1.150082600001042,22,0,
CHPA0602,2,neg,fs,negfs_id2_im16.bmp_negfs_id2_im2.bmp,['Im_MattDamon.png', 'Im_OrlandoBloom.png', 'Im_BradPitt.png', 'Im_DanielCraig.png', 'Im_GeorgeClooney.png', 'Im_LeonardoDiCaprio.png', 'Im_RobertPattinson.png', 'Im_DanielRadcliffe.png', 'Im_JustinTimberlake.png', 'Im_BenStiller.png'],same,1,0.43339600000035716,23,0,
CHPA0602,2,neg,60,neg60_id14_im16.bmp_neg60_id14_im18.bmp,['Im_MattDamon.png', 'Im_OrlandoBloom.png', 'Im_BradPitt.png', 'Im_DanielCraig.png', 'Im_GeorgeClooney.png', 'Im_LeonardoDiCaprio.png', 'Im_RobertPattinson.png', 'Im_DanielRadcliffe.png', 'Im_JustinTimberlake.png', 'Im_BenStiller.png'],same,1,0.6001776999983122,24,0,
CHPA0602,2,neg,90,neg90_id10_im17.bmp_neg90_id10_im18.bmp,['Im_MattDamon.png', 'Im_OrlandoBloom.png', 'Im_BradPitt.png', 'Im_DanielCraig.png', 'Im_GeorgeClooney.png', 'Im_LeonardoDiCaprio.png', 'Im_RobertPattinson.png', 'Im_DanielRadcliffe.png', 'Im_JustinTimberlake.png', 'Im_BenStiller.png'],diff,0,0.43330490000153077,24,0,
CHPA0602,2,neg,150,neg150_id4_im20.bmp_neg150_id2_im3.bmp,['Im_MattDamon.png', 'Im_OrlandoBloom.png', 'Im_BradPitt.png', 'Im_DanielCraig.png', 'Im_GeorgeClooney.png', 'Im_LeonardoDiCaprio.png', 'Im_RobertPattinson.png', 'Im_DanielRadcliffe.png', 'Im_JustinTimberlake.png', 'Im_BenStiller.png'],same,0,0.4167678999983764,24,0,
CHPA0602,2,neg,120,neg120_id13_im29.bmp_neg120_id10_im18.bmp,['Im_MattDamon.png', 'Im_OrlandoBloom.png', 'Im_BradPitt.png', 'Im_DanielCraig.png', 'Im_GeorgeClooney.png', 'Im_LeonardoDiCaprio.png', 'Im_RobertPattinson.png', 'Im_DanielRadcliffe.png', 'Im_JustinTimberlake.png', 'Im_BenStiller.png'],diff,1,0.4167300000008254,25,0,
CHPA0602,2,neg,90,neg90_id13_im29.bmp_neg90_id13_im15.bmp,['Im_MattDamon.png', 'Im_OrlandoBloom.png', 'Im_BradPitt.png', 'Im_DanielCraig.png', 'Im_GeorgeClooney.png', 'Im_LeonardoDiCaprio.png', 'Im_RobertPattinson.png', 'Im_DanielRadcliffe.png', 'Im_JustinTimberlake.png', 'Im_BenStiller.png'],same,1,0.41663920000064536,26,0,
CHPA0602,2,neg,120,neg120_id5_im1.bmp_neg120_id5_im20.bmp,['Im_MattDamon.png', 'Im_OrlandoBloom.png', 'Im_BradPitt.png', 'Im_DanielCraig.png', 'Im_GeorgeClooney.png', 'Im_LeonardoDiCaprio.png', 'Im_RobertPattinson.png', 'Im_DanielRadcliffe.png', 'Im_JustinTimberlake.png', 'Im_BenStiller.png'],same,1,0.42509919999793055,27,0,
CHPA0602,2,neg,fs,negfs_id14_im16.bmp_negfs_id5_im20.bmp,['Im_MattDamon.png', 'Im_OrlandoBloom.png', 'Im_BradPitt.png', 'Im_DanielCraig.png', 'Im_GeorgeClooney.png', 'Im_LeonardoDiCaprio.png', 'Im_RobertPattinson.png', 'Im_DanielRadcliffe.png', 'Im_JustinTimberlake.png', 'Im_BenStiller.png'],diff,1,0.4666618000010203,28,0,
CHPA0602,2,neg,60,neg60_id5_im1.bmp_neg60_id10_im1.bmp,['Im_MattDamon.png', 'Im_OrlandoBloom.png', 'Im_BradPitt.png', 'Im_DanielCraig.png', 'Im_GeorgeClooney.png', 'Im_LeonardoDiCaprio.png', 'Im_RobertPattinson.png', 'Im_DanielRadcliffe.png', 'Im_JustinTimberlake.png', 'Im_BenStiller.png'],diff,1,0.4250543000016478,29,0,
CHPA0602,2,neg,0,neg0_id5_im10.bmp_neg0_id5_im1.bmp,['Im_MattDamon.png', 'Im_OrlandoBloom.png', 'Im_BradPitt.png', 'Im_DanielCraig.png', 'Im_GeorgeClooney.png', 'Im_LeonardoDiCaprio.png', 'Im_RobertPattinson.png', 'Im_DanielRadcliffe.png', 'Im_JustinTimberlake.png', 'Im_BenStiller.png'],same,1,0.41756789999999455,30,0,
CHPA0602,2,neg,0,neg0_id16_im2.bmp_neg0_id4_im7.bmp,['Im_MattDamon.png', 'Im_OrlandoBloom.png', 'Im_BradPitt.png', 'Im_DanielCraig.png', 'Im_GeorgeClooney.png', 'Im_LeonardoDiCaprio.png', 'Im_RobertPattinson.png', 'Im_DanielRadcliffe.png', 'Im_JustinTimberlake.png', 'Im_BenStiller.png'],diff,1,0.43339019999984885,31,0,
CHPA0602,2,neg,30,neg30_id2_im2.bmp_neg30_id5_im10.bmp,['Im_MattDamon.png', 'Im_OrlandoBloom.png', 'Im_BradPitt.png', 'Im_DanielCraig.png', 'Im_GeorgeClooney.png', 'Im_LeonardoDiCaprio.png', 'Im_RobertPattinson.png', 'Im_DanielRadcliffe.png', 'Im_JustinTimberlake.png', 'Im_BenStiller.png'],diff,1,0.42506979999961914,32,0,
CHPA0602,3,pos,30,pos30_id16_im19.bmp_pos30_id3_im8.bmp,['Im_MattDamon.png', 'Im_OrlandoBloom.png', 'Im_BradPitt.png', 'Im_DanielCraig.png', 'Im_GeorgeClooney.png', 'Im_LeonardoDiCaprio.png', 'Im_RobertPattinson.png', 'Im_DanielRadcliffe.png', 'Im_JustinTimberlake.png', 'Im_BenStiller.png'],diff,1,0.542100600003323,1,76.19047619047619,
CHPA0602,3,pos,0,pos0_id14_im18.bmp_pos0_id14_im16.bmp,['Im_MattDamon.png', 'Im_OrlandoBloom.png', 'Im_BradPitt.png', 'Im_DanielCraig.png', 'Im_GeorgeClooney.png', 'Im_LeonardoDiCaprio.png', 'Im_RobertPattinson.png', 'Im_DanielRadcliffe.png', 'Im_JustinTimberlake.png', 'Im_BenStiller.png'],same,1,0.708376299997326,2,76.19047619047619,
CHPA0602,3,pos,30,pos30_id10_im18.bmp_pos30_id13_im29.bmp,['Im_MattDamon.png', 'Im_OrlandoBloom.png', 'Im_BradPitt.png', 'Im_DanielCraig.png', 'Im_GeorgeClooney.png', 'Im_LeonardoDiCaprio.png', 'Im_RobertPattinson.png', 'Im_DanielRadcliffe.png', 'Im_JustinTimberlake.png', 'Im_BenStiller.png'],diff,1,0.42501439999978174,3,76.19047619047619,
CHPA0602,3,pos,150,pos150_id13_im15.bmp_pos150_id16_im19.bmp,['Im_MattDamon.png', 'Im_OrlandoBloom.png', 'Im_BradPitt.png', 'Im_DanielCraig.png', 'Im_GeorgeClooney.png', 'Im_LeonardoDiCaprio.png', 'Im_RobertPattinson.png', 'Im_DanielRadcliffe.png', 'Im_JustinTimberlake.png', 'Im_BenStiller.png'],diff,1,0.4167166000006546,4,76.19047619047619,
CHPA0602,3,pos,120,pos120_id19_im8.bmp_pos120_id19_im27.bmp,['Im_MattDamon.png', 'Im_OrlandoBloom.png', 'Im_BradPitt.png', 'Im_DanielCraig.png', 'Im_GeorgeClooney.png', 'Im_LeonardoDiCaprio.png', 'Im_RobertPattinson.png', 'Im_DanielRadcliffe.png', 'Im_JustinTimberlake.png', 'Im_BenStiller.png'],same,1,0.4333196000006865,5,76.19047619047619,
CHPA0602,3,pos,0,pos0_id14_im16.bmp_pos0_id14_im24.bmp,['Im_MattDamon.png', 'Im_OrlandoBloom.png', 'Im_BradPitt.png', 'Im_DanielCraig.png', 'Im_GeorgeClooney.png', 'Im_LeonardoDiCaprio.png', 'Im_RobertPattinson.png', 'Im_DanielRadcliffe.png', 'Im_JustinTimberlake.png', 'Im_BenStiller.png'],diff,0,0.5419454000002588,5,76.19047619047619,
CHPA0602,3,pos,60,pos60_id13_im15.bmp_pos60_id13_im29.bmp,['Im_MattDamon.png', 'Im_OrlandoBloom.png', 'Im_BradPitt.png', 'Im_DanielCraig.png', 'Im_GeorgeClooney.png', 'Im_LeonardoDiCaprio.png', 'Im_RobertPattinson.png', 'Im_DanielRadcliffe.png', 'Im_JustinTimberlake.png', 'Im_BenStiller.png'],same,1,0.4167825000004086,6,76.19047619047619,
CHPA0602,3,pos,150,pos150_id5_im20.bmp_pos150_id2_im2.bmp,['Im_MattDamon.png', 'Im_OrlandoBloom.png', 'Im_BradPitt.png', 'Im_DanielCraig.png', 'Im_GeorgeClooney.png', 'Im_LeonardoDiCaprio.png', 'Im_RobertPattinson.png', 'Im_DanielRadcliffe.png', 'Im_JustinTimberlake.png', 'Im_BenStiller.png'],diff,1,0.42511300000114716,7,76.19047619047619,
CHPA0602,3,pos,fs,posfs_id3_im6.bmp_posfs_id10_im17.bmp,['Im_MattDamon.png', 'Im_OrlandoBloom.png', 'Im_BradPitt.png', 'Im_DanielCraig.png', 'Im_GeorgeClooney.png', 'Im_LeonardoDiCaprio.png', 'Im_RobertPattinson.png', 'Im_DanielRadcliffe.png', 'Im_JustinTimberlake.png', 'Im_BenStiller.png'],diff,1,0.4167280000001483,8,76.19047619047619,
CHPA0602,3,pos,90,pos90_id13_im15.bmp_pos90_id13_im10.bmp,['Im_MattDamon.png', 'Im_OrlandoBloom.png', 'Im_BradPitt.png', 'Im_DanielCraig.png', 'Im_GeorgeClooney.png', 'Im_LeonardoDiCaprio.png', 'Im_RobertPattinson.png', 'Im_DanielRadcliffe.png', 'Im_JustinTimberlake.png', 'Im_BenStiller.png'],same,1,0.4082428000001528,9,76.19047619047619,
CHPA0602,3,pos,120,pos120_id13_im15.bmp_pos120_id13_im10.bmp,['Im_MattDamon.png', 'Im_OrlandoBloom.png', 'Im_BradPitt.png', 'Im_DanielCraig.png', 'Im_GeorgeClooney.png', 'Im_LeonardoDiCaprio.png', 'Im_RobertPattinson.png', 'Im_DanielRadcliffe.png', 'Im_JustinTimberlake.png', 'Im_BenStiller.png'],same,1,0.42496380000011413,10,76.19047619047619,
CHPA0602,3,pos,90,pos90_id19_im8.bmp_pos90_id13_im10.bmp,['Im_MattDamon.png', 'Im_OrlandoBloom.png', 'Im_BradPitt.png', 'Im_DanielCraig.png', 'Im_GeorgeClooney.png', 'Im_LeonardoDiCaprio.png', 'Im_RobertPattinson.png', 'Im_DanielRadcliffe.png', 'Im_JustinTimberlake.png', 'Im_BenStiller.png'],diff,1,0.4083524999987276,11,76.19047619047619,
