Sujet,Trial,Condition,Filter,Imname,Actor0,Actor1,Actor2,Actor3,Actor4,Actor5,Actor6,Actor7,Actor8,Actor9,Answer,Accu,RT,Score,Scoreperc, 
CHPA0602,train,neg,120,neg120_id4_im20.bmp_neg120_id4_im7.bmp,['Im_BradPitt.png', 'Im_DanielRadcliffe.png', 'Im_RobertPattinson.png', 'Im_JustinTimberlake.png', 'Im_MattDamon.png', 'Im_DanielCraig.png', 'Im_OrlandoBloom.png', 'Im_LeonardoDiCaprio.png', 'Im_BenStiller.png', 'Im_GeorgeClooney.png'],diff,0,1.1001961000001756,0,0,
CHPA0602,train,neg,150,neg150_id4_im7.bmp_neg150_id4_im15.bmp,['Im_BradPitt.png', 'Im_DanielRadcliffe.png', 'Im_RobertPattinson.png', 'Im_JustinTimberlake.png', 'Im_MattDamon.png', 'Im_DanielCraig.png', 'Im_OrlandoBloom.png', 'Im_LeonardoDiCaprio.png', 'Im_BenStiller.png', 'Im_GeorgeClooney.png'],same,1,0.4330461000026844,1,0,
CHPA0602,train,neg,30,neg30_id4_im15.bmp_neg30_id5_im1.bmp,['Im_BradPitt.png', 'Im_DanielRadcliffe.png', 'Im_RobertPattinson.png', 'Im_JustinTimberlake.png', 'Im_MattDamon.png', 'Im_DanielCraig.png', 'Im_OrlandoBloom.png', 'Im_LeonardoDiCaprio.png', 'Im_BenStiller.png', 'Im_GeorgeClooney.png'],diff,1,0.4167871000026935,2,0,
CHPA0602,train,neg,0,neg0_id10_im17.bmp_neg0_id10_im1.bmp,['Im_BradPitt.png', 'Im_DanielRadcliffe.png', 'Im_RobertPattinson.png', 'Im_JustinTimberlake.png', 'Im_MattDamon.png', 'Im_DanielCraig.png', 'Im_OrlandoBloom.png', 'Im_LeonardoDiCaprio.png', 'Im_BenStiller.png', 'Im_GeorgeClooney.png'],diff,0,0.5834588000034273,2,0,
CHPA0602,train,neg,90,neg90_id7_im26.bmp_neg90_id3_im8.bmp,['Im_BradPitt.png', 'Im_DanielRadcliffe.png', 'Im_RobertPattinson.png', 'Im_JustinTimberlake.png', 'Im_MattDamon.png', 'Im_DanielCraig.png', 'Im_OrlandoBloom.png', 'Im_LeonardoDiCaprio.png', 'Im_BenStiller.png', 'Im_GeorgeClooney.png'],same,0,0.7833857000005082,2,0,
CHPA0602,train,neg,30,neg30_id10_im17.bmp_neg30_id10_im18.bmp,['Im_BradPitt.png', 'Im_DanielRadcliffe.png', 'Im_RobertPattinson.png', 'Im_JustinTimberlake.png', 'Im_MattDamon.png', 'Im_DanielCraig.png', 'Im_OrlandoBloom.png', 'Im_LeonardoDiCaprio.png', 'Im_BenStiller.png', 'Im_GeorgeClooney.png'],same,1,0.5414590000000317,3,0,
CHPA0602,train,neg,150,neg150_id10_im17.bmp_neg150_id3_im6.bmp,['Im_BradPitt.png', 'Im_DanielRadcliffe.png', 'Im_RobertPattinson.png', 'Im_JustinTimberlake.png', 'Im_MattDamon.png', 'Im_DanielCraig.png', 'Im_OrlandoBloom.png', 'Im_LeonardoDiCaprio.png', 'Im_BenStiller.png', 'Im_GeorgeClooney.png'],diff,1,0.4833457999993698,4,0,
CHPA0602,train,neg,90,neg90_id3_im8.bmp_neg90_id3_im6.bmp,['Im_BradPitt.png', 'Im_DanielRadcliffe.png', 'Im_RobertPattinson.png', 'Im_JustinTimberlake.png', 'Im_MattDamon.png', 'Im_DanielCraig.png', 'Im_OrlandoBloom.png', 'Im_LeonardoDiCaprio.png', 'Im_BenStiller.png', 'Im_GeorgeClooney.png'],diff,0,0.4919611999976041,4,0,
CHPA0602,train,neg,0,neg0_id13_im29.bmp_neg0_id13_im10.bmp,['Im_BradPitt.png', 'Im_DanielRadcliffe.png', 'Im_RobertPattinson.png', 'Im_JustinTimberlake.png', 'Im_MattDamon.png', 'Im_DanielCraig.png', 'Im_OrlandoBloom.png', 'Im_LeonardoDiCaprio.png', 'Im_BenStiller.png', 'Im_GeorgeClooney.png'],same,1,1.125126500002807,5,0,
CHPA0602,train,neg,fs,negfs_id7_im26.bmp_negfs_id7_im15.bmp,['Im_BradPitt.png', 'Im_DanielRadcliffe.png', 'Im_RobertPattinson.png', 'Im_JustinTimberlake.png', 'Im_MattDamon.png', 'Im_DanielCraig.png', 'Im_OrlandoBloom.png', 'Im_LeonardoDiCaprio.png', 'Im_BenStiller.png', 'Im_GeorgeClooney.png'],same,1,0.4083695000008447,6,0,
CHPA0602,train,neg,60,neg60_id14_im24.bmp_neg60_id14_im18.bmp,['Im_BradPitt.png', 'Im_DanielRadcliffe.png', 'Im_RobertPattinson.png', 'Im_JustinTimberlake.png', 'Im_MattDamon.png', 'Im_DanielCraig.png', 'Im_OrlandoBloom.png', 'Im_LeonardoDiCaprio.png', 'Im_BenStiller.png', 'Im_GeorgeClooney.png'],same,1,0.4250501999995322,7,0,
CHPA0602,train,neg,120,neg120_id2_im16.bmp_neg120_id7_im15.bmp,['Im_BradPitt.png', 'Im_DanielRadcliffe.png', 'Im_RobertPattinson.png', 'Im_JustinTimberlake.png', 'Im_MattDamon.png', 'Im_DanielCraig.png', 'Im_OrlandoBloom.png', 'Im_LeonardoDiCaprio.png', 'Im_BenStiller.png', 'Im_GeorgeClooney.png'],diff,1,0.675209700002597,8,0,
CHPA0602,train,neg,fs,negfs_id3_im8.bmp_negfs_id16_im19.bmp,['Im_BradPitt.png', 'Im_DanielRadcliffe.png', 'Im_RobertPattinson.png', 'Im_JustinTimberlake.png', 'Im_MattDamon.png', 'Im_DanielCraig.png', 'Im_OrlandoBloom.png', 'Im_LeonardoDiCaprio.png', 'Im_BenStiller.png', 'Im_GeorgeClooney.png'],diff,1,0.42516109999996843,9,0,
CHPA0602,train,neg,60,neg60_id2_im2.bmp_neg60_id2_im3.bmp,['Im_BradPitt.png', 'Im_DanielRadcliffe.png', 'Im_RobertPattinson.png', 'Im_JustinTimberlake.png', 'Im_MattDamon.png', 'Im_DanielCraig.png', 'Im_OrlandoBloom.png', 'Im_LeonardoDiCaprio.png', 'Im_BenStiller.png', 'Im_GeorgeClooney.png'],diff,0,0.4334065000002738,9,0,
CHPA0602,train,pos,30,pos30_id2_im16.bmp_pos30_id7_im15.bmp,['Im_BradPitt.png', 'Im_DanielRadcliffe.png', 'Im_RobertPattinson.png', 'Im_JustinTimberlake.png', 'Im_MattDamon.png', 'Im_DanielCraig.png', 'Im_OrlandoBloom.png', 'Im_LeonardoDiCaprio.png', 'Im_BenStiller.png', 'Im_GeorgeClooney.png'],diff,1,0.42497150000053807,10,0,
CHPA0602,train,pos,0,pos0_id2_im2.bmp_pos0_id5_im20.bmp,['Im_BradPitt.png', 'Im_DanielRadcliffe.png', 'Im_RobertPattinson.png', 'Im_JustinTimberlake.png', 'Im_MattDamon.png', 'Im_DanielCraig.png', 'Im_OrlandoBloom.png', 'Im_LeonardoDiCaprio.png', 'Im_BenStiller.png', 'Im_GeorgeClooney.png'],diff,1,0.7586085999973875,11,0,
CHPA0602,train,pos,150,pos150_id4_im7.bmp_pos150_id16_im2.bmp,['Im_BradPitt.png', 'Im_DanielRadcliffe.png', 'Im_RobertPattinson.png', 'Im_JustinTimberlake.png', 'Im_MattDamon.png', 'Im_DanielCraig.png', 'Im_OrlandoBloom.png', 'Im_LeonardoDiCaprio.png', 'Im_BenStiller.png', 'Im_GeorgeClooney.png'],diff,1,0.4165584000002127,12,0,
CHPA0602,train,pos,150,pos150_id10_im1.bmp_pos150_id10_im18.bmp,['Im_BradPitt.png', 'Im_DanielRadcliffe.png', 'Im_RobertPattinson.png', 'Im_JustinTimberlake.png', 'Im_MattDamon.png', 'Im_DanielCraig.png', 'Im_OrlandoBloom.png', 'Im_LeonardoDiCaprio.png', 'Im_BenStiller.png', 'Im_GeorgeClooney.png'],same,1,0.41678329999922425,13,0,
CHPA0602,train,pos,fs,posfs_id10_im1.bmp_posfs_id10_im17.bmp,['Im_BradPitt.png', 'Im_DanielRadcliffe.png', 'Im_RobertPattinson.png', 'Im_JustinTimberlake.png', 'Im_MattDamon.png', 'Im_DanielCraig.png', 'Im_OrlandoBloom.png', 'Im_LeonardoDiCaprio.png', 'Im_BenStiller.png', 'Im_GeorgeClooney.png'],same,1,0.4083759999994072,14,0,
CHPA0602,train,pos,90,pos90_id2_im3.bmp_pos90_id10_im18.bmp,['Im_BradPitt.png', 'Im_DanielRadcliffe.png', 'Im_RobertPattinson.png', 'Im_JustinTimberlake.png', 'Im_MattDamon.png', 'Im_DanielCraig.png', 'Im_OrlandoBloom.png', 'Im_LeonardoDiCaprio.png', 'Im_BenStiller.png', 'Im_GeorgeClooney.png'],diff,1,0.44162750000032247,15,0,
CHPA0602,train,pos,30,pos30_id10_im1.bmp_pos30_id10_im17.bmp,['Im_BradPitt.png', 'Im_DanielRadcliffe.png', 'Im_RobertPattinson.png', 'Im_JustinTimberlake.png', 'Im_MattDamon.png', 'Im_DanielCraig.png', 'Im_OrlandoBloom.png', 'Im_LeonardoDiCaprio.png', 'Im_BenStiller.png', 'Im_GeorgeClooney.png'],same,1,0.41668189999836613,16,0,
CHPA0602,train,pos,120,pos120_id13_im15.bmp_pos120_id13_im29.bmp,['Im_BradPitt.png', 'Im_DanielRadcliffe.png', 'Im_RobertPattinson.png', 'Im_JustinTimberlake.png', 'Im_MattDamon.png', 'Im_DanielCraig.png', 'Im_OrlandoBloom.png', 'Im_LeonardoDiCaprio.png', 'Im_BenStiller.png', 'Im_GeorgeClooney.png'],same,1,0.40833310000016354,17,0,
CHPA0602,train,pos,fs,posfs_id13_im15.bmp_posfs_id13_im10.bmp,['Im_BradPitt.png', 'Im_DanielRadcliffe.png', 'Im_RobertPattinson.png', 'Im_JustinTimberlake.png', 'Im_MattDamon.png', 'Im_DanielCraig.png', 'Im_OrlandoBloom.png', 'Im_LeonardoDiCaprio.png', 'Im_BenStiller.png', 'Im_GeorgeClooney.png'],same,1,0.41634590000103344,18,0,
CHPA0602,train,pos,60,pos60_id19_im8.bmp_pos60_id19_im27.bmp,['Im_BradPitt.png', 'Im_DanielRadcliffe.png', 'Im_RobertPattinson.png', 'Im_JustinTimberlake.png', 'Im_MattDamon.png', 'Im_DanielCraig.png', 'Im_OrlandoBloom.png', 'Im_LeonardoDiCaprio.png', 'Im_BenStiller.png', 'Im_GeorgeClooney.png'],same,1,0.42511260000173934,19,0,
CHPA0602,train,pos,90,pos90_id16_im19.bmp_pos90_id13_im15.bmp,['Im_BradPitt.png', 'Im_DanielRadcliffe.png', 'Im_RobertPattinson.png', 'Im_JustinTimberlake.png', 'Im_MattDamon.png', 'Im_DanielCraig.png', 'Im_OrlandoBloom.png', 'Im_LeonardoDiCaprio.png', 'Im_BenStiller.png', 'Im_GeorgeClooney.png'],diff,1,0.4249841999990167,20,0,
CHPA0602,train,pos,0,pos0_id13_im29.bmp_pos0_id3_im17.bmp,['Im_BradPitt.png', 'Im_DanielRadcliffe.png', 'Im_RobertPattinson.png', 'Im_JustinTimberlake.png', 'Im_MattDamon.png', 'Im_DanielCraig.png', 'Im_OrlandoBloom.png', 'Im_LeonardoDiCaprio.png', 'Im_BenStiller.png', 'Im_GeorgeClooney.png'],same,0,0.43344700000307057,20,0,
CHPA0602,train,pos,120,pos120_id7_im26.bmp_pos120_id19_im4.bmp,['Im_BradPitt.png', 'Im_DanielRadcliffe.png', 'Im_RobertPattinson.png', 'Im_JustinTimberlake.png', 'Im_MattDamon.png', 'Im_DanielCraig.png', 'Im_OrlandoBloom.png', 'Im_LeonardoDiCaprio.png', 'Im_BenStiller.png', 'Im_GeorgeClooney.png'],diff,1,0.42459210000015446,21,0,
CHPA0602,train,pos,60,pos60_id19_im8.bmp_pos60_id13_im10.bmp,['Im_BradPitt.png', 'Im_DanielRadcliffe.png', 'Im_RobertPattinson.png', 'Im_JustinTimberlake.png', 'Im_MattDamon.png', 'Im_DanielCraig.png', 'Im_OrlandoBloom.png', 'Im_LeonardoDiCaprio.png', 'Im_BenStiller.png', 'Im_GeorgeClooney.png'],diff,1,0.4250700999982655,22,0,
CHPA0602,train,inv,30,pos30_id16_im2.bmp_pos30_id4_im7.bmp,['Im_BradPitt.png', 'Im_DanielRadcliffe.png', 'Im_RobertPattinson.png', 'Im_JustinTimberlake.png', 'Im_MattDamon.png', 'Im_DanielCraig.png', 'Im_OrlandoBloom.png', 'Im_LeonardoDiCaprio.png', 'Im_BenStiller.png', 'Im_GeorgeClooney.png'],diff,1,0.4168755000027886,23,0,
CHPA0602,train,inv,120,pos120_id3_im6.bmp_pos120_id10_im17.bmp,['Im_BradPitt.png', 'Im_DanielRadcliffe.png', 'Im_RobertPattinson.png', 'Im_JustinTimberlake.png', 'Im_MattDamon.png', 'Im_DanielCraig.png', 'Im_OrlandoBloom.png', 'Im_LeonardoDiCaprio.png', 'Im_BenStiller.png', 'Im_GeorgeClooney.png'],diff,1,0.4166644999968412,24,0,
CHPA0602,train,inv,150,pos150_id10_im17.bmp_pos150_id16_im2.bmp,['Im_BradPitt.png', 'Im_DanielRadcliffe.png', 'Im_RobertPattinson.png', 'Im_JustinTimberlake.png', 'Im_MattDamon.png', 'Im_DanielCraig.png', 'Im_OrlandoBloom.png', 'Im_LeonardoDiCaprio.png', 'Im_BenStiller.png', 'Im_GeorgeClooney.png'],diff,1,0.42495880000205943,25,0,
CHPA0602,train,inv,90,pos90_id16_im3.bmp_pos90_id3_im6.bmp,['Im_BradPitt.png', 'Im_DanielRadcliffe.png', 'Im_RobertPattinson.png', 'Im_JustinTimberlake.png', 'Im_MattDamon.png', 'Im_DanielCraig.png', 'Im_OrlandoBloom.png', 'Im_LeonardoDiCaprio.png', 'Im_BenStiller.png', 'Im_GeorgeClooney.png'],diff,1,0.4251221999984409,26,0,
CHPA0602,train,inv,0,pos0_id10_im1.bmp_pos0_id3_im17.bmp,['Im_BradPitt.png', 'Im_DanielRadcliffe.png', 'Im_RobertPattinson.png', 'Im_JustinTimberlake.png', 'Im_MattDamon.png', 'Im_DanielCraig.png', 'Im_OrlandoBloom.png', 'Im_LeonardoDiCaprio.png', 'Im_BenStiller.png', 'Im_GeorgeClooney.png'],diff,1,0.4250535999999556,27,0,
CHPA0602,train,inv,fs,posfs_id13_im15.bmp_posfs_id13_im10.bmp,['Im_BradPitt.png', 'Im_DanielRadcliffe.png', 'Im_RobertPattinson.png', 'Im_JustinTimberlake.png', 'Im_MattDamon.png', 'Im_DanielCraig.png', 'Im_OrlandoBloom.png', 'Im_LeonardoDiCaprio.png', 'Im_BenStiller.png', 'Im_GeorgeClooney.png'],same,1,0.41674849999981234,28,0,
CHPA0602,train,inv,0,pos0_id16_im3.bmp_pos0_id3_im6.bmp,['Im_BradPitt.png', 'Im_DanielRadcliffe.png', 'Im_RobertPattinson.png', 'Im_JustinTimberlake.png', 'Im_MattDamon.png', 'Im_DanielCraig.png', 'Im_OrlandoBloom.png', 'Im_LeonardoDiCaprio.png', 'Im_BenStiller.png', 'Im_GeorgeClooney.png'],diff,1,0.42511689999810187,29,0,
CHPA0602,train,inv,60,pos60_id19_im27.bmp_pos60_id4_im15.bmp,['Im_BradPitt.png', 'Im_DanielRadcliffe.png', 'Im_RobertPattinson.png', 'Im_JustinTimberlake.png', 'Im_MattDamon.png', 'Im_DanielCraig.png', 'Im_OrlandoBloom.png', 'Im_LeonardoDiCaprio.png', 'Im_BenStiller.png', 'Im_GeorgeClooney.png'],diff,1,0.4083909999972093,30,0,
CHPA0602,train,inv,60,pos60_id5_im10.bmp_pos60_id5_im1.bmp,['Im_BradPitt.png', 'Im_DanielRadcliffe.png', 'Im_RobertPattinson.png', 'Im_JustinTimberlake.png', 'Im_MattDamon.png', 'Im_DanielCraig.png', 'Im_OrlandoBloom.png', 'Im_LeonardoDiCaprio.png', 'Im_BenStiller.png', 'Im_GeorgeClooney.png'],same,1,0.5248911999988195,31,0,
CHPA0602,train,inv,30,pos30_id14_im24.bmp_pos30_id7_im14.bmp,['Im_BradPitt.png', 'Im_DanielRadcliffe.png', 'Im_RobertPattinson.png', 'Im_JustinTimberlake.png', 'Im_MattDamon.png', 'Im_DanielCraig.png', 'Im_OrlandoBloom.png', 'Im_LeonardoDiCaprio.png', 'Im_BenStiller.png', 'Im_GeorgeClooney.png'],diff,1,0.4083394000008411,32,0,
CHPA0602,train,inv,120,pos120_id7_im26.bmp_pos120_id19_im4.bmp,['Im_BradPitt.png', 'Im_DanielRadcliffe.png', 'Im_RobertPattinson.png', 'Im_JustinTimberlake.png', 'Im_MattDamon.png', 'Im_DanielCraig.png', 'Im_OrlandoBloom.png', 'Im_LeonardoDiCaprio.png', 'Im_BenStiller.png', 'Im_GeorgeClooney.png'],same,0,0.4250962000005529,32,0,
CHPA0602,train,inv,fs,posfs_id5_im1.bmp_posfs_id10_im1.bmp,['Im_BradPitt.png', 'Im_DanielRadcliffe.png', 'Im_RobertPattinson.png', 'Im_JustinTimberlake.png', 'Im_MattDamon.png', 'Im_DanielCraig.png', 'Im_OrlandoBloom.png', 'Im_LeonardoDiCaprio.png', 'Im_BenStiller.png', 'Im_GeorgeClooney.png'],diff,1,0.41665049999937764,33,0,
CHPA0602,train,inv,150,pos150_id14_im24.bmp_pos150_id14_im16.bmp,['Im_BradPitt.png', 'Im_DanielRadcliffe.png', 'Im_RobertPattinson.png', 'Im_JustinTimberlake.png', 'Im_MattDamon.png', 'Im_DanielCraig.png', 'Im_OrlandoBloom.png', 'Im_LeonardoDiCaprio.png', 'Im_BenStiller.png', 'Im_GeorgeClooney.png'],same,1,0.5417185000005702,34,0,
CHPA0602,train,inv,90,pos90_id14_im18.bmp_pos90_id5_im10.bmp,['Im_BradPitt.png', 'Im_DanielRadcliffe.png', 'Im_RobertPattinson.png', 'Im_JustinTimberlake.png', 'Im_MattDamon.png', 'Im_DanielCraig.png', 'Im_OrlandoBloom.png', 'Im_LeonardoDiCaprio.png', 'Im_BenStiller.png', 'Im_GeorgeClooney.png'],diff,1,0.42508470000029774,35,0,
CHPA0602,train,neg,30,neg30_id19_im4.bmp_neg30_id19_im8.bmp,['Im_BradPitt.png', 'Im_DanielRadcliffe.png', 'Im_RobertPattinson.png', 'Im_JustinTimberlake.png', 'Im_MattDamon.png', 'Im_DanielCraig.png', 'Im_OrlandoBloom.png', 'Im_LeonardoDiCaprio.png', 'Im_BenStiller.png', 'Im_GeorgeClooney.png'],same,1,0.45799170000100276,1,83.33333333333333,
CHPA0602,train,neg,150,neg150_id4_im20.bmp_neg150_id4_im7.bmp,['Im_BradPitt.png', 'Im_DanielRadcliffe.png', 'Im_RobertPattinson.png', 'Im_JustinTimberlake.png', 'Im_MattDamon.png', 'Im_DanielCraig.png', 'Im_OrlandoBloom.png', 'Im_LeonardoDiCaprio.png', 'Im_BenStiller.png', 'Im_GeorgeClooney.png'],same,1,0.45832549999977346,2,83.33333333333333,
CHPA0602,train,neg,60,neg60_id3_im8.bmp_neg60_id3_im6.bmp,['Im_BradPitt.png', 'Im_DanielRadcliffe.png', 'Im_RobertPattinson.png', 'Im_JustinTimberlake.png', 'Im_MattDamon.png', 'Im_DanielCraig.png', 'Im_OrlandoBloom.png', 'Im_LeonardoDiCaprio.png', 'Im_BenStiller.png', 'Im_GeorgeClooney.png'],diff,0,0.42499649999808753,2,83.33333333333333,
CHPA0602,train,neg,30,neg30_id4_im20.bmp_neg30_id4_im7.bmp,['Im_BradPitt.png', 'Im_DanielRadcliffe.png', 'Im_RobertPattinson.png', 'Im_JustinTimberlake.png', 'Im_MattDamon.png', 'Im_DanielCraig.png', 'Im_OrlandoBloom.png', 'Im_LeonardoDiCaprio.png', 'Im_BenStiller.png', 'Im_GeorgeClooney.png'],same,1,0.4250424000019848,3,83.33333333333333,
CHPA0602,train,neg,90,neg90_id2_im16.bmp_neg90_id14_im16.bmp,['Im_BradPitt.png', 'Im_DanielRadcliffe.png', 'Im_RobertPattinson.png', 'Im_JustinTimberlake.png', 'Im_MattDamon.png', 'Im_DanielCraig.png', 'Im_OrlandoBloom.png', 'Im_LeonardoDiCaprio.png', 'Im_BenStiller.png', 'Im_GeorgeClooney.png'],diff,1,0.4333701000032306,4,83.33333333333333,
CHPA0602,train,neg,150,neg150_id19_im8.bmp_neg150_id19_im27.bmp,['Im_BradPitt.png', 'Im_DanielRadcliffe.png', 'Im_RobertPattinson.png', 'Im_JustinTimberlake.png', 'Im_MattDamon.png', 'Im_DanielCraig.png', 'Im_OrlandoBloom.png', 'Im_LeonardoDiCaprio.png', 'Im_BenStiller.png', 'Im_GeorgeClooney.png'],same,1,0.4167141999969317,5,83.33333333333333,
CHPA0602,train,neg,120,neg120_id7_im14.bmp_neg120_id4_im20.bmp,['Im_BradPitt.png', 'Im_DanielRadcliffe.png', 'Im_RobertPattinson.png', 'Im_JustinTimberlake.png', 'Im_MattDamon.png', 'Im_DanielCraig.png', 'Im_OrlandoBloom.png', 'Im_LeonardoDiCaprio.png', 'Im_BenStiller.png', 'Im_GeorgeClooney.png'],same,0,0.7666773999990255,5,83.33333333333333,
CHPA0602,train,neg,60,neg60_id16_im3.bmp_neg60_id16_im19.bmp,['Im_BradPitt.png', 'Im_DanielRadcliffe.png', 'Im_RobertPattinson.png', 'Im_JustinTimberlake.png', 'Im_MattDamon.png', 'Im_DanielCraig.png', 'Im_OrlandoBloom.png', 'Im_LeonardoDiCaprio.png', 'Im_BenStiller.png', 'Im_GeorgeClooney.png'],same,1,0.42510240000046906,6,83.33333333333333,
CHPA0602,train,neg,120,neg120_id13_im10.bmp_neg120_id14_im18.bmp,['Im_BradPitt.png', 'Im_DanielRadcliffe.png', 'Im_RobertPattinson.png', 'Im_JustinTimberlake.png', 'Im_MattDamon.png', 'Im_DanielCraig.png', 'Im_OrlandoBloom.png', 'Im_LeonardoDiCaprio.png', 'Im_BenStiller.png', 'Im_GeorgeClooney.png'],same,0,0.8252941999999166,6,83.33333333333333,
CHPA0602,train,neg,0,neg0_id4_im20.bmp_neg0_id4_im7.bmp,['Im_BradPitt.png', 'Im_DanielRadcliffe.png', 'Im_RobertPattinson.png', 'Im_JustinTimberlake.png', 'Im_MattDamon.png', 'Im_DanielCraig.png', 'Im_OrlandoBloom.png', 'Im_LeonardoDiCaprio.png', 'Im_BenStiller.png', 'Im_GeorgeClooney.png'],same,1,0.47525150000001304,7,83.33333333333333,
CHPA0602,train,neg,90,neg90_id13_im15.bmp_neg90_id16_im19.bmp,['Im_BradPitt.png', 'Im_DanielRadcliffe.png', 'Im_RobertPattinson.png', 'Im_JustinTimberlake.png', 'Im_MattDamon.png', 'Im_DanielCraig.png', 'Im_OrlandoBloom.png', 'Im_LeonardoDiCaprio.png', 'Im_BenStiller.png', 'Im_GeorgeClooney.png'],diff,1,0.5919212000007974,8,83.33333333333333,
CHPA0602,train,neg,0,neg0_id3_im17.bmp_neg0_id3_im6.bmp,['Im_BradPitt.png', 'Im_DanielRadcliffe.png', 'Im_RobertPattinson.png', 'Im_JustinTimberlake.png', 'Im_MattDamon.png', 'Im_DanielCraig.png', 'Im_OrlandoBloom.png', 'Im_LeonardoDiCaprio.png', 'Im_BenStiller.png', 'Im_GeorgeClooney.png'],same,1,0.4251250000015716,9,83.33333333333333,
CHPA0602,train,neg,fs,negfs_id14_im24.bmp_negfs_id7_im14.bmp,['Im_BradPitt.png', 'Im_DanielRadcliffe.png', 'Im_RobertPattinson.png', 'Im_JustinTimberlake.png', 'Im_MattDamon.png', 'Im_DanielCraig.png', 'Im_OrlandoBloom.png', 'Im_LeonardoDiCaprio.png', 'Im_BenStiller.png', 'Im_GeorgeClooney.png'],diff,1,0.45860089999769116,10,83.33333333333333,
CHPA0602,train,neg,fs,negfs_id2_im2.bmp_negfs_id5_im10.bmp,['Im_BradPitt.png', 'Im_DanielRadcliffe.png', 'Im_RobertPattinson.png', 'Im_JustinTimberlake.png', 'Im_MattDamon.png', 'Im_DanielCraig.png', 'Im_OrlandoBloom.png', 'Im_LeonardoDiCaprio.png', 'Im_BenStiller.png', 'Im_GeorgeClooney.png'],diff,1,0.47499989999778336,11,83.33333333333333,
CHPA0602,train,pos,30,pos30_id4_im15.bmp_pos30_id4_im20.bmp,['Im_BradPitt.png', 'Im_DanielRadcliffe.png', 'Im_RobertPattinson.png', 'Im_JustinTimberlake.png', 'Im_MattDamon.png', 'Im_DanielCraig.png', 'Im_OrlandoBloom.png', 'Im_LeonardoDiCaprio.png', 'Im_BenStiller.png', 'Im_GeorgeClooney.png'],same,1,0.4417109000023629,12,83.33333333333333,
CHPA0602,train,pos,fs,posfs_id10_im1.bmp_posfs_id10_im18.bmp,['Im_BradPitt.png', 'Im_DanielRadcliffe.png', 'Im_RobertPattinson.png', 'Im_JustinTimberlake.png', 'Im_MattDamon.png', 'Im_DanielCraig.png', 'Im_OrlandoBloom.png', 'Im_LeonardoDiCaprio.png', 'Im_BenStiller.png', 'Im_GeorgeClooney.png'],same,1,0.4250414999987697,13,83.33333333333333,
CHPA0602,train,pos,60,pos60_id16_im2.bmp_pos60_id16_im3.bmp,['Im_BradPitt.png', 'Im_DanielRadcliffe.png', 'Im_RobertPattinson.png', 'Im_JustinTimberlake.png', 'Im_MattDamon.png', 'Im_DanielCraig.png', 'Im_OrlandoBloom.png', 'Im_LeonardoDiCaprio.png', 'Im_BenStiller.png', 'Im_GeorgeClooney.png'],same,1,0.41678440000032424,14,83.33333333333333,
CHPA0602,train,pos,120,pos120_id5_im20.bmp_pos120_id2_im2.bmp,['Im_BradPitt.png', 'Im_DanielRadcliffe.png', 'Im_RobertPattinson.png', 'Im_JustinTimberlake.png', 'Im_MattDamon.png', 'Im_DanielCraig.png', 'Im_OrlandoBloom.png', 'Im_LeonardoDiCaprio.png', 'Im_BenStiller.png', 'Im_GeorgeClooney.png'],diff,1,0.41665560000183177,15,83.33333333333333,
CHPA0602,train,pos,fs,posfs_id14_im16.bmp_posfs_id5_im20.bmp,['Im_BradPitt.png', 'Im_DanielRadcliffe.png', 'Im_RobertPattinson.png', 'Im_JustinTimberlake.png', 'Im_MattDamon.png', 'Im_DanielCraig.png', 'Im_OrlandoBloom.png', 'Im_LeonardoDiCaprio.png', 'Im_BenStiller.png', 'Im_GeorgeClooney.png'],diff,1,0.42505570000139414,16,83.33333333333333,
CHPA0602,train,pos,90,pos90_id4_im7.bmp_pos90_id4_im15.bmp,['Im_BradPitt.png', 'Im_DanielRadcliffe.png', 'Im_RobertPattinson.png', 'Im_JustinTimberlake.png', 'Im_MattDamon.png', 'Im_DanielCraig.png', 'Im_OrlandoBloom.png', 'Im_LeonardoDiCaprio.png', 'Im_BenStiller.png', 'Im_GeorgeClooney.png'],same,1,0.40838799999983166,17,83.33333333333333,
CHPA0602,train,pos,0,pos0_id7_im15.bmp_pos0_id2_im16.bmp,['Im_BradPitt.png', 'Im_DanielRadcliffe.png', 'Im_RobertPattinson.png', 'Im_JustinTimberlake.png', 'Im_MattDamon.png', 'Im_DanielCraig.png', 'Im_OrlandoBloom.png', 'Im_LeonardoDiCaprio.png', 'Im_BenStiller.png', 'Im_GeorgeClooney.png'],diff,1,0.5666970000020228,18,83.33333333333333,
CHPA0602,train,pos,120,pos120_id5_im1.bmp_pos120_id10_im1.bmp,['Im_BradPitt.png', 'Im_DanielRadcliffe.png', 'Im_RobertPattinson.png', 'Im_JustinTimberlake.png', 'Im_MattDamon.png', 'Im_DanielCraig.png', 'Im_OrlandoBloom.png', 'Im_LeonardoDiCaprio.png', 'Im_BenStiller.png', 'Im_GeorgeClooney.png'],diff,1,0.4333907000000181,19,83.33333333333333,
CHPA0602,train,pos,0,pos0_id16_im2.bmp_pos0_id4_im7.bmp,['Im_BradPitt.png', 'Im_DanielRadcliffe.png', 'Im_RobertPattinson.png', 'Im_JustinTimberlake.png', 'Im_MattDamon.png', 'Im_DanielCraig.png', 'Im_OrlandoBloom.png', 'Im_LeonardoDiCaprio.png', 'Im_BenStiller.png', 'Im_GeorgeClooney.png'],diff,1,0.4080856999971729,20,83.33333333333333,
CHPA0602,train,pos,30,pos30_id3_im17.bmp_pos30_id10_im1.bmp,['Im_BradPitt.png', 'Im_DanielRadcliffe.png', 'Im_RobertPattinson.png', 'Im_JustinTimberlake.png', 'Im_MattDamon.png', 'Im_DanielCraig.png', 'Im_OrlandoBloom.png', 'Im_LeonardoDiCaprio.png', 'Im_BenStiller.png', 'Im_GeorgeClooney.png'],diff,1,0.4167885999995633,21,83.33333333333333,
CHPA0602,train,pos,60,pos60_id3_im8.bmp_pos60_id3_im6.bmp,['Im_BradPitt.png', 'Im_DanielRadcliffe.png', 'Im_RobertPattinson.png', 'Im_JustinTimberlake.png', 'Im_MattDamon.png', 'Im_DanielCraig.png', 'Im_OrlandoBloom.png', 'Im_LeonardoDiCaprio.png', 'Im_BenStiller.png', 'Im_GeorgeClooney.png'],same,1,0.425112299999455,22,83.33333333333333,
CHPA0602,train,pos,150,pos150_id16_im3.bmp_pos150_id16_im19.bmp,['Im_BradPitt.png', 'Im_DanielRadcliffe.png', 'Im_RobertPattinson.png', 'Im_JustinTimberlake.png', 'Im_MattDamon.png', 'Im_DanielCraig.png', 'Im_OrlandoBloom.png', 'Im_LeonardoDiCaprio.png', 'Im_BenStiller.png', 'Im_GeorgeClooney.png'],diff,0,0.41656420000072103,22,83.33333333333333,
CHPA0602,train,pos,90,pos90_id4_im15.bmp_pos90_id19_im27.bmp,['Im_BradPitt.png', 'Im_DanielRadcliffe.png', 'Im_RobertPattinson.png', 'Im_JustinTimberlake.png', 'Im_MattDamon.png', 'Im_DanielCraig.png', 'Im_OrlandoBloom.png', 'Im_LeonardoDiCaprio.png', 'Im_BenStiller.png', 'Im_GeorgeClooney.png'],diff,1,0.42498210000121617,23,83.33333333333333,
CHPA0602,train,pos,150,pos150_id3_im8.bmp_pos150_id7_im26.bmp,['Im_BradPitt.png', 'Im_DanielRadcliffe.png', 'Im_RobertPattinson.png', 'Im_JustinTimberlake.png', 'Im_MattDamon.png', 'Im_DanielCraig.png', 'Im_OrlandoBloom.png', 'Im_LeonardoDiCaprio.png', 'Im_BenStiller.png', 'Im_GeorgeClooney.png'],diff,1,0.6582620000008319,24,83.33333333333333,
CHPA0602,train,neg,fs,negfs_id3_im17.bmp_negfs_id3_im6.bmp,['Im_BradPitt.png', 'Im_DanielRadcliffe.png', 'Im_RobertPattinson.png', 'Im_JustinTimberlake.png', 'Im_MattDamon.png', 'Im_DanielCraig.png', 'Im_OrlandoBloom.png', 'Im_LeonardoDiCaprio.png', 'Im_BenStiller.png', 'Im_GeorgeClooney.png'],same,1,0.4083768999989843,25,83.33333333333333,
CHPA0602,train,neg,0,neg0_id2_im16.bmp_neg0_id14_im16.bmp,['Im_BradPitt.png', 'Im_DanielRadcliffe.png', 'Im_RobertPattinson.png', 'Im_JustinTimberlake.png', 'Im_MattDamon.png', 'Im_DanielCraig.png', 'Im_OrlandoBloom.png', 'Im_LeonardoDiCaprio.png', 'Im_BenStiller.png', 'Im_GeorgeClooney.png'],same,0,0.40833890000067186,25,83.33333333333333,
CHPA0602,train,neg,fs,negfs_id13_im10.bmp_negfs_id14_im18.bmp,['Im_BradPitt.png', 'Im_DanielRadcliffe.png', 'Im_RobertPattinson.png', 'Im_JustinTimberlake.png', 'Im_MattDamon.png', 'Im_DanielCraig.png', 'Im_OrlandoBloom.png', 'Im_LeonardoDiCaprio.png', 'Im_BenStiller.png', 'Im_GeorgeClooney.png'],diff,1,0.6166739999971469,26,83.33333333333333,
CHPA0602,train,neg,120,neg120_id10_im17.bmp_neg120_id10_im1.bmp,['Im_BradPitt.png', 'Im_DanielRadcliffe.png', 'Im_RobertPattinson.png', 'Im_JustinTimberlake.png', 'Im_MattDamon.png', 'Im_DanielCraig.png', 'Im_OrlandoBloom.png', 'Im_LeonardoDiCaprio.png', 'Im_BenStiller.png', 'Im_GeorgeClooney.png'],diff,0,0.42505370000071707,26,83.33333333333333,
CHPA0602,train,neg,120,neg120_id13_im10.bmp_neg120_id19_im8.bmp,['Im_BradPitt.png', 'Im_DanielRadcliffe.png', 'Im_RobertPattinson.png', 'Im_JustinTimberlake.png', 'Im_MattDamon.png', 'Im_DanielCraig.png', 'Im_OrlandoBloom.png', 'Im_LeonardoDiCaprio.png', 'Im_BenStiller.png', 'Im_GeorgeClooney.png'],diff,1,0.4419393999996828,27,83.33333333333333,
CHPA0602,train,neg,30,neg30_id3_im17.bmp_neg30_id3_im6.bmp,['Im_BradPitt.png', 'Im_DanielRadcliffe.png', 'Im_RobertPattinson.png', 'Im_JustinTimberlake.png', 'Im_MattDamon.png', 'Im_DanielCraig.png', 'Im_OrlandoBloom.png', 'Im_LeonardoDiCaprio.png', 'Im_BenStiller.png', 'Im_GeorgeClooney.png'],same,1,0.4167020000022603,28,83.33333333333333,
CHPA0602,train,neg,150,neg150_id2_im3.bmp_neg150_id10_im18.bmp,['Im_BradPitt.png', 'Im_DanielRadcliffe.png', 'Im_RobertPattinson.png', 'Im_JustinTimberlake.png', 'Im_MattDamon.png', 'Im_DanielCraig.png', 'Im_OrlandoBloom.png', 'Im_LeonardoDiCaprio.png', 'Im_BenStiller.png', 'Im_GeorgeClooney.png'],diff,1,0.42507390000173473,29,83.33333333333333,
CHPA0602,train,neg,150,neg150_id7_im15.bmp_neg150_id7_im14.bmp,['Im_BradPitt.png', 'Im_DanielRadcliffe.png', 'Im_RobertPattinson.png', 'Im_JustinTimberlake.png', 'Im_MattDamon.png', 'Im_DanielCraig.png', 'Im_OrlandoBloom.png', 'Im_LeonardoDiCaprio.png', 'Im_BenStiller.png', 'Im_GeorgeClooney.png'],same,1,0.5417176999981166,30,83.33333333333333,
CHPA0602,train,neg,30,neg30_id2_im16.bmp_neg30_id7_im15.bmp,['Im_BradPitt.png', 'Im_DanielRadcliffe.png', 'Im_RobertPattinson.png', 'Im_JustinTimberlake.png', 'Im_MattDamon.png', 'Im_DanielCraig.png', 'Im_OrlandoBloom.png', 'Im_LeonardoDiCaprio.png', 'Im_BenStiller.png', 'Im_GeorgeClooney.png'],same,0,0.49154060000000754,30,83.33333333333333,
CHPA0602,train,neg,60,neg60_id5_im1.bmp_neg60_id5_im20.bmp,['Im_BradPitt.png', 'Im_DanielRadcliffe.png', 'Im_RobertPattinson.png', 'Im_JustinTimberlake.png', 'Im_MattDamon.png', 'Im_DanielCraig.png', 'Im_OrlandoBloom.png', 'Im_LeonardoDiCaprio.png', 'Im_BenStiller.png', 'Im_GeorgeClooney.png'],same,1,0.5167922000000544,31,83.33333333333333,
CHPA0602,train,neg,90,neg90_id7_im26.bmp_neg90_id7_im15.bmp,['Im_BradPitt.png', 'Im_DanielRadcliffe.png', 'Im_RobertPattinson.png', 'Im_JustinTimberlake.png', 'Im_MattDamon.png', 'Im_DanielCraig.png', 'Im_OrlandoBloom.png', 'Im_LeonardoDiCaprio.png', 'Im_BenStiller.png', 'Im_GeorgeClooney.png'],same,1,0.4165925999986939,32,83.33333333333333,
CHPA0602,train,neg,60,neg60_id14_im18.bmp_neg60_id5_im10.bmp,['Im_BradPitt.png', 'Im_DanielRadcliffe.png', 'Im_RobertPattinson.png', 'Im_JustinTimberlake.png', 'Im_MattDamon.png', 'Im_DanielCraig.png', 'Im_OrlandoBloom.png', 'Im_LeonardoDiCaprio.png', 'Im_BenStiller.png', 'Im_GeorgeClooney.png'],diff,1,0.41679149999981746,33,83.33333333333333,
CHPA0602,train,neg,90,neg90_id19_im8.bmp_neg90_id14_im24.bmp,['Im_BradPitt.png', 'Im_DanielRadcliffe.png', 'Im_RobertPattinson.png', 'Im_JustinTimberlake.png', 'Im_MattDamon.png', 'Im_DanielCraig.png', 'Im_OrlandoBloom.png', 'Im_LeonardoDiCaprio.png', 'Im_BenStiller.png', 'Im_GeorgeClooney.png'],diff,1,0.41672620000099414,34,83.33333333333333,
CHPA0602,train,neg,0,neg0_id10_im17.bmp_neg0_id16_im2.bmp,['Im_BradPitt.png', 'Im_DanielRadcliffe.png', 'Im_RobertPattinson.png', 'Im_JustinTimberlake.png', 'Im_MattDamon.png', 'Im_DanielCraig.png', 'Im_OrlandoBloom.png', 'Im_LeonardoDiCaprio.png', 'Im_BenStiller.png', 'Im_GeorgeClooney.png'],diff,1,0.45836970000164,35,83.33333333333333,
CHPA0602,0,inv,120,pos120_id5_im1.bmp_pos120_id4_im15.bmp,['Im_BradPitt.png', 'Im_DanielRadcliffe.png', 'Im_RobertPattinson.png', 'Im_JustinTimberlake.png', 'Im_MattDamon.png', 'Im_DanielCraig.png', 'Im_OrlandoBloom.png', 'Im_LeonardoDiCaprio.png', 'Im_BenStiller.png', 'Im_GeorgeClooney.png'],diff,1,0.41685919999872567,1,0,
CHPA0602,0,inv,60,pos60_id19_im27.bmp_pos60_id13_im15.bmp,['Im_BradPitt.png', 'Im_DanielRadcliffe.png', 'Im_RobertPattinson.png', 'Im_JustinTimberlake.png', 'Im_MattDamon.png', 'Im_DanielCraig.png', 'Im_OrlandoBloom.png', 'Im_LeonardoDiCaprio.png', 'Im_BenStiller.png', 'Im_GeorgeClooney.png'],diff,1,0.41676989999905345,2,0,
CHPA0602,0,inv,0,pos0_id19_im27.bmp_pos0_id19_im4.bmp,['Im_BradPitt.png', 'Im_DanielRadcliffe.png', 'Im_RobertPattinson.png', 'Im_JustinTimberlake.png', 'Im_MattDamon.png', 'Im_DanielCraig.png', 'Im_OrlandoBloom.png', 'Im_LeonardoDiCaprio.png', 'Im_BenStiller.png', 'Im_GeorgeClooney.png'],same,1,0.4249765999993542,3,0,
CHPA0602,0,inv,fs,posfs_id2_im2.bmp_posfs_id2_im16.bmp,['Im_BradPitt.png', 'Im_DanielRadcliffe.png', 'Im_RobertPattinson.png', 'Im_JustinTimberlake.png', 'Im_MattDamon.png', 'Im_DanielCraig.png', 'Im_OrlandoBloom.png', 'Im_LeonardoDiCaprio.png', 'Im_BenStiller.png', 'Im_GeorgeClooney.png'],same,1,0.4251646000011533,4,0,
CHPA0602,0,inv,90,pos90_id2_im3.bmp_pos90_id4_im20.bmp,['Im_BradPitt.png', 'Im_DanielRadcliffe.png', 'Im_RobertPattinson.png', 'Im_JustinTimberlake.png', 'Im_MattDamon.png', 'Im_DanielCraig.png', 'Im_OrlandoBloom.png', 'Im_LeonardoDiCaprio.png', 'Im_BenStiller.png', 'Im_GeorgeClooney.png'],same,0,0.47520499999882304,4,0,
CHPA0602,0,inv,90,pos90_id19_im8.bmp_pos90_id13_im10.bmp,['Im_BradPitt.png', 'Im_DanielRadcliffe.png', 'Im_RobertPattinson.png', 'Im_JustinTimberlake.png', 'Im_MattDamon.png', 'Im_DanielCraig.png', 'Im_OrlandoBloom.png', 'Im_LeonardoDiCaprio.png', 'Im_BenStiller.png', 'Im_GeorgeClooney.png'],diff,1,0.48374060000060126,5,0,
CHPA0602,0,inv,fs,posfs_id5_im1.bmp_posfs_id5_im10.bmp,['Im_BradPitt.png', 'Im_DanielRadcliffe.png', 'Im_RobertPattinson.png', 'Im_JustinTimberlake.png', 'Im_MattDamon.png', 'Im_DanielCraig.png', 'Im_OrlandoBloom.png', 'Im_LeonardoDiCaprio.png', 'Im_BenStiller.png', 'Im_GeorgeClooney.png'],same,1,0.42501110000011977,6,0,
CHPA0602,0,inv,120,pos120_id5_im1.bmp_pos120_id5_im20.bmp,['Im_BradPitt.png', 'Im_DanielRadcliffe.png', 'Im_RobertPattinson.png', 'Im_JustinTimberlake.png', 'Im_MattDamon.png', 'Im_DanielCraig.png', 'Im_OrlandoBloom.png', 'Im_LeonardoDiCaprio.png', 'Im_BenStiller.png', 'Im_GeorgeClooney.png'],diff,0,0.4167355999998108,6,0,
CHPA0602,0,inv,30,pos30_id16_im19.bmp_pos30_id13_im15.bmp,['Im_BradPitt.png', 'Im_DanielRadcliffe.png', 'Im_RobertPattinson.png', 'Im_JustinTimberlake.png', 'Im_MattDamon.png', 'Im_DanielCraig.png', 'Im_OrlandoBloom.png', 'Im_LeonardoDiCaprio.png', 'Im_BenStiller.png', 'Im_GeorgeClooney.png'],diff,1,0.4167133000009926,7,0,
CHPA0602,0,inv,30,pos30_id10_im1.bmp_pos30_id10_im18.bmp,['Im_BradPitt.png', 'Im_DanielRadcliffe.png', 'Im_RobertPattinson.png', 'Im_JustinTimberlake.png', 'Im_MattDamon.png', 'Im_DanielCraig.png', 'Im_OrlandoBloom.png', 'Im_LeonardoDiCaprio.png', 'Im_BenStiller.png', 'Im_GeorgeClooney.png'],diff,0,0.42497870000079274,7,0,
CHPA0602,0,inv,0,pos0_id10_im1.bmp_pos0_id5_im1.bmp,['Im_BradPitt.png', 'Im_DanielRadcliffe.png', 'Im_RobertPattinson.png', 'Im_JustinTimberlake.png', 'Im_MattDamon.png', 'Im_DanielCraig.png', 'Im_OrlandoBloom.png', 'Im_LeonardoDiCaprio.png', 'Im_BenStiller.png', 'Im_GeorgeClooney.png'],diff,1,0.4751290999993216,8,0,
CHPA0602,0,inv,60,pos60_id2_im3.bmp_pos60_id4_im20.bmp,['Im_BradPitt.png', 'Im_DanielRadcliffe.png', 'Im_RobertPattinson.png', 'Im_JustinTimberlake.png', 'Im_MattDamon.png', 'Im_DanielCraig.png', 'Im_OrlandoBloom.png', 'Im_LeonardoDiCaprio.png', 'Im_BenStiller.png', 'Im_GeorgeClooney.png'],diff,1,0.4083032999988063,9,0,
CHPA0602,0,inv,150,pos150_id10_im1.bmp_pos150_id5_im1.bmp,['Im_BradPitt.png', 'Im_DanielRadcliffe.png', 'Im_RobertPattinson.png', 'Im_JustinTimberlake.png', 'Im_MattDamon.png', 'Im_DanielCraig.png', 'Im_OrlandoBloom.png', 'Im_LeonardoDiCaprio.png', 'Im_BenStiller.png', 'Im_GeorgeClooney.png'],diff,1,0.4417286999996577,10,0,
CHPA0602,0,inv,150,pos150_id3_im17.bmp_pos150_id10_im1.bmp,['Im_BradPitt.png', 'Im_DanielRadcliffe.png', 'Im_RobertPattinson.png', 'Im_JustinTimberlake.png', 'Im_MattDamon.png', 'Im_DanielCraig.png', 'Im_OrlandoBloom.png', 'Im_LeonardoDiCaprio.png', 'Im_BenStiller.png', 'Im_GeorgeClooney.png'],diff,1,0.625066999997216,11,0,
CHPA0602,1,inv,0,pos0_id4_im15.bmp_pos0_id19_im27.bmp,['Im_BradPitt.png', 'Im_DanielRadcliffe.png', 'Im_RobertPattinson.png', 'Im_JustinTimberlake.png', 'Im_MattDamon.png', 'Im_DanielCraig.png', 'Im_OrlandoBloom.png', 'Im_LeonardoDiCaprio.png', 'Im_BenStiller.png', 'Im_GeorgeClooney.png'],same,0,0.4917349999996077,11,0,
CHPA0602,1,inv,0,pos0_id19_im4.bmp_pos0_id7_im26.bmp,['Im_BradPitt.png', 'Im_DanielRadcliffe.png', 'Im_RobertPattinson.png', 'Im_JustinTimberlake.png', 'Im_MattDamon.png', 'Im_DanielCraig.png', 'Im_OrlandoBloom.png', 'Im_LeonardoDiCaprio.png', 'Im_BenStiller.png', 'Im_GeorgeClooney.png'],diff,1,0.43332590000136406,12,0,
CHPA0602,1,inv,90,pos90_id5_im20.bmp_pos90_id14_im16.bmp,['Im_BradPitt.png', 'Im_DanielRadcliffe.png', 'Im_RobertPattinson.png', 'Im_JustinTimberlake.png', 'Im_MattDamon.png', 'Im_DanielCraig.png', 'Im_OrlandoBloom.png', 'Im_LeonardoDiCaprio.png', 'Im_BenStiller.png', 'Im_GeorgeClooney.png'],diff,1,0.42506820000198786,13,0,
CHPA0602,1,inv,120,pos120_id3_im6.bmp_pos120_id3_im17.bmp,['Im_BradPitt.png', 'Im_DanielRadcliffe.png', 'Im_RobertPattinson.png', 'Im_JustinTimberlake.png', 'Im_MattDamon.png', 'Im_DanielCraig.png', 'Im_OrlandoBloom.png', 'Im_LeonardoDiCaprio.png', 'Im_BenStiller.png', 'Im_GeorgeClooney.png'],same,1,0.4668767000002845,14,0,
CHPA0602,1,inv,90,pos90_id2_im16.bmp_pos90_id14_im16.bmp,['Im_BradPitt.png', 'Im_DanielRadcliffe.png', 'Im_RobertPattinson.png', 'Im_JustinTimberlake.png', 'Im_MattDamon.png', 'Im_DanielCraig.png', 'Im_OrlandoBloom.png', 'Im_LeonardoDiCaprio.png', 'Im_BenStiller.png', 'Im_GeorgeClooney.png'],diff,1,0.41676509999888367,15,0,
CHPA0602,1,inv,120,pos120_id5_im20.bmp_pos120_id5_im10.bmp,['Im_BradPitt.png', 'Im_DanielRadcliffe.png', 'Im_RobertPattinson.png', 'Im_JustinTimberlake.png', 'Im_MattDamon.png', 'Im_DanielCraig.png', 'Im_OrlandoBloom.png', 'Im_LeonardoDiCaprio.png', 'Im_BenStiller.png', 'Im_GeorgeClooney.png'],diff,0,0.4251430000003893,15,0,
CHPA0602,1,inv,60,pos60_id2_im2.bmp_pos60_id5_im20.bmp,['Im_BradPitt.png', 'Im_DanielRadcliffe.png', 'Im_RobertPattinson.png', 'Im_JustinTimberlake.png', 'Im_MattDamon.png', 'Im_DanielCraig.png', 'Im_OrlandoBloom.png', 'Im_LeonardoDiCaprio.png', 'Im_BenStiller.png', 'Im_GeorgeClooney.png'],diff,1,0.4083182999966084,16,0,
CHPA0602,1,inv,30,pos30_id16_im2.bmp_pos30_id16_im19.bmp,['Im_BradPitt.png', 'Im_DanielRadcliffe.png', 'Im_RobertPattinson.png', 'Im_JustinTimberlake.png', 'Im_MattDamon.png', 'Im_DanielCraig.png', 'Im_OrlandoBloom.png', 'Im_LeonardoDiCaprio.png', 'Im_BenStiller.png', 'Im_GeorgeClooney.png'],same,1,0.41667989999768906,17,0,
CHPA0602,1,inv,150,pos150_id19_im8.bmp_pos150_id14_im24.bmp,['Im_BradPitt.png', 'Im_DanielRadcliffe.png', 'Im_RobertPattinson.png', 'Im_JustinTimberlake.png', 'Im_MattDamon.png', 'Im_DanielCraig.png', 'Im_OrlandoBloom.png', 'Im_LeonardoDiCaprio.png', 'Im_BenStiller.png', 'Im_GeorgeClooney.png'],diff,1,0.6083901000019978,18,0,
CHPA0602,1,inv,150,pos150_id5_im20.bmp_pos150_id14_im16.bmp,['Im_BradPitt.png', 'Im_DanielRadcliffe.png', 'Im_RobertPattinson.png', 'Im_JustinTimberlake.png', 'Im_MattDamon.png', 'Im_DanielCraig.png', 'Im_OrlandoBloom.png', 'Im_LeonardoDiCaprio.png', 'Im_BenStiller.png', 'Im_GeorgeClooney.png'],diff,1,0.4167306999988796,19,0,
CHPA0602,1,inv,fs,posfs_id10_im18.bmp_posfs_id2_im3.bmp,['Im_BradPitt.png', 'Im_DanielRadcliffe.png', 'Im_RobertPattinson.png', 'Im_JustinTimberlake.png', 'Im_MattDamon.png', 'Im_DanielCraig.png', 'Im_OrlandoBloom.png', 'Im_LeonardoDiCaprio.png', 'Im_BenStiller.png', 'Im_GeorgeClooney.png'],same,0,0.41664420000233804,19,0,
CHPA0602,1,inv,fs,posfs_id3_im6.bmp_posfs_id3_im17.bmp,['Im_BradPitt.png', 'Im_DanielRadcliffe.png', 'Im_RobertPattinson.png', 'Im_JustinTimberlake.png', 'Im_MattDamon.png', 'Im_DanielCraig.png', 'Im_OrlandoBloom.png', 'Im_LeonardoDiCaprio.png', 'Im_BenStiller.png', 'Im_GeorgeClooney.png'],same,1,0.4167063999993843,20,0,
CHPA0602,1,inv,60,pos60_id19_im27.bmp_pos60_id19_im8.bmp,['Im_BradPitt.png', 'Im_DanielRadcliffe.png', 'Im_RobertPattinson.png', 'Im_JustinTimberlake.png', 'Im_MattDamon.png', 'Im_DanielCraig.png', 'Im_OrlandoBloom.png', 'Im_LeonardoDiCaprio.png', 'Im_BenStiller.png', 'Im_GeorgeClooney.png'],diff,0,0.6337693999994372,20,0,
CHPA0602,1,inv,30,pos30_id16_im3.bmp_pos30_id4_im7.bmp,['Im_BradPitt.png', 'Im_DanielRadcliffe.png', 'Im_RobertPattinson.png', 'Im_JustinTimberlake.png', 'Im_MattDamon.png', 'Im_DanielCraig.png', 'Im_OrlandoBloom.png', 'Im_LeonardoDiCaprio.png', 'Im_BenStiller.png', 'Im_GeorgeClooney.png'],diff,1,0.4085245999995095,21,0,
CHPA0602,2,pos,120,pos120_id7_im15.bmp_pos120_id7_im26.bmp,['Im_BradPitt.png', 'Im_DanielRadcliffe.png', 'Im_RobertPattinson.png', 'Im_JustinTimberlake.png', 'Im_MattDamon.png', 'Im_DanielCraig.png', 'Im_OrlandoBloom.png', 'Im_LeonardoDiCaprio.png', 'Im_BenStiller.png', 'Im_GeorgeClooney.png'],same,1,0.41673159999845666,22,0,
CHPA0602,2,pos,60,pos60_id7_im26.bmp_pos60_id7_im14.bmp,['Im_BradPitt.png', 'Im_DanielRadcliffe.png', 'Im_RobertPattinson.png', 'Im_JustinTimberlake.png', 'Im_MattDamon.png', 'Im_DanielCraig.png', 'Im_OrlandoBloom.png', 'Im_LeonardoDiCaprio.png', 'Im_BenStiller.png', 'Im_GeorgeClooney.png'],same,1,0.5001215999982378,23,0,
CHPA0602,2,pos,90,pos90_id5_im20.bmp_pos90_id2_im2.bmp,['Im_BradPitt.png', 'Im_DanielRadcliffe.png', 'Im_RobertPattinson.png', 'Im_JustinTimberlake.png', 'Im_MattDamon.png', 'Im_DanielCraig.png', 'Im_OrlandoBloom.png', 'Im_LeonardoDiCaprio.png', 'Im_BenStiller.png', 'Im_GeorgeClooney.png'],diff,1,0.40841590000127326,24,0,
CHPA0602,2,pos,fs,posfs_id14_im16.bmp_posfs_id14_im24.bmp,['Im_BradPitt.png', 'Im_DanielRadcliffe.png', 'Im_RobertPattinson.png', 'Im_JustinTimberlake.png', 'Im_MattDamon.png', 'Im_DanielCraig.png', 'Im_OrlandoBloom.png', 'Im_LeonardoDiCaprio.png', 'Im_BenStiller.png', 'Im_GeorgeClooney.png'],same,1,0.4168319000018528,25,0,
CHPA0602,2,pos,90,pos90_id2_im16.bmp_pos90_id7_im15.bmp,['Im_BradPitt.png', 'Im_DanielRadcliffe.png', 'Im_RobertPattinson.png', 'Im_JustinTimberlake.png', 'Im_MattDamon.png', 'Im_DanielCraig.png', 'Im_OrlandoBloom.png', 'Im_LeonardoDiCaprio.png', 'Im_BenStiller.png', 'Im_GeorgeClooney.png'],diff,1,0.41689389999737614,26,0,
CHPA0602,2,pos,30,pos30_id5_im1.bmp_pos30_id5_im20.bmp,['Im_BradPitt.png', 'Im_DanielRadcliffe.png', 'Im_RobertPattinson.png', 'Im_JustinTimberlake.png', 'Im_MattDamon.png', 'Im_DanielCraig.png', 'Im_OrlandoBloom.png', 'Im_LeonardoDiCaprio.png', 'Im_BenStiller.png', 'Im_GeorgeClooney.png'],diff,0,0.41663680000056047,26,0,
CHPA0602,2,pos,30,pos30_id19_im27.bmp_pos30_id19_im8.bmp,['Im_BradPitt.png', 'Im_DanielRadcliffe.png', 'Im_RobertPattinson.png', 'Im_JustinTimberlake.png', 'Im_MattDamon.png', 'Im_DanielCraig.png', 'Im_OrlandoBloom.png', 'Im_LeonardoDiCaprio.png', 'Im_BenStiller.png', 'Im_GeorgeClooney.png'],same,1,0.4334448000008706,27,0,
CHPA0602,2,pos,fs,posfs_id19_im27.bmp_posfs_id19_im4.bmp,['Im_BradPitt.png', 'Im_DanielRadcliffe.png', 'Im_RobertPattinson.png', 'Im_JustinTimberlake.png', 'Im_MattDamon.png', 'Im_DanielCraig.png', 'Im_OrlandoBloom.png', 'Im_LeonardoDiCaprio.png', 'Im_BenStiller.png', 'Im_GeorgeClooney.png'],same,1,0.43344749999960186,28,0,
CHPA0602,2,pos,0,pos0_id2_im16.bmp_pos0_id14_im16.bmp,['Im_BradPitt.png', 'Im_DanielRadcliffe.png', 'Im_RobertPattinson.png', 'Im_JustinTimberlake.png', 'Im_MattDamon.png', 'Im_DanielCraig.png', 'Im_OrlandoBloom.png', 'Im_LeonardoDiCaprio.png', 'Im_BenStiller.png', 'Im_GeorgeClooney.png'],same,0,0.41671909999786294,28,0,
CHPA0602,2,pos,120,pos120_id14_im24.bmp_pos120_id19_im8.bmp,['Im_BradPitt.png', 'Im_DanielRadcliffe.png', 'Im_RobertPattinson.png', 'Im_JustinTimberlake.png', 'Im_MattDamon.png', 'Im_DanielCraig.png', 'Im_OrlandoBloom.png', 'Im_LeonardoDiCaprio.png', 'Im_BenStiller.png', 'Im_GeorgeClooney.png'],diff,1,0.4250761000002967,29,0,
CHPA0602,2,pos,150,pos150_id10_im18.bmp_pos150_id10_im17.bmp,['Im_BradPitt.png', 'Im_DanielRadcliffe.png', 'Im_RobertPattinson.png', 'Im_JustinTimberlake.png', 'Im_MattDamon.png', 'Im_DanielCraig.png', 'Im_OrlandoBloom.png', 'Im_LeonardoDiCaprio.png', 'Im_BenStiller.png', 'Im_GeorgeClooney.png'],same,1,0.4833909000008134,30,0,
CHPA0602,2,pos,150,pos150_id2_im16.bmp_pos150_id7_im15.bmp,['Im_BradPitt.png', 'Im_DanielRadcliffe.png', 'Im_RobertPattinson.png', 'Im_JustinTimberlake.png', 'Im_MattDamon.png', 'Im_DanielCraig.png', 'Im_OrlandoBloom.png', 'Im_LeonardoDiCaprio.png', 'Im_BenStiller.png', 'Im_GeorgeClooney.png'],diff,1,0.4250401999997848,31,0,
CHPA0602,2,pos,0,pos0_id4_im20.bmp_pos0_id4_im7.bmp,['Im_BradPitt.png', 'Im_DanielRadcliffe.png', 'Im_RobertPattinson.png', 'Im_JustinTimberlake.png', 'Im_MattDamon.png', 'Im_DanielCraig.png', 'Im_OrlandoBloom.png', 'Im_LeonardoDiCaprio.png', 'Im_BenStiller.png', 'Im_GeorgeClooney.png'],diff,0,0.41674740000235033,31,0,
CHPA0602,2,pos,60,pos60_id7_im26.bmp_pos60_id3_im8.bmp,['Im_BradPitt.png', 'Im_DanielRadcliffe.png', 'Im_RobertPattinson.png', 'Im_JustinTimberlake.png', 'Im_MattDamon.png', 'Im_DanielCraig.png', 'Im_OrlandoBloom.png', 'Im_LeonardoDiCaprio.png', 'Im_BenStiller.png', 'Im_GeorgeClooney.png'],diff,1,0.4834067000010691,32,0,
CHPA0602,3,neg,30,neg30_id2_im16.bmp_neg30_id2_im2.bmp,['Im_BradPitt.png', 'Im_DanielRadcliffe.png', 'Im_RobertPattinson.png', 'Im_JustinTimberlake.png', 'Im_MattDamon.png', 'Im_DanielCraig.png', 'Im_OrlandoBloom.png', 'Im_LeonardoDiCaprio.png', 'Im_BenStiller.png', 'Im_GeorgeClooney.png'],diff,0,1.4836776999982249,0,76.19047619047619,
CHPA0602,3,neg,60,neg60_id10_im18.bmp_neg60_id10_im17.bmp,['Im_BradPitt.png', 'Im_DanielRadcliffe.png', 'Im_RobertPattinson.png', 'Im_JustinTimberlake.png', 'Im_MattDamon.png', 'Im_DanielCraig.png', 'Im_OrlandoBloom.png', 'Im_LeonardoDiCaprio.png', 'Im_BenStiller.png', 'Im_GeorgeClooney.png'],diff,0,0.416896300001099,0,76.19047619047619,
CHPA0602,3,neg,150,neg150_id14_im24.bmp_neg150_id7_im14.bmp,['Im_BradPitt.png', 'Im_DanielRadcliffe.png', 'Im_RobertPattinson.png', 'Im_JustinTimberlake.png', 'Im_MattDamon.png', 'Im_DanielCraig.png', 'Im_OrlandoBloom.png', 'Im_LeonardoDiCaprio.png', 'Im_BenStiller.png', 'Im_GeorgeClooney.png'],diff,1,0.4166365000019141,1,76.19047619047619,
CHPA0602,3,neg,fs,negfs_id13_im10.bmp_negfs_id13_im15.bmp,['Im_BradPitt.png', 'Im_DanielRadcliffe.png', 'Im_RobertPattinson.png', 'Im_JustinTimberlake.png', 'Im_MattDamon.png', 'Im_DanielCraig.png', 'Im_OrlandoBloom.png', 'Im_LeonardoDiCaprio.png', 'Im_BenStiller.png', 'Im_GeorgeClooney.png'],same,1,0.4084595000022091,2,76.19047619047619,
CHPA0602,3,neg,120,neg120_id5_im1.bmp_neg120_id5_im10.bmp,['Im_BradPitt.png', 'Im_DanielRadcliffe.png', 'Im_RobertPattinson.png', 'Im_JustinTimberlake.png', 'Im_MattDamon.png', 'Im_DanielCraig.png', 'Im_OrlandoBloom.png', 'Im_LeonardoDiCaprio.png', 'Im_BenStiller.png', 'Im_GeorgeClooney.png'],same,1,0.4167725999977847,3,76.19047619047619,
CHPA0602,3,neg,150,neg150_id7_im15.bmp_neg150_id7_im26.bmp,['Im_BradPitt.png', 'Im_DanielRadcliffe.png', 'Im_RobertPattinson.png', 'Im_JustinTimberlake.png', 'Im_MattDamon.png', 'Im_DanielCraig.png', 'Im_OrlandoBloom.png', 'Im_LeonardoDiCaprio.png', 'Im_BenStiller.png', 'Im_GeorgeClooney.png'],same,1,0.42504899999767076,4,76.19047619047619,
CHPA0602,3,neg,90,neg90_id7_im26.bmp_neg90_id7_im14.bmp,['Im_BradPitt.png', 'Im_DanielRadcliffe.png', 'Im_RobertPattinson.png', 'Im_JustinTimberlake.png', 'Im_MattDamon.png', 'Im_DanielCraig.png', 'Im_OrlandoBloom.png', 'Im_LeonardoDiCaprio.png', 'Im_BenStiller.png', 'Im_GeorgeClooney.png'],same,1,0.4252593999990495,5,76.19047619047619,
CHPA0602,3,neg,fs,negfs_id3_im6.bmp_negfs_id16_im3.bmp,['Im_BradPitt.png', 'Im_DanielRadcliffe.png', 'Im_RobertPattinson.png', 'Im_JustinTimberlake.png', 'Im_MattDamon.png', 'Im_DanielCraig.png', 'Im_OrlandoBloom.png', 'Im_LeonardoDiCaprio.png', 'Im_BenStiller.png', 'Im_GeorgeClooney.png'],diff,1,0.4166793999975198,6,76.19047619047619,
CHPA0602,3,neg,60,neg60_id13_im10.bmp_neg60_id13_im15.bmp,['Im_BradPitt.png', 'Im_DanielRadcliffe.png', 'Im_RobertPattinson.png', 'Im_JustinTimberlake.png', 'Im_MattDamon.png', 'Im_DanielCraig.png', 'Im_OrlandoBloom.png', 'Im_LeonardoDiCaprio.png', 'Im_BenStiller.png', 'Im_GeorgeClooney.png'],same,1,0.4250434999994468,7,76.19047619047619,
CHPA0602,3,neg,120,neg120_id16_im3.bmp_neg120_id3_im6.bmp,['Im_BradPitt.png', 'Im_DanielRadcliffe.png', 'Im_RobertPattinson.png', 'Im_JustinTimberlake.png', 'Im_MattDamon.png', 'Im_DanielCraig.png', 'Im_OrlandoBloom.png', 'Im_LeonardoDiCaprio.png', 'Im_BenStiller.png', 'Im_GeorgeClooney.png'],diff,1,0.4167487999984587,8,76.19047619047619,
CHPA0602,3,neg,0,neg0_id7_im15.bmp_neg0_id19_im4.bmp,['Im_BradPitt.png', 'Im_DanielRadcliffe.png', 'Im_RobertPattinson.png', 'Im_JustinTimberlake.png', 'Im_MattDamon.png', 'Im_DanielCraig.png', 'Im_OrlandoBloom.png', 'Im_LeonardoDiCaprio.png', 'Im_BenStiller.png', 'Im_GeorgeClooney.png'],diff,1,0.5416886000020895,9,76.19047619047619,
CHPA0602,3,neg,0,neg0_id3_im17.bmp_neg0_id10_im1.bmp,['Im_BradPitt.png', 'Im_DanielRadcliffe.png', 'Im_RobertPattinson.png', 'Im_JustinTimberlake.png', 'Im_MattDamon.png', 'Im_DanielCraig.png', 'Im_OrlandoBloom.png', 'Im_LeonardoDiCaprio.png', 'Im_BenStiller.png', 'Im_GeorgeClooney.png'],diff,1,0.42511739999827114,10,76.19047619047619,
CHPA0602,3,neg,90,neg90_id10_im17.bmp_neg90_id10_im1.bmp,['Im_BradPitt.png', 'Im_DanielRadcliffe.png', 'Im_RobertPattinson.png', 'Im_JustinTimberlake.png', 'Im_MattDamon.png', 'Im_DanielCraig.png', 'Im_OrlandoBloom.png', 'Im_LeonardoDiCaprio.png', 'Im_BenStiller.png', 'Im_GeorgeClooney.png'],same,1,0.4250304999986838,11,76.19047619047619,
CHPA0602,3,neg,30,neg30_id14_im24.bmp_neg30_id14_im16.bmp,['Im_BradPitt.png', 'Im_DanielRadcliffe.png', 'Im_RobertPattinson.png', 'Im_JustinTimberlake.png', 'Im_MattDamon.png', 'Im_DanielCraig.png', 'Im_OrlandoBloom.png', 'Im_LeonardoDiCaprio.png', 'Im_BenStiller.png', 'Im_GeorgeClooney.png'],diff,0,0.42523290000099223,11,76.19047619047619,
CHPA0602,4,neg,30,neg30_id2_im2.bmp_neg30_id2_im3.bmp,['Im_BradPitt.png', 'Im_DanielRadcliffe.png', 'Im_RobertPattinson.png', 'Im_JustinTimberlake.png', 'Im_MattDamon.png', 'Im_DanielCraig.png', 'Im_OrlandoBloom.png', 'Im_LeonardoDiCaprio.png', 'Im_BenStiller.png', 'Im_GeorgeClooney.png'],same,1,0.4167263000017556,12,76.19047619047619,
CHPA0602,4,neg,fs,negfs_id10_im1.bmp_negfs_id10_im18.bmp,['Im_BradPitt.png', 'Im_DanielRadcliffe.png', 'Im_RobertPattinson.png', 'Im_JustinTimberlake.png', 'Im_MattDamon.png', 'Im_DanielCraig.png', 'Im_OrlandoBloom.png', 'Im_LeonardoDiCaprio.png', 'Im_BenStiller.png', 'Im_GeorgeClooney.png'],same,1,0.4166715999999724,13,76.19047619047619,
CHPA0602,4,neg,0,neg0_id10_im17.bmp_neg0_id10_im18.bmp,['Im_BradPitt.png', 'Im_DanielRadcliffe.png', 'Im_RobertPattinson.png', 'Im_JustinTimberlake.png', 'Im_MattDamon.png', 'Im_DanielCraig.png', 'Im_OrlandoBloom.png', 'Im_LeonardoDiCaprio.png', 'Im_BenStiller.png', 'Im_GeorgeClooney.png'],same,1,0.4250391999994463,14,76.19047619047619,
CHPA0602,4,neg,fs,negfs_id5_im20.bmp_negfs_id5_im10.bmp,['Im_BradPitt.png', 'Im_DanielRadcliffe.png', 'Im_RobertPattinson.png', 'Im_JustinTimberlake.png', 'Im_MattDamon.png', 'Im_DanielCraig.png', 'Im_OrlandoBloom.png', 'Im_LeonardoDiCaprio.png', 'Im_BenStiller.png', 'Im_GeorgeClooney.png'],same,1,0.4166687999968417,15,76.19047619047619,
CHPA0602,4,neg,120,neg120_id19_im4.bmp_neg120_id7_im26.bmp,['Im_BradPitt.png', 'Im_DanielRadcliffe.png', 'Im_RobertPattinson.png', 'Im_JustinTimberlake.png', 'Im_MattDamon.png', 'Im_DanielCraig.png', 'Im_OrlandoBloom.png', 'Im_LeonardoDiCaprio.png', 'Im_BenStiller.png', 'Im_GeorgeClooney.png'],diff,1,0.42507520000071963,16,76.19047619047619,
CHPA0602,4,neg,90,neg90_id4_im7.bmp_neg90_id4_im20.bmp,['Im_BradPitt.png', 'Im_DanielRadcliffe.png', 'Im_RobertPattinson.png', 'Im_JustinTimberlake.png', 'Im_MattDamon.png', 'Im_DanielCraig.png', 'Im_OrlandoBloom.png', 'Im_LeonardoDiCaprio.png', 'Im_BenStiller.png', 'Im_GeorgeClooney.png'],same,1,0.40835859999788227,17,76.19047619047619,
CHPA0602,4,neg,60,neg60_id5_im1.bmp_neg60_id5_im10.bmp,['Im_BradPitt.png', 'Im_DanielRadcliffe.png', 'Im_RobertPattinson.png', 'Im_JustinTimberlake.png', 'Im_MattDamon.png', 'Im_DanielCraig.png', 'Im_OrlandoBloom.png', 'Im_LeonardoDiCaprio.png', 'Im_BenStiller.png', 'Im_GeorgeClooney.png'],same,1,0.41672249999828637,18,76.19047619047619,
CHPA0602,4,neg,30,neg30_id4_im7.bmp_neg30_id16_im3.bmp,['Im_BradPitt.png', 'Im_DanielRadcliffe.png', 'Im_RobertPattinson.png', 'Im_JustinTimberlake.png', 'Im_MattDamon.png', 'Im_DanielCraig.png', 'Im_OrlandoBloom.png', 'Im_LeonardoDiCaprio.png', 'Im_BenStiller.png', 'Im_GeorgeClooney.png'],diff,1,0.42500049999944167,19,76.19047619047619,
CHPA0602,4,neg,0,neg0_id7_im15.bmp_neg0_id7_im26.bmp,['Im_BradPitt.png', 'Im_DanielRadcliffe.png', 'Im_RobertPattinson.png', 'Im_JustinTimberlake.png', 'Im_MattDamon.png', 'Im_DanielCraig.png', 'Im_OrlandoBloom.png', 'Im_LeonardoDiCaprio.png', 'Im_BenStiller.png', 'Im_GeorgeClooney.png'],same,1,0.41664599999785423,20,76.19047619047619,
CHPA0602,4,neg,90,neg90_id4_im20.bmp_neg90_id7_im14.bmp,['Im_BradPitt.png', 'Im_DanielRadcliffe.png', 'Im_RobertPattinson.png', 'Im_JustinTimberlake.png', 'Im_MattDamon.png', 'Im_DanielCraig.png', 'Im_OrlandoBloom.png', 'Im_LeonardoDiCaprio.png', 'Im_BenStiller.png', 'Im_GeorgeClooney.png'],diff,1,0.4334006999997655,21,76.19047619047619,
CHPA0602,4,neg,120,neg120_id14_im16.bmp_neg120_id2_im16.bmp,['Im_BradPitt.png', 'Im_DanielRadcliffe.png', 'Im_RobertPattinson.png', 'Im_JustinTimberlake.png', 'Im_MattDamon.png', 'Im_DanielCraig.png', 'Im_OrlandoBloom.png', 'Im_LeonardoDiCaprio.png', 'Im_BenStiller.png', 'Im_GeorgeClooney.png'],diff,1,0.41671820000192383,22,76.19047619047619,
CHPA0602,4,neg,150,neg150_id13_im15.bmp_neg150_id13_im10.bmp,['Im_BradPitt.png', 'Im_DanielRadcliffe.png', 'Im_RobertPattinson.png', 'Im_JustinTimberlake.png', 'Im_MattDamon.png', 'Im_DanielCraig.png', 'Im_OrlandoBloom.png', 'Im_LeonardoDiCaprio.png', 'Im_BenStiller.png', 'Im_GeorgeClooney.png'],same,1,0.41679450000083307,23,76.19047619047619,
CHPA0602,4,neg,150,neg150_id2_im16.bmp_neg150_id2_im3.bmp,['Im_BradPitt.png', 'Im_DanielRadcliffe.png', 'Im_RobertPattinson.png', 'Im_JustinTimberlake.png', 'Im_MattDamon.png', 'Im_DanielCraig.png', 'Im_OrlandoBloom.png', 'Im_LeonardoDiCaprio.png', 'Im_BenStiller.png', 'Im_GeorgeClooney.png'],same,1,0.4167593999991368,24,76.19047619047619,
CHPA0602,4,neg,60,neg60_id16_im19.bmp_neg60_id16_im2.bmp,['Im_BradPitt.png', 'Im_DanielRadcliffe.png', 'Im_RobertPattinson.png', 'Im_JustinTimberlake.png', 'Im_MattDamon.png', 'Im_DanielCraig.png', 'Im_OrlandoBloom.png', 'Im_LeonardoDiCaprio.png', 'Im_BenStiller.png', 'Im_GeorgeClooney.png'],same,1,0.41676970000116853,25,76.19047619047619,
CHPA0602,5,pos,60,pos60_id14_im24.bmp_pos60_id14_im16.bmp,['Im_BradPitt.png', 'Im_DanielRadcliffe.png', 'Im_RobertPattinson.png', 'Im_JustinTimberlake.png', 'Im_MattDamon.png', 'Im_DanielCraig.png', 'Im_OrlandoBloom.png', 'Im_LeonardoDiCaprio.png', 'Im_BenStiller.png', 'Im_GeorgeClooney.png'],same,1,0.42499749999842606,26,76.19047619047619,
CHPA0602,5,pos,120,pos120_id5_im20.bmp_pos120_id5_im1.bmp,['Im_BradPitt.png', 'Im_DanielRadcliffe.png', 'Im_RobertPattinson.png', 'Im_JustinTimberlake.png', 'Im_MattDamon.png', 'Im_DanielCraig.png', 'Im_OrlandoBloom.png', 'Im_LeonardoDiCaprio.png', 'Im_BenStiller.png', 'Im_GeorgeClooney.png'],same,1,0.4250399999982619,27,76.19047619047619,
CHPA0602,5,pos,120,pos120_id10_im18.bmp_pos120_id10_im17.bmp,['Im_BradPitt.png', 'Im_DanielRadcliffe.png', 'Im_RobertPattinson.png', 'Im_JustinTimberlake.png', 'Im_MattDamon.png', 'Im_DanielCraig.png', 'Im_OrlandoBloom.png', 'Im_LeonardoDiCaprio.png', 'Im_BenStiller.png', 'Im_GeorgeClooney.png'],same,1,0.40839169999890146,28,76.19047619047619,
CHPA0602,5,pos,0,pos0_id19_im4.bmp_pos0_id19_im27.bmp,['Im_BradPitt.png', 'Im_DanielRadcliffe.png', 'Im_RobertPattinson.png', 'Im_JustinTimberlake.png', 'Im_MattDamon.png', 'Im_DanielCraig.png', 'Im_OrlandoBloom.png', 'Im_LeonardoDiCaprio.png', 'Im_BenStiller.png', 'Im_GeorgeClooney.png'],same,1,0.42516059999979916,29,76.19047619047619,
CHPA0602,5,pos,60,pos60_id2_im16.bmp_pos60_id2_im2.bmp,['Im_BradPitt.png', 'Im_DanielRadcliffe.png', 'Im_RobertPattinson.png', 'Im_JustinTimberlake.png', 'Im_MattDamon.png', 'Im_DanielCraig.png', 'Im_OrlandoBloom.png', 'Im_LeonardoDiCaprio.png', 'Im_BenStiller.png', 'Im_GeorgeClooney.png'],diff,0,0.41665269999793964,29,76.19047619047619,
CHPA0602,5,pos,0,pos0_id7_im26.bmp_pos0_id3_im8.bmp,['Im_BradPitt.png', 'Im_DanielRadcliffe.png', 'Im_RobertPattinson.png', 'Im_JustinTimberlake.png', 'Im_MattDamon.png', 'Im_DanielCraig.png', 'Im_OrlandoBloom.png', 'Im_LeonardoDiCaprio.png', 'Im_BenStiller.png', 'Im_GeorgeClooney.png'],diff,1,0.4250677000018186,30,76.19047619047619,
CHPA0602,5,pos,150,pos150_id7_im26.bmp_pos150_id7_im15.bmp,['Im_BradPitt.png', 'Im_DanielRadcliffe.png', 'Im_RobertPattinson.png', 'Im_JustinTimberlake.png', 'Im_MattDamon.png', 'Im_DanielCraig.png', 'Im_OrlandoBloom.png', 'Im_LeonardoDiCaprio.png', 'Im_BenStiller.png', 'Im_GeorgeClooney.png'],same,1,0.40840400000161026,31,76.19047619047619,
CHPA0602,5,pos,fs,posfs_id16_im19.bmp_posfs_id13_im15.bmp,['Im_BradPitt.png', 'Im_DanielRadcliffe.png', 'Im_RobertPattinson.png', 'Im_JustinTimberlake.png', 'Im_MattDamon.png', 'Im_DanielCraig.png', 'Im_OrlandoBloom.png', 'Im_LeonardoDiCaprio.png', 'Im_BenStiller.png', 'Im_GeorgeClooney.png'],diff,1,0.4167094999975234,32,76.19047619047619,
CHPA0602,5,pos,30,pos30_id14_im24.bmp_pos30_id14_im16.bmp,['Im_BradPitt.png', 'Im_DanielRadcliffe.png', 'Im_RobertPattinson.png', 'Im_JustinTimberlake.png', 'Im_MattDamon.png', 'Im_DanielCraig.png', 'Im_OrlandoBloom.png', 'Im_LeonardoDiCaprio.png', 'Im_BenStiller.png', 'Im_GeorgeClooney.png'],diff,0,0.4250681999983499,32,76.19047619047619,
CHPA0602,5,pos,30,pos30_id10_im18.bmp_pos30_id10_im1.bmp,['Im_BradPitt.png', 'Im_DanielRadcliffe.png', 'Im_RobertPattinson.png', 'Im_JustinTimberlake.png', 'Im_MattDamon.png', 'Im_DanielCraig.png', 'Im_OrlandoBloom.png', 'Im_LeonardoDiCaprio.png', 'Im_BenStiller.png', 'Im_GeorgeClooney.png'],same,1,0.41682090000176686,33,76.19047619047619,
CHPA0602,5,pos,150,pos150_id13_im10.bmp_pos150_id13_im15.bmp,['Im_BradPitt.png', 'Im_DanielRadcliffe.png', 'Im_RobertPattinson.png', 'Im_JustinTimberlake.png', 'Im_MattDamon.png', 'Im_DanielCraig.png', 'Im_OrlandoBloom.png', 'Im_LeonardoDiCaprio.png', 'Im_BenStiller.png', 'Im_GeorgeClooney.png'],same,1,0.433394199997565,34,76.19047619047619,
CHPA0602,5,pos,90,pos90_id14_im24.bmp_pos90_id19_im8.bmp,['Im_BradPitt.png', 'Im_DanielRadcliffe.png', 'Im_RobertPattinson.png', 'Im_JustinTimberlake.png', 'Im_MattDamon.png', 'Im_DanielCraig.png', 'Im_OrlandoBloom.png', 'Im_LeonardoDiCaprio.png', 'Im_BenStiller.png', 'Im_GeorgeClooney.png'],diff,1,0.41675039999972796,35,76.19047619047619,
CHPA0602,5,pos,fs,posfs_id5_im20.bmp_posfs_id5_im10.bmp,['Im_BradPitt.png', 'Im_DanielRadcliffe.png', 'Im_RobertPattinson.png', 'Im_JustinTimberlake.png', 'Im_MattDamon.png', 'Im_DanielCraig.png', 'Im_OrlandoBloom.png', 'Im_LeonardoDiCaprio.png', 'Im_BenStiller.png', 'Im_GeorgeClooney.png'],same,1,0.4167196000016702,36,76.19047619047619,
CHPA0602,5,pos,90,pos90_id16_im19.bmp_pos90_id16_im3.bmp,['Im_BradPitt.png', 'Im_DanielRadcliffe.png', 'Im_RobertPattinson.png', 'Im_JustinTimberlake.png', 'Im_MattDamon.png', 'Im_DanielCraig.png', 'Im_OrlandoBloom.png', 'Im_LeonardoDiCaprio.png', 'Im_BenStiller.png', 'Im_GeorgeClooney.png'],same,1,0.41682200000286684,37,76.19047619047619,
CHPA0602,6,inv,fs,posfs_id4_im15.bmp_posfs_id5_im1.bmp,['Im_BradPitt.png', 'Im_DanielRadcliffe.png', 'Im_RobertPattinson.png', 'Im_JustinTimberlake.png', 'Im_MattDamon.png', 'Im_DanielCraig.png', 'Im_OrlandoBloom.png', 'Im_LeonardoDiCaprio.png', 'Im_BenStiller.png', 'Im_GeorgeClooney.png'],diff,1,0.4167550999991363,1,88.0952380952381,
CHPA0602,6,inv,90,pos90_id3_im17.bmp_pos90_id13_im29.bmp,['Im_BradPitt.png', 'Im_DanielRadcliffe.png', 'Im_RobertPattinson.png', 'Im_JustinTimberlake.png', 'Im_MattDamon.png', 'Im_DanielCraig.png', 'Im_OrlandoBloom.png', 'Im_LeonardoDiCaprio.png', 'Im_BenStiller.png', 'Im_GeorgeClooney.png'],same,0,0.6250648999994155,1,88.0952380952381,
CHPA0602,6,inv,30,pos30_id13_im15.bmp_pos30_id19_im27.bmp,['Im_BradPitt.png', 'Im_DanielRadcliffe.png', 'Im_RobertPattinson.png', 'Im_JustinTimberlake.png', 'Im_MattDamon.png', 'Im_DanielCraig.png', 'Im_OrlandoBloom.png', 'Im_LeonardoDiCaprio.png', 'Im_BenStiller.png', 'Im_GeorgeClooney.png'],diff,1,0.42518809999819496,2,88.0952380952381,
CHPA0602,6,inv,120,pos120_id7_im14.bmp_pos120_id7_im15.bmp,['Im_BradPitt.png', 'Im_DanielRadcliffe.png', 'Im_RobertPattinson.png', 'Im_JustinTimberlake.png', 'Im_MattDamon.png', 'Im_DanielCraig.png', 'Im_OrlandoBloom.png', 'Im_LeonardoDiCaprio.png', 'Im_BenStiller.png', 'Im_GeorgeClooney.png'],same,1,0.4084255000016128,3,88.0952380952381,
CHPA0602,6,inv,30,pos30_id2_im3.bmp_pos30_id10_im18.bmp,['Im_BradPitt.png', 'Im_DanielRadcliffe.png', 'Im_RobertPattinson.png', 'Im_JustinTimberlake.png', 'Im_MattDamon.png', 'Im_DanielCraig.png', 'Im_OrlandoBloom.png', 'Im_LeonardoDiCaprio.png', 'Im_BenStiller.png', 'Im_GeorgeClooney.png'],diff,1,0.4167695000032836,4,88.0952380952381,
CHPA0602,6,inv,120,pos120_id4_im7.bmp_pos120_id4_im20.bmp,['Im_BradPitt.png', 'Im_DanielRadcliffe.png', 'Im_RobertPattinson.png', 'Im_JustinTimberlake.png', 'Im_MattDamon.png', 'Im_DanielCraig.png', 'Im_OrlandoBloom.png', 'Im_LeonardoDiCaprio.png', 'Im_BenStiller.png', 'Im_GeorgeClooney.png'],same,1,0.41688020000219694,5,88.0952380952381,
CHPA0602,6,inv,150,pos150_id14_im18.bmp_pos150_id13_im10.bmp,['Im_BradPitt.png', 'Im_DanielRadcliffe.png', 'Im_RobertPattinson.png', 'Im_JustinTimberlake.png', 'Im_MattDamon.png', 'Im_DanielCraig.png', 'Im_OrlandoBloom.png', 'Im_LeonardoDiCaprio.png', 'Im_BenStiller.png', 'Im_GeorgeClooney.png'],diff,1,0.4167995999996492,6,88.0952380952381,
CHPA0602,6,inv,90,pos90_id5_im20.bmp_pos90_id2_im2.bmp,['Im_BradPitt.png', 'Im_DanielRadcliffe.png', 'Im_RobertPattinson.png', 'Im_JustinTimberlake.png', 'Im_MattDamon.png', 'Im_DanielCraig.png', 'Im_OrlandoBloom.png', 'Im_LeonardoDiCaprio.png', 'Im_BenStiller.png', 'Im_GeorgeClooney.png'],diff,1,0.41688739999881363,7,88.0952380952381,
CHPA0602,6,inv,150,pos150_id3_im8.bmp_pos150_id16_im19.bmp,['Im_BradPitt.png', 'Im_DanielRadcliffe.png', 'Im_RobertPattinson.png', 'Im_JustinTimberlake.png', 'Im_MattDamon.png', 'Im_DanielCraig.png', 'Im_OrlandoBloom.png', 'Im_LeonardoDiCaprio.png', 'Im_BenStiller.png', 'Im_GeorgeClooney.png'],diff,1,0.42512340000030235,8,88.0952380952381,
CHPA0602,6,inv,0,pos0_id7_im15.bmp_pos0_id19_im4.bmp,['Im_BradPitt.png', 'Im_DanielRadcliffe.png', 'Im_RobertPattinson.png', 'Im_JustinTimberlake.png', 'Im_MattDamon.png', 'Im_DanielCraig.png', 'Im_OrlandoBloom.png', 'Im_LeonardoDiCaprio.png', 'Im_BenStiller.png', 'Im_GeorgeClooney.png'],diff,1,0.4251709000018309,9,88.0952380952381,
CHPA0602,6,inv,0,pos0_id16_im2.bmp_pos0_id16_im3.bmp,['Im_BradPitt.png', 'Im_DanielRadcliffe.png', 'Im_RobertPattinson.png', 'Im_JustinTimberlake.png', 'Im_MattDamon.png', 'Im_DanielCraig.png', 'Im_OrlandoBloom.png', 'Im_LeonardoDiCaprio.png', 'Im_BenStiller.png', 'Im_GeorgeClooney.png'],diff,0,0.4167809999999008,9,88.0952380952381,
CHPA0602,6,inv,60,pos60_id14_im16.bmp_pos60_id14_im24.bmp,['Im_BradPitt.png', 'Im_DanielRadcliffe.png', 'Im_RobertPattinson.png', 'Im_JustinTimberlake.png', 'Im_MattDamon.png', 'Im_DanielCraig.png', 'Im_OrlandoBloom.png', 'Im_LeonardoDiCaprio.png', 'Im_BenStiller.png', 'Im_GeorgeClooney.png'],same,1,0.541836800002784,10,88.0952380952381,
CHPA0602,6,inv,60,pos60_id14_im16.bmp_pos60_id2_im16.bmp,['Im_BradPitt.png', 'Im_DanielRadcliffe.png', 'Im_RobertPattinson.png', 'Im_JustinTimberlake.png', 'Im_MattDamon.png', 'Im_DanielCraig.png', 'Im_OrlandoBloom.png', 'Im_LeonardoDiCaprio.png', 'Im_BenStiller.png', 'Im_GeorgeClooney.png'],diff,1,0.41678740000133985,11,88.0952380952381,
CHPA0602,6,inv,fs,posfs_id7_im15.bmp_posfs_id2_im16.bmp,['Im_BradPitt.png', 'Im_DanielRadcliffe.png', 'Im_RobertPattinson.png', 'Im_JustinTimberlake.png', 'Im_MattDamon.png', 'Im_DanielCraig.png', 'Im_OrlandoBloom.png', 'Im_LeonardoDiCaprio.png', 'Im_BenStiller.png', 'Im_GeorgeClooney.png'],diff,1,0.4084080000029644,12,88.0952380952381,
CHPA0602,7,pos,30,pos30_id3_im6.bmp_pos30_id3_im8.bmp,['Im_BradPitt.png', 'Im_DanielRadcliffe.png', 'Im_RobertPattinson.png', 'Im_JustinTimberlake.png', 'Im_MattDamon.png', 'Im_DanielCraig.png', 'Im_OrlandoBloom.png', 'Im_LeonardoDiCaprio.png', 'Im_BenStiller.png', 'Im_GeorgeClooney.png'],same,1,0.4334694999997737,13,88.0952380952381,
CHPA0602,7,pos,0,pos0_id13_im15.bmp_pos0_id16_im19.bmp,['Im_BradPitt.png', 'Im_DanielRadcliffe.png', 'Im_RobertPattinson.png', 'Im_JustinTimberlake.png', 'Im_MattDamon.png', 'Im_DanielCraig.png', 'Im_OrlandoBloom.png', 'Im_LeonardoDiCaprio.png', 'Im_BenStiller.png', 'Im_GeorgeClooney.png'],diff,1,0.4249872000000323,14,88.0952380952381,
CHPA0602,7,pos,60,pos60_id16_im19.bmp_pos60_id3_im8.bmp,['Im_BradPitt.png', 'Im_DanielRadcliffe.png', 'Im_RobertPattinson.png', 'Im_JustinTimberlake.png', 'Im_MattDamon.png', 'Im_DanielCraig.png', 'Im_OrlandoBloom.png', 'Im_LeonardoDiCaprio.png', 'Im_BenStiller.png', 'Im_GeorgeClooney.png'],diff,1,0.4083009999994829,15,88.0952380952381,
CHPA0602,7,pos,30,pos30_id13_im15.bmp_pos30_id16_im19.bmp,['Im_BradPitt.png', 'Im_DanielRadcliffe.png', 'Im_RobertPattinson.png', 'Im_JustinTimberlake.png', 'Im_MattDamon.png', 'Im_DanielCraig.png', 'Im_OrlandoBloom.png', 'Im_LeonardoDiCaprio.png', 'Im_BenStiller.png', 'Im_GeorgeClooney.png'],diff,1,0.4250979999997071,16,88.0952380952381,
CHPA0602,7,pos,120,pos120_id16_im19.bmp_pos120_id16_im3.bmp,['Im_BradPitt.png', 'Im_DanielRadcliffe.png', 'Im_RobertPattinson.png', 'Im_JustinTimberlake.png', 'Im_MattDamon.png', 'Im_DanielCraig.png', 'Im_OrlandoBloom.png', 'Im_LeonardoDiCaprio.png', 'Im_BenStiller.png', 'Im_GeorgeClooney.png'],same,1,0.4334073999998509,17,88.0952380952381,
CHPA0602,7,pos,fs,posfs_id2_im2.bmp_posfs_id2_im3.bmp,['Im_BradPitt.png', 'Im_DanielRadcliffe.png', 'Im_RobertPattinson.png', 'Im_JustinTimberlake.png', 'Im_MattDamon.png', 'Im_DanielCraig.png', 'Im_OrlandoBloom.png', 'Im_LeonardoDiCaprio.png', 'Im_BenStiller.png', 'Im_GeorgeClooney.png'],same,1,0.4250842000001285,18,88.0952380952381,
CHPA0602,7,pos,90,pos90_id7_im26.bmp_pos90_id19_im4.bmp,['Im_BradPitt.png', 'Im_DanielRadcliffe.png', 'Im_RobertPattinson.png', 'Im_JustinTimberlake.png', 'Im_MattDamon.png', 'Im_DanielCraig.png', 'Im_OrlandoBloom.png', 'Im_LeonardoDiCaprio.png', 'Im_BenStiller.png', 'Im_GeorgeClooney.png'],diff,1,0.41681520000202,19,88.0952380952381,
CHPA0602,7,pos,60,pos60_id13_im15.bmp_pos60_id19_im27.bmp,['Im_BradPitt.png', 'Im_DanielRadcliffe.png', 'Im_RobertPattinson.png', 'Im_JustinTimberlake.png', 'Im_MattDamon.png', 'Im_DanielCraig.png', 'Im_OrlandoBloom.png', 'Im_LeonardoDiCaprio.png', 'Im_BenStiller.png', 'Im_GeorgeClooney.png'],diff,1,0.42506309999953373,20,88.0952380952381,
CHPA0602,7,pos,fs,posfs_id3_im6.bmp_posfs_id16_im3.bmp,['Im_BradPitt.png', 'Im_DanielRadcliffe.png', 'Im_RobertPattinson.png', 'Im_JustinTimberlake.png', 'Im_MattDamon.png', 'Im_DanielCraig.png', 'Im_OrlandoBloom.png', 'Im_LeonardoDiCaprio.png', 'Im_BenStiller.png', 'Im_GeorgeClooney.png'],diff,1,0.4166442999994615,21,88.0952380952381,
CHPA0602,7,pos,90,pos90_id7_im14.bmp_pos90_id7_im26.bmp,['Im_BradPitt.png', 'Im_DanielRadcliffe.png', 'Im_RobertPattinson.png', 'Im_JustinTimberlake.png', 'Im_MattDamon.png', 'Im_DanielCraig.png', 'Im_OrlandoBloom.png', 'Im_LeonardoDiCaprio.png', 'Im_BenStiller.png', 'Im_GeorgeClooney.png'],same,1,0.4333269000017026,22,88.0952380952381,
CHPA0602,7,pos,150,pos150_id4_im7.bmp_pos150_id4_im20.bmp,['Im_BradPitt.png', 'Im_DanielRadcliffe.png', 'Im_RobertPattinson.png', 'Im_JustinTimberlake.png', 'Im_MattDamon.png', 'Im_DanielCraig.png', 'Im_OrlandoBloom.png', 'Im_LeonardoDiCaprio.png', 'Im_BenStiller.png', 'Im_GeorgeClooney.png'],same,1,0.4166971000013291,23,88.0952380952381,
CHPA0602,7,pos,120,pos120_id7_im15.bmp_pos120_id2_im16.bmp,['Im_BradPitt.png', 'Im_DanielRadcliffe.png', 'Im_RobertPattinson.png', 'Im_JustinTimberlake.png', 'Im_MattDamon.png', 'Im_DanielCraig.png', 'Im_OrlandoBloom.png', 'Im_LeonardoDiCaprio.png', 'Im_BenStiller.png', 'Im_GeorgeClooney.png'],diff,1,0.4084798000003502,24,88.0952380952381,
CHPA0602,7,pos,0,pos0_id3_im17.bmp_pos0_id3_im8.bmp,['Im_BradPitt.png', 'Im_DanielRadcliffe.png', 'Im_RobertPattinson.png', 'Im_JustinTimberlake.png', 'Im_MattDamon.png', 'Im_DanielCraig.png', 'Im_OrlandoBloom.png', 'Im_LeonardoDiCaprio.png', 'Im_BenStiller.png', 'Im_GeorgeClooney.png'],same,1,0.41676100000040606,25,88.0952380952381,
CHPA0602,7,pos,150,pos150_id13_im29.bmp_pos150_id13_im15.bmp,['Im_BradPitt.png', 'Im_DanielRadcliffe.png', 'Im_RobertPattinson.png', 'Im_JustinTimberlake.png', 'Im_MattDamon.png', 'Im_DanielCraig.png', 'Im_OrlandoBloom.png', 'Im_LeonardoDiCaprio.png', 'Im_BenStiller.png', 'Im_GeorgeClooney.png'],diff,0,0.41673939999964205,25,88.0952380952381,
CHPA0602,8,inv,60,pos60_id13_im10.bmp_pos60_id13_im29.bmp,['Im_BradPitt.png', 'Im_DanielRadcliffe.png', 'Im_RobertPattinson.png', 'Im_JustinTimberlake.png', 'Im_MattDamon.png', 'Im_DanielCraig.png', 'Im_OrlandoBloom.png', 'Im_LeonardoDiCaprio.png', 'Im_BenStiller.png', 'Im_GeorgeClooney.png'],diff,0,0.4167778000010003,25,88.0952380952381,
CHPA0602,8,inv,30,pos30_id14_im18.bmp_pos30_id14_im24.bmp,['Im_BradPitt.png', 'Im_DanielRadcliffe.png', 'Im_RobertPattinson.png', 'Im_JustinTimberlake.png', 'Im_MattDamon.png', 'Im_DanielCraig.png', 'Im_OrlandoBloom.png', 'Im_LeonardoDiCaprio.png', 'Im_BenStiller.png', 'Im_GeorgeClooney.png'],diff,0,0.4585881999992125,25,88.0952380952381,
CHPA0602,8,inv,150,pos150_id2_im2.bmp_pos150_id2_im16.bmp,['Im_BradPitt.png', 'Im_DanielRadcliffe.png', 'Im_RobertPattinson.png', 'Im_JustinTimberlake.png', 'Im_MattDamon.png', 'Im_DanielCraig.png', 'Im_OrlandoBloom.png', 'Im_LeonardoDiCaprio.png', 'Im_BenStiller.png', 'Im_GeorgeClooney.png'],same,1,0.41677469999922323,26,88.0952380952381,
CHPA0602,8,inv,fs,posfs_id4_im7.bmp_posfs_id16_im3.bmp,['Im_BradPitt.png', 'Im_DanielRadcliffe.png', 'Im_RobertPattinson.png', 'Im_JustinTimberlake.png', 'Im_MattDamon.png', 'Im_DanielCraig.png', 'Im_OrlandoBloom.png', 'Im_LeonardoDiCaprio.png', 'Im_BenStiller.png', 'Im_GeorgeClooney.png'],diff,1,0.42509489999793004,27,88.0952380952381,
CHPA0602,8,inv,0,pos0_id3_im17.bmp_pos0_id3_im6.bmp,['Im_BradPitt.png', 'Im_DanielRadcliffe.png', 'Im_RobertPattinson.png', 'Im_JustinTimberlake.png', 'Im_MattDamon.png', 'Im_DanielCraig.png', 'Im_OrlandoBloom.png', 'Im_LeonardoDiCaprio.png', 'Im_BenStiller.png', 'Im_GeorgeClooney.png'],same,1,0.4668792999982543,28,88.0952380952381,
CHPA0602,8,inv,90,pos90_id2_im2.bmp_pos90_id5_im10.bmp,['Im_BradPitt.png', 'Im_DanielRadcliffe.png', 'Im_RobertPattinson.png', 'Im_JustinTimberlake.png', 'Im_MattDamon.png', 'Im_DanielCraig.png', 'Im_OrlandoBloom.png', 'Im_LeonardoDiCaprio.png', 'Im_BenStiller.png', 'Im_GeorgeClooney.png'],diff,1,0.42502930000046035,29,88.0952380952381,
CHPA0602,8,inv,120,pos120_id19_im4.bmp_pos120_id19_im8.bmp,['Im_BradPitt.png', 'Im_DanielRadcliffe.png', 'Im_RobertPattinson.png', 'Im_JustinTimberlake.png', 'Im_MattDamon.png', 'Im_DanielCraig.png', 'Im_OrlandoBloom.png', 'Im_LeonardoDiCaprio.png', 'Im_BenStiller.png', 'Im_GeorgeClooney.png'],same,1,0.433370399998239,30,88.0952380952381,
CHPA0602,8,inv,90,pos90_id4_im20.bmp_pos90_id7_im14.bmp,['Im_BradPitt.png', 'Im_DanielRadcliffe.png', 'Im_RobertPattinson.png', 'Im_JustinTimberlake.png', 'Im_MattDamon.png', 'Im_DanielCraig.png', 'Im_OrlandoBloom.png', 'Im_LeonardoDiCaprio.png', 'Im_BenStiller.png', 'Im_GeorgeClooney.png'],diff,1,0.41671620000124676,31,88.0952380952381,
CHPA0602,8,inv,60,pos60_id14_im24.bmp_pos60_id19_im8.bmp,['Im_BradPitt.png', 'Im_DanielRadcliffe.png', 'Im_RobertPattinson.png', 'Im_JustinTimberlake.png', 'Im_MattDamon.png', 'Im_DanielCraig.png', 'Im_OrlandoBloom.png', 'Im_LeonardoDiCaprio.png', 'Im_BenStiller.png', 'Im_GeorgeClooney.png'],same,0,0.4167419000004884,31,88.0952380952381,
CHPA0602,8,inv,120,pos120_id3_im6.bmp_pos120_id3_im8.bmp,['Im_BradPitt.png', 'Im_DanielRadcliffe.png', 'Im_RobertPattinson.png', 'Im_JustinTimberlake.png', 'Im_MattDamon.png', 'Im_DanielCraig.png', 'Im_OrlandoBloom.png', 'Im_LeonardoDiCaprio.png', 'Im_BenStiller.png', 'Im_GeorgeClooney.png'],same,1,0.7583497000014177,32,88.0952380952381,
CHPA0602,8,inv,fs,posfs_id14_im16.bmp_posfs_id2_im16.bmp,['Im_BradPitt.png', 'Im_DanielRadcliffe.png', 'Im_RobertPattinson.png', 'Im_JustinTimberlake.png', 'Im_MattDamon.png', 'Im_DanielCraig.png', 'Im_OrlandoBloom.png', 'Im_LeonardoDiCaprio.png', 'Im_BenStiller.png', 'Im_GeorgeClooney.png'],diff,1,0.4252288999996381,33,88.0952380952381,
CHPA0602,8,inv,30,pos30_id3_im17.bmp_pos30_id3_im6.bmp,['Im_BradPitt.png', 'Im_DanielRadcliffe.png', 'Im_RobertPattinson.png', 'Im_JustinTimberlake.png', 'Im_MattDamon.png', 'Im_DanielCraig.png', 'Im_OrlandoBloom.png', 'Im_LeonardoDiCaprio.png', 'Im_BenStiller.png', 'Im_GeorgeClooney.png'],same,1,0.4168095999993966,34,88.0952380952381,
CHPA0602,8,inv,0,pos0_id7_im15.bmp_pos0_id7_im14.bmp,['Im_BradPitt.png', 'Im_DanielRadcliffe.png', 'Im_RobertPattinson.png', 'Im_JustinTimberlake.png', 'Im_MattDamon.png', 'Im_DanielCraig.png', 'Im_OrlandoBloom.png', 'Im_LeonardoDiCaprio.png', 'Im_BenStiller.png', 'Im_GeorgeClooney.png'],same,1,0.4167336999998952,35,88.0952380952381,
CHPA0602,8,inv,150,pos150_id5_im20.bmp_pos150_id5_im1.bmp,['Im_BradPitt.png', 'Im_DanielRadcliffe.png', 'Im_RobertPattinson.png', 'Im_JustinTimberlake.png', 'Im_MattDamon.png', 'Im_DanielCraig.png', 'Im_OrlandoBloom.png', 'Im_LeonardoDiCaprio.png', 'Im_BenStiller.png', 'Im_GeorgeClooney.png'],diff,0,0.4250940999991144,35,88.0952380952381,
CHPA0602,9,neg,150,neg150_id5_im20.bmp_neg150_id5_im10.bmp,['Im_BradPitt.png', 'Im_DanielRadcliffe.png', 'Im_RobertPattinson.png', 'Im_JustinTimberlake.png', 'Im_MattDamon.png', 'Im_DanielCraig.png', 'Im_OrlandoBloom.png', 'Im_LeonardoDiCaprio.png', 'Im_BenStiller.png', 'Im_GeorgeClooney.png'],same,1,0.4251206999979331,1,83.33333333333333,
CHPA0602,9,neg,fs,negfs_id7_im26.bmp_negfs_id7_im14.bmp,['Im_BradPitt.png', 'Im_DanielRadcliffe.png', 'Im_RobertPattinson.png', 'Im_JustinTimberlake.png', 'Im_MattDamon.png', 'Im_DanielCraig.png', 'Im_OrlandoBloom.png', 'Im_LeonardoDiCaprio.png', 'Im_BenStiller.png', 'Im_GeorgeClooney.png'],same,1,0.4168872999980522,2,83.33333333333333,
CHPA0602,9,neg,90,neg90_id19_im4.bmp_neg90_id19_im27.bmp,['Im_BradPitt.png', 'Im_DanielRadcliffe.png', 'Im_RobertPattinson.png', 'Im_JustinTimberlake.png', 'Im_MattDamon.png', 'Im_DanielCraig.png', 'Im_OrlandoBloom.png', 'Im_LeonardoDiCaprio.png', 'Im_BenStiller.png', 'Im_GeorgeClooney.png'],same,1,0.41672640000251704,3,83.33333333333333,
CHPA0602,9,neg,30,neg30_id5_im20.bmp_neg30_id14_im16.bmp,['Im_BradPitt.png', 'Im_DanielRadcliffe.png', 'Im_RobertPattinson.png', 'Im_JustinTimberlake.png', 'Im_MattDamon.png', 'Im_DanielCraig.png', 'Im_OrlandoBloom.png', 'Im_LeonardoDiCaprio.png', 'Im_BenStiller.png', 'Im_GeorgeClooney.png'],diff,1,0.6084602999981144,4,83.33333333333333,
CHPA0602,9,neg,90,neg90_id19_im27.bmp_neg90_id13_im15.bmp,['Im_BradPitt.png', 'Im_DanielRadcliffe.png', 'Im_RobertPattinson.png', 'Im_JustinTimberlake.png', 'Im_MattDamon.png', 'Im_DanielCraig.png', 'Im_OrlandoBloom.png', 'Im_LeonardoDiCaprio.png', 'Im_BenStiller.png', 'Im_GeorgeClooney.png'],diff,1,0.43341660000078264,5,83.33333333333333,
CHPA0602,9,neg,0,neg0_id4_im15.bmp_neg0_id19_im27.bmp,['Im_BradPitt.png', 'Im_DanielRadcliffe.png', 'Im_RobertPattinson.png', 'Im_JustinTimberlake.png', 'Im_MattDamon.png', 'Im_DanielCraig.png', 'Im_OrlandoBloom.png', 'Im_LeonardoDiCaprio.png', 'Im_BenStiller.png', 'Im_GeorgeClooney.png'],same,0,0.4167280000001483,5,83.33333333333333,
CHPA0602,9,neg,120,neg120_id19_im4.bmp_neg120_id19_im8.bmp,['Im_BradPitt.png', 'Im_DanielRadcliffe.png', 'Im_RobertPattinson.png', 'Im_JustinTimberlake.png', 'Im_MattDamon.png', 'Im_DanielCraig.png', 'Im_OrlandoBloom.png', 'Im_LeonardoDiCaprio.png', 'Im_BenStiller.png', 'Im_GeorgeClooney.png'],same,1,0.4167788000013388,6,83.33333333333333,
CHPA0602,9,neg,60,neg60_id5_im20.bmp_neg60_id14_im16.bmp,['Im_BradPitt.png', 'Im_DanielRadcliffe.png', 'Im_RobertPattinson.png', 'Im_JustinTimberlake.png', 'Im_MattDamon.png', 'Im_DanielCraig.png', 'Im_OrlandoBloom.png', 'Im_LeonardoDiCaprio.png', 'Im_BenStiller.png', 'Im_GeorgeClooney.png'],diff,1,0.4168108999983815,7,83.33333333333333,
CHPA0602,9,neg,fs,negfs_id14_im24.bmp_negfs_id14_im18.bmp,['Im_BradPitt.png', 'Im_DanielRadcliffe.png', 'Im_RobertPattinson.png', 'Im_JustinTimberlake.png', 'Im_MattDamon.png', 'Im_DanielCraig.png', 'Im_OrlandoBloom.png', 'Im_LeonardoDiCaprio.png', 'Im_BenStiller.png', 'Im_GeorgeClooney.png'],same,1,0.4167245999997249,8,83.33333333333333,
CHPA0602,9,neg,0,neg0_id7_im15.bmp_neg0_id2_im16.bmp,['Im_BradPitt.png', 'Im_DanielRadcliffe.png', 'Im_RobertPattinson.png', 'Im_JustinTimberlake.png', 'Im_MattDamon.png', 'Im_DanielCraig.png', 'Im_OrlandoBloom.png', 'Im_LeonardoDiCaprio.png', 'Im_BenStiller.png', 'Im_GeorgeClooney.png'],diff,1,0.41673350000201026,9,83.33333333333333,
CHPA0602,9,neg,150,neg150_id5_im20.bmp_neg150_id14_im16.bmp,['Im_BradPitt.png', 'Im_DanielRadcliffe.png', 'Im_RobertPattinson.png', 'Im_JustinTimberlake.png', 'Im_MattDamon.png', 'Im_DanielCraig.png', 'Im_OrlandoBloom.png', 'Im_LeonardoDiCaprio.png', 'Im_BenStiller.png', 'Im_GeorgeClooney.png'],diff,1,0.43347500000163564,10,83.33333333333333,
CHPA0602,9,neg,30,neg30_id13_im29.bmp_neg30_id3_im17.bmp,['Im_BradPitt.png', 'Im_DanielRadcliffe.png', 'Im_RobertPattinson.png', 'Im_JustinTimberlake.png', 'Im_MattDamon.png', 'Im_DanielCraig.png', 'Im_OrlandoBloom.png', 'Im_LeonardoDiCaprio.png', 'Im_BenStiller.png', 'Im_GeorgeClooney.png'],diff,1,0.4250371999987692,11,83.33333333333333,
CHPA0602,9,neg,120,neg120_id3_im8.bmp_neg120_id3_im17.bmp,['Im_BradPitt.png', 'Im_DanielRadcliffe.png', 'Im_RobertPattinson.png', 'Im_JustinTimberlake.png', 'Im_MattDamon.png', 'Im_DanielCraig.png', 'Im_OrlandoBloom.png', 'Im_LeonardoDiCaprio.png', 'Im_BenStiller.png', 'Im_GeorgeClooney.png'],same,1,0.4167204999976093,12,83.33333333333333,
CHPA0602,9,neg,60,neg60_id16_im2.bmp_neg60_id16_im3.bmp,['Im_BradPitt.png', 'Im_DanielRadcliffe.png', 'Im_RobertPattinson.png', 'Im_JustinTimberlake.png', 'Im_MattDamon.png', 'Im_DanielCraig.png', 'Im_OrlandoBloom.png', 'Im_LeonardoDiCaprio.png', 'Im_BenStiller.png', 'Im_GeorgeClooney.png'],same,1,0.4333848999995098,13,83.33333333333333,
CHPA0602,10,neg,90,neg90_id14_im18.bmp_neg90_id5_im10.bmp,['Im_BradPitt.png', 'Im_DanielRadcliffe.png', 'Im_RobertPattinson.png', 'Im_JustinTimberlake.png', 'Im_MattDamon.png', 'Im_DanielCraig.png', 'Im_OrlandoBloom.png', 'Im_LeonardoDiCaprio.png', 'Im_BenStiller.png', 'Im_GeorgeClooney.png'],diff,1,0.4084086999973806,14,83.33333333333333,
CHPA0602,10,neg,120,neg120_id2_im3.bmp_neg120_id2_im2.bmp,['Im_BradPitt.png', 'Im_DanielRadcliffe.png', 'Im_RobertPattinson.png', 'Im_JustinTimberlake.png', 'Im_MattDamon.png', 'Im_DanielCraig.png', 'Im_OrlandoBloom.png', 'Im_LeonardoDiCaprio.png', 'Im_BenStiller.png', 'Im_GeorgeClooney.png'],diff,0,0.4168169999975362,14,83.33333333333333,
CHPA0602,10,neg,30,neg30_id3_im8.bmp_neg30_id3_im6.bmp,['Im_BradPitt.png', 'Im_DanielRadcliffe.png', 'Im_RobertPattinson.png', 'Im_JustinTimberlake.png', 'Im_MattDamon.png', 'Im_DanielCraig.png', 'Im_OrlandoBloom.png', 'Im_LeonardoDiCaprio.png', 'Im_BenStiller.png', 'Im_GeorgeClooney.png'],same,1,0.4250362999991921,15,83.33333333333333,
CHPA0602,10,neg,fs,negfs_id4_im20.bmp_negfs_id4_im15.bmp,['Im_BradPitt.png', 'Im_DanielRadcliffe.png', 'Im_RobertPattinson.png', 'Im_JustinTimberlake.png', 'Im_MattDamon.png', 'Im_DanielCraig.png', 'Im_OrlandoBloom.png', 'Im_LeonardoDiCaprio.png', 'Im_BenStiller.png', 'Im_GeorgeClooney.png'],same,1,0.41673359999913373,16,83.33333333333333,
CHPA0602,10,neg,60,neg60_id16_im2.bmp_neg60_id10_im17.bmp,['Im_BradPitt.png', 'Im_DanielRadcliffe.png', 'Im_RobertPattinson.png', 'Im_JustinTimberlake.png', 'Im_MattDamon.png', 'Im_DanielCraig.png', 'Im_OrlandoBloom.png', 'Im_LeonardoDiCaprio.png', 'Im_BenStiller.png', 'Im_GeorgeClooney.png'],same,0,0.41673529999752645,16,83.33333333333333,
CHPA0602,10,neg,60,neg60_id2_im16.bmp_neg60_id2_im2.bmp,['Im_BradPitt.png', 'Im_DanielRadcliffe.png', 'Im_RobertPattinson.png', 'Im_JustinTimberlake.png', 'Im_MattDamon.png', 'Im_DanielCraig.png', 'Im_OrlandoBloom.png', 'Im_LeonardoDiCaprio.png', 'Im_BenStiller.png', 'Im_GeorgeClooney.png'],diff,0,0.4167635000012524,16,83.33333333333333,
CHPA0602,10,neg,90,neg90_id14_im18.bmp_neg90_id14_im16.bmp,['Im_BradPitt.png', 'Im_DanielRadcliffe.png', 'Im_RobertPattinson.png', 'Im_JustinTimberlake.png', 'Im_MattDamon.png', 'Im_DanielCraig.png', 'Im_OrlandoBloom.png', 'Im_LeonardoDiCaprio.png', 'Im_BenStiller.png', 'Im_GeorgeClooney.png'],same,1,0.41674009999769623,17,83.33333333333333,
CHPA0602,10,neg,0,neg0_id14_im24.bmp_neg0_id19_im8.bmp,['Im_BradPitt.png', 'Im_DanielRadcliffe.png', 'Im_RobertPattinson.png', 'Im_JustinTimberlake.png', 'Im_MattDamon.png', 'Im_DanielCraig.png', 'Im_OrlandoBloom.png', 'Im_LeonardoDiCaprio.png', 'Im_BenStiller.png', 'Im_GeorgeClooney.png'],same,0,0.425102599998354,17,83.33333333333333,
CHPA0602,10,neg,120,neg120_id3_im8.bmp_neg120_id16_im19.bmp,['Im_BradPitt.png', 'Im_DanielRadcliffe.png', 'Im_RobertPattinson.png', 'Im_JustinTimberlake.png', 'Im_MattDamon.png', 'Im_DanielCraig.png', 'Im_OrlandoBloom.png', 'Im_LeonardoDiCaprio.png', 'Im_BenStiller.png', 'Im_GeorgeClooney.png'],same,0,0.4169481999997515,17,83.33333333333333,
CHPA0602,10,neg,fs,negfs_id4_im20.bmp_negfs_id2_im3.bmp,['Im_BradPitt.png', 'Im_DanielRadcliffe.png', 'Im_RobertPattinson.png', 'Im_JustinTimberlake.png', 'Im_MattDamon.png', 'Im_DanielCraig.png', 'Im_OrlandoBloom.png', 'Im_LeonardoDiCaprio.png', 'Im_BenStiller.png', 'Im_GeorgeClooney.png'],same,0,0.4167256000000634,17,83.33333333333333,
CHPA0602,10,neg,150,neg150_id2_im2.bmp_neg150_id5_im20.bmp,['Im_BradPitt.png', 'Im_DanielRadcliffe.png', 'Im_RobertPattinson.png', 'Im_JustinTimberlake.png', 'Im_MattDamon.png', 'Im_DanielCraig.png', 'Im_OrlandoBloom.png', 'Im_LeonardoDiCaprio.png', 'Im_BenStiller.png', 'Im_GeorgeClooney.png'],diff,1,0.4250824000009743,18,83.33333333333333,
CHPA0602,10,neg,150,neg150_id19_im4.bmp_neg150_id19_im27.bmp,['Im_BradPitt.png', 'Im_DanielRadcliffe.png', 'Im_RobertPattinson.png', 'Im_JustinTimberlake.png', 'Im_MattDamon.png', 'Im_DanielCraig.png', 'Im_OrlandoBloom.png', 'Im_LeonardoDiCaprio.png', 'Im_BenStiller.png', 'Im_GeorgeClooney.png'],same,1,0.41675519999989774,19,83.33333333333333,
CHPA0602,10,neg,30,neg30_id7_im14.bmp_neg30_id7_im26.bmp,['Im_BradPitt.png', 'Im_DanielRadcliffe.png', 'Im_RobertPattinson.png', 'Im_JustinTimberlake.png', 'Im_MattDamon.png', 'Im_DanielCraig.png', 'Im_OrlandoBloom.png', 'Im_LeonardoDiCaprio.png', 'Im_BenStiller.png', 'Im_GeorgeClooney.png'],diff,0,0.41680320000159554,19,83.33333333333333,
CHPA0602,10,neg,0,neg0_id5_im20.bmp_neg0_id5_im10.bmp,['Im_BradPitt.png', 'Im_DanielRadcliffe.png', 'Im_RobertPattinson.png', 'Im_JustinTimberlake.png', 'Im_MattDamon.png', 'Im_DanielCraig.png', 'Im_OrlandoBloom.png', 'Im_LeonardoDiCaprio.png', 'Im_BenStiller.png', 'Im_GeorgeClooney.png'],diff,0,0.5417643999971915,19,83.33333333333333,
CHPA0602,11,inv,0,pos0_id5_im1.bmp_pos0_id5_im10.bmp,['Im_BradPitt.png', 'Im_DanielRadcliffe.png', 'Im_RobertPattinson.png', 'Im_JustinTimberlake.png', 'Im_MattDamon.png', 'Im_DanielCraig.png', 'Im_OrlandoBloom.png', 'Im_LeonardoDiCaprio.png', 'Im_BenStiller.png', 'Im_GeorgeClooney.png'],same,1,0.4169651999982307,20,83.33333333333333,
CHPA0602,11,inv,90,pos90_id16_im2.bmp_pos90_id4_im7.bmp,['Im_BradPitt.png', 'Im_DanielRadcliffe.png', 'Im_RobertPattinson.png', 'Im_JustinTimberlake.png', 'Im_MattDamon.png', 'Im_DanielCraig.png', 'Im_OrlandoBloom.png', 'Im_LeonardoDiCaprio.png', 'Im_BenStiller.png', 'Im_GeorgeClooney.png'],diff,1,0.42506260000300244,21,83.33333333333333,
CHPA0602,11,inv,0,pos0_id2_im16.bmp_pos0_id14_im16.bmp,['Im_BradPitt.png', 'Im_DanielRadcliffe.png', 'Im_RobertPattinson.png', 'Im_JustinTimberlake.png', 'Im_MattDamon.png', 'Im_DanielCraig.png', 'Im_OrlandoBloom.png', 'Im_LeonardoDiCaprio.png', 'Im_BenStiller.png', 'Im_GeorgeClooney.png'],same,0,0.41679669999939506,21,83.33333333333333,
CHPA0602,11,inv,30,pos30_id5_im20.bmp_pos30_id14_im16.bmp,['Im_BradPitt.png', 'Im_DanielRadcliffe.png', 'Im_RobertPattinson.png', 'Im_JustinTimberlake.png', 'Im_MattDamon.png', 'Im_DanielCraig.png', 'Im_OrlandoBloom.png', 'Im_LeonardoDiCaprio.png', 'Im_BenStiller.png', 'Im_GeorgeClooney.png'],diff,1,0.41667170000073384,22,83.33333333333333,
CHPA0602,11,inv,150,pos150_id2_im3.bmp_pos150_id4_im20.bmp,['Im_BradPitt.png', 'Im_DanielRadcliffe.png', 'Im_RobertPattinson.png', 'Im_JustinTimberlake.png', 'Im_MattDamon.png', 'Im_DanielCraig.png', 'Im_OrlandoBloom.png', 'Im_LeonardoDiCaprio.png', 'Im_BenStiller.png', 'Im_GeorgeClooney.png'],same,0,0.4167206000020087,22,83.33333333333333,
CHPA0602,11,inv,60,pos60_id10_im18.bmp_pos60_id10_im1.bmp,['Im_BradPitt.png', 'Im_DanielRadcliffe.png', 'Im_RobertPattinson.png', 'Im_JustinTimberlake.png', 'Im_MattDamon.png', 'Im_DanielCraig.png', 'Im_OrlandoBloom.png', 'Im_LeonardoDiCaprio.png', 'Im_BenStiller.png', 'Im_GeorgeClooney.png'],diff,0,0.5083947999992233,22,83.33333333333333,
CHPA0602,11,inv,120,pos120_id16_im3.bmp_pos120_id16_im2.bmp,['Im_BradPitt.png', 'Im_DanielRadcliffe.png', 'Im_RobertPattinson.png', 'Im_JustinTimberlake.png', 'Im_MattDamon.png', 'Im_DanielCraig.png', 'Im_OrlandoBloom.png', 'Im_LeonardoDiCaprio.png', 'Im_BenStiller.png', 'Im_GeorgeClooney.png'],diff,0,0.5751989000018511,22,83.33333333333333,
CHPA0602,11,inv,30,pos30_id14_im16.bmp_pos30_id2_im16.bmp,['Im_BradPitt.png', 'Im_DanielRadcliffe.png', 'Im_RobertPattinson.png', 'Im_JustinTimberlake.png', 'Im_MattDamon.png', 'Im_DanielCraig.png', 'Im_OrlandoBloom.png', 'Im_LeonardoDiCaprio.png', 'Im_BenStiller.png', 'Im_GeorgeClooney.png'],diff,1,0.4334670999996888,23,83.33333333333333,
CHPA0602,11,inv,fs,posfs_id3_im6.bmp_posfs_id16_im3.bmp,['Im_BradPitt.png', 'Im_DanielRadcliffe.png', 'Im_RobertPattinson.png', 'Im_JustinTimberlake.png', 'Im_MattDamon.png', 'Im_DanielCraig.png', 'Im_OrlandoBloom.png', 'Im_LeonardoDiCaprio.png', 'Im_BenStiller.png', 'Im_GeorgeClooney.png'],diff,1,0.5336241999975755,24,83.33333333333333,
CHPA0602,11,inv,fs,posfs_id14_im24.bmp_posfs_id14_im18.bmp,['Im_BradPitt.png', 'Im_DanielRadcliffe.png', 'Im_RobertPattinson.png', 'Im_JustinTimberlake.png', 'Im_MattDamon.png', 'Im_DanielCraig.png', 'Im_OrlandoBloom.png', 'Im_LeonardoDiCaprio.png', 'Im_BenStiller.png', 'Im_GeorgeClooney.png'],same,1,0.5252330000002985,25,83.33333333333333,
CHPA0602,11,inv,60,pos60_id3_im17.bmp_pos60_id3_im8.bmp,['Im_BradPitt.png', 'Im_DanielRadcliffe.png', 'Im_RobertPattinson.png', 'Im_JustinTimberlake.png', 'Im_MattDamon.png', 'Im_DanielCraig.png', 'Im_OrlandoBloom.png', 'Im_LeonardoDiCaprio.png', 'Im_BenStiller.png', 'Im_GeorgeClooney.png'],diff,0,0.42506929999944987,25,83.33333333333333,
CHPA0602,11,inv,120,pos120_id14_im16.bmp_pos120_id14_im24.bmp,['Im_BradPitt.png', 'Im_DanielRadcliffe.png', 'Im_RobertPattinson.png', 'Im_JustinTimberlake.png', 'Im_MattDamon.png', 'Im_DanielCraig.png', 'Im_OrlandoBloom.png', 'Im_LeonardoDiCaprio.png', 'Im_BenStiller.png', 'Im_GeorgeClooney.png'],diff,0,0.4084032999999181,25,83.33333333333333,
CHPA0602,11,inv,90,pos90_id16_im2.bmp_pos90_id10_im17.bmp,['Im_BradPitt.png', 'Im_DanielRadcliffe.png', 'Im_RobertPattinson.png', 'Im_JustinTimberlake.png', 'Im_MattDamon.png', 'Im_DanielCraig.png', 'Im_OrlandoBloom.png', 'Im_LeonardoDiCaprio.png', 'Im_BenStiller.png', 'Im_GeorgeClooney.png'],diff,1,0.41703509999933885,26,83.33333333333333,
CHPA0602,11,inv,150,pos150_id16_im2.bmp_pos150_id16_im19.bmp,['Im_BradPitt.png', 'Im_DanielRadcliffe.png', 'Im_RobertPattinson.png', 'Im_JustinTimberlake.png', 'Im_MattDamon.png', 'Im_DanielCraig.png', 'Im_OrlandoBloom.png', 'Im_LeonardoDiCaprio.png', 'Im_BenStiller.png', 'Im_GeorgeClooney.png'],same,1,0.4084072000005108,27,83.33333333333333,
CHPA0602,12,pos,90,pos90_id4_im7.bmp_pos90_id4_im20.bmp,['Im_BradPitt.png', 'Im_DanielRadcliffe.png', 'Im_RobertPattinson.png', 'Im_JustinTimberlake.png', 'Im_MattDamon.png', 'Im_DanielCraig.png', 'Im_OrlandoBloom.png', 'Im_LeonardoDiCaprio.png', 'Im_BenStiller.png', 'Im_GeorgeClooney.png'],same,1,0.4084287999976368,1,64.28571428571429,
CHPA0602,12,pos,fs,posfs_id10_im18.bmp_posfs_id2_im3.bmp,['Im_BradPitt.png', 'Im_DanielRadcliffe.png', 'Im_RobertPattinson.png', 'Im_JustinTimberlake.png', 'Im_MattDamon.png', 'Im_DanielCraig.png', 'Im_OrlandoBloom.png', 'Im_LeonardoDiCaprio.png', 'Im_BenStiller.png', 'Im_GeorgeClooney.png'],diff,1,0.4249758000005386,2,64.28571428571429,
CHPA0602,12,pos,90,pos90_id16_im19.bmp_pos90_id3_im8.bmp,['Im_BradPitt.png', 'Im_DanielRadcliffe.png', 'Im_RobertPattinson.png', 'Im_JustinTimberlake.png', 'Im_MattDamon.png', 'Im_DanielCraig.png', 'Im_OrlandoBloom.png', 'Im_LeonardoDiCaprio.png', 'Im_BenStiller.png', 'Im_GeorgeClooney.png'],diff,1,0.41687520000050426,3,64.28571428571429,
CHPA0602,12,pos,30,pos30_id10_im18.bmp_pos30_id10_im17.bmp,['Im_BradPitt.png', 'Im_DanielRadcliffe.png', 'Im_RobertPattinson.png', 'Im_JustinTimberlake.png', 'Im_MattDamon.png', 'Im_DanielCraig.png', 'Im_OrlandoBloom.png', 'Im_LeonardoDiCaprio.png', 'Im_BenStiller.png', 'Im_GeorgeClooney.png'],same,1,0.42493069999909494,4,64.28571428571429,
CHPA0602,12,pos,0,pos0_id14_im18.bmp_pos0_id13_im10.bmp,['Im_BradPitt.png', 'Im_DanielRadcliffe.png', 'Im_RobertPattinson.png', 'Im_JustinTimberlake.png', 'Im_MattDamon.png', 'Im_DanielCraig.png', 'Im_OrlandoBloom.png', 'Im_LeonardoDiCaprio.png', 'Im_BenStiller.png', 'Im_GeorgeClooney.png'],diff,1,0.41679089999888674,5,64.28571428571429,
CHPA0602,12,pos,30,pos30_id5_im20.bmp_pos30_id2_im2.bmp,['Im_BradPitt.png', 'Im_DanielRadcliffe.png', 'Im_RobertPattinson.png', 'Im_JustinTimberlake.png', 'Im_MattDamon.png', 'Im_DanielCraig.png', 'Im_OrlandoBloom.png', 'Im_LeonardoDiCaprio.png', 'Im_BenStiller.png', 'Im_GeorgeClooney.png'],diff,1,0.41672420000031707,6,64.28571428571429,
CHPA0602,12,pos,60,pos60_id3_im6.bmp_pos60_id10_im17.bmp,['Im_BradPitt.png', 'Im_DanielRadcliffe.png', 'Im_RobertPattinson.png', 'Im_JustinTimberlake.png', 'Im_MattDamon.png', 'Im_DanielCraig.png', 'Im_OrlandoBloom.png', 'Im_LeonardoDiCaprio.png', 'Im_BenStiller.png', 'Im_GeorgeClooney.png'],diff,1,0.416751300002943,7,64.28571428571429,
CHPA0602,12,pos,120,pos120_id4_im15.bmp_pos120_id19_im27.bmp,['Im_BradPitt.png', 'Im_DanielRadcliffe.png', 'Im_RobertPattinson.png', 'Im_JustinTimberlake.png', 'Im_MattDamon.png', 'Im_DanielCraig.png', 'Im_OrlandoBloom.png', 'Im_LeonardoDiCaprio.png', 'Im_BenStiller.png', 'Im_GeorgeClooney.png'],diff,1,0.41676189999998314,8,64.28571428571429,
CHPA0602,12,pos,0,pos0_id10_im1.bmp_pos0_id10_im17.bmp,['Im_BradPitt.png', 'Im_DanielRadcliffe.png', 'Im_RobertPattinson.png', 'Im_JustinTimberlake.png', 'Im_MattDamon.png', 'Im_DanielCraig.png', 'Im_OrlandoBloom.png', 'Im_LeonardoDiCaprio.png', 'Im_BenStiller.png', 'Im_GeorgeClooney.png'],diff,0,0.4082908000018506,8,64.28571428571429,
CHPA0602,12,pos,120,pos120_id16_im3.bmp_pos120_id4_im7.bmp,['Im_BradPitt.png', 'Im_DanielRadcliffe.png', 'Im_RobertPattinson.png', 'Im_JustinTimberlake.png', 'Im_MattDamon.png', 'Im_DanielCraig.png', 'Im_OrlandoBloom.png', 'Im_LeonardoDiCaprio.png', 'Im_BenStiller.png', 'Im_GeorgeClooney.png'],diff,1,0.4166478000006464,9,64.28571428571429,
CHPA0602,12,pos,150,pos150_id19_im8.bmp_pos150_id13_im10.bmp,['Im_BradPitt.png', 'Im_DanielRadcliffe.png', 'Im_RobertPattinson.png', 'Im_JustinTimberlake.png', 'Im_MattDamon.png', 'Im_DanielCraig.png', 'Im_OrlandoBloom.png', 'Im_LeonardoDiCaprio.png', 'Im_BenStiller.png', 'Im_GeorgeClooney.png'],diff,1,0.43362210000123014,10,64.28571428571429,
CHPA0602,12,pos,fs,posfs_id10_im18.bmp_posfs_id13_im29.bmp,['Im_BradPitt.png', 'Im_DanielRadcliffe.png', 'Im_RobertPattinson.png', 'Im_JustinTimberlake.png', 'Im_MattDamon.png', 'Im_DanielCraig.png', 'Im_OrlandoBloom.png', 'Im_LeonardoDiCaprio.png', 'Im_BenStiller.png', 'Im_GeorgeClooney.png'],diff,1,0.4083965999998327,11,64.28571428571429,
CHPA0602,12,pos,150,pos150_id3_im17.bmp_pos150_id3_im6.bmp,['Im_BradPitt.png', 'Im_DanielRadcliffe.png', 'Im_RobertPattinson.png', 'Im_JustinTimberlake.png', 'Im_MattDamon.png', 'Im_DanielCraig.png', 'Im_OrlandoBloom.png', 'Im_LeonardoDiCaprio.png', 'Im_BenStiller.png', 'Im_GeorgeClooney.png'],same,1,0.4333480999994208,12,64.28571428571429,
CHPA0602,12,pos,60,pos60_id4_im20.bmp_pos60_id4_im15.bmp,['Im_BradPitt.png', 'Im_DanielRadcliffe.png', 'Im_RobertPattinson.png', 'Im_JustinTimberlake.png', 'Im_MattDamon.png', 'Im_DanielCraig.png', 'Im_OrlandoBloom.png', 'Im_LeonardoDiCaprio.png', 'Im_BenStiller.png', 'Im_GeorgeClooney.png'],same,1,0.425144699998782,13,64.28571428571429,
CHPA0602,13,neg,30,neg30_id10_im1.bmp_neg30_id3_im17.bmp,['Im_BradPitt.png', 'Im_DanielRadcliffe.png', 'Im_RobertPattinson.png', 'Im_JustinTimberlake.png', 'Im_MattDamon.png', 'Im_DanielCraig.png', 'Im_OrlandoBloom.png', 'Im_LeonardoDiCaprio.png', 'Im_BenStiller.png', 'Im_GeorgeClooney.png'],diff,1,0.4250850000025821,14,64.28571428571429,
CHPA0602,13,neg,30,neg30_id19_im4.bmp_neg30_id19_im27.bmp,['Im_BradPitt.png', 'Im_DanielRadcliffe.png', 'Im_RobertPattinson.png', 'Im_JustinTimberlake.png', 'Im_MattDamon.png', 'Im_DanielCraig.png', 'Im_OrlandoBloom.png', 'Im_LeonardoDiCaprio.png', 'Im_BenStiller.png', 'Im_GeorgeClooney.png'],same,1,0.4251270000022487,15,64.28571428571429,
CHPA0602,13,neg,90,neg90_id4_im7.bmp_neg90_id16_im3.bmp,['Im_BradPitt.png', 'Im_DanielRadcliffe.png', 'Im_RobertPattinson.png', 'Im_JustinTimberlake.png', 'Im_MattDamon.png', 'Im_DanielCraig.png', 'Im_OrlandoBloom.png', 'Im_LeonardoDiCaprio.png', 'Im_BenStiller.png', 'Im_GeorgeClooney.png'],diff,1,0.4917459999996936,16,64.28571428571429,
CHPA0602,13,neg,60,neg60_id5_im10.bmp_neg60_id5_im20.bmp,['Im_BradPitt.png', 'Im_DanielRadcliffe.png', 'Im_RobertPattinson.png', 'Im_JustinTimberlake.png', 'Im_MattDamon.png', 'Im_DanielCraig.png', 'Im_OrlandoBloom.png', 'Im_LeonardoDiCaprio.png', 'Im_BenStiller.png', 'Im_GeorgeClooney.png'],same,1,0.4168372999993153,17,64.28571428571429,
CHPA0602,13,neg,90,neg90_id10_im18.bmp_neg90_id10_im1.bmp,['Im_BradPitt.png', 'Im_DanielRadcliffe.png', 'Im_RobertPattinson.png', 'Im_JustinTimberlake.png', 'Im_MattDamon.png', 'Im_DanielCraig.png', 'Im_OrlandoBloom.png', 'Im_LeonardoDiCaprio.png', 'Im_BenStiller.png', 'Im_GeorgeClooney.png'],same,1,0.4252325000015844,18,64.28571428571429,
CHPA0602,13,neg,0,neg0_id5_im20.bmp_neg0_id2_im2.bmp,['Im_BradPitt.png', 'Im_DanielRadcliffe.png', 'Im_RobertPattinson.png', 'Im_JustinTimberlake.png', 'Im_MattDamon.png', 'Im_DanielCraig.png', 'Im_OrlandoBloom.png', 'Im_LeonardoDiCaprio.png', 'Im_BenStiller.png', 'Im_GeorgeClooney.png'],diff,1,0.4250891999981832,19,64.28571428571429,
CHPA0602,13,neg,120,neg120_id10_im18.bmp_neg120_id10_im17.bmp,['Im_BradPitt.png', 'Im_DanielRadcliffe.png', 'Im_RobertPattinson.png', 'Im_JustinTimberlake.png', 'Im_MattDamon.png', 'Im_DanielCraig.png', 'Im_OrlandoBloom.png', 'Im_LeonardoDiCaprio.png', 'Im_BenStiller.png', 'Im_GeorgeClooney.png'],same,1,0.4333894000010332,20,64.28571428571429,
CHPA0602,13,neg,fs,negfs_id7_im15.bmp_negfs_id7_im14.bmp,['Im_BradPitt.png', 'Im_DanielRadcliffe.png', 'Im_RobertPattinson.png', 'Im_JustinTimberlake.png', 'Im_MattDamon.png', 'Im_DanielCraig.png', 'Im_OrlandoBloom.png', 'Im_LeonardoDiCaprio.png', 'Im_BenStiller.png', 'Im_GeorgeClooney.png'],same,1,0.4166880000011588,21,64.28571428571429,
CHPA0602,13,neg,0,neg0_id13_im15.bmp_neg0_id13_im29.bmp,['Im_BradPitt.png', 'Im_DanielRadcliffe.png', 'Im_RobertPattinson.png', 'Im_JustinTimberlake.png', 'Im_MattDamon.png', 'Im_DanielCraig.png', 'Im_OrlandoBloom.png', 'Im_LeonardoDiCaprio.png', 'Im_BenStiller.png', 'Im_GeorgeClooney.png'],same,1,0.5836038999987068,22,64.28571428571429,
CHPA0602,13,neg,fs,negfs_id16_im3.bmp_negfs_id16_im19.bmp,['Im_BradPitt.png', 'Im_DanielRadcliffe.png', 'Im_RobertPattinson.png', 'Im_JustinTimberlake.png', 'Im_MattDamon.png', 'Im_DanielCraig.png', 'Im_OrlandoBloom.png', 'Im_LeonardoDiCaprio.png', 'Im_BenStiller.png', 'Im_GeorgeClooney.png'],same,1,0.4333513000019593,23,64.28571428571429,
CHPA0602,13,neg,60,neg60_id3_im6.bmp_neg60_id10_im17.bmp,['Im_BradPitt.png', 'Im_DanielRadcliffe.png', 'Im_RobertPattinson.png', 'Im_JustinTimberlake.png', 'Im_MattDamon.png', 'Im_DanielCraig.png', 'Im_OrlandoBloom.png', 'Im_LeonardoDiCaprio.png', 'Im_BenStiller.png', 'Im_GeorgeClooney.png'],diff,1,0.466737099999591,24,64.28571428571429,
CHPA0602,13,neg,150,neg150_id13_im15.bmp_neg150_id13_im29.bmp,['Im_BradPitt.png', 'Im_DanielRadcliffe.png', 'Im_RobertPattinson.png', 'Im_JustinTimberlake.png', 'Im_MattDamon.png', 'Im_DanielCraig.png', 'Im_OrlandoBloom.png', 'Im_LeonardoDiCaprio.png', 'Im_BenStiller.png', 'Im_GeorgeClooney.png'],diff,0,0.4167198000031931,24,64.28571428571429,
CHPA0602,13,neg,150,neg150_id4_im15.bmp_neg150_id19_im27.bmp,['Im_BradPitt.png', 'Im_DanielRadcliffe.png', 'Im_RobertPattinson.png', 'Im_JustinTimberlake.png', 'Im_MattDamon.png', 'Im_DanielCraig.png', 'Im_OrlandoBloom.png', 'Im_LeonardoDiCaprio.png', 'Im_BenStiller.png', 'Im_GeorgeClooney.png'],same,0,0.4166893999972672,24,64.28571428571429,
CHPA0602,13,neg,120,neg120_id2_im2.bmp_neg120_id2_im16.bmp,['Im_BradPitt.png', 'Im_DanielRadcliffe.png', 'Im_RobertPattinson.png', 'Im_JustinTimberlake.png', 'Im_MattDamon.png', 'Im_DanielCraig.png', 'Im_OrlandoBloom.png', 'Im_LeonardoDiCaprio.png', 'Im_BenStiller.png', 'Im_GeorgeClooney.png'],same,1,0.4167364999993879,25,64.28571428571429,
CHPA0602,14,inv,30,pos30_id10_im17.bmp_pos30_id16_im2.bmp,['Im_BradPitt.png', 'Im_DanielRadcliffe.png', 'Im_RobertPattinson.png', 'Im_JustinTimberlake.png', 'Im_MattDamon.png', 'Im_DanielCraig.png', 'Im_OrlandoBloom.png', 'Im_LeonardoDiCaprio.png', 'Im_BenStiller.png', 'Im_GeorgeClooney.png'],diff,1,1.0416776000020036,26,64.28571428571429,
CHPA0602,14,inv,120,pos120_id2_im3.bmp_pos120_id2_im2.bmp,['Im_BradPitt.png', 'Im_DanielRadcliffe.png', 'Im_RobertPattinson.png', 'Im_JustinTimberlake.png', 'Im_MattDamon.png', 'Im_DanielCraig.png', 'Im_OrlandoBloom.png', 'Im_LeonardoDiCaprio.png', 'Im_BenStiller.png', 'Im_GeorgeClooney.png'],same,1,0.40850809999756166,27,64.28571428571429,
CHPA0602,14,inv,0,pos0_id5_im20.bmp_pos0_id5_im10.bmp,['Im_BradPitt.png', 'Im_DanielRadcliffe.png', 'Im_RobertPattinson.png', 'Im_JustinTimberlake.png', 'Im_MattDamon.png', 'Im_DanielCraig.png', 'Im_OrlandoBloom.png', 'Im_LeonardoDiCaprio.png', 'Im_BenStiller.png', 'Im_GeorgeClooney.png'],same,1,0.4167000999987067,28,64.28571428571429,
CHPA0602,14,inv,0,pos0_id5_im10.bmp_pos0_id14_im18.bmp,['Im_BradPitt.png', 'Im_DanielRadcliffe.png', 'Im_RobertPattinson.png', 'Im_JustinTimberlake.png', 'Im_MattDamon.png', 'Im_DanielCraig.png', 'Im_OrlandoBloom.png', 'Im_LeonardoDiCaprio.png', 'Im_BenStiller.png', 'Im_GeorgeClooney.png'],diff,1,0.4250998999996227,29,64.28571428571429,
CHPA0602,14,inv,60,pos60_id2_im2.bmp_pos60_id5_im10.bmp,['Im_BradPitt.png', 'Im_DanielRadcliffe.png', 'Im_RobertPattinson.png', 'Im_JustinTimberlake.png', 'Im_MattDamon.png', 'Im_DanielCraig.png', 'Im_OrlandoBloom.png', 'Im_LeonardoDiCaprio.png', 'Im_BenStiller.png', 'Im_GeorgeClooney.png'],diff,1,0.4252483000018401,30,64.28571428571429,
CHPA0602,14,inv,fs,posfs_id16_im2.bmp_posfs_id10_im17.bmp,['Im_BradPitt.png', 'Im_DanielRadcliffe.png', 'Im_RobertPattinson.png', 'Im_JustinTimberlake.png', 'Im_MattDamon.png', 'Im_DanielCraig.png', 'Im_OrlandoBloom.png', 'Im_LeonardoDiCaprio.png', 'Im_BenStiller.png', 'Im_GeorgeClooney.png'],diff,1,0.4334275000001071,31,64.28571428571429,
CHPA0602,14,inv,90,pos90_id16_im19.bmp_pos90_id3_im8.bmp,['Im_BradPitt.png', 'Im_DanielRadcliffe.png', 'Im_RobertPattinson.png', 'Im_JustinTimberlake.png', 'Im_MattDamon.png', 'Im_DanielCraig.png', 'Im_OrlandoBloom.png', 'Im_LeonardoDiCaprio.png', 'Im_BenStiller.png', 'Im_GeorgeClooney.png'],diff,1,0.4165433000016492,32,64.28571428571429,
CHPA0602,14,inv,150,pos150_id5_im10.bmp_pos150_id5_im1.bmp,['Im_BradPitt.png', 'Im_DanielRadcliffe.png', 'Im_RobertPattinson.png', 'Im_JustinTimberlake.png', 'Im_MattDamon.png', 'Im_DanielCraig.png', 'Im_OrlandoBloom.png', 'Im_LeonardoDiCaprio.png', 'Im_BenStiller.png', 'Im_GeorgeClooney.png'],diff,0,0.41676489999736077,32,64.28571428571429,
CHPA0602,14,inv,60,pos60_id5_im1.bmp_pos60_id10_im1.bmp,['Im_BradPitt.png', 'Im_DanielRadcliffe.png', 'Im_RobertPattinson.png', 'Im_JustinTimberlake.png', 'Im_MattDamon.png', 'Im_DanielCraig.png', 'Im_OrlandoBloom.png', 'Im_LeonardoDiCaprio.png', 'Im_BenStiller.png', 'Im_GeorgeClooney.png'],diff,1,0.42509480000080657,33,64.28571428571429,
CHPA0602,14,inv,fs,posfs_id2_im3.bmp_posfs_id2_im2.bmp,['Im_BradPitt.png', 'Im_DanielRadcliffe.png', 'Im_RobertPattinson.png', 'Im_JustinTimberlake.png', 'Im_MattDamon.png', 'Im_DanielCraig.png', 'Im_OrlandoBloom.png', 'Im_LeonardoDiCaprio.png', 'Im_BenStiller.png', 'Im_GeorgeClooney.png'],same,1,0.41678479999973206,34,64.28571428571429,
CHPA0602,14,inv,90,pos90_id10_im1.bmp_pos90_id3_im17.bmp,['Im_BradPitt.png', 'Im_DanielRadcliffe.png', 'Im_RobertPattinson.png', 'Im_JustinTimberlake.png', 'Im_MattDamon.png', 'Im_DanielCraig.png', 'Im_OrlandoBloom.png', 'Im_LeonardoDiCaprio.png', 'Im_BenStiller.png', 'Im_GeorgeClooney.png'],diff,1,0.40833139999813284,35,64.28571428571429,
CHPA0602,14,inv,150,pos150_id10_im18.bmp_pos150_id2_im3.bmp,['Im_BradPitt.png', 'Im_DanielRadcliffe.png', 'Im_RobertPattinson.png', 'Im_JustinTimberlake.png', 'Im_MattDamon.png', 'Im_DanielCraig.png', 'Im_OrlandoBloom.png', 'Im_LeonardoDiCaprio.png', 'Im_BenStiller.png', 'Im_GeorgeClooney.png'],diff,1,0.41679110000040964,36,64.28571428571429,
CHPA0602,14,inv,30,pos30_id19_im4.bmp_pos30_id19_im8.bmp,['Im_BradPitt.png', 'Im_DanielRadcliffe.png', 'Im_RobertPattinson.png', 'Im_JustinTimberlake.png', 'Im_MattDamon.png', 'Im_DanielCraig.png', 'Im_OrlandoBloom.png', 'Im_LeonardoDiCaprio.png', 'Im_BenStiller.png', 'Im_GeorgeClooney.png'],diff,0,0.42498170000180835,36,64.28571428571429,
CHPA0602,14,inv,120,pos120_id19_im27.bmp_pos120_id13_im15.bmp,['Im_BradPitt.png', 'Im_DanielRadcliffe.png', 'Im_RobertPattinson.png', 'Im_JustinTimberlake.png', 'Im_MattDamon.png', 'Im_DanielCraig.png', 'Im_OrlandoBloom.png', 'Im_LeonardoDiCaprio.png', 'Im_BenStiller.png', 'Im_GeorgeClooney.png'],same,0,0.4250791000013123,36,64.28571428571429,
CHPA0602,15,pos,60,pos60_id2_im16.bmp_pos60_id14_im16.bmp,['Im_BradPitt.png', 'Im_DanielRadcliffe.png', 'Im_RobertPattinson.png', 'Im_JustinTimberlake.png', 'Im_MattDamon.png', 'Im_DanielCraig.png', 'Im_OrlandoBloom.png', 'Im_LeonardoDiCaprio.png', 'Im_BenStiller.png', 'Im_GeorgeClooney.png'],diff,1,0.416690899997775,1,85.71428571428571,
