Sujet,Trial,Condition,Filter,Imname,Actor0,Actor1,Actor2,Actor3,Actor4,Actor5,Actor6,Actor7,Actor8,Actor9,Answer,Accu,RT,Score,Scoreperc, 
DEMA2901,train,pos,0,pos0_id8_im20.bmp_pos0_id19_im27.bmp,['Im_RobertDowneyJr.png', 'Im_KeanuReeves.png', 'Im_LeonardoDiCaprio.png', 'Im_ElijahWood.png', 'Im_RobertPattinson.png', 'Im_JustinTimberlake.png', 'Im_RyanReynolds.png', 'Im_GeorgeClooney.png', 'Im_MattDamon.png', 'Im_HughJackman.png'],diff,1,3.2418867999999748,1,0,
DEMA2901,train,pos,30,pos30_id19_im27.bmp_pos30_id19_im4.bmp,['Im_RobertDowneyJr.png', 'Im_KeanuReeves.png', 'Im_LeonardoDiCaprio.png', 'Im_ElijahWood.png', 'Im_RobertPattinson.png', 'Im_JustinTimberlake.png', 'Im_RyanReynolds.png', 'Im_GeorgeClooney.png', 'Im_MattDamon.png', 'Im_HughJackman.png'],same,1,0.41671659999997246,2,0,
DEMA2901,train,pos,150,pos150_id6_im12.bmp_pos150_id6_im18.bmp,['Im_RobertDowneyJr.png', 'Im_KeanuReeves.png', 'Im_LeonardoDiCaprio.png', 'Im_ElijahWood.png', 'Im_RobertPattinson.png', 'Im_JustinTimberlake.png', 'Im_RyanReynolds.png', 'Im_GeorgeClooney.png', 'Im_MattDamon.png', 'Im_HughJackman.png'],same,1,0.5667300000000068,3,0,
DEMA2901,train,pos,90,pos90_id10_im17.bmp_pos90_id10_im18.bmp,['Im_RobertDowneyJr.png', 'Im_KeanuReeves.png', 'Im_LeonardoDiCaprio.png', 'Im_ElijahWood.png', 'Im_RobertPattinson.png', 'Im_JustinTimberlake.png', 'Im_RyanReynolds.png', 'Im_GeorgeClooney.png', 'Im_MattDamon.png', 'Im_HughJackman.png'],same,1,0.46692300000006526,4,0,
DEMA2901,train,pos,fs,posfs_id11_im10.bmp_posfs_id11_im1.bmp,['Im_RobertDowneyJr.png', 'Im_KeanuReeves.png', 'Im_LeonardoDiCaprio.png', 'Im_ElijahWood.png', 'Im_RobertPattinson.png', 'Im_JustinTimberlake.png', 'Im_RyanReynolds.png', 'Im_GeorgeClooney.png', 'Im_MattDamon.png', 'Im_HughJackman.png'],same,1,0.6332949000000099,5,0,
DEMA2901,train,pos,120,pos120_id6_im12.bmp_pos120_id18_im11.bmp,['Im_RobertDowneyJr.png', 'Im_KeanuReeves.png', 'Im_LeonardoDiCaprio.png', 'Im_ElijahWood.png', 'Im_RobertPattinson.png', 'Im_JustinTimberlake.png', 'Im_RyanReynolds.png', 'Im_GeorgeClooney.png', 'Im_MattDamon.png', 'Im_HughJackman.png'],diff,1,0.5000888000000714,6,0,
DEMA2901,train,pos,120,pos120_id18_im19.bmp_pos120_id18_im18.bmp,['Im_RobertDowneyJr.png', 'Im_KeanuReeves.png', 'Im_LeonardoDiCaprio.png', 'Im_ElijahWood.png', 'Im_RobertPattinson.png', 'Im_JustinTimberlake.png', 'Im_RyanReynolds.png', 'Im_GeorgeClooney.png', 'Im_MattDamon.png', 'Im_HughJackman.png'],same,1,0.5415471000000025,7,0,
DEMA2901,train,pos,60,pos60_id21_im17.bmp_pos60_id21_im16.bmp,['Im_RobertDowneyJr.png', 'Im_KeanuReeves.png', 'Im_LeonardoDiCaprio.png', 'Im_ElijahWood.png', 'Im_RobertPattinson.png', 'Im_JustinTimberlake.png', 'Im_RyanReynolds.png', 'Im_GeorgeClooney.png', 'Im_MattDamon.png', 'Im_HughJackman.png'],same,1,0.5003070999999863,8,0,
DEMA2901,train,pos,30,pos30_id21_im17.bmp_pos30_id14_im24.bmp,['Im_RobertDowneyJr.png', 'Im_KeanuReeves.png', 'Im_LeonardoDiCaprio.png', 'Im_ElijahWood.png', 'Im_RobertPattinson.png', 'Im_JustinTimberlake.png', 'Im_RyanReynolds.png', 'Im_GeorgeClooney.png', 'Im_MattDamon.png', 'Im_HughJackman.png'],diff,1,0.4832503000000088,9,0,
DEMA2901,train,pos,fs,posfs_id10_im17.bmp_posfs_id14_im18.bmp,['Im_RobertDowneyJr.png', 'Im_KeanuReeves.png', 'Im_LeonardoDiCaprio.png', 'Im_ElijahWood.png', 'Im_RobertPattinson.png', 'Im_JustinTimberlake.png', 'Im_RyanReynolds.png', 'Im_GeorgeClooney.png', 'Im_MattDamon.png', 'Im_HughJackman.png'],diff,1,0.8834097000000156,10,0,
DEMA2901,train,pos,90,pos90_id18_im18.bmp_pos90_id8_im20.bmp,['Im_RobertDowneyJr.png', 'Im_KeanuReeves.png', 'Im_LeonardoDiCaprio.png', 'Im_ElijahWood.png', 'Im_RobertPattinson.png', 'Im_JustinTimberlake.png', 'Im_RyanReynolds.png', 'Im_GeorgeClooney.png', 'Im_MattDamon.png', 'Im_HughJackman.png'],diff,1,0.399849599999925,11,0,
DEMA2901,train,pos,0,pos0_id19_im27.bmp_pos0_id19_im4.bmp,['Im_RobertDowneyJr.png', 'Im_KeanuReeves.png', 'Im_LeonardoDiCaprio.png', 'Im_ElijahWood.png', 'Im_RobertPattinson.png', 'Im_JustinTimberlake.png', 'Im_RyanReynolds.png', 'Im_GeorgeClooney.png', 'Im_MattDamon.png', 'Im_HughJackman.png'],same,1,0.7166721999999481,12,0,
DEMA2901,train,pos,60,pos60_id8_im21.bmp_pos60_id18_im18.bmp,['Im_RobertDowneyJr.png', 'Im_KeanuReeves.png', 'Im_LeonardoDiCaprio.png', 'Im_ElijahWood.png', 'Im_RobertPattinson.png', 'Im_JustinTimberlake.png', 'Im_RyanReynolds.png', 'Im_GeorgeClooney.png', 'Im_MattDamon.png', 'Im_HughJackman.png'],diff,1,0.6583765000000312,13,0,
DEMA2901,train,pos,150,pos150_id18_im11.bmp_pos150_id11_im10.bmp,['Im_RobertDowneyJr.png', 'Im_KeanuReeves.png', 'Im_LeonardoDiCaprio.png', 'Im_ElijahWood.png', 'Im_RobertPattinson.png', 'Im_JustinTimberlake.png', 'Im_RyanReynolds.png', 'Im_GeorgeClooney.png', 'Im_MattDamon.png', 'Im_HughJackman.png'],diff,1,0.4082492000000002,14,0,
DEMA2901,train,inv,60,pos60_id21_im22.bmp_pos60_id8_im21.bmp,['Im_RobertDowneyJr.png', 'Im_KeanuReeves.png', 'Im_LeonardoDiCaprio.png', 'Im_ElijahWood.png', 'Im_RobertPattinson.png', 'Im_JustinTimberlake.png', 'Im_RyanReynolds.png', 'Im_GeorgeClooney.png', 'Im_MattDamon.png', 'Im_HughJackman.png'],diff,1,0.5668753999999581,15,0,
DEMA2901,train,inv,30,pos30_id6_im18.bmp_pos30_id19_im8.bmp,['Im_RobertDowneyJr.png', 'Im_KeanuReeves.png', 'Im_LeonardoDiCaprio.png', 'Im_ElijahWood.png', 'Im_RobertPattinson.png', 'Im_JustinTimberlake.png', 'Im_RyanReynolds.png', 'Im_GeorgeClooney.png', 'Im_MattDamon.png', 'Im_HughJackman.png'],diff,1,0.9500503000000435,16,0,
DEMA2901,train,inv,0,pos0_id13_im15.bmp_pos0_id13_im10.bmp,['Im_RobertDowneyJr.png', 'Im_KeanuReeves.png', 'Im_LeonardoDiCaprio.png', 'Im_ElijahWood.png', 'Im_RobertPattinson.png', 'Im_JustinTimberlake.png', 'Im_RyanReynolds.png', 'Im_GeorgeClooney.png', 'Im_MattDamon.png', 'Im_HughJackman.png'],same,1,0.5671700999999985,17,0,
DEMA2901,train,inv,90,pos90_id10_im1.bmp_pos90_id10_im18.bmp,['Im_RobertDowneyJr.png', 'Im_KeanuReeves.png', 'Im_LeonardoDiCaprio.png', 'Im_ElijahWood.png', 'Im_RobertPattinson.png', 'Im_JustinTimberlake.png', 'Im_RyanReynolds.png', 'Im_GeorgeClooney.png', 'Im_MattDamon.png', 'Im_HughJackman.png'],diff,0,1.0998853000000963,17,0,
DEMA2901,train,inv,0,pos0_id6_im18.bmp_pos0_id6_im12.bmp,['Im_RobertDowneyJr.png', 'Im_KeanuReeves.png', 'Im_LeonardoDiCaprio.png', 'Im_ElijahWood.png', 'Im_RobertPattinson.png', 'Im_JustinTimberlake.png', 'Im_RyanReynolds.png', 'Im_GeorgeClooney.png', 'Im_MattDamon.png', 'Im_HughJackman.png'],same,1,0.5083926999999449,18,0,
DEMA2901,train,inv,120,pos120_id7_im26.bmp_pos120_id7_im14.bmp,['Im_RobertDowneyJr.png', 'Im_KeanuReeves.png', 'Im_LeonardoDiCaprio.png', 'Im_ElijahWood.png', 'Im_RobertPattinson.png', 'Im_JustinTimberlake.png', 'Im_RyanReynolds.png', 'Im_GeorgeClooney.png', 'Im_MattDamon.png', 'Im_HughJackman.png'],same,1,0.5255892999999787,19,0,
DEMA2901,train,inv,90,pos90_id18_im11.bmp_pos90_id18_im18.bmp,['Im_RobertDowneyJr.png', 'Im_KeanuReeves.png', 'Im_LeonardoDiCaprio.png', 'Im_ElijahWood.png', 'Im_RobertPattinson.png', 'Im_JustinTimberlake.png', 'Im_RyanReynolds.png', 'Im_GeorgeClooney.png', 'Im_MattDamon.png', 'Im_HughJackman.png'],same,1,0.7417419000000791,20,0,
DEMA2901,train,inv,30,pos30_id18_im19.bmp_pos30_id13_im29.bmp,['Im_RobertDowneyJr.png', 'Im_KeanuReeves.png', 'Im_LeonardoDiCaprio.png', 'Im_ElijahWood.png', 'Im_RobertPattinson.png', 'Im_JustinTimberlake.png', 'Im_RyanReynolds.png', 'Im_GeorgeClooney.png', 'Im_MattDamon.png', 'Im_HughJackman.png'],same,0,0.4833006999999725,20,0,
DEMA2901,train,inv,120,pos120_id18_im19.bmp_pos120_id18_im18.bmp,['Im_RobertDowneyJr.png', 'Im_KeanuReeves.png', 'Im_LeonardoDiCaprio.png', 'Im_ElijahWood.png', 'Im_RobertPattinson.png', 'Im_JustinTimberlake.png', 'Im_RyanReynolds.png', 'Im_GeorgeClooney.png', 'Im_MattDamon.png', 'Im_HughJackman.png'],diff,0,0.9834823999999571,20,0,
DEMA2901,train,inv,60,pos60_id21_im16.bmp_pos60_id21_im17.bmp,['Im_RobertDowneyJr.png', 'Im_KeanuReeves.png', 'Im_LeonardoDiCaprio.png', 'Im_ElijahWood.png', 'Im_RobertPattinson.png', 'Im_JustinTimberlake.png', 'Im_RyanReynolds.png', 'Im_GeorgeClooney.png', 'Im_MattDamon.png', 'Im_HughJackman.png'],diff,0,0.5585548999999901,20,0,
DEMA2901,train,inv,fs,posfs_id8_im21.bmp_posfs_id8_im20.bmp,['Im_RobertDowneyJr.png', 'Im_KeanuReeves.png', 'Im_LeonardoDiCaprio.png', 'Im_ElijahWood.png', 'Im_RobertPattinson.png', 'Im_JustinTimberlake.png', 'Im_RyanReynolds.png', 'Im_GeorgeClooney.png', 'Im_MattDamon.png', 'Im_HughJackman.png'],same,1,0.4416053999999576,21,0,
DEMA2901,train,inv,fs,posfs_id10_im1.bmp_posfs_id10_im18.bmp,['Im_RobertDowneyJr.png', 'Im_KeanuReeves.png', 'Im_LeonardoDiCaprio.png', 'Im_ElijahWood.png', 'Im_RobertPattinson.png', 'Im_JustinTimberlake.png', 'Im_RyanReynolds.png', 'Im_GeorgeClooney.png', 'Im_MattDamon.png', 'Im_HughJackman.png'],same,1,0.5167844999999716,22,0,
DEMA2901,train,inv,150,pos150_id11_im1.bmp_pos150_id18_im19.bmp,['Im_RobertDowneyJr.png', 'Im_KeanuReeves.png', 'Im_LeonardoDiCaprio.png', 'Im_ElijahWood.png', 'Im_RobertPattinson.png', 'Im_JustinTimberlake.png', 'Im_RyanReynolds.png', 'Im_GeorgeClooney.png', 'Im_MattDamon.png', 'Im_HughJackman.png'],same,0,1.4750639000000092,22,0,
DEMA2901,train,inv,150,pos150_id19_im4.bmp_pos150_id19_im8.bmp,['Im_RobertDowneyJr.png', 'Im_KeanuReeves.png', 'Im_LeonardoDiCaprio.png', 'Im_ElijahWood.png', 'Im_RobertPattinson.png', 'Im_JustinTimberlake.png', 'Im_RyanReynolds.png', 'Im_GeorgeClooney.png', 'Im_MattDamon.png', 'Im_HughJackman.png'],same,1,0.6002540000000636,23,0,
DEMA2901,train,neg,150,neg150_id11_im10.bmp_neg150_id11_im2.bmp,['Im_RobertDowneyJr.png', 'Im_KeanuReeves.png', 'Im_LeonardoDiCaprio.png', 'Im_ElijahWood.png', 'Im_RobertPattinson.png', 'Im_JustinTimberlake.png', 'Im_RyanReynolds.png', 'Im_GeorgeClooney.png', 'Im_MattDamon.png', 'Im_HughJackman.png'],same,1,0.5668567999999823,24,0,
DEMA2901,train,neg,0,neg0_id13_im15.bmp_neg0_id11_im1.bmp,['Im_RobertDowneyJr.png', 'Im_KeanuReeves.png', 'Im_LeonardoDiCaprio.png', 'Im_ElijahWood.png', 'Im_RobertPattinson.png', 'Im_JustinTimberlake.png', 'Im_RyanReynolds.png', 'Im_GeorgeClooney.png', 'Im_MattDamon.png', 'Im_HughJackman.png'],diff,1,0.5334500000000162,25,0,
DEMA2901,train,neg,90,neg90_id7_im26.bmp_neg90_id13_im10.bmp,['Im_RobertDowneyJr.png', 'Im_KeanuReeves.png', 'Im_LeonardoDiCaprio.png', 'Im_ElijahWood.png', 'Im_RobertPattinson.png', 'Im_JustinTimberlake.png', 'Im_RyanReynolds.png', 'Im_GeorgeClooney.png', 'Im_MattDamon.png', 'Im_HughJackman.png'],diff,1,0.48354519999998047,26,0,
DEMA2901,train,neg,fs,negfs_id7_im15.bmp_negfs_id7_im14.bmp,['Im_RobertDowneyJr.png', 'Im_KeanuReeves.png', 'Im_LeonardoDiCaprio.png', 'Im_ElijahWood.png', 'Im_RobertPattinson.png', 'Im_JustinTimberlake.png', 'Im_RyanReynolds.png', 'Im_GeorgeClooney.png', 'Im_MattDamon.png', 'Im_HughJackman.png'],same,1,0.5003500999999915,27,0,
DEMA2901,train,neg,120,neg120_id18_im11.bmp_neg120_id18_im19.bmp,['Im_RobertDowneyJr.png', 'Im_KeanuReeves.png', 'Im_LeonardoDiCaprio.png', 'Im_ElijahWood.png', 'Im_RobertPattinson.png', 'Im_JustinTimberlake.png', 'Im_RyanReynolds.png', 'Im_GeorgeClooney.png', 'Im_MattDamon.png', 'Im_HughJackman.png'],same,1,0.7499920999999858,28,0,
DEMA2901,train,neg,150,neg150_id18_im18.bmp_neg150_id18_im11.bmp,['Im_RobertDowneyJr.png', 'Im_KeanuReeves.png', 'Im_LeonardoDiCaprio.png', 'Im_ElijahWood.png', 'Im_RobertPattinson.png', 'Im_JustinTimberlake.png', 'Im_RyanReynolds.png', 'Im_GeorgeClooney.png', 'Im_MattDamon.png', 'Im_HughJackman.png'],same,1,0.4084279000001061,29,0,
DEMA2901,train,neg,30,neg30_id19_im4.bmp_neg30_id19_im27.bmp,['Im_RobertDowneyJr.png', 'Im_KeanuReeves.png', 'Im_LeonardoDiCaprio.png', 'Im_ElijahWood.png', 'Im_RobertPattinson.png', 'Im_JustinTimberlake.png', 'Im_RyanReynolds.png', 'Im_GeorgeClooney.png', 'Im_MattDamon.png', 'Im_HughJackman.png'],same,1,0.5584780000000364,30,0,
DEMA2901,train,neg,60,neg60_id14_im24.bmp_neg60_id6_im19.bmp,['Im_RobertDowneyJr.png', 'Im_KeanuReeves.png', 'Im_LeonardoDiCaprio.png', 'Im_ElijahWood.png', 'Im_RobertPattinson.png', 'Im_JustinTimberlake.png', 'Im_RyanReynolds.png', 'Im_GeorgeClooney.png', 'Im_MattDamon.png', 'Im_HughJackman.png'],diff,1,0.6584354000000303,31,0,
DEMA2901,train,neg,60,neg60_id14_im18.bmp_neg60_id14_im16.bmp,['Im_RobertDowneyJr.png', 'Im_KeanuReeves.png', 'Im_LeonardoDiCaprio.png', 'Im_ElijahWood.png', 'Im_RobertPattinson.png', 'Im_JustinTimberlake.png', 'Im_RyanReynolds.png', 'Im_GeorgeClooney.png', 'Im_MattDamon.png', 'Im_HughJackman.png'],same,1,0.39964870000005703,32,0,
DEMA2901,train,neg,fs,negfs_id18_im19.bmp_negfs_id11_im1.bmp,['Im_RobertDowneyJr.png', 'Im_KeanuReeves.png', 'Im_LeonardoDiCaprio.png', 'Im_ElijahWood.png', 'Im_RobertPattinson.png', 'Im_JustinTimberlake.png', 'Im_RyanReynolds.png', 'Im_GeorgeClooney.png', 'Im_MattDamon.png', 'Im_HughJackman.png'],diff,1,0.6834033999999747,33,0,
DEMA2901,train,neg,90,neg90_id18_im11.bmp_neg90_id11_im10.bmp,['Im_RobertDowneyJr.png', 'Im_KeanuReeves.png', 'Im_LeonardoDiCaprio.png', 'Im_ElijahWood.png', 'Im_RobertPattinson.png', 'Im_JustinTimberlake.png', 'Im_RyanReynolds.png', 'Im_GeorgeClooney.png', 'Im_MattDamon.png', 'Im_HughJackman.png'],same,0,0.7169202000000041,33,0,
DEMA2901,train,neg,0,neg0_id19_im4.bmp_neg0_id19_im27.bmp,['Im_RobertDowneyJr.png', 'Im_KeanuReeves.png', 'Im_LeonardoDiCaprio.png', 'Im_ElijahWood.png', 'Im_RobertPattinson.png', 'Im_JustinTimberlake.png', 'Im_RyanReynolds.png', 'Im_GeorgeClooney.png', 'Im_MattDamon.png', 'Im_HughJackman.png'],same,1,0.8832873000000063,34,0,
DEMA2901,train,neg,30,neg30_id11_im1.bmp_neg30_id11_im2.bmp,['Im_RobertDowneyJr.png', 'Im_KeanuReeves.png', 'Im_LeonardoDiCaprio.png', 'Im_ElijahWood.png', 'Im_RobertPattinson.png', 'Im_JustinTimberlake.png', 'Im_RyanReynolds.png', 'Im_GeorgeClooney.png', 'Im_MattDamon.png', 'Im_HughJackman.png'],same,1,0.6169186000000764,35,0,
DEMA2901,train,neg,120,neg120_id10_im18.bmp_neg120_id19_im8.bmp,['Im_RobertDowneyJr.png', 'Im_KeanuReeves.png', 'Im_LeonardoDiCaprio.png', 'Im_ElijahWood.png', 'Im_RobertPattinson.png', 'Im_JustinTimberlake.png', 'Im_RyanReynolds.png', 'Im_GeorgeClooney.png', 'Im_MattDamon.png', 'Im_HughJackman.png'],same,0,0.5750121999999465,35,0,
DEMA2901,train,pos,60,pos60_id6_im19.bmp_pos60_id14_im18.bmp,['Im_RobertDowneyJr.png', 'Im_KeanuReeves.png', 'Im_LeonardoDiCaprio.png', 'Im_ElijahWood.png', 'Im_RobertPattinson.png', 'Im_JustinTimberlake.png', 'Im_RyanReynolds.png', 'Im_GeorgeClooney.png', 'Im_MattDamon.png', 'Im_HughJackman.png'],diff,1,1.5835022000001118,1,83.33333333333333,
DEMA2901,train,pos,0,pos0_id14_im24.bmp_pos0_id21_im17.bmp,['Im_RobertDowneyJr.png', 'Im_KeanuReeves.png', 'Im_LeonardoDiCaprio.png', 'Im_ElijahWood.png', 'Im_RobertPattinson.png', 'Im_JustinTimberlake.png', 'Im_RyanReynolds.png', 'Im_GeorgeClooney.png', 'Im_MattDamon.png', 'Im_HughJackman.png'],diff,1,0.5998601000001145,2,83.33333333333333,
DEMA2901,train,pos,fs,posfs_id14_im16.bmp_posfs_id11_im10.bmp,['Im_RobertDowneyJr.png', 'Im_KeanuReeves.png', 'Im_LeonardoDiCaprio.png', 'Im_ElijahWood.png', 'Im_RobertPattinson.png', 'Im_JustinTimberlake.png', 'Im_RyanReynolds.png', 'Im_GeorgeClooney.png', 'Im_MattDamon.png', 'Im_HughJackman.png'],diff,1,0.6667669000000842,3,83.33333333333333,
DEMA2901,train,pos,0,pos0_id21_im22.bmp_pos0_id8_im21.bmp,['Im_RobertDowneyJr.png', 'Im_KeanuReeves.png', 'Im_LeonardoDiCaprio.png', 'Im_ElijahWood.png', 'Im_RobertPattinson.png', 'Im_JustinTimberlake.png', 'Im_RyanReynolds.png', 'Im_GeorgeClooney.png', 'Im_MattDamon.png', 'Im_HughJackman.png'],diff,1,0.7751115999999456,4,83.33333333333333,
DEMA2901,train,pos,150,pos150_id7_im15.bmp_pos150_id19_im4.bmp,['Im_RobertDowneyJr.png', 'Im_KeanuReeves.png', 'Im_LeonardoDiCaprio.png', 'Im_ElijahWood.png', 'Im_RobertPattinson.png', 'Im_JustinTimberlake.png', 'Im_RyanReynolds.png', 'Im_GeorgeClooney.png', 'Im_MattDamon.png', 'Im_HughJackman.png'],diff,1,0.608640300000161,5,83.33333333333333,
DEMA2901,train,pos,90,pos90_id11_im2.bmp_pos90_id10_im18.bmp,['Im_RobertDowneyJr.png', 'Im_KeanuReeves.png', 'Im_LeonardoDiCaprio.png', 'Im_ElijahWood.png', 'Im_RobertPattinson.png', 'Im_JustinTimberlake.png', 'Im_RyanReynolds.png', 'Im_GeorgeClooney.png', 'Im_MattDamon.png', 'Im_HughJackman.png'],diff,1,0.7502535000000989,6,83.33333333333333,
DEMA2901,train,pos,30,pos30_id14_im16.bmp_pos30_id14_im18.bmp,['Im_RobertDowneyJr.png', 'Im_KeanuReeves.png', 'Im_LeonardoDiCaprio.png', 'Im_ElijahWood.png', 'Im_RobertPattinson.png', 'Im_JustinTimberlake.png', 'Im_RyanReynolds.png', 'Im_GeorgeClooney.png', 'Im_MattDamon.png', 'Im_HughJackman.png'],same,1,0.5418978999998671,7,83.33333333333333,
DEMA2901,train,pos,150,pos150_id21_im22.bmp_pos150_id14_im16.bmp,['Im_RobertDowneyJr.png', 'Im_KeanuReeves.png', 'Im_LeonardoDiCaprio.png', 'Im_ElijahWood.png', 'Im_RobertPattinson.png', 'Im_JustinTimberlake.png', 'Im_RyanReynolds.png', 'Im_GeorgeClooney.png', 'Im_MattDamon.png', 'Im_HughJackman.png'],diff,1,1.200158999999985,8,83.33333333333333,
DEMA2901,train,pos,fs,posfs_id10_im17.bmp_posfs_id10_im1.bmp,['Im_RobertDowneyJr.png', 'Im_KeanuReeves.png', 'Im_LeonardoDiCaprio.png', 'Im_ElijahWood.png', 'Im_RobertPattinson.png', 'Im_JustinTimberlake.png', 'Im_RyanReynolds.png', 'Im_GeorgeClooney.png', 'Im_MattDamon.png', 'Im_HughJackman.png'],same,1,0.40848490000007587,9,83.33333333333333,
DEMA2901,train,pos,120,pos120_id18_im19.bmp_pos120_id18_im11.bmp,['Im_RobertDowneyJr.png', 'Im_KeanuReeves.png', 'Im_LeonardoDiCaprio.png', 'Im_ElijahWood.png', 'Im_RobertPattinson.png', 'Im_JustinTimberlake.png', 'Im_RyanReynolds.png', 'Im_GeorgeClooney.png', 'Im_MattDamon.png', 'Im_HughJackman.png'],same,1,1.1831727999999657,10,83.33333333333333,
DEMA2901,train,pos,120,pos120_id14_im16.bmp_pos120_id21_im22.bmp,['Im_RobertDowneyJr.png', 'Im_KeanuReeves.png', 'Im_LeonardoDiCaprio.png', 'Im_ElijahWood.png', 'Im_RobertPattinson.png', 'Im_JustinTimberlake.png', 'Im_RyanReynolds.png', 'Im_GeorgeClooney.png', 'Im_MattDamon.png', 'Im_HughJackman.png'],diff,1,0.9833452999998826,11,83.33333333333333,
DEMA2901,train,pos,90,pos90_id10_im1.bmp_pos90_id10_im18.bmp,['Im_RobertDowneyJr.png', 'Im_KeanuReeves.png', 'Im_LeonardoDiCaprio.png', 'Im_ElijahWood.png', 'Im_RobertPattinson.png', 'Im_JustinTimberlake.png', 'Im_RyanReynolds.png', 'Im_GeorgeClooney.png', 'Im_MattDamon.png', 'Im_HughJackman.png'],same,1,0.4502110000000812,12,83.33333333333333,
DEMA2901,train,pos,60,pos60_id21_im16.bmp_pos60_id10_im1.bmp,['Im_RobertDowneyJr.png', 'Im_KeanuReeves.png', 'Im_LeonardoDiCaprio.png', 'Im_ElijahWood.png', 'Im_RobertPattinson.png', 'Im_JustinTimberlake.png', 'Im_RyanReynolds.png', 'Im_GeorgeClooney.png', 'Im_MattDamon.png', 'Im_HughJackman.png'],diff,1,0.7832972999999583,13,83.33333333333333,
DEMA2901,train,pos,30,pos30_id10_im18.bmp_pos30_id10_im17.bmp,['Im_RobertDowneyJr.png', 'Im_KeanuReeves.png', 'Im_LeonardoDiCaprio.png', 'Im_ElijahWood.png', 'Im_RobertPattinson.png', 'Im_JustinTimberlake.png', 'Im_RyanReynolds.png', 'Im_GeorgeClooney.png', 'Im_MattDamon.png', 'Im_HughJackman.png'],same,1,0.5750999000001684,14,83.33333333333333,
DEMA2901,train,neg,60,neg60_id11_im1.bmp_neg60_id11_im10.bmp,['Im_RobertDowneyJr.png', 'Im_KeanuReeves.png', 'Im_LeonardoDiCaprio.png', 'Im_ElijahWood.png', 'Im_RobertPattinson.png', 'Im_JustinTimberlake.png', 'Im_RyanReynolds.png', 'Im_GeorgeClooney.png', 'Im_MattDamon.png', 'Im_HughJackman.png'],same,1,1.6248513000000457,15,83.33333333333333,
DEMA2901,train,neg,120,neg120_id7_im26.bmp_neg120_id7_im15.bmp,['Im_RobertDowneyJr.png', 'Im_KeanuReeves.png', 'Im_LeonardoDiCaprio.png', 'Im_ElijahWood.png', 'Im_RobertPattinson.png', 'Im_JustinTimberlake.png', 'Im_RyanReynolds.png', 'Im_GeorgeClooney.png', 'Im_MattDamon.png', 'Im_HughJackman.png'],same,1,0.5667146999999204,16,83.33333333333333,
DEMA2901,train,neg,0,neg0_id18_im11.bmp_neg0_id18_im19.bmp,['Im_RobertDowneyJr.png', 'Im_KeanuReeves.png', 'Im_LeonardoDiCaprio.png', 'Im_ElijahWood.png', 'Im_RobertPattinson.png', 'Im_JustinTimberlake.png', 'Im_RyanReynolds.png', 'Im_GeorgeClooney.png', 'Im_MattDamon.png', 'Im_HughJackman.png'],same,1,0.7748234999999113,17,83.33333333333333,
DEMA2901,train,neg,0,neg0_id6_im18.bmp_neg0_id6_im12.bmp,['Im_RobertDowneyJr.png', 'Im_KeanuReeves.png', 'Im_LeonardoDiCaprio.png', 'Im_ElijahWood.png', 'Im_RobertPattinson.png', 'Im_JustinTimberlake.png', 'Im_RyanReynolds.png', 'Im_GeorgeClooney.png', 'Im_MattDamon.png', 'Im_HughJackman.png'],same,1,0.7583174999999756,18,83.33333333333333,
DEMA2901,train,neg,30,neg30_id10_im18.bmp_neg30_id11_im2.bmp,['Im_RobertDowneyJr.png', 'Im_KeanuReeves.png', 'Im_LeonardoDiCaprio.png', 'Im_ElijahWood.png', 'Im_RobertPattinson.png', 'Im_JustinTimberlake.png', 'Im_RyanReynolds.png', 'Im_GeorgeClooney.png', 'Im_MattDamon.png', 'Im_HughJackman.png'],diff,1,0.4252545000001646,19,83.33333333333333,
DEMA2901,train,neg,fs,negfs_id6_im19.bmp_negfs_id6_im12.bmp,['Im_RobertDowneyJr.png', 'Im_KeanuReeves.png', 'Im_LeonardoDiCaprio.png', 'Im_ElijahWood.png', 'Im_RobertPattinson.png', 'Im_JustinTimberlake.png', 'Im_RyanReynolds.png', 'Im_GeorgeClooney.png', 'Im_MattDamon.png', 'Im_HughJackman.png'],same,1,0.5421437999998489,20,83.33333333333333,
DEMA2901,train,neg,150,neg150_id7_im14.bmp_neg150_id7_im15.bmp,['Im_RobertDowneyJr.png', 'Im_KeanuReeves.png', 'Im_LeonardoDiCaprio.png', 'Im_ElijahWood.png', 'Im_RobertPattinson.png', 'Im_JustinTimberlake.png', 'Im_RyanReynolds.png', 'Im_GeorgeClooney.png', 'Im_MattDamon.png', 'Im_HughJackman.png'],same,1,0.5835068999999748,21,83.33333333333333,
DEMA2901,train,neg,60,neg60_id11_im2.bmp_neg60_id11_im10.bmp,['Im_RobertDowneyJr.png', 'Im_KeanuReeves.png', 'Im_LeonardoDiCaprio.png', 'Im_ElijahWood.png', 'Im_RobertPattinson.png', 'Im_JustinTimberlake.png', 'Im_RyanReynolds.png', 'Im_GeorgeClooney.png', 'Im_MattDamon.png', 'Im_HughJackman.png'],same,1,0.6497352999999748,22,83.33333333333333,
DEMA2901,train,neg,30,neg30_id8_im21.bmp_neg30_id8_im13.bmp,['Im_RobertDowneyJr.png', 'Im_KeanuReeves.png', 'Im_LeonardoDiCaprio.png', 'Im_ElijahWood.png', 'Im_RobertPattinson.png', 'Im_JustinTimberlake.png', 'Im_RyanReynolds.png', 'Im_GeorgeClooney.png', 'Im_MattDamon.png', 'Im_HughJackman.png'],same,1,0.5168353000001389,23,83.33333333333333,
DEMA2901,train,neg,90,neg90_id13_im10.bmp_neg90_id13_im29.bmp,['Im_RobertDowneyJr.png', 'Im_KeanuReeves.png', 'Im_LeonardoDiCaprio.png', 'Im_ElijahWood.png', 'Im_RobertPattinson.png', 'Im_JustinTimberlake.png', 'Im_RyanReynolds.png', 'Im_GeorgeClooney.png', 'Im_MattDamon.png', 'Im_HughJackman.png'],same,1,0.6166032000000996,24,83.33333333333333,
DEMA2901,train,neg,150,neg150_id11_im10.bmp_neg150_id11_im1.bmp,['Im_RobertDowneyJr.png', 'Im_KeanuReeves.png', 'Im_LeonardoDiCaprio.png', 'Im_ElijahWood.png', 'Im_RobertPattinson.png', 'Im_JustinTimberlake.png', 'Im_RyanReynolds.png', 'Im_GeorgeClooney.png', 'Im_MattDamon.png', 'Im_HughJackman.png'],same,1,1.1917943000000832,25,83.33333333333333,
DEMA2901,train,neg,90,neg90_id11_im1.bmp_neg90_id11_im2.bmp,['Im_RobertDowneyJr.png', 'Im_KeanuReeves.png', 'Im_LeonardoDiCaprio.png', 'Im_ElijahWood.png', 'Im_RobertPattinson.png', 'Im_JustinTimberlake.png', 'Im_RyanReynolds.png', 'Im_GeorgeClooney.png', 'Im_MattDamon.png', 'Im_HughJackman.png'],same,1,0.8504212999998799,26,83.33333333333333,
DEMA2901,train,neg,120,neg120_id8_im13.bmp_neg120_id8_im21.bmp,['Im_RobertDowneyJr.png', 'Im_KeanuReeves.png', 'Im_LeonardoDiCaprio.png', 'Im_ElijahWood.png', 'Im_RobertPattinson.png', 'Im_JustinTimberlake.png', 'Im_RyanReynolds.png', 'Im_GeorgeClooney.png', 'Im_MattDamon.png', 'Im_HughJackman.png'],same,1,0.7000339999999596,27,83.33333333333333,
DEMA2901,train,neg,fs,negfs_id18_im11.bmp_negfs_id11_im10.bmp,['Im_RobertDowneyJr.png', 'Im_KeanuReeves.png', 'Im_LeonardoDiCaprio.png', 'Im_ElijahWood.png', 'Im_RobertPattinson.png', 'Im_JustinTimberlake.png', 'Im_RyanReynolds.png', 'Im_GeorgeClooney.png', 'Im_MattDamon.png', 'Im_HughJackman.png'],diff,1,0.5501474000000144,28,83.33333333333333,
DEMA2901,train,inv,150,pos150_id8_im21.bmp_pos150_id8_im13.bmp,['Im_RobertDowneyJr.png', 'Im_KeanuReeves.png', 'Im_LeonardoDiCaprio.png', 'Im_ElijahWood.png', 'Im_RobertPattinson.png', 'Im_JustinTimberlake.png', 'Im_RyanReynolds.png', 'Im_GeorgeClooney.png', 'Im_MattDamon.png', 'Im_HughJackman.png'],same,1,0.9501255000000128,29,83.33333333333333,
DEMA2901,train,inv,120,pos120_id11_im10.bmp_pos120_id11_im1.bmp,['Im_RobertDowneyJr.png', 'Im_KeanuReeves.png', 'Im_LeonardoDiCaprio.png', 'Im_ElijahWood.png', 'Im_RobertPattinson.png', 'Im_JustinTimberlake.png', 'Im_RyanReynolds.png', 'Im_GeorgeClooney.png', 'Im_MattDamon.png', 'Im_HughJackman.png'],same,1,0.8586605000000418,30,83.33333333333333,
DEMA2901,train,inv,120,pos120_id21_im17.bmp_pos120_id14_im24.bmp,['Im_RobertDowneyJr.png', 'Im_KeanuReeves.png', 'Im_LeonardoDiCaprio.png', 'Im_ElijahWood.png', 'Im_RobertPattinson.png', 'Im_JustinTimberlake.png', 'Im_RyanReynolds.png', 'Im_GeorgeClooney.png', 'Im_MattDamon.png', 'Im_HughJackman.png'],diff,1,1.041680900000074,31,83.33333333333333,
DEMA2901,train,inv,0,pos0_id10_im17.bmp_pos0_id21_im17.bmp,['Im_RobertDowneyJr.png', 'Im_KeanuReeves.png', 'Im_LeonardoDiCaprio.png', 'Im_ElijahWood.png', 'Im_RobertPattinson.png', 'Im_JustinTimberlake.png', 'Im_RyanReynolds.png', 'Im_GeorgeClooney.png', 'Im_MattDamon.png', 'Im_HughJackman.png'],diff,1,0.6332965999999942,32,83.33333333333333,
DEMA2901,train,inv,90,pos90_id21_im17.bmp_pos90_id10_im17.bmp,['Im_RobertDowneyJr.png', 'Im_KeanuReeves.png', 'Im_LeonardoDiCaprio.png', 'Im_ElijahWood.png', 'Im_RobertPattinson.png', 'Im_JustinTimberlake.png', 'Im_RyanReynolds.png', 'Im_GeorgeClooney.png', 'Im_MattDamon.png', 'Im_HughJackman.png'],diff,1,0.83362319999992,33,83.33333333333333,
DEMA2901,train,inv,30,pos30_id21_im17.bmp_pos30_id21_im16.bmp,['Im_RobertDowneyJr.png', 'Im_KeanuReeves.png', 'Im_LeonardoDiCaprio.png', 'Im_ElijahWood.png', 'Im_RobertPattinson.png', 'Im_JustinTimberlake.png', 'Im_RyanReynolds.png', 'Im_GeorgeClooney.png', 'Im_MattDamon.png', 'Im_HughJackman.png'],same,1,0.6332773999999972,34,83.33333333333333,
DEMA2901,train,inv,30,pos30_id13_im15.bmp_pos30_id7_im15.bmp,['Im_RobertDowneyJr.png', 'Im_KeanuReeves.png', 'Im_LeonardoDiCaprio.png', 'Im_ElijahWood.png', 'Im_RobertPattinson.png', 'Im_JustinTimberlake.png', 'Im_RyanReynolds.png', 'Im_GeorgeClooney.png', 'Im_MattDamon.png', 'Im_HughJackman.png'],diff,1,0.5919781000000057,35,83.33333333333333,
DEMA2901,train,inv,90,pos90_id8_im21.bmp_pos90_id21_im22.bmp,['Im_RobertDowneyJr.png', 'Im_KeanuReeves.png', 'Im_LeonardoDiCaprio.png', 'Im_ElijahWood.png', 'Im_RobertPattinson.png', 'Im_JustinTimberlake.png', 'Im_RyanReynolds.png', 'Im_GeorgeClooney.png', 'Im_MattDamon.png', 'Im_HughJackman.png'],diff,1,0.6340055000000575,36,83.33333333333333,
DEMA2901,train,inv,60,pos60_id11_im1.bmp_pos60_id18_im19.bmp,['Im_RobertDowneyJr.png', 'Im_KeanuReeves.png', 'Im_LeonardoDiCaprio.png', 'Im_ElijahWood.png', 'Im_RobertPattinson.png', 'Im_JustinTimberlake.png', 'Im_RyanReynolds.png', 'Im_GeorgeClooney.png', 'Im_MattDamon.png', 'Im_HughJackman.png'],diff,1,0.8167523999998139,37,83.33333333333333,
DEMA2901,train,inv,0,pos0_id7_im26.bmp_pos0_id19_im4.bmp,['Im_RobertDowneyJr.png', 'Im_KeanuReeves.png', 'Im_LeonardoDiCaprio.png', 'Im_ElijahWood.png', 'Im_RobertPattinson.png', 'Im_JustinTimberlake.png', 'Im_RyanReynolds.png', 'Im_GeorgeClooney.png', 'Im_MattDamon.png', 'Im_HughJackman.png'],diff,1,1.066908499999954,38,83.33333333333333,
DEMA2901,train,inv,60,pos60_id19_im4.bmp_pos60_id7_im26.bmp,['Im_RobertDowneyJr.png', 'Im_KeanuReeves.png', 'Im_LeonardoDiCaprio.png', 'Im_ElijahWood.png', 'Im_RobertPattinson.png', 'Im_JustinTimberlake.png', 'Im_RyanReynolds.png', 'Im_GeorgeClooney.png', 'Im_MattDamon.png', 'Im_HughJackman.png'],diff,1,0.7500346000001628,39,83.33333333333333,
DEMA2901,train,inv,fs,posfs_id11_im2.bmp_posfs_id11_im10.bmp,['Im_RobertDowneyJr.png', 'Im_KeanuReeves.png', 'Im_LeonardoDiCaprio.png', 'Im_ElijahWood.png', 'Im_RobertPattinson.png', 'Im_JustinTimberlake.png', 'Im_RyanReynolds.png', 'Im_GeorgeClooney.png', 'Im_MattDamon.png', 'Im_HughJackman.png'],same,1,0.5666915000001609,40,83.33333333333333,
DEMA2901,train,inv,fs,posfs_id19_im27.bmp_posfs_id13_im10.bmp,['Im_RobertDowneyJr.png', 'Im_KeanuReeves.png', 'Im_LeonardoDiCaprio.png', 'Im_ElijahWood.png', 'Im_RobertPattinson.png', 'Im_JustinTimberlake.png', 'Im_RyanReynolds.png', 'Im_GeorgeClooney.png', 'Im_MattDamon.png', 'Im_HughJackman.png'],diff,1,0.6836815000001479,41,83.33333333333333,
DEMA2901,train,inv,150,pos150_id10_im1.bmp_pos150_id7_im14.bmp,['Im_RobertDowneyJr.png', 'Im_KeanuReeves.png', 'Im_LeonardoDiCaprio.png', 'Im_ElijahWood.png', 'Im_RobertPattinson.png', 'Im_JustinTimberlake.png', 'Im_RyanReynolds.png', 'Im_GeorgeClooney.png', 'Im_MattDamon.png', 'Im_HughJackman.png'],diff,1,0.6748560999999427,42,83.33333333333333,
DEMA2901,0,neg,150,neg150_id13_im15.bmp_neg150_id13_im10.bmp,['Im_RobertDowneyJr.png', 'Im_KeanuReeves.png', 'Im_LeonardoDiCaprio.png', 'Im_ElijahWood.png', 'Im_RobertPattinson.png', 'Im_JustinTimberlake.png', 'Im_RyanReynolds.png', 'Im_GeorgeClooney.png', 'Im_MattDamon.png', 'Im_HughJackman.png'],same,1,0.5167429999999058,1,0,
DEMA2901,0,neg,60,neg60_id13_im29.bmp_neg60_id13_im10.bmp,['Im_RobertDowneyJr.png', 'Im_KeanuReeves.png', 'Im_LeonardoDiCaprio.png', 'Im_ElijahWood.png', 'Im_RobertPattinson.png', 'Im_JustinTimberlake.png', 'Im_RyanReynolds.png', 'Im_GeorgeClooney.png', 'Im_MattDamon.png', 'Im_HughJackman.png'],same,1,0.4085368000000926,2,0,
DEMA2901,0,neg,90,neg90_id10_im18.bmp_neg90_id10_im1.bmp,['Im_RobertDowneyJr.png', 'Im_KeanuReeves.png', 'Im_LeonardoDiCaprio.png', 'Im_ElijahWood.png', 'Im_RobertPattinson.png', 'Im_JustinTimberlake.png', 'Im_RyanReynolds.png', 'Im_GeorgeClooney.png', 'Im_MattDamon.png', 'Im_HughJackman.png'],same,1,0.6587558000001081,3,0,
DEMA2901,0,neg,fs,negfs_id14_im18.bmp_negfs_id10_im17.bmp,['Im_RobertDowneyJr.png', 'Im_KeanuReeves.png', 'Im_LeonardoDiCaprio.png', 'Im_ElijahWood.png', 'Im_RobertPattinson.png', 'Im_JustinTimberlake.png', 'Im_RyanReynolds.png', 'Im_GeorgeClooney.png', 'Im_MattDamon.png', 'Im_HughJackman.png'],diff,1,0.7750370999999632,4,0,
DEMA2901,0,neg,30,neg30_id13_im10.bmp_neg30_id13_im15.bmp,['Im_RobertDowneyJr.png', 'Im_KeanuReeves.png', 'Im_LeonardoDiCaprio.png', 'Im_ElijahWood.png', 'Im_RobertPattinson.png', 'Im_JustinTimberlake.png', 'Im_RyanReynolds.png', 'Im_GeorgeClooney.png', 'Im_MattDamon.png', 'Im_HughJackman.png'],same,1,0.45831889999999476,5,0,
DEMA2901,0,neg,0,neg0_id14_im24.bmp_neg0_id14_im18.bmp,['Im_RobertDowneyJr.png', 'Im_KeanuReeves.png', 'Im_LeonardoDiCaprio.png', 'Im_ElijahWood.png', 'Im_RobertPattinson.png', 'Im_JustinTimberlake.png', 'Im_RyanReynolds.png', 'Im_GeorgeClooney.png', 'Im_MattDamon.png', 'Im_HughJackman.png'],same,1,0.7416957000000366,6,0,
DEMA2901,0,neg,150,neg150_id14_im24.bmp_neg150_id14_im18.bmp,['Im_RobertDowneyJr.png', 'Im_KeanuReeves.png', 'Im_LeonardoDiCaprio.png', 'Im_ElijahWood.png', 'Im_RobertPattinson.png', 'Im_JustinTimberlake.png', 'Im_RyanReynolds.png', 'Im_GeorgeClooney.png', 'Im_MattDamon.png', 'Im_HughJackman.png'],same,1,0.5583516000001509,7,0,
DEMA2901,0,neg,0,neg0_id11_im2.bmp_neg0_id21_im16.bmp,['Im_RobertDowneyJr.png', 'Im_KeanuReeves.png', 'Im_LeonardoDiCaprio.png', 'Im_ElijahWood.png', 'Im_RobertPattinson.png', 'Im_JustinTimberlake.png', 'Im_RyanReynolds.png', 'Im_GeorgeClooney.png', 'Im_MattDamon.png', 'Im_HughJackman.png'],diff,1,0.5168779000000541,8,0,
DEMA2901,0,neg,60,neg60_id18_im18.bmp_neg60_id18_im11.bmp,['Im_RobertDowneyJr.png', 'Im_KeanuReeves.png', 'Im_LeonardoDiCaprio.png', 'Im_ElijahWood.png', 'Im_RobertPattinson.png', 'Im_JustinTimberlake.png', 'Im_RyanReynolds.png', 'Im_GeorgeClooney.png', 'Im_MattDamon.png', 'Im_HughJackman.png'],diff,0,0.7419671000000108,8,0,
DEMA2901,0,neg,120,neg120_id14_im16.bmp_neg120_id14_im18.bmp,['Im_RobertDowneyJr.png', 'Im_KeanuReeves.png', 'Im_LeonardoDiCaprio.png', 'Im_ElijahWood.png', 'Im_RobertPattinson.png', 'Im_JustinTimberlake.png', 'Im_RyanReynolds.png', 'Im_GeorgeClooney.png', 'Im_MattDamon.png', 'Im_HughJackman.png'],diff,0,0.7249239999998736,8,0,
DEMA2901,0,neg,fs,negfs_id21_im16.bmp_negfs_id10_im1.bmp,['Im_RobertDowneyJr.png', 'Im_KeanuReeves.png', 'Im_LeonardoDiCaprio.png', 'Im_ElijahWood.png', 'Im_RobertPattinson.png', 'Im_JustinTimberlake.png', 'Im_RyanReynolds.png', 'Im_GeorgeClooney.png', 'Im_MattDamon.png', 'Im_HughJackman.png'],diff,1,0.6419661999998425,9,0,
DEMA2901,0,neg,90,neg90_id21_im16.bmp_neg90_id21_im17.bmp,['Im_RobertDowneyJr.png', 'Im_KeanuReeves.png', 'Im_LeonardoDiCaprio.png', 'Im_ElijahWood.png', 'Im_RobertPattinson.png', 'Im_JustinTimberlake.png', 'Im_RyanReynolds.png', 'Im_GeorgeClooney.png', 'Im_MattDamon.png', 'Im_HughJackman.png'],same,1,0.5083090999999058,10,0,
DEMA2901,0,neg,120,neg120_id21_im16.bmp_neg120_id11_im2.bmp,['Im_RobertDowneyJr.png', 'Im_KeanuReeves.png', 'Im_LeonardoDiCaprio.png', 'Im_ElijahWood.png', 'Im_RobertPattinson.png', 'Im_JustinTimberlake.png', 'Im_RyanReynolds.png', 'Im_GeorgeClooney.png', 'Im_MattDamon.png', 'Im_HughJackman.png'],diff,1,0.6086252000000059,11,0,
DEMA2901,0,neg,30,neg30_id13_im29.bmp_neg30_id8_im13.bmp,['Im_RobertDowneyJr.png', 'Im_KeanuReeves.png', 'Im_LeonardoDiCaprio.png', 'Im_ElijahWood.png', 'Im_RobertPattinson.png', 'Im_JustinTimberlake.png', 'Im_RyanReynolds.png', 'Im_GeorgeClooney.png', 'Im_MattDamon.png', 'Im_HughJackman.png'],diff,1,0.4918792000000849,12,0,
DEMA2901,1,neg,60,neg60_id7_im26.bmp_neg60_id7_im14.bmp,['Im_RobertDowneyJr.png', 'Im_KeanuReeves.png', 'Im_LeonardoDiCaprio.png', 'Im_ElijahWood.png', 'Im_RobertPattinson.png', 'Im_JustinTimberlake.png', 'Im_RyanReynolds.png', 'Im_GeorgeClooney.png', 'Im_MattDamon.png', 'Im_HughJackman.png'],same,1,0.5251425000001291,13,0,
DEMA2901,1,neg,90,neg90_id18_im11.bmp_neg90_id6_im12.bmp,['Im_RobertDowneyJr.png', 'Im_KeanuReeves.png', 'Im_LeonardoDiCaprio.png', 'Im_ElijahWood.png', 'Im_RobertPattinson.png', 'Im_JustinTimberlake.png', 'Im_RyanReynolds.png', 'Im_GeorgeClooney.png', 'Im_MattDamon.png', 'Im_HughJackman.png'],diff,1,0.450106999999889,14,0,
DEMA2901,1,neg,fs,negfs_id19_im27.bmp_negfs_id19_im4.bmp,['Im_RobertDowneyJr.png', 'Im_KeanuReeves.png', 'Im_LeonardoDiCaprio.png', 'Im_ElijahWood.png', 'Im_RobertPattinson.png', 'Im_JustinTimberlake.png', 'Im_RyanReynolds.png', 'Im_GeorgeClooney.png', 'Im_MattDamon.png', 'Im_HughJackman.png'],same,1,0.43341700000019046,15,0,
DEMA2901,1,neg,120,neg120_id19_im4.bmp_neg120_id7_im15.bmp,['Im_RobertDowneyJr.png', 'Im_KeanuReeves.png', 'Im_LeonardoDiCaprio.png', 'Im_ElijahWood.png', 'Im_RobertPattinson.png', 'Im_JustinTimberlake.png', 'Im_RyanReynolds.png', 'Im_GeorgeClooney.png', 'Im_MattDamon.png', 'Im_HughJackman.png'],diff,1,0.47515470000007554,16,0,
DEMA2901,1,neg,150,neg150_id10_im17.bmp_neg150_id10_im18.bmp,['Im_RobertDowneyJr.png', 'Im_KeanuReeves.png', 'Im_LeonardoDiCaprio.png', 'Im_ElijahWood.png', 'Im_RobertPattinson.png', 'Im_JustinTimberlake.png', 'Im_RyanReynolds.png', 'Im_GeorgeClooney.png', 'Im_MattDamon.png', 'Im_HughJackman.png'],same,1,0.6502848999998605,17,0,
DEMA2901,1,neg,fs,negfs_id7_im15.bmp_negfs_id19_im4.bmp,['Im_RobertDowneyJr.png', 'Im_KeanuReeves.png', 'Im_LeonardoDiCaprio.png', 'Im_ElijahWood.png', 'Im_RobertPattinson.png', 'Im_JustinTimberlake.png', 'Im_RyanReynolds.png', 'Im_GeorgeClooney.png', 'Im_MattDamon.png', 'Im_HughJackman.png'],same,0,0.6666497999999592,17,0,
DEMA2901,1,neg,120,neg120_id19_im8.bmp_neg120_id19_im27.bmp,['Im_RobertDowneyJr.png', 'Im_KeanuReeves.png', 'Im_LeonardoDiCaprio.png', 'Im_ElijahWood.png', 'Im_RobertPattinson.png', 'Im_JustinTimberlake.png', 'Im_RyanReynolds.png', 'Im_GeorgeClooney.png', 'Im_MattDamon.png', 'Im_HughJackman.png'],same,1,0.5834672999999384,18,0,
DEMA2901,1,neg,30,neg30_id7_im14.bmp_neg30_id10_im1.bmp,['Im_RobertDowneyJr.png', 'Im_KeanuReeves.png', 'Im_LeonardoDiCaprio.png', 'Im_ElijahWood.png', 'Im_RobertPattinson.png', 'Im_JustinTimberlake.png', 'Im_RyanReynolds.png', 'Im_GeorgeClooney.png', 'Im_MattDamon.png', 'Im_HughJackman.png'],diff,1,0.6250614999999016,19,0,
DEMA2901,1,neg,0,neg0_id21_im22.bmp_neg0_id21_im17.bmp,['Im_RobertDowneyJr.png', 'Im_KeanuReeves.png', 'Im_LeonardoDiCaprio.png', 'Im_ElijahWood.png', 'Im_RobertPattinson.png', 'Im_JustinTimberlake.png', 'Im_RyanReynolds.png', 'Im_GeorgeClooney.png', 'Im_MattDamon.png', 'Im_HughJackman.png'],same,1,0.41667819999997846,20,0,
DEMA2901,1,neg,30,neg30_id18_im11.bmp_neg30_id18_im18.bmp,['Im_RobertDowneyJr.png', 'Im_KeanuReeves.png', 'Im_LeonardoDiCaprio.png', 'Im_ElijahWood.png', 'Im_RobertPattinson.png', 'Im_JustinTimberlake.png', 'Im_RyanReynolds.png', 'Im_GeorgeClooney.png', 'Im_MattDamon.png', 'Im_HughJackman.png'],diff,0,0.7500420999999733,20,0,
DEMA2901,1,neg,0,neg0_id8_im21.bmp_neg0_id18_im18.bmp,['Im_RobertDowneyJr.png', 'Im_KeanuReeves.png', 'Im_LeonardoDiCaprio.png', 'Im_ElijahWood.png', 'Im_RobertPattinson.png', 'Im_JustinTimberlake.png', 'Im_RyanReynolds.png', 'Im_GeorgeClooney.png', 'Im_MattDamon.png', 'Im_HughJackman.png'],diff,1,0.4500760999999329,21,0,
DEMA2901,1,neg,60,neg60_id19_im8.bmp_neg60_id10_im18.bmp,['Im_RobertDowneyJr.png', 'Im_KeanuReeves.png', 'Im_LeonardoDiCaprio.png', 'Im_ElijahWood.png', 'Im_RobertPattinson.png', 'Im_JustinTimberlake.png', 'Im_RyanReynolds.png', 'Im_GeorgeClooney.png', 'Im_MattDamon.png', 'Im_HughJackman.png'],same,0,0.750132399999984,21,0,
DEMA2901,1,neg,90,neg90_id19_im27.bmp_neg90_id19_im8.bmp,['Im_RobertDowneyJr.png', 'Im_KeanuReeves.png', 'Im_LeonardoDiCaprio.png', 'Im_ElijahWood.png', 'Im_RobertPattinson.png', 'Im_JustinTimberlake.png', 'Im_RyanReynolds.png', 'Im_GeorgeClooney.png', 'Im_MattDamon.png', 'Im_HughJackman.png'],same,1,0.41682449999984783,22,0,
DEMA2901,1,neg,150,neg150_id19_im4.bmp_neg150_id7_im15.bmp,['Im_RobertDowneyJr.png', 'Im_KeanuReeves.png', 'Im_LeonardoDiCaprio.png', 'Im_ElijahWood.png', 'Im_RobertPattinson.png', 'Im_JustinTimberlake.png', 'Im_RyanReynolds.png', 'Im_GeorgeClooney.png', 'Im_MattDamon.png', 'Im_HughJackman.png'],diff,1,0.6334305000000313,23,0,
DEMA2901,2,pos,0,pos0_id6_im12.bmp_pos0_id18_im11.bmp,['Im_RobertDowneyJr.png', 'Im_KeanuReeves.png', 'Im_LeonardoDiCaprio.png', 'Im_ElijahWood.png', 'Im_RobertPattinson.png', 'Im_JustinTimberlake.png', 'Im_RyanReynolds.png', 'Im_GeorgeClooney.png', 'Im_MattDamon.png', 'Im_HughJackman.png'],diff,1,0.441765900000064,24,0,
DEMA2901,2,pos,120,pos120_id10_im18.bmp_pos120_id11_im2.bmp,['Im_RobertDowneyJr.png', 'Im_KeanuReeves.png', 'Im_LeonardoDiCaprio.png', 'Im_ElijahWood.png', 'Im_RobertPattinson.png', 'Im_JustinTimberlake.png', 'Im_RyanReynolds.png', 'Im_GeorgeClooney.png', 'Im_MattDamon.png', 'Im_HughJackman.png'],diff,1,0.4168349000001399,25,0,
DEMA2901,2,pos,fs,posfs_id11_im1.bmp_posfs_id13_im15.bmp,['Im_RobertDowneyJr.png', 'Im_KeanuReeves.png', 'Im_LeonardoDiCaprio.png', 'Im_ElijahWood.png', 'Im_RobertPattinson.png', 'Im_JustinTimberlake.png', 'Im_RyanReynolds.png', 'Im_GeorgeClooney.png', 'Im_MattDamon.png', 'Im_HughJackman.png'],diff,1,0.5582941000000119,26,0,
DEMA2901,2,pos,60,pos60_id8_im13.bmp_pos60_id8_im21.bmp,['Im_RobertDowneyJr.png', 'Im_KeanuReeves.png', 'Im_LeonardoDiCaprio.png', 'Im_ElijahWood.png', 'Im_RobertPattinson.png', 'Im_JustinTimberlake.png', 'Im_RyanReynolds.png', 'Im_GeorgeClooney.png', 'Im_MattDamon.png', 'Im_HughJackman.png'],same,1,0.6584131000001889,27,0,
DEMA2901,2,pos,150,pos150_id14_im18.bmp_pos150_id14_im16.bmp,['Im_RobertDowneyJr.png', 'Im_KeanuReeves.png', 'Im_LeonardoDiCaprio.png', 'Im_ElijahWood.png', 'Im_RobertPattinson.png', 'Im_JustinTimberlake.png', 'Im_RyanReynolds.png', 'Im_GeorgeClooney.png', 'Im_MattDamon.png', 'Im_HughJackman.png'],same,1,0.45845859999985805,28,0,
DEMA2901,2,pos,0,pos0_id18_im18.bmp_pos0_id18_im19.bmp,['Im_RobertDowneyJr.png', 'Im_KeanuReeves.png', 'Im_LeonardoDiCaprio.png', 'Im_ElijahWood.png', 'Im_RobertPattinson.png', 'Im_JustinTimberlake.png', 'Im_RyanReynolds.png', 'Im_GeorgeClooney.png', 'Im_MattDamon.png', 'Im_HughJackman.png'],same,1,1.0503446999998687,29,0,
DEMA2901,2,pos,90,pos90_id7_im15.bmp_pos90_id13_im15.bmp,['Im_RobertDowneyJr.png', 'Im_KeanuReeves.png', 'Im_LeonardoDiCaprio.png', 'Im_ElijahWood.png', 'Im_RobertPattinson.png', 'Im_JustinTimberlake.png', 'Im_RyanReynolds.png', 'Im_GeorgeClooney.png', 'Im_MattDamon.png', 'Im_HughJackman.png'],diff,1,0.8335956000000806,30,0,
DEMA2901,2,pos,fs,posfs_id11_im1.bmp_posfs_id11_im2.bmp,['Im_RobertDowneyJr.png', 'Im_KeanuReeves.png', 'Im_LeonardoDiCaprio.png', 'Im_ElijahWood.png', 'Im_RobertPattinson.png', 'Im_JustinTimberlake.png', 'Im_RyanReynolds.png', 'Im_GeorgeClooney.png', 'Im_MattDamon.png', 'Im_HughJackman.png'],same,1,1.300029400000085,31,0,
DEMA2901,2,pos,90,pos90_id14_im18.bmp_pos90_id14_im24.bmp,['Im_RobertDowneyJr.png', 'Im_KeanuReeves.png', 'Im_LeonardoDiCaprio.png', 'Im_ElijahWood.png', 'Im_RobertPattinson.png', 'Im_JustinTimberlake.png', 'Im_RyanReynolds.png', 'Im_GeorgeClooney.png', 'Im_MattDamon.png', 'Im_HughJackman.png'],same,1,0.4333644999999251,32,0,
DEMA2901,2,pos,150,pos150_id11_im2.bmp_pos150_id21_im16.bmp,['Im_RobertDowneyJr.png', 'Im_KeanuReeves.png', 'Im_LeonardoDiCaprio.png', 'Im_ElijahWood.png', 'Im_RobertPattinson.png', 'Im_JustinTimberlake.png', 'Im_RyanReynolds.png', 'Im_GeorgeClooney.png', 'Im_MattDamon.png', 'Im_HughJackman.png'],diff,1,0.5505345999999918,33,0,
DEMA2901,2,pos,60,pos60_id13_im15.bmp_pos60_id11_im1.bmp,['Im_RobertDowneyJr.png', 'Im_KeanuReeves.png', 'Im_LeonardoDiCaprio.png', 'Im_ElijahWood.png', 'Im_RobertPattinson.png', 'Im_JustinTimberlake.png', 'Im_RyanReynolds.png', 'Im_GeorgeClooney.png', 'Im_MattDamon.png', 'Im_HughJackman.png'],diff,1,0.541823499999964,34,0,
DEMA2901,2,pos,120,pos120_id6_im18.bmp_pos120_id8_im13.bmp,['Im_RobertDowneyJr.png', 'Im_KeanuReeves.png', 'Im_LeonardoDiCaprio.png', 'Im_ElijahWood.png', 'Im_RobertPattinson.png', 'Im_JustinTimberlake.png', 'Im_RyanReynolds.png', 'Im_GeorgeClooney.png', 'Im_MattDamon.png', 'Im_HughJackman.png'],diff,1,0.5418105999999625,35,0,
DEMA2901,2,pos,30,pos30_id6_im12.bmp_pos30_id7_im14.bmp,['Im_RobertDowneyJr.png', 'Im_KeanuReeves.png', 'Im_LeonardoDiCaprio.png', 'Im_ElijahWood.png', 'Im_RobertPattinson.png', 'Im_JustinTimberlake.png', 'Im_RyanReynolds.png', 'Im_GeorgeClooney.png', 'Im_MattDamon.png', 'Im_HughJackman.png'],diff,1,0.4251361999999972,36,0,
DEMA2901,2,pos,30,pos30_id18_im11.bmp_pos30_id11_im10.bmp,['Im_RobertDowneyJr.png', 'Im_KeanuReeves.png', 'Im_LeonardoDiCaprio.png', 'Im_ElijahWood.png', 'Im_RobertPattinson.png', 'Im_JustinTimberlake.png', 'Im_RyanReynolds.png', 'Im_GeorgeClooney.png', 'Im_MattDamon.png', 'Im_HughJackman.png'],diff,1,0.8084583999998358,37,0,
DEMA2901,3,inv,120,pos120_id11_im1.bmp_pos120_id18_im19.bmp,['Im_RobertDowneyJr.png', 'Im_KeanuReeves.png', 'Im_LeonardoDiCaprio.png', 'Im_ElijahWood.png', 'Im_RobertPattinson.png', 'Im_JustinTimberlake.png', 'Im_RyanReynolds.png', 'Im_GeorgeClooney.png', 'Im_MattDamon.png', 'Im_HughJackman.png'],same,0,0.766715799999929,0,88.0952380952381,
DEMA2901,3,inv,fs,posfs_id21_im17.bmp_posfs_id14_im24.bmp,['Im_RobertDowneyJr.png', 'Im_KeanuReeves.png', 'Im_LeonardoDiCaprio.png', 'Im_ElijahWood.png', 'Im_RobertPattinson.png', 'Im_JustinTimberlake.png', 'Im_RyanReynolds.png', 'Im_GeorgeClooney.png', 'Im_MattDamon.png', 'Im_HughJackman.png'],diff,1,0.6002528999999868,1,88.0952380952381,
DEMA2901,3,inv,150,pos150_id10_im18.bmp_pos150_id11_im2.bmp,['Im_RobertDowneyJr.png', 'Im_KeanuReeves.png', 'Im_LeonardoDiCaprio.png', 'Im_ElijahWood.png', 'Im_RobertPattinson.png', 'Im_JustinTimberlake.png', 'Im_RyanReynolds.png', 'Im_GeorgeClooney.png', 'Im_MattDamon.png', 'Im_HughJackman.png'],diff,1,0.5750891999998657,2,88.0952380952381,
DEMA2901,3,inv,150,pos150_id18_im19.bmp_pos150_id13_im29.bmp,['Im_RobertDowneyJr.png', 'Im_KeanuReeves.png', 'Im_LeonardoDiCaprio.png', 'Im_ElijahWood.png', 'Im_RobertPattinson.png', 'Im_JustinTimberlake.png', 'Im_RyanReynolds.png', 'Im_GeorgeClooney.png', 'Im_MattDamon.png', 'Im_HughJackman.png'],diff,1,1.1835496000001058,3,88.0952380952381,
DEMA2901,3,inv,90,pos90_id13_im15.bmp_pos90_id7_im15.bmp,['Im_RobertDowneyJr.png', 'Im_KeanuReeves.png', 'Im_LeonardoDiCaprio.png', 'Im_ElijahWood.png', 'Im_RobertPattinson.png', 'Im_JustinTimberlake.png', 'Im_RyanReynolds.png', 'Im_GeorgeClooney.png', 'Im_MattDamon.png', 'Im_HughJackman.png'],diff,1,0.616707500000075,4,88.0952380952381,
DEMA2901,3,inv,120,pos120_id6_im18.bmp_pos120_id8_im13.bmp,['Im_RobertDowneyJr.png', 'Im_KeanuReeves.png', 'Im_LeonardoDiCaprio.png', 'Im_ElijahWood.png', 'Im_RobertPattinson.png', 'Im_JustinTimberlake.png', 'Im_RyanReynolds.png', 'Im_GeorgeClooney.png', 'Im_MattDamon.png', 'Im_HughJackman.png'],same,0,0.7918947000000571,4,88.0952380952381,
DEMA2901,3,inv,30,pos30_id14_im24.bmp_pos30_id6_im19.bmp,['Im_RobertDowneyJr.png', 'Im_KeanuReeves.png', 'Im_LeonardoDiCaprio.png', 'Im_ElijahWood.png', 'Im_RobertPattinson.png', 'Im_JustinTimberlake.png', 'Im_RyanReynolds.png', 'Im_GeorgeClooney.png', 'Im_MattDamon.png', 'Im_HughJackman.png'],diff,1,0.6417129000001296,5,88.0952380952381,
DEMA2901,3,inv,fs,posfs_id19_im27.bmp_posfs_id19_im4.bmp,['Im_RobertDowneyJr.png', 'Im_KeanuReeves.png', 'Im_LeonardoDiCaprio.png', 'Im_ElijahWood.png', 'Im_RobertPattinson.png', 'Im_JustinTimberlake.png', 'Im_RyanReynolds.png', 'Im_GeorgeClooney.png', 'Im_MattDamon.png', 'Im_HughJackman.png'],same,1,0.4586827999999059,6,88.0952380952381,
DEMA2901,3,inv,90,pos90_id13_im29.bmp_pos90_id13_im15.bmp,['Im_RobertDowneyJr.png', 'Im_KeanuReeves.png', 'Im_LeonardoDiCaprio.png', 'Im_ElijahWood.png', 'Im_RobertPattinson.png', 'Im_JustinTimberlake.png', 'Im_RyanReynolds.png', 'Im_GeorgeClooney.png', 'Im_MattDamon.png', 'Im_HughJackman.png'],same,1,0.6916191000000254,7,88.0952380952381,
DEMA2901,3,inv,0,pos0_id13_im15.bmp_pos0_id11_im1.bmp,['Im_RobertDowneyJr.png', 'Im_KeanuReeves.png', 'Im_LeonardoDiCaprio.png', 'Im_ElijahWood.png', 'Im_RobertPattinson.png', 'Im_JustinTimberlake.png', 'Im_RyanReynolds.png', 'Im_GeorgeClooney.png', 'Im_MattDamon.png', 'Im_HughJackman.png'],diff,1,0.4166017000000011,8,88.0952380952381,
DEMA2901,3,inv,0,pos0_id11_im1.bmp_pos0_id11_im2.bmp,['Im_RobertDowneyJr.png', 'Im_KeanuReeves.png', 'Im_LeonardoDiCaprio.png', 'Im_ElijahWood.png', 'Im_RobertPattinson.png', 'Im_JustinTimberlake.png', 'Im_RyanReynolds.png', 'Im_GeorgeClooney.png', 'Im_MattDamon.png', 'Im_HughJackman.png'],same,1,0.4334234000000379,9,88.0952380952381,
DEMA2901,3,inv,60,pos60_id10_im1.bmp_pos60_id10_im18.bmp,['Im_RobertDowneyJr.png', 'Im_KeanuReeves.png', 'Im_LeonardoDiCaprio.png', 'Im_ElijahWood.png', 'Im_RobertPattinson.png', 'Im_JustinTimberlake.png', 'Im_RyanReynolds.png', 'Im_GeorgeClooney.png', 'Im_MattDamon.png', 'Im_HughJackman.png'],same,1,1.5253439000000526,10,88.0952380952381,
DEMA2901,3,inv,30,pos30_id19_im8.bmp_pos30_id10_im18.bmp,['Im_RobertDowneyJr.png', 'Im_KeanuReeves.png', 'Im_LeonardoDiCaprio.png', 'Im_ElijahWood.png', 'Im_RobertPattinson.png', 'Im_JustinTimberlake.png', 'Im_RyanReynolds.png', 'Im_GeorgeClooney.png', 'Im_MattDamon.png', 'Im_HughJackman.png'],same,0,0.4168710999999803,10,88.0952380952381,
DEMA2901,3,inv,60,pos60_id14_im18.bmp_pos60_id10_im17.bmp,['Im_RobertDowneyJr.png', 'Im_KeanuReeves.png', 'Im_LeonardoDiCaprio.png', 'Im_ElijahWood.png', 'Im_RobertPattinson.png', 'Im_JustinTimberlake.png', 'Im_RyanReynolds.png', 'Im_GeorgeClooney.png', 'Im_MattDamon.png', 'Im_HughJackman.png'],diff,1,0.45018310000000383,11,88.0952380952381,
DEMA2901,4,pos,150,pos150_id18_im11.bmp_pos150_id18_im18.bmp,['Im_RobertDowneyJr.png', 'Im_KeanuReeves.png', 'Im_LeonardoDiCaprio.png', 'Im_ElijahWood.png', 'Im_RobertPattinson.png', 'Im_JustinTimberlake.png', 'Im_RyanReynolds.png', 'Im_GeorgeClooney.png', 'Im_MattDamon.png', 'Im_HughJackman.png'],same,1,0.40841390000014144,12,88.0952380952381,
DEMA2901,4,pos,0,pos0_id10_im18.bmp_pos0_id10_im17.bmp,['Im_RobertDowneyJr.png', 'Im_KeanuReeves.png', 'Im_LeonardoDiCaprio.png', 'Im_ElijahWood.png', 'Im_RobertPattinson.png', 'Im_JustinTimberlake.png', 'Im_RyanReynolds.png', 'Im_GeorgeClooney.png', 'Im_MattDamon.png', 'Im_HughJackman.png'],same,1,0.4250887999999122,13,88.0952380952381,
DEMA2901,4,pos,90,pos90_id8_im20.bmp_pos90_id8_im21.bmp,['Im_RobertDowneyJr.png', 'Im_KeanuReeves.png', 'Im_LeonardoDiCaprio.png', 'Im_ElijahWood.png', 'Im_RobertPattinson.png', 'Im_JustinTimberlake.png', 'Im_RyanReynolds.png', 'Im_GeorgeClooney.png', 'Im_MattDamon.png', 'Im_HughJackman.png'],same,1,0.43358319999993,14,88.0952380952381,
DEMA2901,4,pos,0,pos0_id19_im4.bmp_pos0_id19_im8.bmp,['Im_RobertDowneyJr.png', 'Im_KeanuReeves.png', 'Im_LeonardoDiCaprio.png', 'Im_ElijahWood.png', 'Im_RobertPattinson.png', 'Im_JustinTimberlake.png', 'Im_RyanReynolds.png', 'Im_GeorgeClooney.png', 'Im_MattDamon.png', 'Im_HughJackman.png'],same,1,0.4166322000000946,15,88.0952380952381,
DEMA2901,4,pos,60,pos60_id7_im26.bmp_pos60_id13_im10.bmp,['Im_RobertDowneyJr.png', 'Im_KeanuReeves.png', 'Im_LeonardoDiCaprio.png', 'Im_ElijahWood.png', 'Im_RobertPattinson.png', 'Im_JustinTimberlake.png', 'Im_RyanReynolds.png', 'Im_GeorgeClooney.png', 'Im_MattDamon.png', 'Im_HughJackman.png'],diff,1,0.4254660999999942,16,88.0952380952381,
DEMA2901,4,pos,120,pos120_id18_im18.bmp_pos120_id8_im20.bmp,['Im_RobertDowneyJr.png', 'Im_KeanuReeves.png', 'Im_LeonardoDiCaprio.png', 'Im_ElijahWood.png', 'Im_RobertPattinson.png', 'Im_JustinTimberlake.png', 'Im_RyanReynolds.png', 'Im_GeorgeClooney.png', 'Im_MattDamon.png', 'Im_HughJackman.png'],diff,1,0.4248267999998916,17,88.0952380952381,
DEMA2901,4,pos,150,pos150_id6_im19.bmp_pos150_id6_im12.bmp,['Im_RobertDowneyJr.png', 'Im_KeanuReeves.png', 'Im_LeonardoDiCaprio.png', 'Im_ElijahWood.png', 'Im_RobertPattinson.png', 'Im_JustinTimberlake.png', 'Im_RyanReynolds.png', 'Im_GeorgeClooney.png', 'Im_MattDamon.png', 'Im_HughJackman.png'],same,1,0.6086531000000832,18,88.0952380952381,
DEMA2901,4,pos,60,pos60_id6_im19.bmp_pos60_id6_im12.bmp,['Im_RobertDowneyJr.png', 'Im_KeanuReeves.png', 'Im_LeonardoDiCaprio.png', 'Im_ElijahWood.png', 'Im_RobertPattinson.png', 'Im_JustinTimberlake.png', 'Im_RyanReynolds.png', 'Im_GeorgeClooney.png', 'Im_MattDamon.png', 'Im_HughJackman.png'],same,1,0.41658029999985047,19,88.0952380952381,
DEMA2901,4,pos,120,pos120_id11_im2.bmp_pos120_id11_im10.bmp,['Im_RobertDowneyJr.png', 'Im_KeanuReeves.png', 'Im_LeonardoDiCaprio.png', 'Im_ElijahWood.png', 'Im_RobertPattinson.png', 'Im_JustinTimberlake.png', 'Im_RyanReynolds.png', 'Im_GeorgeClooney.png', 'Im_MattDamon.png', 'Im_HughJackman.png'],same,1,0.41662189999988186,20,88.0952380952381,
DEMA2901,4,pos,fs,posfs_id6_im19.bmp_posfs_id6_im12.bmp,['Im_RobertDowneyJr.png', 'Im_KeanuReeves.png', 'Im_LeonardoDiCaprio.png', 'Im_ElijahWood.png', 'Im_RobertPattinson.png', 'Im_JustinTimberlake.png', 'Im_RyanReynolds.png', 'Im_GeorgeClooney.png', 'Im_MattDamon.png', 'Im_HughJackman.png'],same,1,0.5917631000002075,21,88.0952380952381,
DEMA2901,4,pos,90,pos90_id10_im17.bmp_pos90_id21_im17.bmp,['Im_RobertDowneyJr.png', 'Im_KeanuReeves.png', 'Im_LeonardoDiCaprio.png', 'Im_ElijahWood.png', 'Im_RobertPattinson.png', 'Im_JustinTimberlake.png', 'Im_RyanReynolds.png', 'Im_GeorgeClooney.png', 'Im_MattDamon.png', 'Im_HughJackman.png'],diff,1,0.41658800000004703,22,88.0952380952381,
DEMA2901,4,pos,30,pos30_id18_im11.bmp_pos30_id6_im12.bmp,['Im_RobertDowneyJr.png', 'Im_KeanuReeves.png', 'Im_LeonardoDiCaprio.png', 'Im_ElijahWood.png', 'Im_RobertPattinson.png', 'Im_JustinTimberlake.png', 'Im_RyanReynolds.png', 'Im_GeorgeClooney.png', 'Im_MattDamon.png', 'Im_HughJackman.png'],diff,1,0.4083697999999458,23,88.0952380952381,
DEMA2901,4,pos,30,pos30_id7_im14.bmp_pos30_id7_im26.bmp,['Im_RobertDowneyJr.png', 'Im_KeanuReeves.png', 'Im_LeonardoDiCaprio.png', 'Im_ElijahWood.png', 'Im_RobertPattinson.png', 'Im_JustinTimberlake.png', 'Im_RyanReynolds.png', 'Im_GeorgeClooney.png', 'Im_MattDamon.png', 'Im_HughJackman.png'],same,1,0.4249030999999377,24,88.0952380952381,
DEMA2901,4,pos,fs,posfs_id21_im22.bmp_posfs_id14_im16.bmp,['Im_RobertDowneyJr.png', 'Im_KeanuReeves.png', 'Im_LeonardoDiCaprio.png', 'Im_ElijahWood.png', 'Im_RobertPattinson.png', 'Im_JustinTimberlake.png', 'Im_RyanReynolds.png', 'Im_GeorgeClooney.png', 'Im_MattDamon.png', 'Im_HughJackman.png'],diff,1,0.4168220999999903,25,88.0952380952381,
DEMA2901,5,neg,150,neg150_id11_im10.bmp_neg150_id14_im16.bmp,['Im_RobertDowneyJr.png', 'Im_KeanuReeves.png', 'Im_LeonardoDiCaprio.png', 'Im_ElijahWood.png', 'Im_RobertPattinson.png', 'Im_JustinTimberlake.png', 'Im_RyanReynolds.png', 'Im_GeorgeClooney.png', 'Im_MattDamon.png', 'Im_HughJackman.png'],diff,1,0.5918927000000167,26,88.0952380952381,
DEMA2901,5,neg,60,neg60_id13_im15.bmp_neg60_id7_im15.bmp,['Im_RobertDowneyJr.png', 'Im_KeanuReeves.png', 'Im_LeonardoDiCaprio.png', 'Im_ElijahWood.png', 'Im_RobertPattinson.png', 'Im_JustinTimberlake.png', 'Im_RyanReynolds.png', 'Im_GeorgeClooney.png', 'Im_MattDamon.png', 'Im_HughJackman.png'],diff,1,0.5255743000000166,27,88.0952380952381,
DEMA2901,5,neg,90,neg90_id19_im27.bmp_neg90_id19_im4.bmp,['Im_RobertDowneyJr.png', 'Im_KeanuReeves.png', 'Im_LeonardoDiCaprio.png', 'Im_ElijahWood.png', 'Im_RobertPattinson.png', 'Im_JustinTimberlake.png', 'Im_RyanReynolds.png', 'Im_GeorgeClooney.png', 'Im_MattDamon.png', 'Im_HughJackman.png'],same,1,0.53443029999994,28,88.0952380952381,
DEMA2901,5,neg,0,neg0_id11_im2.bmp_neg0_id11_im1.bmp,['Im_RobertDowneyJr.png', 'Im_KeanuReeves.png', 'Im_LeonardoDiCaprio.png', 'Im_ElijahWood.png', 'Im_RobertPattinson.png', 'Im_JustinTimberlake.png', 'Im_RyanReynolds.png', 'Im_GeorgeClooney.png', 'Im_MattDamon.png', 'Im_HughJackman.png'],same,1,0.7004057999999986,29,88.0952380952381,
DEMA2901,5,neg,fs,negfs_id8_im20.bmp_negfs_id8_im13.bmp,['Im_RobertDowneyJr.png', 'Im_KeanuReeves.png', 'Im_LeonardoDiCaprio.png', 'Im_ElijahWood.png', 'Im_RobertPattinson.png', 'Im_JustinTimberlake.png', 'Im_RyanReynolds.png', 'Im_GeorgeClooney.png', 'Im_MattDamon.png', 'Im_HughJackman.png'],same,1,0.5583294999998998,30,88.0952380952381,
DEMA2901,5,neg,120,neg120_id6_im19.bmp_neg120_id14_im18.bmp,['Im_RobertDowneyJr.png', 'Im_KeanuReeves.png', 'Im_LeonardoDiCaprio.png', 'Im_ElijahWood.png', 'Im_RobertPattinson.png', 'Im_JustinTimberlake.png', 'Im_RyanReynolds.png', 'Im_GeorgeClooney.png', 'Im_MattDamon.png', 'Im_HughJackman.png'],diff,1,0.6749434000000747,31,88.0952380952381,
DEMA2901,5,neg,60,neg60_id7_im15.bmp_neg60_id19_im4.bmp,['Im_RobertDowneyJr.png', 'Im_KeanuReeves.png', 'Im_LeonardoDiCaprio.png', 'Im_ElijahWood.png', 'Im_RobertPattinson.png', 'Im_JustinTimberlake.png', 'Im_RyanReynolds.png', 'Im_GeorgeClooney.png', 'Im_MattDamon.png', 'Im_HughJackman.png'],diff,1,1.1082718000000114,32,88.0952380952381,
DEMA2901,5,neg,120,neg120_id11_im1.bmp_neg120_id18_im19.bmp,['Im_RobertDowneyJr.png', 'Im_KeanuReeves.png', 'Im_LeonardoDiCaprio.png', 'Im_ElijahWood.png', 'Im_RobertPattinson.png', 'Im_JustinTimberlake.png', 'Im_RyanReynolds.png', 'Im_GeorgeClooney.png', 'Im_MattDamon.png', 'Im_HughJackman.png'],diff,1,0.4583863000000292,33,88.0952380952381,
DEMA2901,5,neg,fs,negfs_id7_im26.bmp_negfs_id7_im14.bmp,['Im_RobertDowneyJr.png', 'Im_KeanuReeves.png', 'Im_LeonardoDiCaprio.png', 'Im_ElijahWood.png', 'Im_RobertPattinson.png', 'Im_JustinTimberlake.png', 'Im_RyanReynolds.png', 'Im_GeorgeClooney.png', 'Im_MattDamon.png', 'Im_HughJackman.png'],same,1,0.5499580999999125,34,88.0952380952381,
DEMA2901,5,neg,30,neg30_id8_im20.bmp_neg30_id19_im27.bmp,['Im_RobertDowneyJr.png', 'Im_KeanuReeves.png', 'Im_LeonardoDiCaprio.png', 'Im_ElijahWood.png', 'Im_RobertPattinson.png', 'Im_JustinTimberlake.png', 'Im_RyanReynolds.png', 'Im_GeorgeClooney.png', 'Im_MattDamon.png', 'Im_HughJackman.png'],diff,1,0.6839608000000226,35,88.0952380952381,
DEMA2901,5,neg,150,neg150_id21_im16.bmp_neg150_id11_im2.bmp,['Im_RobertDowneyJr.png', 'Im_KeanuReeves.png', 'Im_LeonardoDiCaprio.png', 'Im_ElijahWood.png', 'Im_RobertPattinson.png', 'Im_JustinTimberlake.png', 'Im_RyanReynolds.png', 'Im_GeorgeClooney.png', 'Im_MattDamon.png', 'Im_HughJackman.png'],diff,1,0.524994500000048,36,88.0952380952381,
DEMA2901,5,neg,0,neg0_id13_im10.bmp_neg0_id13_im29.bmp,['Im_RobertDowneyJr.png', 'Im_KeanuReeves.png', 'Im_LeonardoDiCaprio.png', 'Im_ElijahWood.png', 'Im_RobertPattinson.png', 'Im_JustinTimberlake.png', 'Im_RyanReynolds.png', 'Im_GeorgeClooney.png', 'Im_MattDamon.png', 'Im_HughJackman.png'],same,1,0.666733099999874,37,88.0952380952381,
DEMA2901,5,neg,30,neg30_id10_im17.bmp_neg30_id10_im18.bmp,['Im_RobertDowneyJr.png', 'Im_KeanuReeves.png', 'Im_LeonardoDiCaprio.png', 'Im_ElijahWood.png', 'Im_RobertPattinson.png', 'Im_JustinTimberlake.png', 'Im_RyanReynolds.png', 'Im_GeorgeClooney.png', 'Im_MattDamon.png', 'Im_HughJackman.png'],same,1,0.5502557999998317,38,88.0952380952381,
DEMA2901,5,neg,90,neg90_id10_im1.bmp_neg90_id7_im14.bmp,['Im_RobertDowneyJr.png', 'Im_KeanuReeves.png', 'Im_LeonardoDiCaprio.png', 'Im_ElijahWood.png', 'Im_RobertPattinson.png', 'Im_JustinTimberlake.png', 'Im_RyanReynolds.png', 'Im_GeorgeClooney.png', 'Im_MattDamon.png', 'Im_HughJackman.png'],diff,1,0.4500696000000062,39,88.0952380952381,
DEMA2901,6,inv,120,pos120_id6_im12.bmp_pos120_id6_im18.bmp,['Im_RobertDowneyJr.png', 'Im_KeanuReeves.png', 'Im_LeonardoDiCaprio.png', 'Im_ElijahWood.png', 'Im_RobertPattinson.png', 'Im_JustinTimberlake.png', 'Im_RyanReynolds.png', 'Im_GeorgeClooney.png', 'Im_MattDamon.png', 'Im_HughJackman.png'],same,1,0.816638600000033,1,92.85714285714286,
DEMA2901,6,inv,150,pos150_id21_im16.bmp_pos150_id21_im22.bmp,['Im_RobertDowneyJr.png', 'Im_KeanuReeves.png', 'Im_LeonardoDiCaprio.png', 'Im_ElijahWood.png', 'Im_RobertPattinson.png', 'Im_JustinTimberlake.png', 'Im_RyanReynolds.png', 'Im_GeorgeClooney.png', 'Im_MattDamon.png', 'Im_HughJackman.png'],same,1,0.44187140000008185,2,92.85714285714286,
DEMA2901,6,inv,120,pos120_id21_im16.bmp_pos120_id21_im22.bmp,['Im_RobertDowneyJr.png', 'Im_KeanuReeves.png', 'Im_LeonardoDiCaprio.png', 'Im_ElijahWood.png', 'Im_RobertPattinson.png', 'Im_JustinTimberlake.png', 'Im_RyanReynolds.png', 'Im_GeorgeClooney.png', 'Im_MattDamon.png', 'Im_HughJackman.png'],same,1,0.683619599999929,3,92.85714285714286,
DEMA2901,6,inv,30,pos30_id19_im27.bmp_pos30_id8_im20.bmp,['Im_RobertDowneyJr.png', 'Im_KeanuReeves.png', 'Im_LeonardoDiCaprio.png', 'Im_ElijahWood.png', 'Im_RobertPattinson.png', 'Im_JustinTimberlake.png', 'Im_RyanReynolds.png', 'Im_GeorgeClooney.png', 'Im_MattDamon.png', 'Im_HughJackman.png'],diff,1,0.43338660000017626,4,92.85714285714286,
DEMA2901,6,inv,90,pos90_id13_im15.bmp_pos90_id11_im1.bmp,['Im_RobertDowneyJr.png', 'Im_KeanuReeves.png', 'Im_LeonardoDiCaprio.png', 'Im_ElijahWood.png', 'Im_RobertPattinson.png', 'Im_JustinTimberlake.png', 'Im_RyanReynolds.png', 'Im_GeorgeClooney.png', 'Im_MattDamon.png', 'Im_HughJackman.png'],diff,1,0.900059100000135,5,92.85714285714286,
DEMA2901,6,inv,fs,posfs_id6_im12.bmp_posfs_id6_im19.bmp,['Im_RobertDowneyJr.png', 'Im_KeanuReeves.png', 'Im_LeonardoDiCaprio.png', 'Im_ElijahWood.png', 'Im_RobertPattinson.png', 'Im_JustinTimberlake.png', 'Im_RyanReynolds.png', 'Im_GeorgeClooney.png', 'Im_MattDamon.png', 'Im_HughJackman.png'],same,1,0.40843759999984286,6,92.85714285714286,
DEMA2901,6,inv,fs,posfs_id13_im15.bmp_posfs_id13_im10.bmp,['Im_RobertDowneyJr.png', 'Im_KeanuReeves.png', 'Im_LeonardoDiCaprio.png', 'Im_ElijahWood.png', 'Im_RobertPattinson.png', 'Im_JustinTimberlake.png', 'Im_RyanReynolds.png', 'Im_GeorgeClooney.png', 'Im_MattDamon.png', 'Im_HughJackman.png'],same,1,0.4251375999999709,7,92.85714285714286,
DEMA2901,6,inv,60,pos60_id11_im1.bmp_pos60_id13_im15.bmp,['Im_RobertDowneyJr.png', 'Im_KeanuReeves.png', 'Im_LeonardoDiCaprio.png', 'Im_ElijahWood.png', 'Im_RobertPattinson.png', 'Im_JustinTimberlake.png', 'Im_RyanReynolds.png', 'Im_GeorgeClooney.png', 'Im_MattDamon.png', 'Im_HughJackman.png'],diff,1,0.8417565000002014,8,92.85714285714286,
DEMA2901,6,inv,0,pos0_id14_im16.bmp_pos0_id14_im24.bmp,['Im_RobertDowneyJr.png', 'Im_KeanuReeves.png', 'Im_LeonardoDiCaprio.png', 'Im_ElijahWood.png', 'Im_RobertPattinson.png', 'Im_JustinTimberlake.png', 'Im_RyanReynolds.png', 'Im_GeorgeClooney.png', 'Im_MattDamon.png', 'Im_HughJackman.png'],same,1,0.7833330000000842,9,92.85714285714286,
DEMA2901,6,inv,90,pos90_id7_im14.bmp_pos90_id7_im26.bmp,['Im_RobertDowneyJr.png', 'Im_KeanuReeves.png', 'Im_LeonardoDiCaprio.png', 'Im_ElijahWood.png', 'Im_RobertPattinson.png', 'Im_JustinTimberlake.png', 'Im_RyanReynolds.png', 'Im_GeorgeClooney.png', 'Im_MattDamon.png', 'Im_HughJackman.png'],same,1,0.7588195000000724,10,92.85714285714286,
DEMA2901,6,inv,60,pos60_id13_im29.bmp_pos60_id13_im10.bmp,['Im_RobertDowneyJr.png', 'Im_KeanuReeves.png', 'Im_LeonardoDiCaprio.png', 'Im_ElijahWood.png', 'Im_RobertPattinson.png', 'Im_JustinTimberlake.png', 'Im_RyanReynolds.png', 'Im_GeorgeClooney.png', 'Im_MattDamon.png', 'Im_HughJackman.png'],same,1,0.4750884000000042,11,92.85714285714286,
DEMA2901,6,inv,0,pos0_id10_im17.bmp_pos0_id10_im1.bmp,['Im_RobertDowneyJr.png', 'Im_KeanuReeves.png', 'Im_LeonardoDiCaprio.png', 'Im_ElijahWood.png', 'Im_RobertPattinson.png', 'Im_JustinTimberlake.png', 'Im_RyanReynolds.png', 'Im_GeorgeClooney.png', 'Im_MattDamon.png', 'Im_HughJackman.png'],same,1,0.5752462000000378,12,92.85714285714286,
DEMA2901,6,inv,30,pos30_id10_im18.bmp_pos30_id10_im17.bmp,['Im_RobertDowneyJr.png', 'Im_KeanuReeves.png', 'Im_LeonardoDiCaprio.png', 'Im_ElijahWood.png', 'Im_RobertPattinson.png', 'Im_JustinTimberlake.png', 'Im_RyanReynolds.png', 'Im_GeorgeClooney.png', 'Im_MattDamon.png', 'Im_HughJackman.png'],same,1,0.46695180000006076,13,92.85714285714286,
DEMA2901,6,inv,150,pos150_id14_im24.bmp_pos150_id21_im17.bmp,['Im_RobertDowneyJr.png', 'Im_KeanuReeves.png', 'Im_LeonardoDiCaprio.png', 'Im_ElijahWood.png', 'Im_RobertPattinson.png', 'Im_JustinTimberlake.png', 'Im_RyanReynolds.png', 'Im_GeorgeClooney.png', 'Im_MattDamon.png', 'Im_HughJackman.png'],diff,1,0.5083740000000034,14,92.85714285714286,
DEMA2901,7,pos,fs,posfs_id6_im19.bmp_posfs_id14_im24.bmp,['Im_RobertDowneyJr.png', 'Im_KeanuReeves.png', 'Im_LeonardoDiCaprio.png', 'Im_ElijahWood.png', 'Im_RobertPattinson.png', 'Im_JustinTimberlake.png', 'Im_RyanReynolds.png', 'Im_GeorgeClooney.png', 'Im_MattDamon.png', 'Im_HughJackman.png'],diff,1,0.41668000000004213,15,92.85714285714286,
DEMA2901,7,pos,60,pos60_id8_im20.bmp_pos60_id8_im21.bmp,['Im_RobertDowneyJr.png', 'Im_KeanuReeves.png', 'Im_LeonardoDiCaprio.png', 'Im_ElijahWood.png', 'Im_RobertPattinson.png', 'Im_JustinTimberlake.png', 'Im_RyanReynolds.png', 'Im_GeorgeClooney.png', 'Im_MattDamon.png', 'Im_HughJackman.png'],same,1,0.5920183999999153,16,92.85714285714286,
DEMA2901,7,pos,fs,posfs_id18_im18.bmp_posfs_id18_im19.bmp,['Im_RobertDowneyJr.png', 'Im_KeanuReeves.png', 'Im_LeonardoDiCaprio.png', 'Im_ElijahWood.png', 'Im_RobertPattinson.png', 'Im_JustinTimberlake.png', 'Im_RyanReynolds.png', 'Im_GeorgeClooney.png', 'Im_MattDamon.png', 'Im_HughJackman.png'],same,1,0.8504235000000335,17,92.85714285714286,
DEMA2901,7,pos,90,pos90_id21_im22.bmp_pos90_id14_im16.bmp,['Im_RobertDowneyJr.png', 'Im_KeanuReeves.png', 'Im_LeonardoDiCaprio.png', 'Im_ElijahWood.png', 'Im_RobertPattinson.png', 'Im_JustinTimberlake.png', 'Im_RyanReynolds.png', 'Im_GeorgeClooney.png', 'Im_MattDamon.png', 'Im_HughJackman.png'],diff,1,0.42505159999996067,18,92.85714285714286,
DEMA2901,7,pos,30,pos30_id10_im17.bmp_pos30_id10_im1.bmp,['Im_RobertDowneyJr.png', 'Im_KeanuReeves.png', 'Im_LeonardoDiCaprio.png', 'Im_ElijahWood.png', 'Im_RobertPattinson.png', 'Im_JustinTimberlake.png', 'Im_RyanReynolds.png', 'Im_GeorgeClooney.png', 'Im_MattDamon.png', 'Im_HughJackman.png'],same,1,0.5332902000000104,19,92.85714285714286,
DEMA2901,7,pos,0,pos0_id8_im20.bmp_pos0_id8_im13.bmp,['Im_RobertDowneyJr.png', 'Im_KeanuReeves.png', 'Im_LeonardoDiCaprio.png', 'Im_ElijahWood.png', 'Im_RobertPattinson.png', 'Im_JustinTimberlake.png', 'Im_RyanReynolds.png', 'Im_GeorgeClooney.png', 'Im_MattDamon.png', 'Im_HughJackman.png'],same,1,0.45878399999992325,20,92.85714285714286,
DEMA2901,7,pos,90,pos90_id11_im1.bmp_pos90_id18_im19.bmp,['Im_RobertDowneyJr.png', 'Im_KeanuReeves.png', 'Im_LeonardoDiCaprio.png', 'Im_ElijahWood.png', 'Im_RobertPattinson.png', 'Im_JustinTimberlake.png', 'Im_RyanReynolds.png', 'Im_GeorgeClooney.png', 'Im_MattDamon.png', 'Im_HughJackman.png'],diff,1,0.4336958000001232,21,92.85714285714286,
DEMA2901,7,pos,120,pos120_id21_im17.bmp_pos120_id21_im22.bmp,['Im_RobertDowneyJr.png', 'Im_KeanuReeves.png', 'Im_LeonardoDiCaprio.png', 'Im_ElijahWood.png', 'Im_RobertPattinson.png', 'Im_JustinTimberlake.png', 'Im_RyanReynolds.png', 'Im_GeorgeClooney.png', 'Im_MattDamon.png', 'Im_HughJackman.png'],same,1,0.4670814999999493,22,92.85714285714286,
DEMA2901,7,pos,60,pos60_id11_im10.bmp_pos60_id18_im11.bmp,['Im_RobertDowneyJr.png', 'Im_KeanuReeves.png', 'Im_LeonardoDiCaprio.png', 'Im_ElijahWood.png', 'Im_RobertPattinson.png', 'Im_JustinTimberlake.png', 'Im_RyanReynolds.png', 'Im_GeorgeClooney.png', 'Im_MattDamon.png', 'Im_HughJackman.png'],diff,1,0.541626499999893,23,92.85714285714286,
DEMA2901,7,pos,30,pos30_id8_im21.bmp_pos30_id21_im22.bmp,['Im_RobertDowneyJr.png', 'Im_KeanuReeves.png', 'Im_LeonardoDiCaprio.png', 'Im_ElijahWood.png', 'Im_RobertPattinson.png', 'Im_JustinTimberlake.png', 'Im_RyanReynolds.png', 'Im_GeorgeClooney.png', 'Im_MattDamon.png', 'Im_HughJackman.png'],diff,1,0.4168769999998858,24,92.85714285714286,
DEMA2901,7,pos,150,pos150_id21_im16.bmp_pos150_id21_im17.bmp,['Im_RobertDowneyJr.png', 'Im_KeanuReeves.png', 'Im_LeonardoDiCaprio.png', 'Im_ElijahWood.png', 'Im_RobertPattinson.png', 'Im_JustinTimberlake.png', 'Im_RyanReynolds.png', 'Im_GeorgeClooney.png', 'Im_MattDamon.png', 'Im_HughJackman.png'],same,1,0.43345179999982975,25,92.85714285714286,
DEMA2901,7,pos,120,pos120_id13_im10.bmp_pos120_id7_im26.bmp,['Im_RobertDowneyJr.png', 'Im_KeanuReeves.png', 'Im_LeonardoDiCaprio.png', 'Im_ElijahWood.png', 'Im_RobertPattinson.png', 'Im_JustinTimberlake.png', 'Im_RyanReynolds.png', 'Im_GeorgeClooney.png', 'Im_MattDamon.png', 'Im_HughJackman.png'],diff,1,0.43322439999997187,26,92.85714285714286,
DEMA2901,7,pos,150,pos150_id13_im10.bmp_pos150_id7_im26.bmp,['Im_RobertDowneyJr.png', 'Im_KeanuReeves.png', 'Im_LeonardoDiCaprio.png', 'Im_ElijahWood.png', 'Im_RobertPattinson.png', 'Im_JustinTimberlake.png', 'Im_RyanReynolds.png', 'Im_GeorgeClooney.png', 'Im_MattDamon.png', 'Im_HughJackman.png'],diff,1,0.42497709999997824,27,92.85714285714286,
DEMA2901,7,pos,0,pos0_id8_im21.bmp_pos0_id8_im13.bmp,['Im_RobertDowneyJr.png', 'Im_KeanuReeves.png', 'Im_LeonardoDiCaprio.png', 'Im_ElijahWood.png', 'Im_RobertPattinson.png', 'Im_JustinTimberlake.png', 'Im_RyanReynolds.png', 'Im_GeorgeClooney.png', 'Im_MattDamon.png', 'Im_HughJackman.png'],same,1,0.4502132999998594,28,92.85714285714286,
DEMA2901,8,inv,30,pos30_id18_im18.bmp_pos30_id18_im11.bmp,['Im_RobertDowneyJr.png', 'Im_KeanuReeves.png', 'Im_LeonardoDiCaprio.png', 'Im_ElijahWood.png', 'Im_RobertPattinson.png', 'Im_JustinTimberlake.png', 'Im_RyanReynolds.png', 'Im_GeorgeClooney.png', 'Im_MattDamon.png', 'Im_HughJackman.png'],diff,0,0.7252910999998221,28,92.85714285714286,
DEMA2901,8,inv,30,pos30_id10_im18.bmp_pos30_id11_im2.bmp,['Im_RobertDowneyJr.png', 'Im_KeanuReeves.png', 'Im_LeonardoDiCaprio.png', 'Im_ElijahWood.png', 'Im_RobertPattinson.png', 'Im_JustinTimberlake.png', 'Im_RyanReynolds.png', 'Im_GeorgeClooney.png', 'Im_MattDamon.png', 'Im_HughJackman.png'],diff,1,0.41687850000016624,29,92.85714285714286,
DEMA2901,8,inv,150,pos150_id14_im16.bmp_pos150_id14_im18.bmp,['Im_RobertDowneyJr.png', 'Im_KeanuReeves.png', 'Im_LeonardoDiCaprio.png', 'Im_ElijahWood.png', 'Im_RobertPattinson.png', 'Im_JustinTimberlake.png', 'Im_RyanReynolds.png', 'Im_GeorgeClooney.png', 'Im_MattDamon.png', 'Im_HughJackman.png'],same,1,0.8003193000001829,30,92.85714285714286,
DEMA2901,8,inv,120,pos120_id21_im16.bmp_pos120_id11_im2.bmp,['Im_RobertDowneyJr.png', 'Im_KeanuReeves.png', 'Im_LeonardoDiCaprio.png', 'Im_ElijahWood.png', 'Im_RobertPattinson.png', 'Im_JustinTimberlake.png', 'Im_RyanReynolds.png', 'Im_GeorgeClooney.png', 'Im_MattDamon.png', 'Im_HughJackman.png'],diff,1,0.41676459999985127,31,92.85714285714286,
DEMA2901,8,inv,60,pos60_id11_im2.bmp_pos60_id11_im10.bmp,['Im_RobertDowneyJr.png', 'Im_KeanuReeves.png', 'Im_LeonardoDiCaprio.png', 'Im_ElijahWood.png', 'Im_RobertPattinson.png', 'Im_JustinTimberlake.png', 'Im_RyanReynolds.png', 'Im_GeorgeClooney.png', 'Im_MattDamon.png', 'Im_HughJackman.png'],same,1,1.0751608000000488,32,92.85714285714286,
DEMA2901,8,inv,150,pos150_id18_im18.bmp_pos150_id18_im19.bmp,['Im_RobertDowneyJr.png', 'Im_KeanuReeves.png', 'Im_LeonardoDiCaprio.png', 'Im_ElijahWood.png', 'Im_RobertPattinson.png', 'Im_JustinTimberlake.png', 'Im_RyanReynolds.png', 'Im_GeorgeClooney.png', 'Im_MattDamon.png', 'Im_HughJackman.png'],same,1,1.2169639000001098,33,92.85714285714286,
DEMA2901,8,inv,0,pos0_id10_im17.bmp_pos0_id10_im18.bmp,['Im_RobertDowneyJr.png', 'Im_KeanuReeves.png', 'Im_LeonardoDiCaprio.png', 'Im_ElijahWood.png', 'Im_RobertPattinson.png', 'Im_JustinTimberlake.png', 'Im_RyanReynolds.png', 'Im_GeorgeClooney.png', 'Im_MattDamon.png', 'Im_HughJackman.png'],same,1,1.150200600000062,34,92.85714285714286,
DEMA2901,8,inv,0,pos0_id13_im29.bmp_pos0_id8_im13.bmp,['Im_RobertDowneyJr.png', 'Im_KeanuReeves.png', 'Im_LeonardoDiCaprio.png', 'Im_ElijahWood.png', 'Im_RobertPattinson.png', 'Im_JustinTimberlake.png', 'Im_RyanReynolds.png', 'Im_GeorgeClooney.png', 'Im_MattDamon.png', 'Im_HughJackman.png'],diff,1,0.9670054000000619,35,92.85714285714286,
DEMA2901,8,inv,120,pos120_id18_im19.bmp_pos120_id13_im29.bmp,['Im_RobertDowneyJr.png', 'Im_KeanuReeves.png', 'Im_LeonardoDiCaprio.png', 'Im_ElijahWood.png', 'Im_RobertPattinson.png', 'Im_JustinTimberlake.png', 'Im_RyanReynolds.png', 'Im_GeorgeClooney.png', 'Im_MattDamon.png', 'Im_HughJackman.png'],diff,1,0.45847939999998744,36,92.85714285714286,
DEMA2901,8,inv,60,pos60_id6_im18.bmp_pos60_id6_im19.bmp,['Im_RobertDowneyJr.png', 'Im_KeanuReeves.png', 'Im_LeonardoDiCaprio.png', 'Im_ElijahWood.png', 'Im_RobertPattinson.png', 'Im_JustinTimberlake.png', 'Im_RyanReynolds.png', 'Im_GeorgeClooney.png', 'Im_MattDamon.png', 'Im_HughJackman.png'],same,1,0.7002337999999781,37,92.85714285714286,
DEMA2901,8,inv,fs,posfs_id21_im16.bmp_posfs_id11_im2.bmp,['Im_RobertDowneyJr.png', 'Im_KeanuReeves.png', 'Im_LeonardoDiCaprio.png', 'Im_ElijahWood.png', 'Im_RobertPattinson.png', 'Im_JustinTimberlake.png', 'Im_RyanReynolds.png', 'Im_GeorgeClooney.png', 'Im_MattDamon.png', 'Im_HughJackman.png'],diff,1,0.4249990999999227,38,92.85714285714286,
DEMA2901,8,inv,90,pos90_id10_im1.bmp_pos90_id10_im17.bmp,['Im_RobertDowneyJr.png', 'Im_KeanuReeves.png', 'Im_LeonardoDiCaprio.png', 'Im_ElijahWood.png', 'Im_RobertPattinson.png', 'Im_JustinTimberlake.png', 'Im_RyanReynolds.png', 'Im_GeorgeClooney.png', 'Im_MattDamon.png', 'Im_HughJackman.png'],same,1,0.6671266999999261,39,92.85714285714286,
DEMA2901,8,inv,90,pos90_id14_im16.bmp_pos90_id14_im24.bmp,['Im_RobertDowneyJr.png', 'Im_KeanuReeves.png', 'Im_LeonardoDiCaprio.png', 'Im_ElijahWood.png', 'Im_RobertPattinson.png', 'Im_JustinTimberlake.png', 'Im_RyanReynolds.png', 'Im_GeorgeClooney.png', 'Im_MattDamon.png', 'Im_HughJackman.png'],same,1,1.1668664999999692,40,92.85714285714286,
DEMA2901,8,inv,fs,posfs_id10_im17.bmp_posfs_id21_im17.bmp,['Im_RobertDowneyJr.png', 'Im_KeanuReeves.png', 'Im_LeonardoDiCaprio.png', 'Im_ElijahWood.png', 'Im_RobertPattinson.png', 'Im_JustinTimberlake.png', 'Im_RyanReynolds.png', 'Im_GeorgeClooney.png', 'Im_MattDamon.png', 'Im_HughJackman.png'],diff,1,0.43357719999994515,41,92.85714285714286,
DEMA2901,9,neg,90,neg90_id18_im18.bmp_neg90_id8_im20.bmp,['Im_RobertDowneyJr.png', 'Im_KeanuReeves.png', 'Im_LeonardoDiCaprio.png', 'Im_ElijahWood.png', 'Im_RobertPattinson.png', 'Im_JustinTimberlake.png', 'Im_RyanReynolds.png', 'Im_GeorgeClooney.png', 'Im_MattDamon.png', 'Im_HughJackman.png'],diff,1,0.4167064000000664,1,97.61904761904762,
DEMA2901,9,neg,90,neg90_id6_im18.bmp_neg90_id6_im19.bmp,['Im_RobertDowneyJr.png', 'Im_KeanuReeves.png', 'Im_LeonardoDiCaprio.png', 'Im_ElijahWood.png', 'Im_RobertPattinson.png', 'Im_JustinTimberlake.png', 'Im_RyanReynolds.png', 'Im_GeorgeClooney.png', 'Im_MattDamon.png', 'Im_HughJackman.png'],same,1,1.5001861999999164,2,97.61904761904762,
DEMA2901,9,neg,0,neg0_id10_im17.bmp_neg0_id10_im1.bmp,['Im_RobertDowneyJr.png', 'Im_KeanuReeves.png', 'Im_LeonardoDiCaprio.png', 'Im_ElijahWood.png', 'Im_RobertPattinson.png', 'Im_JustinTimberlake.png', 'Im_RyanReynolds.png', 'Im_GeorgeClooney.png', 'Im_MattDamon.png', 'Im_HughJackman.png'],same,1,0.5920497000001887,3,97.61904761904762,
DEMA2901,9,neg,60,neg60_id8_im13.bmp_neg60_id6_im18.bmp,['Im_RobertDowneyJr.png', 'Im_KeanuReeves.png', 'Im_LeonardoDiCaprio.png', 'Im_ElijahWood.png', 'Im_RobertPattinson.png', 'Im_JustinTimberlake.png', 'Im_RyanReynolds.png', 'Im_GeorgeClooney.png', 'Im_MattDamon.png', 'Im_HughJackman.png'],diff,1,0.4248903000000155,4,97.61904761904762,
DEMA2901,9,neg,30,neg30_id13_im15.bmp_neg30_id11_im1.bmp,['Im_RobertDowneyJr.png', 'Im_KeanuReeves.png', 'Im_LeonardoDiCaprio.png', 'Im_ElijahWood.png', 'Im_RobertPattinson.png', 'Im_JustinTimberlake.png', 'Im_RyanReynolds.png', 'Im_GeorgeClooney.png', 'Im_MattDamon.png', 'Im_HughJackman.png'],diff,1,0.42491709999990235,5,97.61904761904762,
DEMA2901,9,neg,150,neg150_id18_im18.bmp_neg150_id18_im19.bmp,['Im_RobertDowneyJr.png', 'Im_KeanuReeves.png', 'Im_LeonardoDiCaprio.png', 'Im_ElijahWood.png', 'Im_RobertPattinson.png', 'Im_JustinTimberlake.png', 'Im_RyanReynolds.png', 'Im_GeorgeClooney.png', 'Im_MattDamon.png', 'Im_HughJackman.png'],same,1,0.4499980000000505,6,97.61904761904762,
DEMA2901,9,neg,120,neg120_id8_im20.bmp_neg120_id8_im21.bmp,['Im_RobertDowneyJr.png', 'Im_KeanuReeves.png', 'Im_LeonardoDiCaprio.png', 'Im_ElijahWood.png', 'Im_RobertPattinson.png', 'Im_JustinTimberlake.png', 'Im_RyanReynolds.png', 'Im_GeorgeClooney.png', 'Im_MattDamon.png', 'Im_HughJackman.png'],same,1,0.7002955000000384,7,97.61904761904762,
DEMA2901,9,neg,150,neg150_id8_im21.bmp_neg150_id21_im22.bmp,['Im_RobertDowneyJr.png', 'Im_KeanuReeves.png', 'Im_LeonardoDiCaprio.png', 'Im_ElijahWood.png', 'Im_RobertPattinson.png', 'Im_JustinTimberlake.png', 'Im_RyanReynolds.png', 'Im_GeorgeClooney.png', 'Im_MattDamon.png', 'Im_HughJackman.png'],diff,1,0.6499530999999479,8,97.61904761904762,
DEMA2901,9,neg,fs,negfs_id11_im2.bmp_negfs_id11_im1.bmp,['Im_RobertDowneyJr.png', 'Im_KeanuReeves.png', 'Im_LeonardoDiCaprio.png', 'Im_ElijahWood.png', 'Im_RobertPattinson.png', 'Im_JustinTimberlake.png', 'Im_RyanReynolds.png', 'Im_GeorgeClooney.png', 'Im_MattDamon.png', 'Im_HughJackman.png'],same,1,0.6416707999999289,9,97.61904761904762,
DEMA2901,9,neg,120,neg120_id13_im15.bmp_neg120_id7_im15.bmp,['Im_RobertDowneyJr.png', 'Im_KeanuReeves.png', 'Im_LeonardoDiCaprio.png', 'Im_ElijahWood.png', 'Im_RobertPattinson.png', 'Im_JustinTimberlake.png', 'Im_RyanReynolds.png', 'Im_GeorgeClooney.png', 'Im_MattDamon.png', 'Im_HughJackman.png'],diff,1,1.0420978000001924,10,97.61904761904762,
DEMA2901,9,neg,60,neg60_id13_im15.bmp_neg60_id11_im1.bmp,['Im_RobertDowneyJr.png', 'Im_KeanuReeves.png', 'Im_LeonardoDiCaprio.png', 'Im_ElijahWood.png', 'Im_RobertPattinson.png', 'Im_JustinTimberlake.png', 'Im_RyanReynolds.png', 'Im_GeorgeClooney.png', 'Im_MattDamon.png', 'Im_HughJackman.png'],diff,1,0.49273470000002817,11,97.61904761904762,
DEMA2901,9,neg,30,neg30_id11_im10.bmp_neg30_id18_im11.bmp,['Im_RobertDowneyJr.png', 'Im_KeanuReeves.png', 'Im_LeonardoDiCaprio.png', 'Im_ElijahWood.png', 'Im_RobertPattinson.png', 'Im_JustinTimberlake.png', 'Im_RyanReynolds.png', 'Im_GeorgeClooney.png', 'Im_MattDamon.png', 'Im_HughJackman.png'],diff,1,1.266897199999903,12,97.61904761904762,
DEMA2901,9,neg,fs,negfs_id14_im24.bmp_negfs_id6_im19.bmp,['Im_RobertDowneyJr.png', 'Im_KeanuReeves.png', 'Im_LeonardoDiCaprio.png', 'Im_ElijahWood.png', 'Im_RobertPattinson.png', 'Im_JustinTimberlake.png', 'Im_RyanReynolds.png', 'Im_GeorgeClooney.png', 'Im_MattDamon.png', 'Im_HughJackman.png'],diff,1,0.416776499999969,13,97.61904761904762,
DEMA2901,9,neg,0,neg0_id6_im12.bmp_neg0_id7_im14.bmp,['Im_RobertDowneyJr.png', 'Im_KeanuReeves.png', 'Im_LeonardoDiCaprio.png', 'Im_ElijahWood.png', 'Im_RobertPattinson.png', 'Im_JustinTimberlake.png', 'Im_RyanReynolds.png', 'Im_GeorgeClooney.png', 'Im_MattDamon.png', 'Im_HughJackman.png'],diff,1,0.4167721999999685,14,97.61904761904762,
DEMA2901,10,pos,150,pos150_id7_im15.bmp_pos150_id7_im26.bmp,['Im_RobertDowneyJr.png', 'Im_KeanuReeves.png', 'Im_LeonardoDiCaprio.png', 'Im_ElijahWood.png', 'Im_RobertPattinson.png', 'Im_JustinTimberlake.png', 'Im_RyanReynolds.png', 'Im_GeorgeClooney.png', 'Im_MattDamon.png', 'Im_HughJackman.png'],same,1,0.42500270000005,15,97.61904761904762,
DEMA2901,10,pos,120,pos120_id10_im1.bmp_pos120_id10_im17.bmp,['Im_RobertDowneyJr.png', 'Im_KeanuReeves.png', 'Im_LeonardoDiCaprio.png', 'Im_ElijahWood.png', 'Im_RobertPattinson.png', 'Im_JustinTimberlake.png', 'Im_RyanReynolds.png', 'Im_GeorgeClooney.png', 'Im_MattDamon.png', 'Im_HughJackman.png'],same,1,0.5750210999999581,16,97.61904761904762,
DEMA2901,10,pos,150,pos150_id19_im4.bmp_pos150_id19_im27.bmp,['Im_RobertDowneyJr.png', 'Im_KeanuReeves.png', 'Im_LeonardoDiCaprio.png', 'Im_ElijahWood.png', 'Im_RobertPattinson.png', 'Im_JustinTimberlake.png', 'Im_RyanReynolds.png', 'Im_GeorgeClooney.png', 'Im_MattDamon.png', 'Im_HughJackman.png'],same,1,0.416706799999929,17,97.61904761904762,
DEMA2901,10,pos,90,pos90_id6_im12.bmp_pos90_id7_im14.bmp,['Im_RobertDowneyJr.png', 'Im_KeanuReeves.png', 'Im_LeonardoDiCaprio.png', 'Im_ElijahWood.png', 'Im_RobertPattinson.png', 'Im_JustinTimberlake.png', 'Im_RyanReynolds.png', 'Im_GeorgeClooney.png', 'Im_MattDamon.png', 'Im_HughJackman.png'],diff,1,0.4250750999999582,18,97.61904761904762,
DEMA2901,10,pos,60,pos60_id14_im18.bmp_pos60_id14_im24.bmp,['Im_RobertDowneyJr.png', 'Im_KeanuReeves.png', 'Im_LeonardoDiCaprio.png', 'Im_ElijahWood.png', 'Im_RobertPattinson.png', 'Im_JustinTimberlake.png', 'Im_RyanReynolds.png', 'Im_GeorgeClooney.png', 'Im_MattDamon.png', 'Im_HughJackman.png'],same,1,0.4251868999999715,19,97.61904761904762,
DEMA2901,10,pos,30,pos30_id8_im20.bmp_pos30_id18_im18.bmp,['Im_RobertDowneyJr.png', 'Im_KeanuReeves.png', 'Im_LeonardoDiCaprio.png', 'Im_ElijahWood.png', 'Im_RobertPattinson.png', 'Im_JustinTimberlake.png', 'Im_RyanReynolds.png', 'Im_GeorgeClooney.png', 'Im_MattDamon.png', 'Im_HughJackman.png'],diff,1,0.43339609999998174,20,97.61904761904762,
DEMA2901,10,pos,fs,posfs_id18_im11.bmp_posfs_id18_im18.bmp,['Im_RobertDowneyJr.png', 'Im_KeanuReeves.png', 'Im_LeonardoDiCaprio.png', 'Im_ElijahWood.png', 'Im_RobertPattinson.png', 'Im_JustinTimberlake.png', 'Im_RyanReynolds.png', 'Im_GeorgeClooney.png', 'Im_MattDamon.png', 'Im_HughJackman.png'],same,1,0.4835626000001412,21,97.61904761904762,
DEMA2901,10,pos,30,pos30_id6_im18.bmp_pos30_id6_im19.bmp,['Im_RobertDowneyJr.png', 'Im_KeanuReeves.png', 'Im_LeonardoDiCaprio.png', 'Im_ElijahWood.png', 'Im_RobertPattinson.png', 'Im_JustinTimberlake.png', 'Im_RyanReynolds.png', 'Im_GeorgeClooney.png', 'Im_MattDamon.png', 'Im_HughJackman.png'],same,1,0.49182459999997263,22,97.61904761904762,
DEMA2901,10,pos,fs,posfs_id7_im26.bmp_posfs_id19_im4.bmp,['Im_RobertDowneyJr.png', 'Im_KeanuReeves.png', 'Im_LeonardoDiCaprio.png', 'Im_ElijahWood.png', 'Im_RobertPattinson.png', 'Im_JustinTimberlake.png', 'Im_RyanReynolds.png', 'Im_GeorgeClooney.png', 'Im_MattDamon.png', 'Im_HughJackman.png'],diff,1,0.43336719999979323,23,97.61904761904762,
DEMA2901,10,pos,120,pos120_id19_im8.bmp_pos120_id6_im18.bmp,['Im_RobertDowneyJr.png', 'Im_KeanuReeves.png', 'Im_LeonardoDiCaprio.png', 'Im_ElijahWood.png', 'Im_RobertPattinson.png', 'Im_JustinTimberlake.png', 'Im_RyanReynolds.png', 'Im_GeorgeClooney.png', 'Im_MattDamon.png', 'Im_HughJackman.png'],diff,1,1.033387599999969,24,97.61904761904762,
DEMA2901,10,pos,0,pos0_id7_im14.bmp_pos0_id7_im26.bmp,['Im_RobertDowneyJr.png', 'Im_KeanuReeves.png', 'Im_LeonardoDiCaprio.png', 'Im_ElijahWood.png', 'Im_RobertPattinson.png', 'Im_JustinTimberlake.png', 'Im_RyanReynolds.png', 'Im_GeorgeClooney.png', 'Im_MattDamon.png', 'Im_HughJackman.png'],same,1,0.6005582999996477,25,97.61904761904762,
DEMA2901,10,pos,0,pos0_id6_im12.bmp_pos0_id6_im19.bmp,['Im_RobertDowneyJr.png', 'Im_KeanuReeves.png', 'Im_LeonardoDiCaprio.png', 'Im_ElijahWood.png', 'Im_RobertPattinson.png', 'Im_JustinTimberlake.png', 'Im_RyanReynolds.png', 'Im_GeorgeClooney.png', 'Im_MattDamon.png', 'Im_HughJackman.png'],same,1,0.4670226000002913,26,97.61904761904762,
DEMA2901,10,pos,90,pos90_id11_im10.bmp_pos90_id18_im11.bmp,['Im_RobertDowneyJr.png', 'Im_KeanuReeves.png', 'Im_LeonardoDiCaprio.png', 'Im_ElijahWood.png', 'Im_RobertPattinson.png', 'Im_JustinTimberlake.png', 'Im_RyanReynolds.png', 'Im_GeorgeClooney.png', 'Im_MattDamon.png', 'Im_HughJackman.png'],diff,1,0.4250612999999248,27,97.61904761904762,
DEMA2901,10,pos,60,pos60_id7_im14.bmp_pos60_id7_im15.bmp,['Im_RobertDowneyJr.png', 'Im_KeanuReeves.png', 'Im_LeonardoDiCaprio.png', 'Im_ElijahWood.png', 'Im_RobertPattinson.png', 'Im_JustinTimberlake.png', 'Im_RyanReynolds.png', 'Im_GeorgeClooney.png', 'Im_MattDamon.png', 'Im_HughJackman.png'],same,1,0.5250587000000451,28,97.61904761904762,
DEMA2901,11,neg,60,neg60_id6_im19.bmp_neg60_id14_im18.bmp,['Im_RobertDowneyJr.png', 'Im_KeanuReeves.png', 'Im_LeonardoDiCaprio.png', 'Im_ElijahWood.png', 'Im_RobertPattinson.png', 'Im_JustinTimberlake.png', 'Im_RyanReynolds.png', 'Im_GeorgeClooney.png', 'Im_MattDamon.png', 'Im_HughJackman.png'],diff,1,0.8250481000000036,29,97.61904761904762,
DEMA2901,11,neg,0,neg0_id13_im29.bmp_neg0_id13_im15.bmp,['Im_RobertDowneyJr.png', 'Im_KeanuReeves.png', 'Im_LeonardoDiCaprio.png', 'Im_ElijahWood.png', 'Im_RobertPattinson.png', 'Im_JustinTimberlake.png', 'Im_RyanReynolds.png', 'Im_GeorgeClooney.png', 'Im_MattDamon.png', 'Im_HughJackman.png'],same,1,0.424955399999817,30,97.61904761904762,
DEMA2901,11,neg,60,neg60_id11_im1.bmp_neg60_id18_im19.bmp,['Im_RobertDowneyJr.png', 'Im_KeanuReeves.png', 'Im_LeonardoDiCaprio.png', 'Im_ElijahWood.png', 'Im_RobertPattinson.png', 'Im_JustinTimberlake.png', 'Im_RyanReynolds.png', 'Im_GeorgeClooney.png', 'Im_MattDamon.png', 'Im_HughJackman.png'],diff,1,0.5500698000000739,31,97.61904761904762,
DEMA2901,11,neg,90,neg90_id21_im17.bmp_neg90_id21_im22.bmp,['Im_RobertDowneyJr.png', 'Im_KeanuReeves.png', 'Im_LeonardoDiCaprio.png', 'Im_ElijahWood.png', 'Im_RobertPattinson.png', 'Im_JustinTimberlake.png', 'Im_RyanReynolds.png', 'Im_GeorgeClooney.png', 'Im_MattDamon.png', 'Im_HughJackman.png'],same,1,0.9754242000003615,32,97.61904761904762,
DEMA2901,11,neg,90,neg90_id8_im21.bmp_neg90_id8_im13.bmp,['Im_RobertDowneyJr.png', 'Im_KeanuReeves.png', 'Im_LeonardoDiCaprio.png', 'Im_ElijahWood.png', 'Im_RobertPattinson.png', 'Im_JustinTimberlake.png', 'Im_RyanReynolds.png', 'Im_GeorgeClooney.png', 'Im_MattDamon.png', 'Im_HughJackman.png'],same,1,0.7917599000002156,33,97.61904761904762,
DEMA2901,11,neg,120,neg120_id19_im4.bmp_neg120_id19_im27.bmp,['Im_RobertDowneyJr.png', 'Im_KeanuReeves.png', 'Im_LeonardoDiCaprio.png', 'Im_ElijahWood.png', 'Im_RobertPattinson.png', 'Im_JustinTimberlake.png', 'Im_RyanReynolds.png', 'Im_GeorgeClooney.png', 'Im_MattDamon.png', 'Im_HughJackman.png'],same,1,0.6582986999997047,34,97.61904761904762,
DEMA2901,11,neg,120,neg120_id18_im19.bmp_neg120_id13_im29.bmp,['Im_RobertDowneyJr.png', 'Im_KeanuReeves.png', 'Im_LeonardoDiCaprio.png', 'Im_ElijahWood.png', 'Im_RobertPattinson.png', 'Im_JustinTimberlake.png', 'Im_RyanReynolds.png', 'Im_GeorgeClooney.png', 'Im_MattDamon.png', 'Im_HughJackman.png'],diff,1,0.7087777000001552,35,97.61904761904762,
DEMA2901,11,neg,30,neg30_id8_im21.bmp_neg30_id8_im20.bmp,['Im_RobertDowneyJr.png', 'Im_KeanuReeves.png', 'Im_LeonardoDiCaprio.png', 'Im_ElijahWood.png', 'Im_RobertPattinson.png', 'Im_JustinTimberlake.png', 'Im_RyanReynolds.png', 'Im_GeorgeClooney.png', 'Im_MattDamon.png', 'Im_HughJackman.png'],same,1,0.6167913000003864,36,97.61904761904762,
DEMA2901,11,neg,fs,negfs_id14_im18.bmp_negfs_id14_im24.bmp,['Im_RobertDowneyJr.png', 'Im_KeanuReeves.png', 'Im_LeonardoDiCaprio.png', 'Im_ElijahWood.png', 'Im_RobertPattinson.png', 'Im_JustinTimberlake.png', 'Im_RyanReynolds.png', 'Im_GeorgeClooney.png', 'Im_MattDamon.png', 'Im_HughJackman.png'],same,1,0.6336843999997654,37,97.61904761904762,
DEMA2901,11,neg,150,neg150_id7_im26.bmp_neg150_id7_im14.bmp,['Im_RobertDowneyJr.png', 'Im_KeanuReeves.png', 'Im_LeonardoDiCaprio.png', 'Im_ElijahWood.png', 'Im_RobertPattinson.png', 'Im_JustinTimberlake.png', 'Im_RyanReynolds.png', 'Im_GeorgeClooney.png', 'Im_MattDamon.png', 'Im_HughJackman.png'],same,1,0.5419115999998212,38,97.61904761904762,
DEMA2901,11,neg,fs,negfs_id21_im16.bmp_negfs_id11_im2.bmp,['Im_RobertDowneyJr.png', 'Im_KeanuReeves.png', 'Im_LeonardoDiCaprio.png', 'Im_ElijahWood.png', 'Im_RobertPattinson.png', 'Im_JustinTimberlake.png', 'Im_RyanReynolds.png', 'Im_GeorgeClooney.png', 'Im_MattDamon.png', 'Im_HughJackman.png'],diff,1,0.45887660000016695,39,97.61904761904762,
DEMA2901,11,neg,30,neg30_id6_im12.bmp_neg30_id6_im19.bmp,['Im_RobertDowneyJr.png', 'Im_KeanuReeves.png', 'Im_LeonardoDiCaprio.png', 'Im_ElijahWood.png', 'Im_RobertPattinson.png', 'Im_JustinTimberlake.png', 'Im_RyanReynolds.png', 'Im_GeorgeClooney.png', 'Im_MattDamon.png', 'Im_HughJackman.png'],same,1,0.8167007000001831,40,97.61904761904762,
DEMA2901,11,neg,0,neg0_id6_im18.bmp_neg0_id6_im19.bmp,['Im_RobertDowneyJr.png', 'Im_KeanuReeves.png', 'Im_LeonardoDiCaprio.png', 'Im_ElijahWood.png', 'Im_RobertPattinson.png', 'Im_JustinTimberlake.png', 'Im_RyanReynolds.png', 'Im_GeorgeClooney.png', 'Im_MattDamon.png', 'Im_HughJackman.png'],same,1,0.45848860000023706,41,97.61904761904762,
DEMA2901,11,neg,150,neg150_id13_im10.bmp_neg150_id7_im26.bmp,['Im_RobertDowneyJr.png', 'Im_KeanuReeves.png', 'Im_LeonardoDiCaprio.png', 'Im_ElijahWood.png', 'Im_RobertPattinson.png', 'Im_JustinTimberlake.png', 'Im_RyanReynolds.png', 'Im_GeorgeClooney.png', 'Im_MattDamon.png', 'Im_HughJackman.png'],diff,1,0.4418461999998726,42,97.61904761904762,
DEMA2901,12,inv,120,pos120_id10_im17.bmp_pos120_id10_im18.bmp,['Im_RobertDowneyJr.png', 'Im_KeanuReeves.png', 'Im_LeonardoDiCaprio.png', 'Im_ElijahWood.png', 'Im_RobertPattinson.png', 'Im_JustinTimberlake.png', 'Im_RyanReynolds.png', 'Im_GeorgeClooney.png', 'Im_MattDamon.png', 'Im_HughJackman.png'],diff,0,0.6833862999997109,0,100.0,
DEMA2901,12,inv,30,pos30_id8_im13.bmp_pos30_id8_im20.bmp,['Im_RobertDowneyJr.png', 'Im_KeanuReeves.png', 'Im_LeonardoDiCaprio.png', 'Im_ElijahWood.png', 'Im_RobertPattinson.png', 'Im_JustinTimberlake.png', 'Im_RyanReynolds.png', 'Im_GeorgeClooney.png', 'Im_MattDamon.png', 'Im_HughJackman.png'],same,1,0.5590680000000248,1,100.0,
DEMA2901,12,inv,0,pos0_id6_im18.bmp_pos0_id6_im19.bmp,['Im_RobertDowneyJr.png', 'Im_KeanuReeves.png', 'Im_LeonardoDiCaprio.png', 'Im_ElijahWood.png', 'Im_RobertPattinson.png', 'Im_JustinTimberlake.png', 'Im_RyanReynolds.png', 'Im_GeorgeClooney.png', 'Im_MattDamon.png', 'Im_HughJackman.png'],same,1,0.4250947999998971,2,100.0,
DEMA2901,12,inv,0,pos0_id7_im15.bmp_pos0_id7_im26.bmp,['Im_RobertDowneyJr.png', 'Im_KeanuReeves.png', 'Im_LeonardoDiCaprio.png', 'Im_ElijahWood.png', 'Im_RobertPattinson.png', 'Im_JustinTimberlake.png', 'Im_RyanReynolds.png', 'Im_GeorgeClooney.png', 'Im_MattDamon.png', 'Im_HughJackman.png'],same,1,0.43386529999997947,3,100.0,
DEMA2901,12,inv,150,pos150_id6_im18.bmp_pos150_id8_im13.bmp,['Im_RobertDowneyJr.png', 'Im_KeanuReeves.png', 'Im_LeonardoDiCaprio.png', 'Im_ElijahWood.png', 'Im_RobertPattinson.png', 'Im_JustinTimberlake.png', 'Im_RyanReynolds.png', 'Im_GeorgeClooney.png', 'Im_MattDamon.png', 'Im_HughJackman.png'],diff,1,0.6334199000002627,4,100.0,
DEMA2901,12,inv,30,pos30_id10_im18.bmp_pos30_id10_im1.bmp,['Im_RobertDowneyJr.png', 'Im_KeanuReeves.png', 'Im_LeonardoDiCaprio.png', 'Im_ElijahWood.png', 'Im_RobertPattinson.png', 'Im_JustinTimberlake.png', 'Im_RyanReynolds.png', 'Im_GeorgeClooney.png', 'Im_MattDamon.png', 'Im_HughJackman.png'],same,1,0.43354660000022704,5,100.0,
DEMA2901,12,inv,90,pos90_id13_im10.bmp_pos90_id13_im29.bmp,['Im_RobertDowneyJr.png', 'Im_KeanuReeves.png', 'Im_LeonardoDiCaprio.png', 'Im_ElijahWood.png', 'Im_RobertPattinson.png', 'Im_JustinTimberlake.png', 'Im_RyanReynolds.png', 'Im_GeorgeClooney.png', 'Im_MattDamon.png', 'Im_HughJackman.png'],same,1,0.42484190000004673,6,100.0,
DEMA2901,12,inv,fs,posfs_id6_im19.bmp_posfs_id14_im18.bmp,['Im_RobertDowneyJr.png', 'Im_KeanuReeves.png', 'Im_LeonardoDiCaprio.png', 'Im_ElijahWood.png', 'Im_RobertPattinson.png', 'Im_JustinTimberlake.png', 'Im_RyanReynolds.png', 'Im_GeorgeClooney.png', 'Im_MattDamon.png', 'Im_HughJackman.png'],diff,1,0.4166022999997949,7,100.0,
DEMA2901,12,inv,120,pos120_id6_im12.bmp_pos120_id7_im14.bmp,['Im_RobertDowneyJr.png', 'Im_KeanuReeves.png', 'Im_LeonardoDiCaprio.png', 'Im_ElijahWood.png', 'Im_RobertPattinson.png', 'Im_JustinTimberlake.png', 'Im_RyanReynolds.png', 'Im_GeorgeClooney.png', 'Im_MattDamon.png', 'Im_HughJackman.png'],diff,1,0.4250627000001259,8,100.0,
DEMA2901,12,inv,60,pos60_id14_im18.bmp_pos60_id6_im19.bmp,['Im_RobertDowneyJr.png', 'Im_KeanuReeves.png', 'Im_LeonardoDiCaprio.png', 'Im_ElijahWood.png', 'Im_RobertPattinson.png', 'Im_JustinTimberlake.png', 'Im_RyanReynolds.png', 'Im_GeorgeClooney.png', 'Im_MattDamon.png', 'Im_HughJackman.png'],diff,1,0.41649790000019493,9,100.0,
DEMA2901,12,inv,fs,posfs_id8_im20.bmp_posfs_id8_im13.bmp,['Im_RobertDowneyJr.png', 'Im_KeanuReeves.png', 'Im_LeonardoDiCaprio.png', 'Im_ElijahWood.png', 'Im_RobertPattinson.png', 'Im_JustinTimberlake.png', 'Im_RyanReynolds.png', 'Im_GeorgeClooney.png', 'Im_MattDamon.png', 'Im_HughJackman.png'],same,1,0.4084254000003966,10,100.0,
DEMA2901,12,inv,150,pos150_id14_im24.bmp_pos150_id14_im18.bmp,['Im_RobertDowneyJr.png', 'Im_KeanuReeves.png', 'Im_LeonardoDiCaprio.png', 'Im_ElijahWood.png', 'Im_RobertPattinson.png', 'Im_JustinTimberlake.png', 'Im_RyanReynolds.png', 'Im_GeorgeClooney.png', 'Im_MattDamon.png', 'Im_HughJackman.png'],same,1,0.5166595000000598,11,100.0,
DEMA2901,12,inv,60,pos60_id14_im24.bmp_pos60_id14_im18.bmp,['Im_RobertDowneyJr.png', 'Im_KeanuReeves.png', 'Im_LeonardoDiCaprio.png', 'Im_ElijahWood.png', 'Im_RobertPattinson.png', 'Im_JustinTimberlake.png', 'Im_RyanReynolds.png', 'Im_GeorgeClooney.png', 'Im_MattDamon.png', 'Im_HughJackman.png'],same,1,0.4500617999997303,12,100.0,
DEMA2901,12,inv,90,pos90_id19_im27.bmp_pos90_id19_im8.bmp,['Im_RobertDowneyJr.png', 'Im_KeanuReeves.png', 'Im_LeonardoDiCaprio.png', 'Im_ElijahWood.png', 'Im_RobertPattinson.png', 'Im_JustinTimberlake.png', 'Im_RyanReynolds.png', 'Im_GeorgeClooney.png', 'Im_MattDamon.png', 'Im_HughJackman.png'],same,1,0.5084635000002891,13,100.0,
DEMA2901,13,inv,120,pos120_id7_im26.bmp_pos120_id7_im15.bmp,['Im_RobertDowneyJr.png', 'Im_KeanuReeves.png', 'Im_LeonardoDiCaprio.png', 'Im_ElijahWood.png', 'Im_RobertPattinson.png', 'Im_JustinTimberlake.png', 'Im_RyanReynolds.png', 'Im_GeorgeClooney.png', 'Im_MattDamon.png', 'Im_HughJackman.png'],same,1,0.7251348999998299,14,100.0,
DEMA2901,13,inv,0,pos0_id19_im8.bmp_pos0_id19_im27.bmp,['Im_RobertDowneyJr.png', 'Im_KeanuReeves.png', 'Im_LeonardoDiCaprio.png', 'Im_ElijahWood.png', 'Im_RobertPattinson.png', 'Im_JustinTimberlake.png', 'Im_RyanReynolds.png', 'Im_GeorgeClooney.png', 'Im_MattDamon.png', 'Im_HughJackman.png'],same,1,0.5585234000000128,15,100.0,
DEMA2901,13,inv,fs,posfs_id13_im10.bmp_posfs_id13_im29.bmp,['Im_RobertDowneyJr.png', 'Im_KeanuReeves.png', 'Im_LeonardoDiCaprio.png', 'Im_ElijahWood.png', 'Im_RobertPattinson.png', 'Im_JustinTimberlake.png', 'Im_RyanReynolds.png', 'Im_GeorgeClooney.png', 'Im_MattDamon.png', 'Im_HughJackman.png'],same,1,0.42504650000000765,16,100.0,
DEMA2901,13,inv,150,pos150_id13_im10.bmp_pos150_id13_im15.bmp,['Im_RobertDowneyJr.png', 'Im_KeanuReeves.png', 'Im_LeonardoDiCaprio.png', 'Im_ElijahWood.png', 'Im_RobertPattinson.png', 'Im_JustinTimberlake.png', 'Im_RyanReynolds.png', 'Im_GeorgeClooney.png', 'Im_MattDamon.png', 'Im_HughJackman.png'],same,1,0.4838776000001417,17,100.0,
DEMA2901,13,inv,90,pos90_id21_im16.bmp_pos90_id10_im1.bmp,['Im_RobertDowneyJr.png', 'Im_KeanuReeves.png', 'Im_LeonardoDiCaprio.png', 'Im_ElijahWood.png', 'Im_RobertPattinson.png', 'Im_JustinTimberlake.png', 'Im_RyanReynolds.png', 'Im_GeorgeClooney.png', 'Im_MattDamon.png', 'Im_HughJackman.png'],diff,1,0.6416529000002811,18,100.0,
DEMA2901,13,inv,30,pos30_id6_im12.bmp_pos30_id6_im19.bmp,['Im_RobertDowneyJr.png', 'Im_KeanuReeves.png', 'Im_LeonardoDiCaprio.png', 'Im_ElijahWood.png', 'Im_RobertPattinson.png', 'Im_JustinTimberlake.png', 'Im_RyanReynolds.png', 'Im_GeorgeClooney.png', 'Im_MattDamon.png', 'Im_HughJackman.png'],same,1,0.47507790000008754,19,100.0,
DEMA2901,13,inv,60,pos60_id19_im8.bmp_pos60_id6_im18.bmp,['Im_RobertDowneyJr.png', 'Im_KeanuReeves.png', 'Im_LeonardoDiCaprio.png', 'Im_ElijahWood.png', 'Im_RobertPattinson.png', 'Im_JustinTimberlake.png', 'Im_RyanReynolds.png', 'Im_GeorgeClooney.png', 'Im_MattDamon.png', 'Im_HughJackman.png'],diff,1,0.5837541999999303,20,100.0,
DEMA2901,13,inv,90,pos90_id14_im18.bmp_pos90_id14_im24.bmp,['Im_RobertDowneyJr.png', 'Im_KeanuReeves.png', 'Im_LeonardoDiCaprio.png', 'Im_ElijahWood.png', 'Im_RobertPattinson.png', 'Im_JustinTimberlake.png', 'Im_RyanReynolds.png', 'Im_GeorgeClooney.png', 'Im_MattDamon.png', 'Im_HughJackman.png'],same,1,0.42527519999975993,21,100.0,
DEMA2901,13,inv,30,pos30_id19_im27.bmp_pos30_id19_im8.bmp,['Im_RobertDowneyJr.png', 'Im_KeanuReeves.png', 'Im_LeonardoDiCaprio.png', 'Im_ElijahWood.png', 'Im_RobertPattinson.png', 'Im_JustinTimberlake.png', 'Im_RyanReynolds.png', 'Im_GeorgeClooney.png', 'Im_MattDamon.png', 'Im_HughJackman.png'],same,1,1.016782499999863,22,100.0,
DEMA2901,13,inv,120,pos120_id19_im8.bmp_pos120_id19_im27.bmp,['Im_RobertDowneyJr.png', 'Im_KeanuReeves.png', 'Im_LeonardoDiCaprio.png', 'Im_ElijahWood.png', 'Im_RobertPattinson.png', 'Im_JustinTimberlake.png', 'Im_RyanReynolds.png', 'Im_GeorgeClooney.png', 'Im_MattDamon.png', 'Im_HughJackman.png'],same,1,0.6000551999995878,23,100.0,
DEMA2901,13,inv,60,pos60_id10_im1.bmp_pos60_id10_im17.bmp,['Im_RobertDowneyJr.png', 'Im_KeanuReeves.png', 'Im_LeonardoDiCaprio.png', 'Im_ElijahWood.png', 'Im_RobertPattinson.png', 'Im_JustinTimberlake.png', 'Im_RyanReynolds.png', 'Im_GeorgeClooney.png', 'Im_MattDamon.png', 'Im_HughJackman.png'],same,1,0.8420369999998911,24,100.0,
DEMA2901,13,inv,150,pos150_id13_im10.bmp_pos150_id13_im29.bmp,['Im_RobertDowneyJr.png', 'Im_KeanuReeves.png', 'Im_LeonardoDiCaprio.png', 'Im_ElijahWood.png', 'Im_RobertPattinson.png', 'Im_JustinTimberlake.png', 'Im_RyanReynolds.png', 'Im_GeorgeClooney.png', 'Im_MattDamon.png', 'Im_HughJackman.png'],same,1,0.483585999999832,25,100.0,
DEMA2901,13,inv,0,pos0_id18_im19.bmp_pos0_id11_im1.bmp,['Im_RobertDowneyJr.png', 'Im_KeanuReeves.png', 'Im_LeonardoDiCaprio.png', 'Im_ElijahWood.png', 'Im_RobertPattinson.png', 'Im_JustinTimberlake.png', 'Im_RyanReynolds.png', 'Im_GeorgeClooney.png', 'Im_MattDamon.png', 'Im_HughJackman.png'],diff,1,1.2000868999998602,26,100.0,
DEMA2901,13,inv,fs,posfs_id18_im18.bmp_posfs_id18_im11.bmp,['Im_RobertDowneyJr.png', 'Im_KeanuReeves.png', 'Im_LeonardoDiCaprio.png', 'Im_ElijahWood.png', 'Im_RobertPattinson.png', 'Im_JustinTimberlake.png', 'Im_RyanReynolds.png', 'Im_GeorgeClooney.png', 'Im_MattDamon.png', 'Im_HughJackman.png'],same,1,0.41673820000005435,27,100.0,
DEMA2901,14,pos,fs,posfs_id18_im11.bmp_posfs_id6_im12.bmp,['Im_RobertDowneyJr.png', 'Im_KeanuReeves.png', 'Im_LeonardoDiCaprio.png', 'Im_ElijahWood.png', 'Im_RobertPattinson.png', 'Im_JustinTimberlake.png', 'Im_RyanReynolds.png', 'Im_GeorgeClooney.png', 'Im_MattDamon.png', 'Im_HughJackman.png'],diff,1,0.42514940000000934,28,100.0,
DEMA2901,14,pos,120,pos120_id13_im29.bmp_pos120_id18_im19.bmp,['Im_RobertDowneyJr.png', 'Im_KeanuReeves.png', 'Im_LeonardoDiCaprio.png', 'Im_ElijahWood.png', 'Im_RobertPattinson.png', 'Im_JustinTimberlake.png', 'Im_RyanReynolds.png', 'Im_GeorgeClooney.png', 'Im_MattDamon.png', 'Im_HughJackman.png'],diff,1,0.425077699999747,29,100.0,
DEMA2901,14,pos,150,pos150_id14_im24.bmp_pos150_id14_im16.bmp,['Im_RobertDowneyJr.png', 'Im_KeanuReeves.png', 'Im_LeonardoDiCaprio.png', 'Im_ElijahWood.png', 'Im_RobertPattinson.png', 'Im_JustinTimberlake.png', 'Im_RyanReynolds.png', 'Im_GeorgeClooney.png', 'Im_MattDamon.png', 'Im_HughJackman.png'],same,1,0.7833096999997906,30,100.0,
DEMA2901,14,pos,90,pos90_id8_im20.bmp_pos90_id19_im27.bmp,['Im_RobertDowneyJr.png', 'Im_KeanuReeves.png', 'Im_LeonardoDiCaprio.png', 'Im_ElijahWood.png', 'Im_RobertPattinson.png', 'Im_JustinTimberlake.png', 'Im_RyanReynolds.png', 'Im_GeorgeClooney.png', 'Im_MattDamon.png', 'Im_HughJackman.png'],diff,1,0.4166778999997405,31,100.0,
DEMA2901,14,pos,30,pos30_id11_im1.bmp_pos30_id13_im15.bmp,['Im_RobertDowneyJr.png', 'Im_KeanuReeves.png', 'Im_LeonardoDiCaprio.png', 'Im_ElijahWood.png', 'Im_RobertPattinson.png', 'Im_JustinTimberlake.png', 'Im_RyanReynolds.png', 'Im_GeorgeClooney.png', 'Im_MattDamon.png', 'Im_HughJackman.png'],diff,1,0.4169213000000127,32,100.0,
DEMA2901,14,pos,0,pos0_id7_im26.bmp_pos0_id13_im10.bmp,['Im_RobertDowneyJr.png', 'Im_KeanuReeves.png', 'Im_LeonardoDiCaprio.png', 'Im_ElijahWood.png', 'Im_RobertPattinson.png', 'Im_JustinTimberlake.png', 'Im_RyanReynolds.png', 'Im_GeorgeClooney.png', 'Im_MattDamon.png', 'Im_HughJackman.png'],diff,1,0.6502586999999949,33,100.0,
DEMA2901,14,pos,60,pos60_id19_im4.bmp_pos60_id7_im15.bmp,['Im_RobertDowneyJr.png', 'Im_KeanuReeves.png', 'Im_LeonardoDiCaprio.png', 'Im_ElijahWood.png', 'Im_RobertPattinson.png', 'Im_JustinTimberlake.png', 'Im_RyanReynolds.png', 'Im_GeorgeClooney.png', 'Im_MattDamon.png', 'Im_HughJackman.png'],diff,1,1.2417614999999387,34,100.0,
DEMA2901,14,pos,150,pos150_id19_im4.bmp_pos150_id19_im8.bmp,['Im_RobertDowneyJr.png', 'Im_KeanuReeves.png', 'Im_LeonardoDiCaprio.png', 'Im_ElijahWood.png', 'Im_RobertPattinson.png', 'Im_JustinTimberlake.png', 'Im_RyanReynolds.png', 'Im_GeorgeClooney.png', 'Im_MattDamon.png', 'Im_HughJackman.png'],same,1,0.8250499000000673,35,100.0,
DEMA2901,14,pos,30,pos30_id18_im19.bmp_pos30_id18_im18.bmp,['Im_RobertDowneyJr.png', 'Im_KeanuReeves.png', 'Im_LeonardoDiCaprio.png', 'Im_ElijahWood.png', 'Im_RobertPattinson.png', 'Im_JustinTimberlake.png', 'Im_RyanReynolds.png', 'Im_GeorgeClooney.png', 'Im_MattDamon.png', 'Im_HughJackman.png'],same,1,0.4167468000000554,36,100.0,
DEMA2901,14,pos,90,pos90_id8_im13.bmp_pos90_id13_im29.bmp,['Im_RobertDowneyJr.png', 'Im_KeanuReeves.png', 'Im_LeonardoDiCaprio.png', 'Im_ElijahWood.png', 'Im_RobertPattinson.png', 'Im_JustinTimberlake.png', 'Im_RyanReynolds.png', 'Im_GeorgeClooney.png', 'Im_MattDamon.png', 'Im_HughJackman.png'],diff,1,0.5755057999999735,37,100.0,
DEMA2901,14,pos,0,pos0_id7_im15.bmp_pos0_id7_im26.bmp,['Im_RobertDowneyJr.png', 'Im_KeanuReeves.png', 'Im_LeonardoDiCaprio.png', 'Im_ElijahWood.png', 'Im_RobertPattinson.png', 'Im_JustinTimberlake.png', 'Im_RyanReynolds.png', 'Im_GeorgeClooney.png', 'Im_MattDamon.png', 'Im_HughJackman.png'],same,1,0.4083824999997887,38,100.0,
DEMA2901,14,pos,120,pos120_id19_im4.bmp_pos120_id19_im27.bmp,['Im_RobertDowneyJr.png', 'Im_KeanuReeves.png', 'Im_LeonardoDiCaprio.png', 'Im_ElijahWood.png', 'Im_RobertPattinson.png', 'Im_JustinTimberlake.png', 'Im_RyanReynolds.png', 'Im_GeorgeClooney.png', 'Im_MattDamon.png', 'Im_HughJackman.png'],same,1,0.41652150000027177,39,100.0,
DEMA2901,14,pos,60,pos60_id8_im13.bmp_pos60_id6_im18.bmp,['Im_RobertDowneyJr.png', 'Im_KeanuReeves.png', 'Im_LeonardoDiCaprio.png', 'Im_ElijahWood.png', 'Im_RobertPattinson.png', 'Im_JustinTimberlake.png', 'Im_RyanReynolds.png', 'Im_GeorgeClooney.png', 'Im_MattDamon.png', 'Im_HughJackman.png'],diff,1,0.5834350999998605,40,100.0,
DEMA2901,14,pos,fs,posfs_id21_im16.bmp_posfs_id21_im17.bmp,['Im_RobertDowneyJr.png', 'Im_KeanuReeves.png', 'Im_LeonardoDiCaprio.png', 'Im_ElijahWood.png', 'Im_RobertPattinson.png', 'Im_JustinTimberlake.png', 'Im_RyanReynolds.png', 'Im_GeorgeClooney.png', 'Im_MattDamon.png', 'Im_HughJackman.png'],same,1,0.4084075999999186,41,100.0,
