Sujet,Trial,Condition,Filter,Imname,Actor0,Actor1,Actor2,Actor3,Actor4,Actor5,Actor6,Actor7,Actor8,Actor9,Answer,Accu,RT,Score,Scoreperc, 
DEMA2901,train,inv,120,pos120_id11_im1.bmp_pos120_id18_im19.bmp,['Im_RobertPattinson.png', 'Im_RyanReynolds.png', 'Im_LeonardoDiCaprio.png', 'Im_HughJackman.png', 'Im_GeorgeClooney.png', 'Im_RobertDowneyJr.png', 'Im_KeanuReeves.png', 'Im_MattDamon.png', 'Im_JustinTimberlake.png', 'Im_ElijahWood.png'],same,0,1.241579499999716,0,0,
DEMA2901,train,inv,fs,posfs_id14_im24.bmp_posfs_id21_im17.bmp,['Im_RobertPattinson.png', 'Im_RyanReynolds.png', 'Im_LeonardoDiCaprio.png', 'Im_HughJackman.png', 'Im_GeorgeClooney.png', 'Im_RobertDowneyJr.png', 'Im_KeanuReeves.png', 'Im_MattDamon.png', 'Im_JustinTimberlake.png', 'Im_ElijahWood.png'],diff,1,0.5918736999992689,1,0,
DEMA2901,train,inv,150,pos150_id10_im18.bmp_pos150_id11_im2.bmp,['Im_RobertPattinson.png', 'Im_RyanReynolds.png', 'Im_LeonardoDiCaprio.png', 'Im_HughJackman.png', 'Im_GeorgeClooney.png', 'Im_RobertDowneyJr.png', 'Im_KeanuReeves.png', 'Im_MattDamon.png', 'Im_JustinTimberlake.png', 'Im_ElijahWood.png'],diff,1,0.5089091999998345,2,0,
DEMA2901,train,inv,150,pos150_id18_im19.bmp_pos150_id13_im29.bmp,['Im_RobertPattinson.png', 'Im_RyanReynolds.png', 'Im_LeonardoDiCaprio.png', 'Im_HughJackman.png', 'Im_GeorgeClooney.png', 'Im_RobertDowneyJr.png', 'Im_KeanuReeves.png', 'Im_MattDamon.png', 'Im_JustinTimberlake.png', 'Im_ElijahWood.png'],diff,1,1.2509373000011692,3,0,
DEMA2901,train,inv,90,pos90_id13_im15.bmp_pos90_id7_im15.bmp,['Im_RobertPattinson.png', 'Im_RyanReynolds.png', 'Im_LeonardoDiCaprio.png', 'Im_HughJackman.png', 'Im_GeorgeClooney.png', 'Im_RobertDowneyJr.png', 'Im_KeanuReeves.png', 'Im_MattDamon.png', 'Im_JustinTimberlake.png', 'Im_ElijahWood.png'],diff,1,0.7250194999996893,4,0,
DEMA2901,train,inv,120,pos120_id8_im13.bmp_pos120_id6_im18.bmp,['Im_RobertPattinson.png', 'Im_RyanReynolds.png', 'Im_LeonardoDiCaprio.png', 'Im_HughJackman.png', 'Im_GeorgeClooney.png', 'Im_RobertDowneyJr.png', 'Im_KeanuReeves.png', 'Im_MattDamon.png', 'Im_JustinTimberlake.png', 'Im_ElijahWood.png'],diff,1,1.0584958999988885,5,0,
DEMA2901,train,inv,30,pos30_id14_im24.bmp_pos30_id6_im19.bmp,['Im_RobertPattinson.png', 'Im_RyanReynolds.png', 'Im_LeonardoDiCaprio.png', 'Im_HughJackman.png', 'Im_GeorgeClooney.png', 'Im_RobertDowneyJr.png', 'Im_KeanuReeves.png', 'Im_MattDamon.png', 'Im_JustinTimberlake.png', 'Im_ElijahWood.png'],diff,1,0.7584960000003775,6,0,
DEMA2901,train,inv,fs,posfs_id19_im4.bmp_posfs_id19_im27.bmp,['Im_RobertPattinson.png', 'Im_RyanReynolds.png', 'Im_LeonardoDiCaprio.png', 'Im_HughJackman.png', 'Im_GeorgeClooney.png', 'Im_RobertDowneyJr.png', 'Im_KeanuReeves.png', 'Im_MattDamon.png', 'Im_JustinTimberlake.png', 'Im_ElijahWood.png'],same,1,0.50845069999923,7,0,
DEMA2901,train,inv,90,pos90_id13_im15.bmp_pos90_id13_im29.bmp,['Im_RobertPattinson.png', 'Im_RyanReynolds.png', 'Im_LeonardoDiCaprio.png', 'Im_HughJackman.png', 'Im_GeorgeClooney.png', 'Im_RobertDowneyJr.png', 'Im_KeanuReeves.png', 'Im_MattDamon.png', 'Im_JustinTimberlake.png', 'Im_ElijahWood.png'],same,1,0.9085852000007435,8,0,
DEMA2901,train,inv,0,pos0_id13_im15.bmp_pos0_id11_im1.bmp,['Im_RobertPattinson.png', 'Im_RyanReynolds.png', 'Im_LeonardoDiCaprio.png', 'Im_HughJackman.png', 'Im_GeorgeClooney.png', 'Im_RobertDowneyJr.png', 'Im_KeanuReeves.png', 'Im_MattDamon.png', 'Im_JustinTimberlake.png', 'Im_ElijahWood.png'],diff,1,0.7415063000007649,9,0,
DEMA2901,train,inv,0,pos0_id11_im1.bmp_pos0_id11_im2.bmp,['Im_RobertPattinson.png', 'Im_RyanReynolds.png', 'Im_LeonardoDiCaprio.png', 'Im_HughJackman.png', 'Im_GeorgeClooney.png', 'Im_RobertDowneyJr.png', 'Im_KeanuReeves.png', 'Im_MattDamon.png', 'Im_JustinTimberlake.png', 'Im_ElijahWood.png'],same,1,0.7420199000007415,10,0,
DEMA2901,train,inv,60,pos60_id10_im18.bmp_pos60_id10_im1.bmp,['Im_RobertPattinson.png', 'Im_RyanReynolds.png', 'Im_LeonardoDiCaprio.png', 'Im_HughJackman.png', 'Im_GeorgeClooney.png', 'Im_RobertDowneyJr.png', 'Im_KeanuReeves.png', 'Im_MattDamon.png', 'Im_JustinTimberlake.png', 'Im_ElijahWood.png'],same,1,0.9832217000002856,11,0,
DEMA2901,train,inv,30,pos30_id19_im8.bmp_pos30_id10_im18.bmp,['Im_RobertPattinson.png', 'Im_RyanReynolds.png', 'Im_LeonardoDiCaprio.png', 'Im_HughJackman.png', 'Im_GeorgeClooney.png', 'Im_RobertDowneyJr.png', 'Im_KeanuReeves.png', 'Im_MattDamon.png', 'Im_JustinTimberlake.png', 'Im_ElijahWood.png'],same,0,1.2083550999996078,11,0,
DEMA2901,train,inv,60,pos60_id14_im18.bmp_pos60_id10_im17.bmp,['Im_RobertPattinson.png', 'Im_RyanReynolds.png', 'Im_LeonardoDiCaprio.png', 'Im_HughJackman.png', 'Im_GeorgeClooney.png', 'Im_RobertDowneyJr.png', 'Im_KeanuReeves.png', 'Im_MattDamon.png', 'Im_JustinTimberlake.png', 'Im_ElijahWood.png'],same,0,0.8250061999988247,11,0,
DEMA2901,train,pos,150,pos150_id18_im18.bmp_pos150_id18_im11.bmp,['Im_RobertPattinson.png', 'Im_RyanReynolds.png', 'Im_LeonardoDiCaprio.png', 'Im_HughJackman.png', 'Im_GeorgeClooney.png', 'Im_RobertDowneyJr.png', 'Im_KeanuReeves.png', 'Im_MattDamon.png', 'Im_JustinTimberlake.png', 'Im_ElijahWood.png'],same,1,0.47519930000089516,12,0,
DEMA2901,train,pos,0,pos0_id10_im17.bmp_pos0_id10_im18.bmp,['Im_RobertPattinson.png', 'Im_RyanReynolds.png', 'Im_LeonardoDiCaprio.png', 'Im_HughJackman.png', 'Im_GeorgeClooney.png', 'Im_RobertDowneyJr.png', 'Im_KeanuReeves.png', 'Im_MattDamon.png', 'Im_JustinTimberlake.png', 'Im_ElijahWood.png'],same,1,0.5416119000001345,13,0,
DEMA2901,train,pos,90,pos90_id8_im20.bmp_pos90_id8_im21.bmp,['Im_RobertPattinson.png', 'Im_RyanReynolds.png', 'Im_LeonardoDiCaprio.png', 'Im_HughJackman.png', 'Im_GeorgeClooney.png', 'Im_RobertDowneyJr.png', 'Im_KeanuReeves.png', 'Im_MattDamon.png', 'Im_JustinTimberlake.png', 'Im_ElijahWood.png'],same,1,0.42508880000059435,14,0,
DEMA2901,train,pos,0,pos0_id19_im8.bmp_pos0_id19_im4.bmp,['Im_RobertPattinson.png', 'Im_RyanReynolds.png', 'Im_LeonardoDiCaprio.png', 'Im_HughJackman.png', 'Im_GeorgeClooney.png', 'Im_RobertDowneyJr.png', 'Im_KeanuReeves.png', 'Im_MattDamon.png', 'Im_JustinTimberlake.png', 'Im_ElijahWood.png'],same,1,0.6917353999997431,15,0,
DEMA2901,train,pos,60,pos60_id7_im26.bmp_pos60_id13_im10.bmp,['Im_RobertPattinson.png', 'Im_RyanReynolds.png', 'Im_LeonardoDiCaprio.png', 'Im_HughJackman.png', 'Im_GeorgeClooney.png', 'Im_RobertDowneyJr.png', 'Im_KeanuReeves.png', 'Im_MattDamon.png', 'Im_JustinTimberlake.png', 'Im_ElijahWood.png'],diff,1,0.4331564000003709,16,0,
DEMA2901,train,pos,120,pos120_id18_im18.bmp_pos120_id8_im20.bmp,['Im_RobertPattinson.png', 'Im_RyanReynolds.png', 'Im_LeonardoDiCaprio.png', 'Im_HughJackman.png', 'Im_GeorgeClooney.png', 'Im_RobertDowneyJr.png', 'Im_KeanuReeves.png', 'Im_MattDamon.png', 'Im_JustinTimberlake.png', 'Im_ElijahWood.png'],diff,1,0.5252839999993739,17,0,
DEMA2901,train,pos,150,pos150_id6_im19.bmp_pos150_id6_im12.bmp,['Im_RobertPattinson.png', 'Im_RyanReynolds.png', 'Im_LeonardoDiCaprio.png', 'Im_HughJackman.png', 'Im_GeorgeClooney.png', 'Im_RobertDowneyJr.png', 'Im_KeanuReeves.png', 'Im_MattDamon.png', 'Im_JustinTimberlake.png', 'Im_ElijahWood.png'],same,1,0.6415701000005356,18,0,
DEMA2901,train,pos,60,pos60_id6_im19.bmp_pos60_id6_im12.bmp,['Im_RobertPattinson.png', 'Im_RyanReynolds.png', 'Im_LeonardoDiCaprio.png', 'Im_HughJackman.png', 'Im_GeorgeClooney.png', 'Im_RobertDowneyJr.png', 'Im_KeanuReeves.png', 'Im_MattDamon.png', 'Im_JustinTimberlake.png', 'Im_ElijahWood.png'],same,1,0.6333543000000645,19,0,
DEMA2901,train,pos,120,pos120_id11_im2.bmp_pos120_id11_im10.bmp,['Im_RobertPattinson.png', 'Im_RyanReynolds.png', 'Im_LeonardoDiCaprio.png', 'Im_HughJackman.png', 'Im_GeorgeClooney.png', 'Im_RobertDowneyJr.png', 'Im_KeanuReeves.png', 'Im_MattDamon.png', 'Im_JustinTimberlake.png', 'Im_ElijahWood.png'],same,1,0.6419389999991836,20,0,
DEMA2901,train,pos,fs,posfs_id6_im12.bmp_posfs_id6_im19.bmp,['Im_RobertPattinson.png', 'Im_RyanReynolds.png', 'Im_LeonardoDiCaprio.png', 'Im_HughJackman.png', 'Im_GeorgeClooney.png', 'Im_RobertDowneyJr.png', 'Im_KeanuReeves.png', 'Im_MattDamon.png', 'Im_JustinTimberlake.png', 'Im_ElijahWood.png'],same,1,0.42485060000035446,21,0,
DEMA2901,train,pos,90,pos90_id10_im17.bmp_pos90_id21_im17.bmp,['Im_RobertPattinson.png', 'Im_RyanReynolds.png', 'Im_LeonardoDiCaprio.png', 'Im_HughJackman.png', 'Im_GeorgeClooney.png', 'Im_RobertDowneyJr.png', 'Im_KeanuReeves.png', 'Im_MattDamon.png', 'Im_JustinTimberlake.png', 'Im_ElijahWood.png'],diff,1,0.5500468000009278,22,0,
DEMA2901,train,pos,30,pos30_id18_im11.bmp_pos30_id6_im12.bmp,['Im_RobertPattinson.png', 'Im_RyanReynolds.png', 'Im_LeonardoDiCaprio.png', 'Im_HughJackman.png', 'Im_GeorgeClooney.png', 'Im_RobertDowneyJr.png', 'Im_KeanuReeves.png', 'Im_MattDamon.png', 'Im_JustinTimberlake.png', 'Im_ElijahWood.png'],diff,1,0.600027799999225,23,0,
DEMA2901,train,pos,30,pos30_id7_im14.bmp_pos30_id7_im26.bmp,['Im_RobertPattinson.png', 'Im_RyanReynolds.png', 'Im_LeonardoDiCaprio.png', 'Im_HughJackman.png', 'Im_GeorgeClooney.png', 'Im_RobertDowneyJr.png', 'Im_KeanuReeves.png', 'Im_MattDamon.png', 'Im_JustinTimberlake.png', 'Im_ElijahWood.png'],same,1,0.4083425000007992,24,0,
DEMA2901,train,pos,fs,posfs_id21_im22.bmp_posfs_id14_im16.bmp,['Im_RobertPattinson.png', 'Im_RyanReynolds.png', 'Im_LeonardoDiCaprio.png', 'Im_HughJackman.png', 'Im_GeorgeClooney.png', 'Im_RobertDowneyJr.png', 'Im_KeanuReeves.png', 'Im_MattDamon.png', 'Im_JustinTimberlake.png', 'Im_ElijahWood.png'],diff,1,0.6921791999993729,25,0,
DEMA2901,train,neg,150,neg150_id14_im16.bmp_neg150_id11_im10.bmp,['Im_RobertPattinson.png', 'Im_RyanReynolds.png', 'Im_LeonardoDiCaprio.png', 'Im_HughJackman.png', 'Im_GeorgeClooney.png', 'Im_RobertDowneyJr.png', 'Im_KeanuReeves.png', 'Im_MattDamon.png', 'Im_JustinTimberlake.png', 'Im_ElijahWood.png'],diff,1,0.8756180000000313,26,0,
DEMA2901,train,neg,60,neg60_id7_im15.bmp_neg60_id13_im15.bmp,['Im_RobertPattinson.png', 'Im_RyanReynolds.png', 'Im_LeonardoDiCaprio.png', 'Im_HughJackman.png', 'Im_GeorgeClooney.png', 'Im_RobertDowneyJr.png', 'Im_KeanuReeves.png', 'Im_MattDamon.png', 'Im_JustinTimberlake.png', 'Im_ElijahWood.png'],diff,1,0.7584135999986756,27,0,
DEMA2901,train,neg,90,neg90_id19_im27.bmp_neg90_id19_im4.bmp,['Im_RobertPattinson.png', 'Im_RyanReynolds.png', 'Im_LeonardoDiCaprio.png', 'Im_HughJackman.png', 'Im_GeorgeClooney.png', 'Im_RobertDowneyJr.png', 'Im_KeanuReeves.png', 'Im_MattDamon.png', 'Im_JustinTimberlake.png', 'Im_ElijahWood.png'],same,1,1.0916911999993317,28,0,
DEMA2901,train,neg,0,neg0_id11_im2.bmp_neg0_id11_im1.bmp,['Im_RobertPattinson.png', 'Im_RyanReynolds.png', 'Im_LeonardoDiCaprio.png', 'Im_HughJackman.png', 'Im_GeorgeClooney.png', 'Im_RobertDowneyJr.png', 'Im_KeanuReeves.png', 'Im_MattDamon.png', 'Im_JustinTimberlake.png', 'Im_ElijahWood.png'],same,1,0.7750214000006963,29,0,
DEMA2901,train,neg,fs,negfs_id8_im20.bmp_negfs_id8_im13.bmp,['Im_RobertPattinson.png', 'Im_RyanReynolds.png', 'Im_LeonardoDiCaprio.png', 'Im_HughJackman.png', 'Im_GeorgeClooney.png', 'Im_RobertDowneyJr.png', 'Im_KeanuReeves.png', 'Im_MattDamon.png', 'Im_JustinTimberlake.png', 'Im_ElijahWood.png'],same,1,0.7419618000003538,30,0,
DEMA2901,train,neg,120,neg120_id14_im18.bmp_neg120_id6_im19.bmp,['Im_RobertPattinson.png', 'Im_RyanReynolds.png', 'Im_LeonardoDiCaprio.png', 'Im_HughJackman.png', 'Im_GeorgeClooney.png', 'Im_RobertDowneyJr.png', 'Im_KeanuReeves.png', 'Im_MattDamon.png', 'Im_JustinTimberlake.png', 'Im_ElijahWood.png'],diff,1,0.7085377000003064,31,0,
DEMA2901,train,neg,60,neg60_id19_im4.bmp_neg60_id7_im15.bmp,['Im_RobertPattinson.png', 'Im_RyanReynolds.png', 'Im_LeonardoDiCaprio.png', 'Im_HughJackman.png', 'Im_GeorgeClooney.png', 'Im_RobertDowneyJr.png', 'Im_KeanuReeves.png', 'Im_MattDamon.png', 'Im_JustinTimberlake.png', 'Im_ElijahWood.png'],diff,1,0.841553300000669,32,0,
DEMA2901,train,neg,120,neg120_id18_im19.bmp_neg120_id11_im1.bmp,['Im_RobertPattinson.png', 'Im_RyanReynolds.png', 'Im_LeonardoDiCaprio.png', 'Im_HughJackman.png', 'Im_GeorgeClooney.png', 'Im_RobertDowneyJr.png', 'Im_KeanuReeves.png', 'Im_MattDamon.png', 'Im_JustinTimberlake.png', 'Im_ElijahWood.png'],same,0,0.8171278999998322,32,0,
DEMA2901,train,neg,fs,negfs_id7_im14.bmp_negfs_id7_im26.bmp,['Im_RobertPattinson.png', 'Im_RyanReynolds.png', 'Im_LeonardoDiCaprio.png', 'Im_HughJackman.png', 'Im_GeorgeClooney.png', 'Im_RobertDowneyJr.png', 'Im_KeanuReeves.png', 'Im_MattDamon.png', 'Im_JustinTimberlake.png', 'Im_ElijahWood.png'],same,1,0.7500998999985313,33,0,
DEMA2901,train,neg,30,neg30_id8_im20.bmp_neg30_id19_im27.bmp,['Im_RobertPattinson.png', 'Im_RyanReynolds.png', 'Im_LeonardoDiCaprio.png', 'Im_HughJackman.png', 'Im_GeorgeClooney.png', 'Im_RobertDowneyJr.png', 'Im_KeanuReeves.png', 'Im_MattDamon.png', 'Im_JustinTimberlake.png', 'Im_ElijahWood.png'],diff,1,0.6250287999991997,34,0,
DEMA2901,train,neg,150,neg150_id21_im16.bmp_neg150_id11_im2.bmp,['Im_RobertPattinson.png', 'Im_RyanReynolds.png', 'Im_LeonardoDiCaprio.png', 'Im_HughJackman.png', 'Im_GeorgeClooney.png', 'Im_RobertDowneyJr.png', 'Im_KeanuReeves.png', 'Im_MattDamon.png', 'Im_JustinTimberlake.png', 'Im_ElijahWood.png'],diff,1,0.7250772000006691,35,0,
DEMA2901,train,neg,0,neg0_id13_im29.bmp_neg0_id13_im10.bmp,['Im_RobertPattinson.png', 'Im_RyanReynolds.png', 'Im_LeonardoDiCaprio.png', 'Im_HughJackman.png', 'Im_GeorgeClooney.png', 'Im_RobertDowneyJr.png', 'Im_KeanuReeves.png', 'Im_MattDamon.png', 'Im_JustinTimberlake.png', 'Im_ElijahWood.png'],diff,0,0.8756702000009682,35,0,
DEMA2901,train,neg,30,neg30_id10_im17.bmp_neg30_id10_im18.bmp,['Im_RobertPattinson.png', 'Im_RyanReynolds.png', 'Im_LeonardoDiCaprio.png', 'Im_HughJackman.png', 'Im_GeorgeClooney.png', 'Im_RobertDowneyJr.png', 'Im_KeanuReeves.png', 'Im_MattDamon.png', 'Im_JustinTimberlake.png', 'Im_ElijahWood.png'],same,1,0.7583767000014632,36,0,
DEMA2901,train,neg,90,neg90_id7_im14.bmp_neg90_id10_im1.bmp,['Im_RobertPattinson.png', 'Im_RyanReynolds.png', 'Im_LeonardoDiCaprio.png', 'Im_HughJackman.png', 'Im_GeorgeClooney.png', 'Im_RobertDowneyJr.png', 'Im_KeanuReeves.png', 'Im_MattDamon.png', 'Im_JustinTimberlake.png', 'Im_ElijahWood.png'],same,0,0.7498924999999872,36,0,
DEMA2901,train,inv,120,pos120_id6_im18.bmp_pos120_id6_im12.bmp,['Im_RobertPattinson.png', 'Im_RyanReynolds.png', 'Im_LeonardoDiCaprio.png', 'Im_HughJackman.png', 'Im_GeorgeClooney.png', 'Im_RobertDowneyJr.png', 'Im_KeanuReeves.png', 'Im_MattDamon.png', 'Im_JustinTimberlake.png', 'Im_ElijahWood.png'],diff,0,1.0000414000005549,0,85.71428571428571,
DEMA2901,train,inv,150,pos150_id21_im22.bmp_pos150_id21_im16.bmp,['Im_RobertPattinson.png', 'Im_RyanReynolds.png', 'Im_LeonardoDiCaprio.png', 'Im_HughJackman.png', 'Im_GeorgeClooney.png', 'Im_RobertDowneyJr.png', 'Im_KeanuReeves.png', 'Im_MattDamon.png', 'Im_JustinTimberlake.png', 'Im_ElijahWood.png'],same,1,0.5253038999999262,1,85.71428571428571,
DEMA2901,train,inv,120,pos120_id21_im22.bmp_pos120_id21_im16.bmp,['Im_RobertPattinson.png', 'Im_RyanReynolds.png', 'Im_LeonardoDiCaprio.png', 'Im_HughJackman.png', 'Im_GeorgeClooney.png', 'Im_RobertDowneyJr.png', 'Im_KeanuReeves.png', 'Im_MattDamon.png', 'Im_JustinTimberlake.png', 'Im_ElijahWood.png'],same,1,0.5418874999995751,2,85.71428571428571,
DEMA2901,train,inv,30,pos30_id19_im27.bmp_pos30_id8_im20.bmp,['Im_RobertPattinson.png', 'Im_RyanReynolds.png', 'Im_LeonardoDiCaprio.png', 'Im_HughJackman.png', 'Im_GeorgeClooney.png', 'Im_RobertDowneyJr.png', 'Im_KeanuReeves.png', 'Im_MattDamon.png', 'Im_JustinTimberlake.png', 'Im_ElijahWood.png'],diff,1,0.6419000999994751,3,85.71428571428571,
DEMA2901,train,inv,90,pos90_id13_im15.bmp_pos90_id11_im1.bmp,['Im_RobertPattinson.png', 'Im_RyanReynolds.png', 'Im_LeonardoDiCaprio.png', 'Im_HughJackman.png', 'Im_GeorgeClooney.png', 'Im_RobertDowneyJr.png', 'Im_KeanuReeves.png', 'Im_MattDamon.png', 'Im_JustinTimberlake.png', 'Im_ElijahWood.png'],same,0,1.6919199000003573,3,85.71428571428571,
DEMA2901,train,inv,fs,posfs_id6_im19.bmp_posfs_id6_im12.bmp,['Im_RobertPattinson.png', 'Im_RyanReynolds.png', 'Im_LeonardoDiCaprio.png', 'Im_HughJackman.png', 'Im_GeorgeClooney.png', 'Im_RobertDowneyJr.png', 'Im_KeanuReeves.png', 'Im_MattDamon.png', 'Im_JustinTimberlake.png', 'Im_ElijahWood.png'],same,1,0.5919845000007626,4,85.71428571428571,
DEMA2901,train,inv,fs,posfs_id13_im10.bmp_posfs_id13_im15.bmp,['Im_RobertPattinson.png', 'Im_RyanReynolds.png', 'Im_LeonardoDiCaprio.png', 'Im_HughJackman.png', 'Im_GeorgeClooney.png', 'Im_RobertDowneyJr.png', 'Im_KeanuReeves.png', 'Im_MattDamon.png', 'Im_JustinTimberlake.png', 'Im_ElijahWood.png'],same,1,0.4167053000001033,5,85.71428571428571,
DEMA2901,train,inv,60,pos60_id11_im1.bmp_pos60_id13_im15.bmp,['Im_RobertPattinson.png', 'Im_RyanReynolds.png', 'Im_LeonardoDiCaprio.png', 'Im_HughJackman.png', 'Im_GeorgeClooney.png', 'Im_RobertDowneyJr.png', 'Im_KeanuReeves.png', 'Im_MattDamon.png', 'Im_JustinTimberlake.png', 'Im_ElijahWood.png'],diff,1,0.4419312000009086,6,85.71428571428571,
DEMA2901,train,inv,0,pos0_id14_im16.bmp_pos0_id14_im24.bmp,['Im_RobertPattinson.png', 'Im_RyanReynolds.png', 'Im_LeonardoDiCaprio.png', 'Im_HughJackman.png', 'Im_GeorgeClooney.png', 'Im_RobertDowneyJr.png', 'Im_KeanuReeves.png', 'Im_MattDamon.png', 'Im_JustinTimberlake.png', 'Im_ElijahWood.png'],same,1,0.9417240999991918,7,85.71428571428571,
DEMA2901,train,inv,90,pos90_id7_im14.bmp_pos90_id7_im26.bmp,['Im_RobertPattinson.png', 'Im_RyanReynolds.png', 'Im_LeonardoDiCaprio.png', 'Im_HughJackman.png', 'Im_GeorgeClooney.png', 'Im_RobertDowneyJr.png', 'Im_KeanuReeves.png', 'Im_MattDamon.png', 'Im_JustinTimberlake.png', 'Im_ElijahWood.png'],diff,0,1.041556500000297,7,85.71428571428571,
DEMA2901,train,inv,60,pos60_id13_im29.bmp_pos60_id13_im10.bmp,['Im_RobertPattinson.png', 'Im_RyanReynolds.png', 'Im_LeonardoDiCaprio.png', 'Im_HughJackman.png', 'Im_GeorgeClooney.png', 'Im_RobertDowneyJr.png', 'Im_KeanuReeves.png', 'Im_MattDamon.png', 'Im_JustinTimberlake.png', 'Im_ElijahWood.png'],same,1,0.5000731000000087,8,85.71428571428571,
DEMA2901,train,inv,0,pos0_id10_im17.bmp_pos0_id10_im1.bmp,['Im_RobertPattinson.png', 'Im_RyanReynolds.png', 'Im_LeonardoDiCaprio.png', 'Im_HughJackman.png', 'Im_GeorgeClooney.png', 'Im_RobertDowneyJr.png', 'Im_KeanuReeves.png', 'Im_MattDamon.png', 'Im_JustinTimberlake.png', 'Im_ElijahWood.png'],same,1,0.5750353000003088,9,85.71428571428571,
DEMA2901,train,inv,30,pos30_id10_im17.bmp_pos30_id10_im18.bmp,['Im_RobertPattinson.png', 'Im_RyanReynolds.png', 'Im_LeonardoDiCaprio.png', 'Im_HughJackman.png', 'Im_GeorgeClooney.png', 'Im_RobertDowneyJr.png', 'Im_KeanuReeves.png', 'Im_MattDamon.png', 'Im_JustinTimberlake.png', 'Im_ElijahWood.png'],same,1,0.5667320999982621,10,85.71428571428571,
DEMA2901,train,inv,150,pos150_id14_im24.bmp_pos150_id21_im17.bmp,['Im_RobertPattinson.png', 'Im_RyanReynolds.png', 'Im_LeonardoDiCaprio.png', 'Im_HughJackman.png', 'Im_GeorgeClooney.png', 'Im_RobertDowneyJr.png', 'Im_KeanuReeves.png', 'Im_MattDamon.png', 'Im_JustinTimberlake.png', 'Im_ElijahWood.png'],diff,1,0.9085672000001068,11,85.71428571428571,
DEMA2901,train,pos,fs,posfs_id14_im24.bmp_posfs_id6_im19.bmp,['Im_RobertPattinson.png', 'Im_RyanReynolds.png', 'Im_LeonardoDiCaprio.png', 'Im_HughJackman.png', 'Im_GeorgeClooney.png', 'Im_RobertDowneyJr.png', 'Im_KeanuReeves.png', 'Im_MattDamon.png', 'Im_JustinTimberlake.png', 'Im_ElijahWood.png'],diff,1,0.741759299999103,12,85.71428571428571,
DEMA2901,train,pos,60,pos60_id8_im20.bmp_pos60_id8_im21.bmp,['Im_RobertPattinson.png', 'Im_RyanReynolds.png', 'Im_LeonardoDiCaprio.png', 'Im_HughJackman.png', 'Im_GeorgeClooney.png', 'Im_RobertDowneyJr.png', 'Im_KeanuReeves.png', 'Im_MattDamon.png', 'Im_JustinTimberlake.png', 'Im_ElijahWood.png'],same,1,0.5586404000005132,13,85.71428571428571,
DEMA2901,train,pos,fs,posfs_id18_im18.bmp_posfs_id18_im19.bmp,['Im_RobertPattinson.png', 'Im_RyanReynolds.png', 'Im_LeonardoDiCaprio.png', 'Im_HughJackman.png', 'Im_GeorgeClooney.png', 'Im_RobertDowneyJr.png', 'Im_KeanuReeves.png', 'Im_MattDamon.png', 'Im_JustinTimberlake.png', 'Im_ElijahWood.png'],same,1,0.8416932000000088,14,85.71428571428571,
DEMA2901,train,pos,90,pos90_id14_im16.bmp_pos90_id21_im22.bmp,['Im_RobertPattinson.png', 'Im_RyanReynolds.png', 'Im_LeonardoDiCaprio.png', 'Im_HughJackman.png', 'Im_GeorgeClooney.png', 'Im_RobertDowneyJr.png', 'Im_KeanuReeves.png', 'Im_MattDamon.png', 'Im_JustinTimberlake.png', 'Im_ElijahWood.png'],diff,1,0.758118600000671,15,85.71428571428571,
DEMA2901,train,pos,30,pos30_id10_im1.bmp_pos30_id10_im17.bmp,['Im_RobertPattinson.png', 'Im_RyanReynolds.png', 'Im_LeonardoDiCaprio.png', 'Im_HughJackman.png', 'Im_GeorgeClooney.png', 'Im_RobertDowneyJr.png', 'Im_KeanuReeves.png', 'Im_MattDamon.png', 'Im_JustinTimberlake.png', 'Im_ElijahWood.png'],same,1,0.6927309000002424,16,85.71428571428571,
DEMA2901,train,pos,0,pos0_id8_im13.bmp_pos0_id8_im20.bmp,['Im_RobertPattinson.png', 'Im_RyanReynolds.png', 'Im_LeonardoDiCaprio.png', 'Im_HughJackman.png', 'Im_GeorgeClooney.png', 'Im_RobertDowneyJr.png', 'Im_KeanuReeves.png', 'Im_MattDamon.png', 'Im_JustinTimberlake.png', 'Im_ElijahWood.png'],same,1,0.49177769999914744,17,85.71428571428571,
DEMA2901,train,pos,90,pos90_id11_im1.bmp_pos90_id18_im19.bmp,['Im_RobertPattinson.png', 'Im_RyanReynolds.png', 'Im_LeonardoDiCaprio.png', 'Im_HughJackman.png', 'Im_GeorgeClooney.png', 'Im_RobertDowneyJr.png', 'Im_KeanuReeves.png', 'Im_MattDamon.png', 'Im_JustinTimberlake.png', 'Im_ElijahWood.png'],diff,1,0.44154039999921224,18,85.71428571428571,
DEMA2901,train,pos,120,pos120_id21_im22.bmp_pos120_id21_im17.bmp,['Im_RobertPattinson.png', 'Im_RyanReynolds.png', 'Im_LeonardoDiCaprio.png', 'Im_HughJackman.png', 'Im_GeorgeClooney.png', 'Im_RobertDowneyJr.png', 'Im_KeanuReeves.png', 'Im_MattDamon.png', 'Im_JustinTimberlake.png', 'Im_ElijahWood.png'],same,1,0.6166009999997186,19,85.71428571428571,
DEMA2901,train,pos,60,pos60_id11_im10.bmp_pos60_id18_im11.bmp,['Im_RobertPattinson.png', 'Im_RyanReynolds.png', 'Im_LeonardoDiCaprio.png', 'Im_HughJackman.png', 'Im_GeorgeClooney.png', 'Im_RobertDowneyJr.png', 'Im_KeanuReeves.png', 'Im_MattDamon.png', 'Im_JustinTimberlake.png', 'Im_ElijahWood.png'],diff,1,0.8085917999997037,20,85.71428571428571,
DEMA2901,train,pos,30,pos30_id21_im22.bmp_pos30_id8_im21.bmp,['Im_RobertPattinson.png', 'Im_RyanReynolds.png', 'Im_LeonardoDiCaprio.png', 'Im_HughJackman.png', 'Im_GeorgeClooney.png', 'Im_RobertDowneyJr.png', 'Im_KeanuReeves.png', 'Im_MattDamon.png', 'Im_JustinTimberlake.png', 'Im_ElijahWood.png'],diff,1,0.5586801000008563,21,85.71428571428571,
DEMA2901,train,pos,150,pos150_id21_im16.bmp_pos150_id21_im17.bmp,['Im_RobertPattinson.png', 'Im_RyanReynolds.png', 'Im_LeonardoDiCaprio.png', 'Im_HughJackman.png', 'Im_GeorgeClooney.png', 'Im_RobertDowneyJr.png', 'Im_KeanuReeves.png', 'Im_MattDamon.png', 'Im_JustinTimberlake.png', 'Im_ElijahWood.png'],same,1,0.4250718000002962,22,85.71428571428571,
DEMA2901,train,pos,120,pos120_id7_im26.bmp_pos120_id13_im10.bmp,['Im_RobertPattinson.png', 'Im_RyanReynolds.png', 'Im_LeonardoDiCaprio.png', 'Im_HughJackman.png', 'Im_GeorgeClooney.png', 'Im_RobertDowneyJr.png', 'Im_KeanuReeves.png', 'Im_MattDamon.png', 'Im_JustinTimberlake.png', 'Im_ElijahWood.png'],diff,1,0.40869659999953,23,85.71428571428571,
DEMA2901,train,pos,150,pos150_id7_im26.bmp_pos150_id13_im10.bmp,['Im_RobertPattinson.png', 'Im_RyanReynolds.png', 'Im_LeonardoDiCaprio.png', 'Im_HughJackman.png', 'Im_GeorgeClooney.png', 'Im_RobertDowneyJr.png', 'Im_KeanuReeves.png', 'Im_MattDamon.png', 'Im_JustinTimberlake.png', 'Im_ElijahWood.png'],diff,1,1.0917898000006971,24,85.71428571428571,
DEMA2901,train,pos,0,pos0_id8_im21.bmp_pos0_id8_im13.bmp,['Im_RobertPattinson.png', 'Im_RyanReynolds.png', 'Im_LeonardoDiCaprio.png', 'Im_HughJackman.png', 'Im_GeorgeClooney.png', 'Im_RobertDowneyJr.png', 'Im_KeanuReeves.png', 'Im_MattDamon.png', 'Im_JustinTimberlake.png', 'Im_ElijahWood.png'],same,1,0.4250337999983458,25,85.71428571428571,
DEMA2901,train,inv,30,pos30_id18_im18.bmp_pos30_id18_im11.bmp,['Im_RobertPattinson.png', 'Im_RyanReynolds.png', 'Im_LeonardoDiCaprio.png', 'Im_HughJackman.png', 'Im_GeorgeClooney.png', 'Im_RobertDowneyJr.png', 'Im_KeanuReeves.png', 'Im_MattDamon.png', 'Im_JustinTimberlake.png', 'Im_ElijahWood.png'],same,1,0.7921110999996017,26,85.71428571428571,
DEMA2901,train,inv,30,pos30_id10_im18.bmp_pos30_id11_im2.bmp,['Im_RobertPattinson.png', 'Im_RyanReynolds.png', 'Im_LeonardoDiCaprio.png', 'Im_HughJackman.png', 'Im_GeorgeClooney.png', 'Im_RobertDowneyJr.png', 'Im_KeanuReeves.png', 'Im_MattDamon.png', 'Im_JustinTimberlake.png', 'Im_ElijahWood.png'],diff,1,0.5420228999992105,27,85.71428571428571,
DEMA2901,train,inv,150,pos150_id14_im16.bmp_pos150_id14_im18.bmp,['Im_RobertPattinson.png', 'Im_RyanReynolds.png', 'Im_LeonardoDiCaprio.png', 'Im_HughJackman.png', 'Im_GeorgeClooney.png', 'Im_RobertDowneyJr.png', 'Im_KeanuReeves.png', 'Im_MattDamon.png', 'Im_JustinTimberlake.png', 'Im_ElijahWood.png'],diff,0,1.125051999999414,27,85.71428571428571,
DEMA2901,train,inv,120,pos120_id21_im16.bmp_pos120_id11_im2.bmp,['Im_RobertPattinson.png', 'Im_RyanReynolds.png', 'Im_LeonardoDiCaprio.png', 'Im_HughJackman.png', 'Im_GeorgeClooney.png', 'Im_RobertDowneyJr.png', 'Im_KeanuReeves.png', 'Im_MattDamon.png', 'Im_JustinTimberlake.png', 'Im_ElijahWood.png'],diff,1,0.5002189000006183,28,85.71428571428571,
DEMA2901,train,inv,60,pos60_id11_im2.bmp_pos60_id11_im10.bmp,['Im_RobertPattinson.png', 'Im_RyanReynolds.png', 'Im_LeonardoDiCaprio.png', 'Im_HughJackman.png', 'Im_GeorgeClooney.png', 'Im_RobertDowneyJr.png', 'Im_KeanuReeves.png', 'Im_MattDamon.png', 'Im_JustinTimberlake.png', 'Im_ElijahWood.png'],same,1,0.5916347000002133,29,85.71428571428571,
DEMA2901,train,inv,150,pos150_id18_im18.bmp_pos150_id18_im19.bmp,['Im_RobertPattinson.png', 'Im_RyanReynolds.png', 'Im_LeonardoDiCaprio.png', 'Im_HughJackman.png', 'Im_GeorgeClooney.png', 'Im_RobertDowneyJr.png', 'Im_KeanuReeves.png', 'Im_MattDamon.png', 'Im_JustinTimberlake.png', 'Im_ElijahWood.png'],same,1,2.008402900000874,30,85.71428571428571,
DEMA2901,train,inv,0,pos0_id10_im17.bmp_pos0_id10_im18.bmp,['Im_RobertPattinson.png', 'Im_RyanReynolds.png', 'Im_LeonardoDiCaprio.png', 'Im_HughJackman.png', 'Im_GeorgeClooney.png', 'Im_RobertDowneyJr.png', 'Im_KeanuReeves.png', 'Im_MattDamon.png', 'Im_JustinTimberlake.png', 'Im_ElijahWood.png'],same,1,0.6333459000015864,31,85.71428571428571,
DEMA2901,train,inv,0,pos0_id8_im13.bmp_pos0_id13_im29.bmp,['Im_RobertPattinson.png', 'Im_RyanReynolds.png', 'Im_LeonardoDiCaprio.png', 'Im_HughJackman.png', 'Im_GeorgeClooney.png', 'Im_RobertDowneyJr.png', 'Im_KeanuReeves.png', 'Im_MattDamon.png', 'Im_JustinTimberlake.png', 'Im_ElijahWood.png'],diff,1,1.5083627000003617,32,85.71428571428571,
DEMA2901,train,inv,120,pos120_id18_im19.bmp_pos120_id13_im29.bmp,['Im_RobertPattinson.png', 'Im_RyanReynolds.png', 'Im_LeonardoDiCaprio.png', 'Im_HughJackman.png', 'Im_GeorgeClooney.png', 'Im_RobertDowneyJr.png', 'Im_KeanuReeves.png', 'Im_MattDamon.png', 'Im_JustinTimberlake.png', 'Im_ElijahWood.png'],diff,1,0.48345770000014454,33,85.71428571428571,
DEMA2901,train,inv,60,pos60_id6_im19.bmp_pos60_id6_im18.bmp,['Im_RobertPattinson.png', 'Im_RyanReynolds.png', 'Im_LeonardoDiCaprio.png', 'Im_HughJackman.png', 'Im_GeorgeClooney.png', 'Im_RobertDowneyJr.png', 'Im_KeanuReeves.png', 'Im_MattDamon.png', 'Im_JustinTimberlake.png', 'Im_ElijahWood.png'],same,1,1.2418238000009296,34,85.71428571428571,
DEMA2901,train,inv,fs,posfs_id21_im16.bmp_posfs_id11_im2.bmp,['Im_RobertPattinson.png', 'Im_RyanReynolds.png', 'Im_LeonardoDiCaprio.png', 'Im_HughJackman.png', 'Im_GeorgeClooney.png', 'Im_RobertDowneyJr.png', 'Im_KeanuReeves.png', 'Im_MattDamon.png', 'Im_JustinTimberlake.png', 'Im_ElijahWood.png'],diff,1,0.5498649000001024,35,85.71428571428571,
DEMA2901,train,inv,90,pos90_id10_im1.bmp_pos90_id10_im17.bmp,['Im_RobertPattinson.png', 'Im_RyanReynolds.png', 'Im_LeonardoDiCaprio.png', 'Im_HughJackman.png', 'Im_GeorgeClooney.png', 'Im_RobertDowneyJr.png', 'Im_KeanuReeves.png', 'Im_MattDamon.png', 'Im_JustinTimberlake.png', 'Im_ElijahWood.png'],diff,0,0.7168369000009989,35,85.71428571428571,
DEMA2901,train,inv,90,pos90_id14_im16.bmp_pos90_id14_im24.bmp,['Im_RobertPattinson.png', 'Im_RyanReynolds.png', 'Im_LeonardoDiCaprio.png', 'Im_HughJackman.png', 'Im_GeorgeClooney.png', 'Im_RobertDowneyJr.png', 'Im_KeanuReeves.png', 'Im_MattDamon.png', 'Im_JustinTimberlake.png', 'Im_ElijahWood.png'],same,1,0.7832428999990952,36,85.71428571428571,
DEMA2901,train,inv,fs,posfs_id21_im17.bmp_posfs_id10_im17.bmp,['Im_RobertPattinson.png', 'Im_RyanReynolds.png', 'Im_LeonardoDiCaprio.png', 'Im_HughJackman.png', 'Im_GeorgeClooney.png', 'Im_RobertDowneyJr.png', 'Im_KeanuReeves.png', 'Im_MattDamon.png', 'Im_JustinTimberlake.png', 'Im_ElijahWood.png'],diff,1,1.06666530000075,37,85.71428571428571,
DEMA2901,0,neg,30,neg30_id19_im27.bmp_neg30_id13_im10.bmp,['Im_RobertPattinson.png', 'Im_RyanReynolds.png', 'Im_LeonardoDiCaprio.png', 'Im_HughJackman.png', 'Im_GeorgeClooney.png', 'Im_RobertDowneyJr.png', 'Im_KeanuReeves.png', 'Im_MattDamon.png', 'Im_JustinTimberlake.png', 'Im_ElijahWood.png'],diff,1,0.6253921999996237,1,0,
DEMA2901,0,neg,60,neg60_id18_im11.bmp_neg60_id11_im10.bmp,['Im_RobertPattinson.png', 'Im_RyanReynolds.png', 'Im_LeonardoDiCaprio.png', 'Im_HughJackman.png', 'Im_GeorgeClooney.png', 'Im_RobertDowneyJr.png', 'Im_KeanuReeves.png', 'Im_MattDamon.png', 'Im_JustinTimberlake.png', 'Im_ElijahWood.png'],diff,1,1.8835626000000047,2,0,
DEMA2901,0,neg,150,neg150_id14_im16.bmp_neg150_id14_im24.bmp,['Im_RobertPattinson.png', 'Im_RyanReynolds.png', 'Im_LeonardoDiCaprio.png', 'Im_HughJackman.png', 'Im_GeorgeClooney.png', 'Im_RobertDowneyJr.png', 'Im_KeanuReeves.png', 'Im_MattDamon.png', 'Im_JustinTimberlake.png', 'Im_ElijahWood.png'],same,1,1.5251459000010072,3,0,
DEMA2901,0,neg,30,neg30_id7_im26.bmp_neg30_id7_im14.bmp,['Im_RobertPattinson.png', 'Im_RyanReynolds.png', 'Im_LeonardoDiCaprio.png', 'Im_HughJackman.png', 'Im_GeorgeClooney.png', 'Im_RobertDowneyJr.png', 'Im_KeanuReeves.png', 'Im_MattDamon.png', 'Im_JustinTimberlake.png', 'Im_ElijahWood.png'],same,1,0.4668617000006634,4,0,
DEMA2901,0,neg,0,neg0_id13_im15.bmp_neg0_id7_im15.bmp,['Im_RobertPattinson.png', 'Im_RyanReynolds.png', 'Im_LeonardoDiCaprio.png', 'Im_HughJackman.png', 'Im_GeorgeClooney.png', 'Im_RobertDowneyJr.png', 'Im_KeanuReeves.png', 'Im_MattDamon.png', 'Im_JustinTimberlake.png', 'Im_ElijahWood.png'],diff,1,1.475606299998617,5,0,
DEMA2901,0,neg,0,neg0_id7_im26.bmp_neg0_id19_im4.bmp,['Im_RobertPattinson.png', 'Im_RyanReynolds.png', 'Im_LeonardoDiCaprio.png', 'Im_HughJackman.png', 'Im_GeorgeClooney.png', 'Im_RobertDowneyJr.png', 'Im_KeanuReeves.png', 'Im_MattDamon.png', 'Im_JustinTimberlake.png', 'Im_ElijahWood.png'],diff,1,0.7753243999995902,6,0,
DEMA2901,0,neg,fs,negfs_id10_im1.bmp_negfs_id10_im18.bmp,['Im_RobertPattinson.png', 'Im_RyanReynolds.png', 'Im_LeonardoDiCaprio.png', 'Im_HughJackman.png', 'Im_GeorgeClooney.png', 'Im_RobertDowneyJr.png', 'Im_KeanuReeves.png', 'Im_MattDamon.png', 'Im_JustinTimberlake.png', 'Im_ElijahWood.png'],same,1,0.5585862999996607,7,0,
DEMA2901,0,neg,90,neg90_id8_im13.bmp_neg90_id6_im18.bmp,['Im_RobertPattinson.png', 'Im_RyanReynolds.png', 'Im_LeonardoDiCaprio.png', 'Im_HughJackman.png', 'Im_GeorgeClooney.png', 'Im_RobertDowneyJr.png', 'Im_KeanuReeves.png', 'Im_MattDamon.png', 'Im_JustinTimberlake.png', 'Im_ElijahWood.png'],diff,1,0.5083598000001075,8,0,
DEMA2901,0,neg,150,neg150_id8_im13.bmp_neg150_id8_im20.bmp,['Im_RobertPattinson.png', 'Im_RyanReynolds.png', 'Im_LeonardoDiCaprio.png', 'Im_HughJackman.png', 'Im_GeorgeClooney.png', 'Im_RobertDowneyJr.png', 'Im_KeanuReeves.png', 'Im_MattDamon.png', 'Im_JustinTimberlake.png', 'Im_ElijahWood.png'],same,1,0.43355200000041805,9,0,
DEMA2901,0,neg,90,neg90_id13_im15.bmp_neg90_id11_im1.bmp,['Im_RobertPattinson.png', 'Im_RyanReynolds.png', 'Im_LeonardoDiCaprio.png', 'Im_HughJackman.png', 'Im_GeorgeClooney.png', 'Im_RobertDowneyJr.png', 'Im_KeanuReeves.png', 'Im_MattDamon.png', 'Im_JustinTimberlake.png', 'Im_ElijahWood.png'],diff,1,0.7252017999999225,10,0,
DEMA2901,0,neg,120,neg120_id21_im16.bmp_neg120_id21_im22.bmp,['Im_RobertPattinson.png', 'Im_RyanReynolds.png', 'Im_LeonardoDiCaprio.png', 'Im_HughJackman.png', 'Im_GeorgeClooney.png', 'Im_RobertDowneyJr.png', 'Im_KeanuReeves.png', 'Im_MattDamon.png', 'Im_JustinTimberlake.png', 'Im_ElijahWood.png'],same,1,0.6754304000005504,11,0,
DEMA2901,0,neg,fs,negfs_id14_im16.bmp_negfs_id14_im18.bmp,['Im_RobertPattinson.png', 'Im_RyanReynolds.png', 'Im_LeonardoDiCaprio.png', 'Im_HughJackman.png', 'Im_GeorgeClooney.png', 'Im_RobertDowneyJr.png', 'Im_KeanuReeves.png', 'Im_MattDamon.png', 'Im_JustinTimberlake.png', 'Im_ElijahWood.png'],same,1,0.6000452000007499,12,0,
DEMA2901,0,neg,120,neg120_id13_im10.bmp_neg120_id13_im15.bmp,['Im_RobertPattinson.png', 'Im_RyanReynolds.png', 'Im_LeonardoDiCaprio.png', 'Im_HughJackman.png', 'Im_GeorgeClooney.png', 'Im_RobertDowneyJr.png', 'Im_KeanuReeves.png', 'Im_MattDamon.png', 'Im_JustinTimberlake.png', 'Im_ElijahWood.png'],same,1,0.4253286000002845,13,0,
DEMA2901,0,neg,60,neg60_id13_im29.bmp_neg60_id8_im13.bmp,['Im_RobertPattinson.png', 'Im_RyanReynolds.png', 'Im_LeonardoDiCaprio.png', 'Im_HughJackman.png', 'Im_GeorgeClooney.png', 'Im_RobertDowneyJr.png', 'Im_KeanuReeves.png', 'Im_MattDamon.png', 'Im_JustinTimberlake.png', 'Im_ElijahWood.png'],diff,1,0.6000712999993993,14,0,
DEMA2901,1,neg,60,neg60_id18_im11.bmp_neg60_id6_im12.bmp,['Im_RobertPattinson.png', 'Im_RyanReynolds.png', 'Im_LeonardoDiCaprio.png', 'Im_HughJackman.png', 'Im_GeorgeClooney.png', 'Im_RobertDowneyJr.png', 'Im_KeanuReeves.png', 'Im_MattDamon.png', 'Im_JustinTimberlake.png', 'Im_ElijahWood.png'],diff,1,0.43339539999942644,15,0,
DEMA2901,1,neg,30,neg30_id21_im17.bmp_neg30_id21_im22.bmp,['Im_RobertPattinson.png', 'Im_RyanReynolds.png', 'Im_LeonardoDiCaprio.png', 'Im_HughJackman.png', 'Im_GeorgeClooney.png', 'Im_RobertDowneyJr.png', 'Im_KeanuReeves.png', 'Im_MattDamon.png', 'Im_JustinTimberlake.png', 'Im_ElijahWood.png'],same,1,0.45037049999882584,16,0,
DEMA2901,1,neg,150,neg150_id8_im20.bmp_neg150_id18_im18.bmp,['Im_RobertPattinson.png', 'Im_RyanReynolds.png', 'Im_LeonardoDiCaprio.png', 'Im_HughJackman.png', 'Im_GeorgeClooney.png', 'Im_RobertDowneyJr.png', 'Im_KeanuReeves.png', 'Im_MattDamon.png', 'Im_JustinTimberlake.png', 'Im_ElijahWood.png'],diff,1,0.4250695999999152,17,0,
DEMA2901,1,neg,fs,negfs_id11_im2.bmp_negfs_id11_im10.bmp,['Im_RobertPattinson.png', 'Im_RyanReynolds.png', 'Im_LeonardoDiCaprio.png', 'Im_HughJackman.png', 'Im_GeorgeClooney.png', 'Im_RobertDowneyJr.png', 'Im_KeanuReeves.png', 'Im_MattDamon.png', 'Im_JustinTimberlake.png', 'Im_ElijahWood.png'],same,1,0.6168476999991981,18,0,
DEMA2901,1,neg,120,neg120_id14_im24.bmp_neg120_id14_im16.bmp,['Im_RobertPattinson.png', 'Im_RyanReynolds.png', 'Im_LeonardoDiCaprio.png', 'Im_HughJackman.png', 'Im_GeorgeClooney.png', 'Im_RobertDowneyJr.png', 'Im_KeanuReeves.png', 'Im_MattDamon.png', 'Im_JustinTimberlake.png', 'Im_ElijahWood.png'],same,1,0.5837487000007968,19,0,
DEMA2901,1,neg,fs,negfs_id13_im29.bmp_negfs_id18_im19.bmp,['Im_RobertPattinson.png', 'Im_RyanReynolds.png', 'Im_LeonardoDiCaprio.png', 'Im_HughJackman.png', 'Im_GeorgeClooney.png', 'Im_RobertDowneyJr.png', 'Im_KeanuReeves.png', 'Im_MattDamon.png', 'Im_JustinTimberlake.png', 'Im_ElijahWood.png'],diff,1,0.41673400000036054,20,0,
DEMA2901,1,neg,0,neg0_id18_im19.bmp_neg0_id11_im1.bmp,['Im_RobertPattinson.png', 'Im_RyanReynolds.png', 'Im_LeonardoDiCaprio.png', 'Im_HughJackman.png', 'Im_GeorgeClooney.png', 'Im_RobertDowneyJr.png', 'Im_KeanuReeves.png', 'Im_MattDamon.png', 'Im_JustinTimberlake.png', 'Im_ElijahWood.png'],diff,1,1.4250861999989866,21,0,
DEMA2901,1,neg,0,neg0_id14_im16.bmp_neg0_id14_im18.bmp,['Im_RobertPattinson.png', 'Im_RyanReynolds.png', 'Im_LeonardoDiCaprio.png', 'Im_HughJackman.png', 'Im_GeorgeClooney.png', 'Im_RobertDowneyJr.png', 'Im_KeanuReeves.png', 'Im_MattDamon.png', 'Im_JustinTimberlake.png', 'Im_ElijahWood.png'],same,1,0.8833345999992162,22,0,
DEMA2901,1,neg,60,neg60_id10_im17.bmp_neg60_id21_im17.bmp,['Im_RobertPattinson.png', 'Im_RyanReynolds.png', 'Im_LeonardoDiCaprio.png', 'Im_HughJackman.png', 'Im_GeorgeClooney.png', 'Im_RobertDowneyJr.png', 'Im_KeanuReeves.png', 'Im_MattDamon.png', 'Im_JustinTimberlake.png', 'Im_ElijahWood.png'],diff,1,0.42496700000083365,23,0,
DEMA2901,1,neg,30,neg30_id18_im19.bmp_neg30_id11_im1.bmp,['Im_RobertPattinson.png', 'Im_RyanReynolds.png', 'Im_LeonardoDiCaprio.png', 'Im_HughJackman.png', 'Im_GeorgeClooney.png', 'Im_RobertDowneyJr.png', 'Im_KeanuReeves.png', 'Im_MattDamon.png', 'Im_JustinTimberlake.png', 'Im_ElijahWood.png'],diff,1,1.5753375999993295,24,0,
DEMA2901,1,neg,90,neg90_id10_im17.bmp_neg90_id10_im18.bmp,['Im_RobertPattinson.png', 'Im_RyanReynolds.png', 'Im_LeonardoDiCaprio.png', 'Im_HughJackman.png', 'Im_GeorgeClooney.png', 'Im_RobertDowneyJr.png', 'Im_KeanuReeves.png', 'Im_MattDamon.png', 'Im_JustinTimberlake.png', 'Im_ElijahWood.png'],same,1,0.6003053000004002,25,0,
DEMA2901,1,neg,90,neg90_id19_im8.bmp_neg90_id6_im18.bmp,['Im_RobertPattinson.png', 'Im_RyanReynolds.png', 'Im_LeonardoDiCaprio.png', 'Im_HughJackman.png', 'Im_GeorgeClooney.png', 'Im_RobertDowneyJr.png', 'Im_KeanuReeves.png', 'Im_MattDamon.png', 'Im_JustinTimberlake.png', 'Im_ElijahWood.png'],diff,1,0.5667641000000003,26,0,
DEMA2901,1,neg,120,neg120_id11_im10.bmp_neg120_id11_im1.bmp,['Im_RobertPattinson.png', 'Im_RyanReynolds.png', 'Im_LeonardoDiCaprio.png', 'Im_HughJackman.png', 'Im_GeorgeClooney.png', 'Im_RobertDowneyJr.png', 'Im_KeanuReeves.png', 'Im_MattDamon.png', 'Im_JustinTimberlake.png', 'Im_ElijahWood.png'],same,1,1.2335571000003256,27,0,
DEMA2901,1,neg,150,neg150_id6_im12.bmp_neg150_id18_im11.bmp,['Im_RobertPattinson.png', 'Im_RyanReynolds.png', 'Im_LeonardoDiCaprio.png', 'Im_HughJackman.png', 'Im_GeorgeClooney.png', 'Im_RobertDowneyJr.png', 'Im_KeanuReeves.png', 'Im_MattDamon.png', 'Im_JustinTimberlake.png', 'Im_ElijahWood.png'],diff,1,0.549927199999729,28,0,
DEMA2901,2,pos,60,pos60_id13_im29.bmp_pos60_id18_im19.bmp,['Im_RobertPattinson.png', 'Im_RyanReynolds.png', 'Im_LeonardoDiCaprio.png', 'Im_HughJackman.png', 'Im_GeorgeClooney.png', 'Im_RobertDowneyJr.png', 'Im_KeanuReeves.png', 'Im_MattDamon.png', 'Im_JustinTimberlake.png', 'Im_ElijahWood.png'],diff,1,0.4666101000002527,29,0,
DEMA2901,2,pos,60,pos60_id18_im19.bmp_pos60_id11_im1.bmp,['Im_RobertPattinson.png', 'Im_RyanReynolds.png', 'Im_LeonardoDiCaprio.png', 'Im_HughJackman.png', 'Im_GeorgeClooney.png', 'Im_RobertDowneyJr.png', 'Im_KeanuReeves.png', 'Im_MattDamon.png', 'Im_JustinTimberlake.png', 'Im_ElijahWood.png'],diff,1,0.5250713999994332,30,0,
DEMA2901,2,pos,30,pos30_id19_im4.bmp_pos30_id19_im8.bmp,['Im_RobertPattinson.png', 'Im_RyanReynolds.png', 'Im_LeonardoDiCaprio.png', 'Im_HughJackman.png', 'Im_GeorgeClooney.png', 'Im_RobertDowneyJr.png', 'Im_KeanuReeves.png', 'Im_MattDamon.png', 'Im_JustinTimberlake.png', 'Im_ElijahWood.png'],same,1,1.3668731999987358,31,0,
DEMA2901,2,pos,120,pos120_id21_im16.bmp_pos120_id21_im22.bmp,['Im_RobertPattinson.png', 'Im_RyanReynolds.png', 'Im_LeonardoDiCaprio.png', 'Im_HughJackman.png', 'Im_GeorgeClooney.png', 'Im_RobertDowneyJr.png', 'Im_KeanuReeves.png', 'Im_MattDamon.png', 'Im_JustinTimberlake.png', 'Im_ElijahWood.png'],same,1,0.4417297999989387,32,0,
DEMA2901,2,pos,120,pos120_id8_im21.bmp_pos120_id8_im13.bmp,['Im_RobertPattinson.png', 'Im_RyanReynolds.png', 'Im_LeonardoDiCaprio.png', 'Im_HughJackman.png', 'Im_GeorgeClooney.png', 'Im_RobertDowneyJr.png', 'Im_KeanuReeves.png', 'Im_MattDamon.png', 'Im_JustinTimberlake.png', 'Im_ElijahWood.png'],same,1,0.41672470000048634,33,0,
DEMA2901,2,pos,90,pos90_id19_im4.bmp_pos90_id7_im15.bmp,['Im_RobertPattinson.png', 'Im_RyanReynolds.png', 'Im_LeonardoDiCaprio.png', 'Im_HughJackman.png', 'Im_GeorgeClooney.png', 'Im_RobertDowneyJr.png', 'Im_KeanuReeves.png', 'Im_MattDamon.png', 'Im_JustinTimberlake.png', 'Im_ElijahWood.png'],diff,1,0.6168524000004254,34,0,
DEMA2901,2,pos,fs,posfs_id21_im16.bmp_posfs_id11_im2.bmp,['Im_RobertPattinson.png', 'Im_RyanReynolds.png', 'Im_LeonardoDiCaprio.png', 'Im_HughJackman.png', 'Im_GeorgeClooney.png', 'Im_RobertDowneyJr.png', 'Im_KeanuReeves.png', 'Im_MattDamon.png', 'Im_JustinTimberlake.png', 'Im_ElijahWood.png'],diff,1,0.41672219999964,35,0,
DEMA2901,2,pos,30,pos30_id11_im1.bmp_pos30_id11_im2.bmp,['Im_RobertPattinson.png', 'Im_RyanReynolds.png', 'Im_LeonardoDiCaprio.png', 'Im_HughJackman.png', 'Im_GeorgeClooney.png', 'Im_RobertDowneyJr.png', 'Im_KeanuReeves.png', 'Im_MattDamon.png', 'Im_JustinTimberlake.png', 'Im_ElijahWood.png'],same,1,0.4167241000013746,36,0,
DEMA2901,2,pos,0,pos0_id14_im18.bmp_pos0_id6_im19.bmp,['Im_RobertPattinson.png', 'Im_RyanReynolds.png', 'Im_LeonardoDiCaprio.png', 'Im_HughJackman.png', 'Im_GeorgeClooney.png', 'Im_RobertDowneyJr.png', 'Im_KeanuReeves.png', 'Im_MattDamon.png', 'Im_JustinTimberlake.png', 'Im_ElijahWood.png'],diff,1,0.6003538000004482,37,0,
DEMA2901,2,pos,150,pos150_id10_im1.bmp_pos150_id7_im14.bmp,['Im_RobertPattinson.png', 'Im_RyanReynolds.png', 'Im_LeonardoDiCaprio.png', 'Im_HughJackman.png', 'Im_GeorgeClooney.png', 'Im_RobertDowneyJr.png', 'Im_KeanuReeves.png', 'Im_MattDamon.png', 'Im_JustinTimberlake.png', 'Im_ElijahWood.png'],diff,1,0.4334590999987995,38,0,
DEMA2901,2,pos,90,pos90_id6_im19.bmp_pos90_id14_im24.bmp,['Im_RobertPattinson.png', 'Im_RyanReynolds.png', 'Im_LeonardoDiCaprio.png', 'Im_HughJackman.png', 'Im_GeorgeClooney.png', 'Im_RobertDowneyJr.png', 'Im_KeanuReeves.png', 'Im_MattDamon.png', 'Im_JustinTimberlake.png', 'Im_ElijahWood.png'],diff,1,0.4168562999984715,39,0,
DEMA2901,2,pos,0,pos0_id19_im4.bmp_pos0_id7_im26.bmp,['Im_RobertPattinson.png', 'Im_RyanReynolds.png', 'Im_LeonardoDiCaprio.png', 'Im_HughJackman.png', 'Im_GeorgeClooney.png', 'Im_RobertDowneyJr.png', 'Im_KeanuReeves.png', 'Im_MattDamon.png', 'Im_JustinTimberlake.png', 'Im_ElijahWood.png'],diff,1,0.42526449999968463,40,0,
DEMA2901,2,pos,fs,posfs_id18_im11.bmp_posfs_id18_im19.bmp,['Im_RobertPattinson.png', 'Im_RyanReynolds.png', 'Im_LeonardoDiCaprio.png', 'Im_HughJackman.png', 'Im_GeorgeClooney.png', 'Im_RobertDowneyJr.png', 'Im_KeanuReeves.png', 'Im_MattDamon.png', 'Im_JustinTimberlake.png', 'Im_ElijahWood.png'],same,1,0.6503092999992077,41,0,
DEMA2901,2,pos,150,pos150_id10_im18.bmp_pos150_id19_im8.bmp,['Im_RobertPattinson.png', 'Im_RyanReynolds.png', 'Im_LeonardoDiCaprio.png', 'Im_HughJackman.png', 'Im_GeorgeClooney.png', 'Im_RobertDowneyJr.png', 'Im_KeanuReeves.png', 'Im_MattDamon.png', 'Im_JustinTimberlake.png', 'Im_ElijahWood.png'],same,0,0.8920481000004656,41,0,
DEMA2901,3,inv,fs,posfs_id7_im26.bmp_posfs_id7_im15.bmp,['Im_RobertPattinson.png', 'Im_RyanReynolds.png', 'Im_LeonardoDiCaprio.png', 'Im_HughJackman.png', 'Im_GeorgeClooney.png', 'Im_RobertDowneyJr.png', 'Im_KeanuReeves.png', 'Im_MattDamon.png', 'Im_JustinTimberlake.png', 'Im_ElijahWood.png'],same,1,0.7000584999987041,1,97.61904761904762,
DEMA2901,3,inv,120,pos120_id8_im21.bmp_pos120_id18_im18.bmp,['Im_RobertPattinson.png', 'Im_RyanReynolds.png', 'Im_LeonardoDiCaprio.png', 'Im_HughJackman.png', 'Im_GeorgeClooney.png', 'Im_RobertDowneyJr.png', 'Im_KeanuReeves.png', 'Im_MattDamon.png', 'Im_JustinTimberlake.png', 'Im_ElijahWood.png'],diff,1,0.5998735000011948,2,97.61904761904762,
DEMA2901,3,inv,60,pos60_id7_im26.bmp_pos60_id7_im15.bmp,['Im_RobertPattinson.png', 'Im_RyanReynolds.png', 'Im_LeonardoDiCaprio.png', 'Im_HughJackman.png', 'Im_GeorgeClooney.png', 'Im_RobertDowneyJr.png', 'Im_KeanuReeves.png', 'Im_MattDamon.png', 'Im_JustinTimberlake.png', 'Im_ElijahWood.png'],same,1,0.41668339999887394,3,97.61904761904762,
DEMA2901,3,inv,30,pos30_id8_im13.bmp_pos30_id8_im21.bmp,['Im_RobertPattinson.png', 'Im_RyanReynolds.png', 'Im_LeonardoDiCaprio.png', 'Im_HughJackman.png', 'Im_GeorgeClooney.png', 'Im_RobertDowneyJr.png', 'Im_KeanuReeves.png', 'Im_MattDamon.png', 'Im_JustinTimberlake.png', 'Im_ElijahWood.png'],same,1,0.4167230999992171,4,97.61904761904762,
DEMA2901,3,inv,30,pos30_id7_im26.bmp_pos30_id19_im4.bmp,['Im_RobertPattinson.png', 'Im_RyanReynolds.png', 'Im_LeonardoDiCaprio.png', 'Im_HughJackman.png', 'Im_GeorgeClooney.png', 'Im_RobertDowneyJr.png', 'Im_KeanuReeves.png', 'Im_MattDamon.png', 'Im_JustinTimberlake.png', 'Im_ElijahWood.png'],diff,1,0.4250374000002921,5,97.61904761904762,
DEMA2901,3,inv,90,pos90_id21_im22.bmp_pos90_id14_im16.bmp,['Im_RobertPattinson.png', 'Im_RyanReynolds.png', 'Im_LeonardoDiCaprio.png', 'Im_HughJackman.png', 'Im_GeorgeClooney.png', 'Im_RobertDowneyJr.png', 'Im_KeanuReeves.png', 'Im_MattDamon.png', 'Im_JustinTimberlake.png', 'Im_ElijahWood.png'],diff,1,0.4585387000006449,6,97.61904761904762,
DEMA2901,3,inv,90,pos90_id8_im20.bmp_pos90_id8_im21.bmp,['Im_RobertPattinson.png', 'Im_RyanReynolds.png', 'Im_LeonardoDiCaprio.png', 'Im_HughJackman.png', 'Im_GeorgeClooney.png', 'Im_RobertDowneyJr.png', 'Im_KeanuReeves.png', 'Im_MattDamon.png', 'Im_JustinTimberlake.png', 'Im_ElijahWood.png'],same,1,0.4084539000014047,7,97.61904761904762,
DEMA2901,3,inv,fs,posfs_id6_im18.bmp_posfs_id19_im8.bmp,['Im_RobertPattinson.png', 'Im_RyanReynolds.png', 'Im_LeonardoDiCaprio.png', 'Im_HughJackman.png', 'Im_GeorgeClooney.png', 'Im_RobertDowneyJr.png', 'Im_KeanuReeves.png', 'Im_MattDamon.png', 'Im_JustinTimberlake.png', 'Im_ElijahWood.png'],diff,1,0.41654580000067654,8,97.61904761904762,
DEMA2901,3,inv,0,pos0_id14_im18.bmp_pos0_id14_im24.bmp,['Im_RobertPattinson.png', 'Im_RyanReynolds.png', 'Im_LeonardoDiCaprio.png', 'Im_HughJackman.png', 'Im_GeorgeClooney.png', 'Im_RobertDowneyJr.png', 'Im_KeanuReeves.png', 'Im_MattDamon.png', 'Im_JustinTimberlake.png', 'Im_ElijahWood.png'],same,1,0.43369409999831987,9,97.61904761904762,
DEMA2901,3,inv,60,pos60_id18_im11.bmp_pos60_id18_im18.bmp,['Im_RobertPattinson.png', 'Im_RyanReynolds.png', 'Im_LeonardoDiCaprio.png', 'Im_HughJackman.png', 'Im_GeorgeClooney.png', 'Im_RobertDowneyJr.png', 'Im_KeanuReeves.png', 'Im_MattDamon.png', 'Im_JustinTimberlake.png', 'Im_ElijahWood.png'],same,1,0.8002181000010751,10,97.61904761904762,
DEMA2901,3,inv,150,pos150_id13_im29.bmp_pos150_id8_im13.bmp,['Im_RobertPattinson.png', 'Im_RyanReynolds.png', 'Im_LeonardoDiCaprio.png', 'Im_HughJackman.png', 'Im_GeorgeClooney.png', 'Im_RobertDowneyJr.png', 'Im_KeanuReeves.png', 'Im_MattDamon.png', 'Im_JustinTimberlake.png', 'Im_ElijahWood.png'],diff,1,0.7335368000003655,11,97.61904761904762,
DEMA2901,3,inv,120,pos120_id10_im1.bmp_pos120_id21_im16.bmp,['Im_RobertPattinson.png', 'Im_RyanReynolds.png', 'Im_LeonardoDiCaprio.png', 'Im_HughJackman.png', 'Im_GeorgeClooney.png', 'Im_RobertDowneyJr.png', 'Im_KeanuReeves.png', 'Im_MattDamon.png', 'Im_JustinTimberlake.png', 'Im_ElijahWood.png'],diff,1,0.5752069999998639,12,97.61904761904762,
DEMA2901,3,inv,150,pos150_id21_im22.bmp_pos150_id21_im17.bmp,['Im_RobertPattinson.png', 'Im_RyanReynolds.png', 'Im_LeonardoDiCaprio.png', 'Im_HughJackman.png', 'Im_GeorgeClooney.png', 'Im_RobertDowneyJr.png', 'Im_KeanuReeves.png', 'Im_MattDamon.png', 'Im_JustinTimberlake.png', 'Im_ElijahWood.png'],same,1,0.4168914000001678,13,97.61904761904762,
DEMA2901,3,inv,0,pos0_id18_im11.bmp_pos0_id6_im12.bmp,['Im_RobertPattinson.png', 'Im_RyanReynolds.png', 'Im_LeonardoDiCaprio.png', 'Im_HughJackman.png', 'Im_GeorgeClooney.png', 'Im_RobertDowneyJr.png', 'Im_KeanuReeves.png', 'Im_MattDamon.png', 'Im_JustinTimberlake.png', 'Im_ElijahWood.png'],diff,1,0.42506630000025325,14,97.61904761904762,
DEMA2901,4,pos,60,pos60_id14_im16.bmp_pos60_id11_im10.bmp,['Im_RobertPattinson.png', 'Im_RyanReynolds.png', 'Im_LeonardoDiCaprio.png', 'Im_HughJackman.png', 'Im_GeorgeClooney.png', 'Im_RobertDowneyJr.png', 'Im_KeanuReeves.png', 'Im_MattDamon.png', 'Im_JustinTimberlake.png', 'Im_ElijahWood.png'],diff,1,0.41674370000146155,15,97.61904761904762,
DEMA2901,4,pos,fs,posfs_id19_im4.bmp_posfs_id19_im27.bmp,['Im_RobertPattinson.png', 'Im_RyanReynolds.png', 'Im_LeonardoDiCaprio.png', 'Im_HughJackman.png', 'Im_GeorgeClooney.png', 'Im_RobertDowneyJr.png', 'Im_KeanuReeves.png', 'Im_MattDamon.png', 'Im_JustinTimberlake.png', 'Im_ElijahWood.png'],same,1,0.42498950000117475,16,97.61904761904762,
DEMA2901,4,pos,120,pos120_id8_im20.bmp_pos120_id19_im27.bmp,['Im_RobertPattinson.png', 'Im_RyanReynolds.png', 'Im_LeonardoDiCaprio.png', 'Im_HughJackman.png', 'Im_GeorgeClooney.png', 'Im_RobertDowneyJr.png', 'Im_KeanuReeves.png', 'Im_MattDamon.png', 'Im_JustinTimberlake.png', 'Im_ElijahWood.png'],diff,1,0.5667589999993652,17,97.61904761904762,
DEMA2901,4,pos,120,pos120_id14_im16.bmp_pos120_id14_im24.bmp,['Im_RobertPattinson.png', 'Im_RyanReynolds.png', 'Im_LeonardoDiCaprio.png', 'Im_HughJackman.png', 'Im_GeorgeClooney.png', 'Im_RobertDowneyJr.png', 'Im_KeanuReeves.png', 'Im_MattDamon.png', 'Im_JustinTimberlake.png', 'Im_ElijahWood.png'],same,1,0.41678370000045106,18,97.61904761904762,
DEMA2901,4,pos,150,pos150_id8_im13.bmp_pos150_id8_im21.bmp,['Im_RobertPattinson.png', 'Im_RyanReynolds.png', 'Im_LeonardoDiCaprio.png', 'Im_HughJackman.png', 'Im_GeorgeClooney.png', 'Im_RobertDowneyJr.png', 'Im_KeanuReeves.png', 'Im_MattDamon.png', 'Im_JustinTimberlake.png', 'Im_ElijahWood.png'],same,1,0.41663599999992584,19,97.61904761904762,
DEMA2901,4,pos,30,pos30_id8_im13.bmp_pos30_id13_im29.bmp,['Im_RobertPattinson.png', 'Im_RyanReynolds.png', 'Im_LeonardoDiCaprio.png', 'Im_HughJackman.png', 'Im_GeorgeClooney.png', 'Im_RobertDowneyJr.png', 'Im_KeanuReeves.png', 'Im_MattDamon.png', 'Im_JustinTimberlake.png', 'Im_ElijahWood.png'],diff,1,0.4164710000004561,20,97.61904761904762,
DEMA2901,4,pos,30,pos30_id10_im1.bmp_pos30_id10_im18.bmp,['Im_RobertPattinson.png', 'Im_RyanReynolds.png', 'Im_LeonardoDiCaprio.png', 'Im_HughJackman.png', 'Im_GeorgeClooney.png', 'Im_RobertDowneyJr.png', 'Im_KeanuReeves.png', 'Im_MattDamon.png', 'Im_JustinTimberlake.png', 'Im_ElijahWood.png'],same,1,0.42502389999935986,21,97.61904761904762,
DEMA2901,4,pos,150,pos150_id6_im19.bmp_pos150_id6_im18.bmp,['Im_RobertPattinson.png', 'Im_RyanReynolds.png', 'Im_LeonardoDiCaprio.png', 'Im_HughJackman.png', 'Im_GeorgeClooney.png', 'Im_RobertDowneyJr.png', 'Im_KeanuReeves.png', 'Im_MattDamon.png', 'Im_JustinTimberlake.png', 'Im_ElijahWood.png'],same,1,0.5085328000004665,22,97.61904761904762,
DEMA2901,4,pos,0,pos0_id6_im18.bmp_pos0_id8_im13.bmp,['Im_RobertPattinson.png', 'Im_RyanReynolds.png', 'Im_LeonardoDiCaprio.png', 'Im_HughJackman.png', 'Im_GeorgeClooney.png', 'Im_RobertDowneyJr.png', 'Im_KeanuReeves.png', 'Im_MattDamon.png', 'Im_JustinTimberlake.png', 'Im_ElijahWood.png'],diff,1,0.4248920999998518,23,97.61904761904762,
DEMA2901,4,pos,90,pos90_id6_im12.bmp_pos90_id6_im19.bmp,['Im_RobertPattinson.png', 'Im_RyanReynolds.png', 'Im_LeonardoDiCaprio.png', 'Im_HughJackman.png', 'Im_GeorgeClooney.png', 'Im_RobertDowneyJr.png', 'Im_KeanuReeves.png', 'Im_MattDamon.png', 'Im_JustinTimberlake.png', 'Im_ElijahWood.png'],same,1,0.4167254000003595,24,97.61904761904762,
DEMA2901,4,pos,90,pos90_id14_im16.bmp_pos90_id11_im10.bmp,['Im_RobertPattinson.png', 'Im_RyanReynolds.png', 'Im_LeonardoDiCaprio.png', 'Im_HughJackman.png', 'Im_GeorgeClooney.png', 'Im_RobertDowneyJr.png', 'Im_KeanuReeves.png', 'Im_MattDamon.png', 'Im_JustinTimberlake.png', 'Im_ElijahWood.png'],diff,1,0.42500359999939974,25,97.61904761904762,
DEMA2901,4,pos,fs,posfs_id13_im29.bmp_posfs_id8_im13.bmp,['Im_RobertPattinson.png', 'Im_RyanReynolds.png', 'Im_LeonardoDiCaprio.png', 'Im_HughJackman.png', 'Im_GeorgeClooney.png', 'Im_RobertDowneyJr.png', 'Im_KeanuReeves.png', 'Im_MattDamon.png', 'Im_JustinTimberlake.png', 'Im_ElijahWood.png'],diff,1,0.4167464000001928,26,97.61904761904762,
DEMA2901,4,pos,0,pos0_id14_im16.bmp_pos0_id14_im24.bmp,['Im_RobertPattinson.png', 'Im_RyanReynolds.png', 'Im_LeonardoDiCaprio.png', 'Im_HughJackman.png', 'Im_GeorgeClooney.png', 'Im_RobertDowneyJr.png', 'Im_KeanuReeves.png', 'Im_MattDamon.png', 'Im_JustinTimberlake.png', 'Im_ElijahWood.png'],diff,0,1.5505214000004344,26,97.61904761904762,
DEMA2901,4,pos,60,pos60_id6_im18.bmp_pos60_id6_im12.bmp,['Im_RobertPattinson.png', 'Im_RyanReynolds.png', 'Im_LeonardoDiCaprio.png', 'Im_HughJackman.png', 'Im_GeorgeClooney.png', 'Im_RobertDowneyJr.png', 'Im_KeanuReeves.png', 'Im_MattDamon.png', 'Im_JustinTimberlake.png', 'Im_ElijahWood.png'],same,1,0.4167940000006638,27,97.61904761904762,
DEMA2901,5,inv,60,pos60_id13_im10.bmp_pos60_id13_im15.bmp,['Im_RobertPattinson.png', 'Im_RyanReynolds.png', 'Im_LeonardoDiCaprio.png', 'Im_HughJackman.png', 'Im_GeorgeClooney.png', 'Im_RobertDowneyJr.png', 'Im_KeanuReeves.png', 'Im_MattDamon.png', 'Im_JustinTimberlake.png', 'Im_ElijahWood.png'],same,1,0.7752837000007275,28,97.61904761904762,
DEMA2901,5,inv,90,pos90_id7_im26.bmp_pos90_id7_im15.bmp,['Im_RobertPattinson.png', 'Im_RyanReynolds.png', 'Im_LeonardoDiCaprio.png', 'Im_HughJackman.png', 'Im_GeorgeClooney.png', 'Im_RobertDowneyJr.png', 'Im_KeanuReeves.png', 'Im_MattDamon.png', 'Im_JustinTimberlake.png', 'Im_ElijahWood.png'],same,1,0.41671130000031553,29,97.61904761904762,
DEMA2901,5,inv,90,pos90_id19_im8.bmp_pos90_id19_im4.bmp,['Im_RobertPattinson.png', 'Im_RyanReynolds.png', 'Im_LeonardoDiCaprio.png', 'Im_HughJackman.png', 'Im_GeorgeClooney.png', 'Im_RobertDowneyJr.png', 'Im_KeanuReeves.png', 'Im_MattDamon.png', 'Im_JustinTimberlake.png', 'Im_ElijahWood.png'],diff,0,0.5752234999999928,29,97.61904761904762,
DEMA2901,5,inv,fs,posfs_id21_im17.bmp_posfs_id21_im16.bmp,['Im_RobertPattinson.png', 'Im_RyanReynolds.png', 'Im_LeonardoDiCaprio.png', 'Im_HughJackman.png', 'Im_GeorgeClooney.png', 'Im_RobertDowneyJr.png', 'Im_KeanuReeves.png', 'Im_MattDamon.png', 'Im_JustinTimberlake.png', 'Im_ElijahWood.png'],same,1,0.42495469999994384,30,97.61904761904762,
DEMA2901,5,inv,30,pos30_id7_im14.bmp_pos30_id7_im26.bmp,['Im_RobertPattinson.png', 'Im_RyanReynolds.png', 'Im_LeonardoDiCaprio.png', 'Im_HughJackman.png', 'Im_GeorgeClooney.png', 'Im_RobertDowneyJr.png', 'Im_KeanuReeves.png', 'Im_MattDamon.png', 'Im_JustinTimberlake.png', 'Im_ElijahWood.png'],same,1,0.42582860000038636,31,97.61904761904762,
DEMA2901,5,inv,60,pos60_id8_im21.bmp_pos60_id8_im20.bmp,['Im_RobertPattinson.png', 'Im_RyanReynolds.png', 'Im_LeonardoDiCaprio.png', 'Im_HughJackman.png', 'Im_GeorgeClooney.png', 'Im_RobertDowneyJr.png', 'Im_KeanuReeves.png', 'Im_MattDamon.png', 'Im_JustinTimberlake.png', 'Im_ElijahWood.png'],same,1,0.4250203000010515,32,97.61904761904762,
DEMA2901,5,inv,0,pos0_id14_im18.bmp_pos0_id6_im19.bmp,['Im_RobertPattinson.png', 'Im_RyanReynolds.png', 'Im_LeonardoDiCaprio.png', 'Im_HughJackman.png', 'Im_GeorgeClooney.png', 'Im_RobertDowneyJr.png', 'Im_KeanuReeves.png', 'Im_MattDamon.png', 'Im_JustinTimberlake.png', 'Im_ElijahWood.png'],diff,1,0.4335623000006308,33,97.61904761904762,
DEMA2901,5,inv,120,pos120_id14_im18.bmp_pos120_id6_im19.bmp,['Im_RobertPattinson.png', 'Im_RyanReynolds.png', 'Im_LeonardoDiCaprio.png', 'Im_HughJackman.png', 'Im_GeorgeClooney.png', 'Im_RobertDowneyJr.png', 'Im_KeanuReeves.png', 'Im_MattDamon.png', 'Im_JustinTimberlake.png', 'Im_ElijahWood.png'],diff,1,0.4419634000005317,34,97.61904761904762,
DEMA2901,5,inv,30,pos30_id18_im11.bmp_pos30_id18_im19.bmp,['Im_RobertPattinson.png', 'Im_RyanReynolds.png', 'Im_LeonardoDiCaprio.png', 'Im_HughJackman.png', 'Im_GeorgeClooney.png', 'Im_RobertDowneyJr.png', 'Im_KeanuReeves.png', 'Im_MattDamon.png', 'Im_JustinTimberlake.png', 'Im_ElijahWood.png'],diff,0,0.6585962999997719,34,97.61904761904762,
DEMA2901,5,inv,150,pos150_id10_im17.bmp_pos150_id14_im18.bmp,['Im_RobertPattinson.png', 'Im_RyanReynolds.png', 'Im_LeonardoDiCaprio.png', 'Im_HughJackman.png', 'Im_GeorgeClooney.png', 'Im_RobertDowneyJr.png', 'Im_KeanuReeves.png', 'Im_MattDamon.png', 'Im_JustinTimberlake.png', 'Im_ElijahWood.png'],same,0,0.7417273999999452,34,97.61904761904762,
DEMA2901,5,inv,fs,posfs_id14_im24.bmp_posfs_id14_im16.bmp,['Im_RobertPattinson.png', 'Im_RyanReynolds.png', 'Im_LeonardoDiCaprio.png', 'Im_HughJackman.png', 'Im_GeorgeClooney.png', 'Im_RobertDowneyJr.png', 'Im_KeanuReeves.png', 'Im_MattDamon.png', 'Im_JustinTimberlake.png', 'Im_ElijahWood.png'],same,1,0.908487900000182,35,97.61904761904762,
DEMA2901,5,inv,120,pos120_id6_im12.bmp_pos120_id18_im11.bmp,['Im_RobertPattinson.png', 'Im_RyanReynolds.png', 'Im_LeonardoDiCaprio.png', 'Im_HughJackman.png', 'Im_GeorgeClooney.png', 'Im_RobertDowneyJr.png', 'Im_KeanuReeves.png', 'Im_MattDamon.png', 'Im_JustinTimberlake.png', 'Im_ElijahWood.png'],diff,1,0.7166156000002957,36,97.61904761904762,
DEMA2901,5,inv,150,pos150_id6_im19.bmp_pos150_id6_im12.bmp,['Im_RobertPattinson.png', 'Im_RyanReynolds.png', 'Im_LeonardoDiCaprio.png', 'Im_HughJackman.png', 'Im_GeorgeClooney.png', 'Im_RobertDowneyJr.png', 'Im_KeanuReeves.png', 'Im_MattDamon.png', 'Im_JustinTimberlake.png', 'Im_ElijahWood.png'],same,1,0.7336453999996593,37,97.61904761904762,
DEMA2901,5,inv,0,pos0_id8_im21.bmp_pos0_id18_im18.bmp,['Im_RobertPattinson.png', 'Im_RyanReynolds.png', 'Im_LeonardoDiCaprio.png', 'Im_HughJackman.png', 'Im_GeorgeClooney.png', 'Im_RobertDowneyJr.png', 'Im_KeanuReeves.png', 'Im_MattDamon.png', 'Im_JustinTimberlake.png', 'Im_ElijahWood.png'],same,0,1.2086693000001105,37,97.61904761904762,
DEMA2901,6,neg,0,neg0_id11_im10.bmp_neg0_id18_im11.bmp,['Im_RobertPattinson.png', 'Im_RyanReynolds.png', 'Im_LeonardoDiCaprio.png', 'Im_HughJackman.png', 'Im_GeorgeClooney.png', 'Im_RobertDowneyJr.png', 'Im_KeanuReeves.png', 'Im_MattDamon.png', 'Im_JustinTimberlake.png', 'Im_ElijahWood.png'],diff,1,0.41683910000028845,1,88.0952380952381,
DEMA2901,6,neg,30,neg30_id7_im15.bmp_neg30_id13_im15.bmp,['Im_RobertPattinson.png', 'Im_RyanReynolds.png', 'Im_LeonardoDiCaprio.png', 'Im_HughJackman.png', 'Im_GeorgeClooney.png', 'Im_RobertDowneyJr.png', 'Im_KeanuReeves.png', 'Im_MattDamon.png', 'Im_JustinTimberlake.png', 'Im_ElijahWood.png'],diff,1,0.41669679999904474,2,88.0952380952381,
DEMA2901,6,neg,120,neg120_id7_im14.bmp_neg120_id6_im12.bmp,['Im_RobertPattinson.png', 'Im_RyanReynolds.png', 'Im_LeonardoDiCaprio.png', 'Im_HughJackman.png', 'Im_GeorgeClooney.png', 'Im_RobertDowneyJr.png', 'Im_KeanuReeves.png', 'Im_MattDamon.png', 'Im_JustinTimberlake.png', 'Im_ElijahWood.png'],diff,1,0.4337792999995145,3,88.0952380952381,
DEMA2901,6,neg,60,neg60_id14_im24.bmp_neg60_id14_im18.bmp,['Im_RobertPattinson.png', 'Im_RyanReynolds.png', 'Im_LeonardoDiCaprio.png', 'Im_HughJackman.png', 'Im_GeorgeClooney.png', 'Im_RobertDowneyJr.png', 'Im_KeanuReeves.png', 'Im_MattDamon.png', 'Im_JustinTimberlake.png', 'Im_ElijahWood.png'],diff,0,0.41671710000082385,3,88.0952380952381,
DEMA2901,6,neg,150,neg150_id14_im16.bmp_neg150_id14_im18.bmp,['Im_RobertPattinson.png', 'Im_RyanReynolds.png', 'Im_LeonardoDiCaprio.png', 'Im_HughJackman.png', 'Im_GeorgeClooney.png', 'Im_RobertDowneyJr.png', 'Im_KeanuReeves.png', 'Im_MattDamon.png', 'Im_JustinTimberlake.png', 'Im_ElijahWood.png'],same,1,0.4250197000001208,4,88.0952380952381,
DEMA2901,6,neg,fs,negfs_id21_im22.bmp_negfs_id14_im16.bmp,['Im_RobertPattinson.png', 'Im_RyanReynolds.png', 'Im_LeonardoDiCaprio.png', 'Im_HughJackman.png', 'Im_GeorgeClooney.png', 'Im_RobertDowneyJr.png', 'Im_KeanuReeves.png', 'Im_MattDamon.png', 'Im_JustinTimberlake.png', 'Im_ElijahWood.png'],diff,1,0.7000556999992114,5,88.0952380952381,
DEMA2901,6,neg,60,neg60_id19_im27.bmp_neg60_id19_im8.bmp,['Im_RobertPattinson.png', 'Im_RyanReynolds.png', 'Im_LeonardoDiCaprio.png', 'Im_HughJackman.png', 'Im_GeorgeClooney.png', 'Im_RobertDowneyJr.png', 'Im_KeanuReeves.png', 'Im_MattDamon.png', 'Im_JustinTimberlake.png', 'Im_ElijahWood.png'],same,1,0.4167472999997699,6,88.0952380952381,
DEMA2901,6,neg,120,neg120_id8_im21.bmp_neg120_id18_im18.bmp,['Im_RobertPattinson.png', 'Im_RyanReynolds.png', 'Im_LeonardoDiCaprio.png', 'Im_HughJackman.png', 'Im_GeorgeClooney.png', 'Im_RobertDowneyJr.png', 'Im_KeanuReeves.png', 'Im_MattDamon.png', 'Im_JustinTimberlake.png', 'Im_ElijahWood.png'],diff,1,0.4173380000011093,7,88.0952380952381,
DEMA2901,6,neg,fs,negfs_id6_im18.bmp_negfs_id19_im8.bmp,['Im_RobertPattinson.png', 'Im_RyanReynolds.png', 'Im_LeonardoDiCaprio.png', 'Im_HughJackman.png', 'Im_GeorgeClooney.png', 'Im_RobertDowneyJr.png', 'Im_KeanuReeves.png', 'Im_MattDamon.png', 'Im_JustinTimberlake.png', 'Im_ElijahWood.png'],diff,1,0.9251206999997521,8,88.0952380952381,
DEMA2901,6,neg,90,neg90_id6_im19.bmp_neg90_id14_im24.bmp,['Im_RobertPattinson.png', 'Im_RyanReynolds.png', 'Im_LeonardoDiCaprio.png', 'Im_HughJackman.png', 'Im_GeorgeClooney.png', 'Im_RobertDowneyJr.png', 'Im_KeanuReeves.png', 'Im_MattDamon.png', 'Im_JustinTimberlake.png', 'Im_ElijahWood.png'],diff,1,1.0172676000001957,9,88.0952380952381,
DEMA2901,6,neg,90,neg90_id13_im15.bmp_neg90_id13_im10.bmp,['Im_RobertPattinson.png', 'Im_RyanReynolds.png', 'Im_LeonardoDiCaprio.png', 'Im_HughJackman.png', 'Im_GeorgeClooney.png', 'Im_RobertDowneyJr.png', 'Im_KeanuReeves.png', 'Im_MattDamon.png', 'Im_JustinTimberlake.png', 'Im_ElijahWood.png'],same,1,0.6500407000003179,10,88.0952380952381,
DEMA2901,6,neg,0,neg0_id14_im24.bmp_neg0_id6_im19.bmp,['Im_RobertPattinson.png', 'Im_RyanReynolds.png', 'Im_LeonardoDiCaprio.png', 'Im_HughJackman.png', 'Im_GeorgeClooney.png', 'Im_RobertDowneyJr.png', 'Im_KeanuReeves.png', 'Im_MattDamon.png', 'Im_JustinTimberlake.png', 'Im_ElijahWood.png'],diff,1,0.41676799999913783,11,88.0952380952381,
DEMA2901,6,neg,150,neg150_id7_im15.bmp_neg150_id7_im26.bmp,['Im_RobertPattinson.png', 'Im_RyanReynolds.png', 'Im_LeonardoDiCaprio.png', 'Im_HughJackman.png', 'Im_GeorgeClooney.png', 'Im_RobertDowneyJr.png', 'Im_KeanuReeves.png', 'Im_MattDamon.png', 'Im_JustinTimberlake.png', 'Im_ElijahWood.png'],same,1,0.6334145000000717,12,88.0952380952381,
DEMA2901,6,neg,30,neg30_id8_im13.bmp_neg30_id6_im18.bmp,['Im_RobertPattinson.png', 'Im_RyanReynolds.png', 'Im_LeonardoDiCaprio.png', 'Im_HughJackman.png', 'Im_GeorgeClooney.png', 'Im_RobertDowneyJr.png', 'Im_KeanuReeves.png', 'Im_MattDamon.png', 'Im_JustinTimberlake.png', 'Im_ElijahWood.png'],diff,1,0.42526680000082706,13,88.0952380952381,
DEMA2901,7,neg,120,neg120_id11_im2.bmp_neg120_id10_im18.bmp,['Im_RobertPattinson.png', 'Im_RyanReynolds.png', 'Im_LeonardoDiCaprio.png', 'Im_HughJackman.png', 'Im_GeorgeClooney.png', 'Im_RobertDowneyJr.png', 'Im_KeanuReeves.png', 'Im_MattDamon.png', 'Im_JustinTimberlake.png', 'Im_ElijahWood.png'],diff,1,0.41672620000099414,14,88.0952380952381,
DEMA2901,7,neg,150,neg150_id19_im4.bmp_neg150_id7_im26.bmp,['Im_RobertPattinson.png', 'Im_RyanReynolds.png', 'Im_LeonardoDiCaprio.png', 'Im_HughJackman.png', 'Im_GeorgeClooney.png', 'Im_RobertDowneyJr.png', 'Im_KeanuReeves.png', 'Im_MattDamon.png', 'Im_JustinTimberlake.png', 'Im_ElijahWood.png'],same,0,1.308372400000735,14,88.0952380952381,
DEMA2901,7,neg,150,neg150_id10_im18.bmp_neg150_id19_im8.bmp,['Im_RobertPattinson.png', 'Im_RyanReynolds.png', 'Im_LeonardoDiCaprio.png', 'Im_HughJackman.png', 'Im_GeorgeClooney.png', 'Im_RobertDowneyJr.png', 'Im_KeanuReeves.png', 'Im_MattDamon.png', 'Im_JustinTimberlake.png', 'Im_ElijahWood.png'],same,0,0.8753393000006326,14,88.0952380952381,
DEMA2901,7,neg,60,neg60_id10_im18.bmp_neg60_id10_im17.bmp,['Im_RobertPattinson.png', 'Im_RyanReynolds.png', 'Im_LeonardoDiCaprio.png', 'Im_HughJackman.png', 'Im_GeorgeClooney.png', 'Im_RobertDowneyJr.png', 'Im_KeanuReeves.png', 'Im_MattDamon.png', 'Im_JustinTimberlake.png', 'Im_ElijahWood.png'],same,1,0.5171207000003051,15,88.0952380952381,
DEMA2901,7,neg,fs,negfs_id21_im22.bmp_negfs_id8_im21.bmp,['Im_RobertPattinson.png', 'Im_RyanReynolds.png', 'Im_LeonardoDiCaprio.png', 'Im_HughJackman.png', 'Im_GeorgeClooney.png', 'Im_RobertDowneyJr.png', 'Im_KeanuReeves.png', 'Im_MattDamon.png', 'Im_JustinTimberlake.png', 'Im_ElijahWood.png'],diff,1,1.466952200000378,16,88.0952380952381,
DEMA2901,7,neg,60,neg60_id19_im8.bmp_neg60_id19_im4.bmp,['Im_RobertPattinson.png', 'Im_RyanReynolds.png', 'Im_LeonardoDiCaprio.png', 'Im_HughJackman.png', 'Im_GeorgeClooney.png', 'Im_RobertDowneyJr.png', 'Im_KeanuReeves.png', 'Im_MattDamon.png', 'Im_JustinTimberlake.png', 'Im_ElijahWood.png'],same,1,0.7083137999998144,17,88.0952380952381,
DEMA2901,7,neg,90,neg90_id11_im2.bmp_neg90_id10_im18.bmp,['Im_RobertPattinson.png', 'Im_RyanReynolds.png', 'Im_LeonardoDiCaprio.png', 'Im_HughJackman.png', 'Im_GeorgeClooney.png', 'Im_RobertDowneyJr.png', 'Im_KeanuReeves.png', 'Im_MattDamon.png', 'Im_JustinTimberlake.png', 'Im_ElijahWood.png'],diff,1,0.5333912999994936,18,88.0952380952381,
DEMA2901,7,neg,30,neg30_id18_im19.bmp_neg30_id18_im18.bmp,['Im_RobertPattinson.png', 'Im_RyanReynolds.png', 'Im_LeonardoDiCaprio.png', 'Im_HughJackman.png', 'Im_GeorgeClooney.png', 'Im_RobertDowneyJr.png', 'Im_KeanuReeves.png', 'Im_MattDamon.png', 'Im_JustinTimberlake.png', 'Im_ElijahWood.png'],same,1,0.5915240000013,19,88.0952380952381,
DEMA2901,7,neg,120,neg120_id19_im8.bmp_neg120_id19_im4.bmp,['Im_RobertPattinson.png', 'Im_RyanReynolds.png', 'Im_LeonardoDiCaprio.png', 'Im_HughJackman.png', 'Im_GeorgeClooney.png', 'Im_RobertDowneyJr.png', 'Im_KeanuReeves.png', 'Im_MattDamon.png', 'Im_JustinTimberlake.png', 'Im_ElijahWood.png'],same,1,0.41674410000086937,20,88.0952380952381,
DEMA2901,7,neg,90,neg90_id7_im14.bmp_neg90_id7_im15.bmp,['Im_RobertPattinson.png', 'Im_RyanReynolds.png', 'Im_LeonardoDiCaprio.png', 'Im_HughJackman.png', 'Im_GeorgeClooney.png', 'Im_RobertDowneyJr.png', 'Im_KeanuReeves.png', 'Im_MattDamon.png', 'Im_JustinTimberlake.png', 'Im_ElijahWood.png'],same,1,0.4583206999996037,21,88.0952380952381,
DEMA2901,7,neg,fs,negfs_id7_im14.bmp_negfs_id6_im12.bmp,['Im_RobertPattinson.png', 'Im_RyanReynolds.png', 'Im_LeonardoDiCaprio.png', 'Im_HughJackman.png', 'Im_GeorgeClooney.png', 'Im_RobertDowneyJr.png', 'Im_KeanuReeves.png', 'Im_MattDamon.png', 'Im_JustinTimberlake.png', 'Im_ElijahWood.png'],diff,1,0.40835259999948903,22,88.0952380952381,
DEMA2901,7,neg,30,neg30_id11_im10.bmp_neg30_id11_im2.bmp,['Im_RobertPattinson.png', 'Im_RyanReynolds.png', 'Im_LeonardoDiCaprio.png', 'Im_HughJackman.png', 'Im_GeorgeClooney.png', 'Im_RobertDowneyJr.png', 'Im_KeanuReeves.png', 'Im_MattDamon.png', 'Im_JustinTimberlake.png', 'Im_ElijahWood.png'],same,1,0.5007045000002108,23,88.0952380952381,
DEMA2901,7,neg,0,neg0_id7_im14.bmp_neg0_id7_im26.bmp,['Im_RobertPattinson.png', 'Im_RyanReynolds.png', 'Im_LeonardoDiCaprio.png', 'Im_HughJackman.png', 'Im_GeorgeClooney.png', 'Im_RobertDowneyJr.png', 'Im_KeanuReeves.png', 'Im_MattDamon.png', 'Im_JustinTimberlake.png', 'Im_ElijahWood.png'],same,1,0.8999705000005633,24,88.0952380952381,
DEMA2901,7,neg,0,neg0_id10_im1.bmp_neg0_id7_im14.bmp,['Im_RobertPattinson.png', 'Im_RyanReynolds.png', 'Im_LeonardoDiCaprio.png', 'Im_HughJackman.png', 'Im_GeorgeClooney.png', 'Im_RobertDowneyJr.png', 'Im_KeanuReeves.png', 'Im_MattDamon.png', 'Im_JustinTimberlake.png', 'Im_ElijahWood.png'],same,0,0.6915843000006134,24,88.0952380952381,
DEMA2901,8,inv,0,pos0_id13_im15.bmp_pos0_id7_im15.bmp,['Im_RobertPattinson.png', 'Im_RyanReynolds.png', 'Im_LeonardoDiCaprio.png', 'Im_HughJackman.png', 'Im_GeorgeClooney.png', 'Im_RobertDowneyJr.png', 'Im_KeanuReeves.png', 'Im_MattDamon.png', 'Im_JustinTimberlake.png', 'Im_ElijahWood.png'],diff,1,0.425296100000196,25,88.0952380952381,
DEMA2901,8,inv,120,pos120_id13_im10.bmp_pos120_id19_im27.bmp,['Im_RobertPattinson.png', 'Im_RyanReynolds.png', 'Im_LeonardoDiCaprio.png', 'Im_HughJackman.png', 'Im_GeorgeClooney.png', 'Im_RobertDowneyJr.png', 'Im_KeanuReeves.png', 'Im_MattDamon.png', 'Im_JustinTimberlake.png', 'Im_ElijahWood.png'],diff,1,0.7666181999993569,26,88.0952380952381,
DEMA2901,8,inv,30,pos30_id8_im20.bmp_pos30_id18_im18.bmp,['Im_RobertPattinson.png', 'Im_RyanReynolds.png', 'Im_LeonardoDiCaprio.png', 'Im_HughJackman.png', 'Im_GeorgeClooney.png', 'Im_RobertDowneyJr.png', 'Im_KeanuReeves.png', 'Im_MattDamon.png', 'Im_JustinTimberlake.png', 'Im_ElijahWood.png'],diff,1,0.5082079999992857,27,88.0952380952381,
DEMA2901,8,inv,150,pos150_id21_im17.bmp_pos150_id10_im17.bmp,['Im_RobertPattinson.png', 'Im_RyanReynolds.png', 'Im_LeonardoDiCaprio.png', 'Im_HughJackman.png', 'Im_GeorgeClooney.png', 'Im_RobertDowneyJr.png', 'Im_KeanuReeves.png', 'Im_MattDamon.png', 'Im_JustinTimberlake.png', 'Im_ElijahWood.png'],diff,1,0.7000028999991628,28,88.0952380952381,
DEMA2901,8,inv,0,pos0_id7_im15.bmp_pos0_id7_im14.bmp,['Im_RobertPattinson.png', 'Im_RyanReynolds.png', 'Im_LeonardoDiCaprio.png', 'Im_HughJackman.png', 'Im_GeorgeClooney.png', 'Im_RobertDowneyJr.png', 'Im_KeanuReeves.png', 'Im_MattDamon.png', 'Im_JustinTimberlake.png', 'Im_ElijahWood.png'],same,1,0.508457100000669,29,88.0952380952381,
DEMA2901,8,inv,90,pos90_id8_im13.bmp_pos90_id8_im20.bmp,['Im_RobertPattinson.png', 'Im_RyanReynolds.png', 'Im_LeonardoDiCaprio.png', 'Im_HughJackman.png', 'Im_GeorgeClooney.png', 'Im_RobertDowneyJr.png', 'Im_KeanuReeves.png', 'Im_MattDamon.png', 'Im_JustinTimberlake.png', 'Im_ElijahWood.png'],diff,0,0.5334359999997105,29,88.0952380952381,
DEMA2901,8,inv,30,pos30_id14_im18.bmp_pos30_id14_im16.bmp,['Im_RobertPattinson.png', 'Im_RyanReynolds.png', 'Im_LeonardoDiCaprio.png', 'Im_HughJackman.png', 'Im_GeorgeClooney.png', 'Im_RobertDowneyJr.png', 'Im_KeanuReeves.png', 'Im_MattDamon.png', 'Im_JustinTimberlake.png', 'Im_ElijahWood.png'],same,1,0.4167287000000215,30,88.0952380952381,
DEMA2901,8,inv,fs,posfs_id7_im14.bmp_posfs_id10_im1.bmp,['Im_RobertPattinson.png', 'Im_RyanReynolds.png', 'Im_LeonardoDiCaprio.png', 'Im_HughJackman.png', 'Im_GeorgeClooney.png', 'Im_RobertDowneyJr.png', 'Im_KeanuReeves.png', 'Im_MattDamon.png', 'Im_JustinTimberlake.png', 'Im_ElijahWood.png'],diff,1,1.3833594000006997,31,88.0952380952381,
DEMA2901,8,inv,150,pos150_id14_im24.bmp_pos150_id6_im19.bmp,['Im_RobertPattinson.png', 'Im_RyanReynolds.png', 'Im_LeonardoDiCaprio.png', 'Im_HughJackman.png', 'Im_GeorgeClooney.png', 'Im_RobertDowneyJr.png', 'Im_KeanuReeves.png', 'Im_MattDamon.png', 'Im_JustinTimberlake.png', 'Im_ElijahWood.png'],diff,1,0.4250632000002952,32,88.0952380952381,
DEMA2901,8,inv,120,pos120_id19_im4.bmp_pos120_id7_im15.bmp,['Im_RobertPattinson.png', 'Im_RyanReynolds.png', 'Im_LeonardoDiCaprio.png', 'Im_HughJackman.png', 'Im_GeorgeClooney.png', 'Im_RobertDowneyJr.png', 'Im_KeanuReeves.png', 'Im_MattDamon.png', 'Im_JustinTimberlake.png', 'Im_ElijahWood.png'],diff,1,1.3003001000015502,33,88.0952380952381,
DEMA2901,8,inv,60,pos60_id19_im27.bmp_pos60_id19_im8.bmp,['Im_RobertPattinson.png', 'Im_RyanReynolds.png', 'Im_LeonardoDiCaprio.png', 'Im_HughJackman.png', 'Im_GeorgeClooney.png', 'Im_RobertDowneyJr.png', 'Im_KeanuReeves.png', 'Im_MattDamon.png', 'Im_JustinTimberlake.png', 'Im_ElijahWood.png'],same,1,0.4167336999998952,34,88.0952380952381,
DEMA2901,8,inv,90,pos90_id18_im19.bmp_pos90_id11_im1.bmp,['Im_RobertPattinson.png', 'Im_RyanReynolds.png', 'Im_LeonardoDiCaprio.png', 'Im_HughJackman.png', 'Im_GeorgeClooney.png', 'Im_RobertDowneyJr.png', 'Im_KeanuReeves.png', 'Im_MattDamon.png', 'Im_JustinTimberlake.png', 'Im_ElijahWood.png'],diff,1,1.2001871000011306,35,88.0952380952381,
DEMA2901,8,inv,fs,posfs_id14_im24.bmp_posfs_id6_im19.bmp,['Im_RobertPattinson.png', 'Im_RyanReynolds.png', 'Im_LeonardoDiCaprio.png', 'Im_HughJackman.png', 'Im_GeorgeClooney.png', 'Im_RobertDowneyJr.png', 'Im_KeanuReeves.png', 'Im_MattDamon.png', 'Im_JustinTimberlake.png', 'Im_ElijahWood.png'],diff,1,0.4333859999987908,36,88.0952380952381,
DEMA2901,8,inv,60,pos60_id7_im15.bmp_pos60_id19_im4.bmp,['Im_RobertPattinson.png', 'Im_RyanReynolds.png', 'Im_LeonardoDiCaprio.png', 'Im_HughJackman.png', 'Im_GeorgeClooney.png', 'Im_RobertDowneyJr.png', 'Im_KeanuReeves.png', 'Im_MattDamon.png', 'Im_JustinTimberlake.png', 'Im_ElijahWood.png'],diff,1,0.42507279999881575,37,88.0952380952381,
DEMA2901,9,pos,0,pos0_id14_im16.bmp_pos0_id11_im10.bmp,['Im_RobertPattinson.png', 'Im_RyanReynolds.png', 'Im_LeonardoDiCaprio.png', 'Im_HughJackman.png', 'Im_GeorgeClooney.png', 'Im_RobertDowneyJr.png', 'Im_KeanuReeves.png', 'Im_MattDamon.png', 'Im_JustinTimberlake.png', 'Im_ElijahWood.png'],diff,1,0.450020799999038,1,88.0952380952381,
DEMA2901,9,pos,30,pos30_id14_im18.bmp_pos30_id14_im24.bmp,['Im_RobertPattinson.png', 'Im_RyanReynolds.png', 'Im_LeonardoDiCaprio.png', 'Im_HughJackman.png', 'Im_GeorgeClooney.png', 'Im_RobertDowneyJr.png', 'Im_KeanuReeves.png', 'Im_MattDamon.png', 'Im_JustinTimberlake.png', 'Im_ElijahWood.png'],same,1,0.8501516999986052,2,88.0952380952381,
DEMA2901,9,pos,150,pos150_id13_im15.bmp_pos150_id7_im15.bmp,['Im_RobertPattinson.png', 'Im_RyanReynolds.png', 'Im_LeonardoDiCaprio.png', 'Im_HughJackman.png', 'Im_GeorgeClooney.png', 'Im_RobertDowneyJr.png', 'Im_KeanuReeves.png', 'Im_MattDamon.png', 'Im_JustinTimberlake.png', 'Im_ElijahWood.png'],diff,1,0.42491770000015094,3,88.0952380952381,
DEMA2901,9,pos,60,pos60_id21_im17.bmp_pos60_id10_im17.bmp,['Im_RobertPattinson.png', 'Im_RyanReynolds.png', 'Im_LeonardoDiCaprio.png', 'Im_HughJackman.png', 'Im_GeorgeClooney.png', 'Im_RobertDowneyJr.png', 'Im_KeanuReeves.png', 'Im_MattDamon.png', 'Im_JustinTimberlake.png', 'Im_ElijahWood.png'],diff,1,0.416698400000314,4,88.0952380952381,
DEMA2901,9,pos,fs,posfs_id13_im29.bmp_posfs_id18_im19.bmp,['Im_RobertPattinson.png', 'Im_RyanReynolds.png', 'Im_LeonardoDiCaprio.png', 'Im_HughJackman.png', 'Im_GeorgeClooney.png', 'Im_RobertDowneyJr.png', 'Im_KeanuReeves.png', 'Im_MattDamon.png', 'Im_JustinTimberlake.png', 'Im_ElijahWood.png'],diff,1,0.41671750000023167,5,88.0952380952381,
DEMA2901,9,pos,120,pos120_id14_im18.bmp_pos120_id14_im16.bmp,['Im_RobertPattinson.png', 'Im_RyanReynolds.png', 'Im_LeonardoDiCaprio.png', 'Im_HughJackman.png', 'Im_GeorgeClooney.png', 'Im_RobertDowneyJr.png', 'Im_KeanuReeves.png', 'Im_MattDamon.png', 'Im_JustinTimberlake.png', 'Im_ElijahWood.png'],same,1,0.7666945000000851,6,88.0952380952381,
DEMA2901,9,pos,90,pos90_id7_im14.bmp_pos90_id7_im15.bmp,['Im_RobertPattinson.png', 'Im_RyanReynolds.png', 'Im_LeonardoDiCaprio.png', 'Im_HughJackman.png', 'Im_GeorgeClooney.png', 'Im_RobertDowneyJr.png', 'Im_KeanuReeves.png', 'Im_MattDamon.png', 'Im_JustinTimberlake.png', 'Im_ElijahWood.png'],same,1,1.7169237000016437,7,88.0952380952381,
DEMA2901,9,pos,90,pos90_id13_im15.bmp_pos90_id13_im29.bmp,['Im_RobertPattinson.png', 'Im_RyanReynolds.png', 'Im_LeonardoDiCaprio.png', 'Im_HughJackman.png', 'Im_GeorgeClooney.png', 'Im_RobertDowneyJr.png', 'Im_KeanuReeves.png', 'Im_MattDamon.png', 'Im_JustinTimberlake.png', 'Im_ElijahWood.png'],same,1,0.49165549999997893,8,88.0952380952381,
DEMA2901,9,pos,120,pos120_id11_im1.bmp_pos120_id13_im15.bmp,['Im_RobertPattinson.png', 'Im_RyanReynolds.png', 'Im_LeonardoDiCaprio.png', 'Im_HughJackman.png', 'Im_GeorgeClooney.png', 'Im_RobertDowneyJr.png', 'Im_KeanuReeves.png', 'Im_MattDamon.png', 'Im_JustinTimberlake.png', 'Im_ElijahWood.png'],diff,1,0.4167594000009558,9,88.0952380952381,
DEMA2901,9,pos,150,pos150_id6_im19.bmp_pos150_id14_im18.bmp,['Im_RobertPattinson.png', 'Im_RyanReynolds.png', 'Im_LeonardoDiCaprio.png', 'Im_HughJackman.png', 'Im_GeorgeClooney.png', 'Im_RobertDowneyJr.png', 'Im_KeanuReeves.png', 'Im_MattDamon.png', 'Im_JustinTimberlake.png', 'Im_ElijahWood.png'],diff,1,0.43366359999890847,10,88.0952380952381,
DEMA2901,9,pos,fs,posfs_id8_im20.bmp_posfs_id8_im13.bmp,['Im_RobertPattinson.png', 'Im_RyanReynolds.png', 'Im_LeonardoDiCaprio.png', 'Im_HughJackman.png', 'Im_GeorgeClooney.png', 'Im_RobertDowneyJr.png', 'Im_KeanuReeves.png', 'Im_MattDamon.png', 'Im_JustinTimberlake.png', 'Im_ElijahWood.png'],same,1,0.48365609999927983,11,88.0952380952381,
DEMA2901,9,pos,30,pos30_id14_im18.bmp_pos30_id10_im17.bmp,['Im_RobertPattinson.png', 'Im_RyanReynolds.png', 'Im_LeonardoDiCaprio.png', 'Im_HughJackman.png', 'Im_GeorgeClooney.png', 'Im_RobertDowneyJr.png', 'Im_KeanuReeves.png', 'Im_MattDamon.png', 'Im_JustinTimberlake.png', 'Im_ElijahWood.png'],diff,1,0.42511500000000524,12,88.0952380952381,
DEMA2901,9,pos,60,pos60_id19_im4.bmp_pos60_id19_im27.bmp,['Im_RobertPattinson.png', 'Im_RyanReynolds.png', 'Im_LeonardoDiCaprio.png', 'Im_HughJackman.png', 'Im_GeorgeClooney.png', 'Im_RobertDowneyJr.png', 'Im_KeanuReeves.png', 'Im_MattDamon.png', 'Im_JustinTimberlake.png', 'Im_ElijahWood.png'],same,1,0.4167745999984618,13,88.0952380952381,
DEMA2901,9,pos,0,pos0_id14_im18.bmp_pos0_id10_im17.bmp,['Im_RobertPattinson.png', 'Im_RyanReynolds.png', 'Im_LeonardoDiCaprio.png', 'Im_HughJackman.png', 'Im_GeorgeClooney.png', 'Im_RobertDowneyJr.png', 'Im_KeanuReeves.png', 'Im_MattDamon.png', 'Im_JustinTimberlake.png', 'Im_ElijahWood.png'],diff,1,1.7834452000006422,14,88.0952380952381,
DEMA2901,10,pos,30,pos30_id18_im11.bmp_pos30_id18_im18.bmp,['Im_RobertPattinson.png', 'Im_RyanReynolds.png', 'Im_LeonardoDiCaprio.png', 'Im_HughJackman.png', 'Im_GeorgeClooney.png', 'Im_RobertDowneyJr.png', 'Im_KeanuReeves.png', 'Im_MattDamon.png', 'Im_JustinTimberlake.png', 'Im_ElijahWood.png'],same,1,0.42496610000125656,15,88.0952380952381,
DEMA2901,10,pos,fs,posfs_id10_im18.bmp_posfs_id10_im1.bmp,['Im_RobertPattinson.png', 'Im_RyanReynolds.png', 'Im_LeonardoDiCaprio.png', 'Im_HughJackman.png', 'Im_GeorgeClooney.png', 'Im_RobertDowneyJr.png', 'Im_KeanuReeves.png', 'Im_MattDamon.png', 'Im_JustinTimberlake.png', 'Im_ElijahWood.png'],same,1,0.4249463000014657,16,88.0952380952381,
DEMA2901,10,pos,150,pos150_id7_im14.bmp_pos150_id7_im15.bmp,['Im_RobertPattinson.png', 'Im_RyanReynolds.png', 'Im_LeonardoDiCaprio.png', 'Im_HughJackman.png', 'Im_GeorgeClooney.png', 'Im_RobertDowneyJr.png', 'Im_KeanuReeves.png', 'Im_MattDamon.png', 'Im_JustinTimberlake.png', 'Im_ElijahWood.png'],diff,0,0.7083925000006275,16,88.0952380952381,
DEMA2901,10,pos,60,pos60_id6_im18.bmp_pos60_id19_im8.bmp,['Im_RobertPattinson.png', 'Im_RyanReynolds.png', 'Im_LeonardoDiCaprio.png', 'Im_HughJackman.png', 'Im_GeorgeClooney.png', 'Im_RobertDowneyJr.png', 'Im_KeanuReeves.png', 'Im_MattDamon.png', 'Im_JustinTimberlake.png', 'Im_ElijahWood.png'],diff,1,0.5917362999989564,17,88.0952380952381,
DEMA2901,10,pos,90,pos90_id13_im10.bmp_pos90_id13_im15.bmp,['Im_RobertPattinson.png', 'Im_RyanReynolds.png', 'Im_LeonardoDiCaprio.png', 'Im_HughJackman.png', 'Im_GeorgeClooney.png', 'Im_RobertDowneyJr.png', 'Im_KeanuReeves.png', 'Im_MattDamon.png', 'Im_JustinTimberlake.png', 'Im_ElijahWood.png'],same,1,0.4252078999998048,18,88.0952380952381,
DEMA2901,10,pos,120,pos120_id10_im17.bmp_pos120_id21_im17.bmp,['Im_RobertPattinson.png', 'Im_RyanReynolds.png', 'Im_LeonardoDiCaprio.png', 'Im_HughJackman.png', 'Im_GeorgeClooney.png', 'Im_RobertDowneyJr.png', 'Im_KeanuReeves.png', 'Im_MattDamon.png', 'Im_JustinTimberlake.png', 'Im_ElijahWood.png'],diff,1,0.41676790000019537,19,88.0952380952381,
DEMA2901,10,pos,120,pos120_id14_im24.bmp_pos120_id21_im17.bmp,['Im_RobertPattinson.png', 'Im_RyanReynolds.png', 'Im_LeonardoDiCaprio.png', 'Im_HughJackman.png', 'Im_GeorgeClooney.png', 'Im_RobertDowneyJr.png', 'Im_KeanuReeves.png', 'Im_MattDamon.png', 'Im_JustinTimberlake.png', 'Im_ElijahWood.png'],diff,1,0.4251234999992448,20,88.0952380952381,
DEMA2901,10,pos,150,pos150_id18_im18.bmp_pos150_id18_im19.bmp,['Im_RobertPattinson.png', 'Im_RyanReynolds.png', 'Im_LeonardoDiCaprio.png', 'Im_HughJackman.png', 'Im_GeorgeClooney.png', 'Im_RobertDowneyJr.png', 'Im_KeanuReeves.png', 'Im_MattDamon.png', 'Im_JustinTimberlake.png', 'Im_ElijahWood.png'],same,1,0.5751868999996077,21,88.0952380952381,
DEMA2901,10,pos,fs,posfs_id14_im24.bmp_posfs_id21_im17.bmp,['Im_RobertPattinson.png', 'Im_RyanReynolds.png', 'Im_LeonardoDiCaprio.png', 'Im_HughJackman.png', 'Im_GeorgeClooney.png', 'Im_RobertDowneyJr.png', 'Im_KeanuReeves.png', 'Im_MattDamon.png', 'Im_JustinTimberlake.png', 'Im_ElijahWood.png'],diff,1,0.4250839999986056,22,88.0952380952381,
DEMA2901,10,pos,0,pos0_id21_im22.bmp_pos0_id14_im16.bmp,['Im_RobertPattinson.png', 'Im_RyanReynolds.png', 'Im_LeonardoDiCaprio.png', 'Im_HughJackman.png', 'Im_GeorgeClooney.png', 'Im_RobertDowneyJr.png', 'Im_KeanuReeves.png', 'Im_MattDamon.png', 'Im_JustinTimberlake.png', 'Im_ElijahWood.png'],diff,1,1.0167426999996678,23,88.0952380952381,
DEMA2901,10,pos,90,pos90_id21_im22.bmp_pos90_id8_im21.bmp,['Im_RobertPattinson.png', 'Im_RyanReynolds.png', 'Im_LeonardoDiCaprio.png', 'Im_HughJackman.png', 'Im_GeorgeClooney.png', 'Im_RobertDowneyJr.png', 'Im_KeanuReeves.png', 'Im_MattDamon.png', 'Im_JustinTimberlake.png', 'Im_ElijahWood.png'],diff,1,0.4167833999999857,24,88.0952380952381,
DEMA2901,10,pos,30,pos30_id19_im27.bmp_pos30_id8_im20.bmp,['Im_RobertPattinson.png', 'Im_RyanReynolds.png', 'Im_LeonardoDiCaprio.png', 'Im_HughJackman.png', 'Im_GeorgeClooney.png', 'Im_RobertDowneyJr.png', 'Im_KeanuReeves.png', 'Im_MattDamon.png', 'Im_JustinTimberlake.png', 'Im_ElijahWood.png'],diff,1,0.4251032000011037,25,88.0952380952381,
DEMA2901,10,pos,0,pos0_id13_im15.bmp_pos0_id7_im15.bmp,['Im_RobertPattinson.png', 'Im_RyanReynolds.png', 'Im_LeonardoDiCaprio.png', 'Im_HughJackman.png', 'Im_GeorgeClooney.png', 'Im_RobertDowneyJr.png', 'Im_KeanuReeves.png', 'Im_MattDamon.png', 'Im_JustinTimberlake.png', 'Im_ElijahWood.png'],diff,1,0.46676579999984824,26,88.0952380952381,
DEMA2901,10,pos,60,pos60_id21_im22.bmp_pos60_id14_im16.bmp,['Im_RobertPattinson.png', 'Im_RyanReynolds.png', 'Im_LeonardoDiCaprio.png', 'Im_HughJackman.png', 'Im_GeorgeClooney.png', 'Im_RobertDowneyJr.png', 'Im_KeanuReeves.png', 'Im_MattDamon.png', 'Im_JustinTimberlake.png', 'Im_ElijahWood.png'],diff,1,1.0167377999987366,27,88.0952380952381,
DEMA2901,11,inv,90,pos90_id14_im18.bmp_pos90_id6_im19.bmp,['Im_RobertPattinson.png', 'Im_RyanReynolds.png', 'Im_LeonardoDiCaprio.png', 'Im_HughJackman.png', 'Im_GeorgeClooney.png', 'Im_RobertDowneyJr.png', 'Im_KeanuReeves.png', 'Im_MattDamon.png', 'Im_JustinTimberlake.png', 'Im_ElijahWood.png'],diff,1,0.4086317000001145,28,88.0952380952381,
DEMA2901,11,inv,fs,posfs_id6_im12.bmp_posfs_id6_im18.bmp,['Im_RobertPattinson.png', 'Im_RyanReynolds.png', 'Im_LeonardoDiCaprio.png', 'Im_HughJackman.png', 'Im_GeorgeClooney.png', 'Im_RobertDowneyJr.png', 'Im_KeanuReeves.png', 'Im_MattDamon.png', 'Im_JustinTimberlake.png', 'Im_ElijahWood.png'],same,1,0.9083221000000776,29,88.0952380952381,
DEMA2901,11,inv,0,pos0_id21_im17.bmp_pos0_id21_im22.bmp,['Im_RobertPattinson.png', 'Im_RyanReynolds.png', 'Im_LeonardoDiCaprio.png', 'Im_HughJackman.png', 'Im_GeorgeClooney.png', 'Im_RobertDowneyJr.png', 'Im_KeanuReeves.png', 'Im_MattDamon.png', 'Im_JustinTimberlake.png', 'Im_ElijahWood.png'],same,1,0.4168376999987231,30,88.0952380952381,
DEMA2901,11,inv,90,pos90_id14_im18.bmp_pos90_id10_im17.bmp,['Im_RobertPattinson.png', 'Im_RyanReynolds.png', 'Im_LeonardoDiCaprio.png', 'Im_HughJackman.png', 'Im_GeorgeClooney.png', 'Im_RobertDowneyJr.png', 'Im_KeanuReeves.png', 'Im_MattDamon.png', 'Im_JustinTimberlake.png', 'Im_ElijahWood.png'],diff,1,0.9750057000001107,31,88.0952380952381,
DEMA2901,11,inv,120,pos120_id21_im17.bmp_pos120_id21_im16.bmp,['Im_RobertPattinson.png', 'Im_RyanReynolds.png', 'Im_LeonardoDiCaprio.png', 'Im_HughJackman.png', 'Im_GeorgeClooney.png', 'Im_RobertDowneyJr.png', 'Im_KeanuReeves.png', 'Im_MattDamon.png', 'Im_JustinTimberlake.png', 'Im_ElijahWood.png'],same,1,0.5086315000007744,32,88.0952380952381,
DEMA2901,11,inv,30,pos30_id21_im22.bmp_pos30_id8_im21.bmp,['Im_RobertPattinson.png', 'Im_RyanReynolds.png', 'Im_LeonardoDiCaprio.png', 'Im_HughJackman.png', 'Im_GeorgeClooney.png', 'Im_RobertDowneyJr.png', 'Im_KeanuReeves.png', 'Im_MattDamon.png', 'Im_JustinTimberlake.png', 'Im_ElijahWood.png'],diff,1,0.4166607999995904,33,88.0952380952381,
DEMA2901,11,inv,0,pos0_id21_im16.bmp_pos0_id21_im22.bmp,['Im_RobertPattinson.png', 'Im_RyanReynolds.png', 'Im_LeonardoDiCaprio.png', 'Im_HughJackman.png', 'Im_GeorgeClooney.png', 'Im_RobertDowneyJr.png', 'Im_KeanuReeves.png', 'Im_MattDamon.png', 'Im_JustinTimberlake.png', 'Im_ElijahWood.png'],same,1,0.6249965999995766,34,88.0952380952381,
DEMA2901,11,inv,60,pos60_id14_im16.bmp_pos60_id21_im22.bmp,['Im_RobertPattinson.png', 'Im_RyanReynolds.png', 'Im_LeonardoDiCaprio.png', 'Im_HughJackman.png', 'Im_GeorgeClooney.png', 'Im_RobertDowneyJr.png', 'Im_KeanuReeves.png', 'Im_MattDamon.png', 'Im_JustinTimberlake.png', 'Im_ElijahWood.png'],diff,1,0.5583633000005648,35,88.0952380952381,
DEMA2901,11,inv,60,pos60_id18_im11.bmp_pos60_id11_im10.bmp,['Im_RobertPattinson.png', 'Im_RyanReynolds.png', 'Im_LeonardoDiCaprio.png', 'Im_HughJackman.png', 'Im_GeorgeClooney.png', 'Im_RobertDowneyJr.png', 'Im_KeanuReeves.png', 'Im_MattDamon.png', 'Im_JustinTimberlake.png', 'Im_ElijahWood.png'],diff,1,0.5835950000000594,36,88.0952380952381,
DEMA2901,11,inv,150,pos150_id11_im10.bmp_pos150_id11_im1.bmp,['Im_RobertPattinson.png', 'Im_RyanReynolds.png', 'Im_LeonardoDiCaprio.png', 'Im_HughJackman.png', 'Im_GeorgeClooney.png', 'Im_RobertDowneyJr.png', 'Im_KeanuReeves.png', 'Im_MattDamon.png', 'Im_JustinTimberlake.png', 'Im_ElijahWood.png'],same,1,0.8583433999992849,37,88.0952380952381,
DEMA2901,11,inv,150,pos150_id14_im24.bmp_pos150_id14_im16.bmp,['Im_RobertPattinson.png', 'Im_RyanReynolds.png', 'Im_LeonardoDiCaprio.png', 'Im_HughJackman.png', 'Im_GeorgeClooney.png', 'Im_RobertDowneyJr.png', 'Im_KeanuReeves.png', 'Im_MattDamon.png', 'Im_JustinTimberlake.png', 'Im_ElijahWood.png'],diff,0,0.9002302999997482,37,88.0952380952381,
DEMA2901,11,inv,120,pos120_id21_im22.bmp_pos120_id8_im21.bmp,['Im_RobertPattinson.png', 'Im_RyanReynolds.png', 'Im_LeonardoDiCaprio.png', 'Im_HughJackman.png', 'Im_GeorgeClooney.png', 'Im_RobertDowneyJr.png', 'Im_KeanuReeves.png', 'Im_MattDamon.png', 'Im_JustinTimberlake.png', 'Im_ElijahWood.png'],diff,1,0.7836072999998578,38,88.0952380952381,
DEMA2901,11,inv,fs,posfs_id19_im8.bmp_posfs_id10_im18.bmp,['Im_RobertPattinson.png', 'Im_RyanReynolds.png', 'Im_LeonardoDiCaprio.png', 'Im_HughJackman.png', 'Im_GeorgeClooney.png', 'Im_RobertDowneyJr.png', 'Im_KeanuReeves.png', 'Im_MattDamon.png', 'Im_JustinTimberlake.png', 'Im_ElijahWood.png'],diff,1,0.5000694000009389,39,88.0952380952381,
DEMA2901,11,inv,30,pos30_id19_im27.bmp_pos30_id13_im10.bmp,['Im_RobertPattinson.png', 'Im_RyanReynolds.png', 'Im_LeonardoDiCaprio.png', 'Im_HughJackman.png', 'Im_GeorgeClooney.png', 'Im_RobertDowneyJr.png', 'Im_KeanuReeves.png', 'Im_MattDamon.png', 'Im_JustinTimberlake.png', 'Im_ElijahWood.png'],diff,1,0.6000920999995287,40,88.0952380952381,
DEMA2901,12,neg,fs,negfs_id21_im17.bmp_negfs_id21_im16.bmp,['Im_RobertPattinson.png', 'Im_RyanReynolds.png', 'Im_LeonardoDiCaprio.png', 'Im_HughJackman.png', 'Im_GeorgeClooney.png', 'Im_RobertDowneyJr.png', 'Im_KeanuReeves.png', 'Im_MattDamon.png', 'Im_JustinTimberlake.png', 'Im_ElijahWood.png'],same,1,0.43338539999967907,1,95.23809523809524,
DEMA2901,12,neg,90,neg90_id21_im17.bmp_neg90_id14_im24.bmp,['Im_RobertPattinson.png', 'Im_RyanReynolds.png', 'Im_LeonardoDiCaprio.png', 'Im_HughJackman.png', 'Im_GeorgeClooney.png', 'Im_RobertDowneyJr.png', 'Im_KeanuReeves.png', 'Im_MattDamon.png', 'Im_JustinTimberlake.png', 'Im_ElijahWood.png'],diff,1,0.7417480000003707,2,95.23809523809524,
DEMA2901,12,neg,120,neg120_id19_im8.bmp_neg120_id6_im18.bmp,['Im_RobertPattinson.png', 'Im_RyanReynolds.png', 'Im_LeonardoDiCaprio.png', 'Im_HughJackman.png', 'Im_GeorgeClooney.png', 'Im_RobertDowneyJr.png', 'Im_KeanuReeves.png', 'Im_MattDamon.png', 'Im_JustinTimberlake.png', 'Im_ElijahWood.png'],diff,1,0.5334089000007225,3,95.23809523809524,
DEMA2901,12,neg,60,neg60_id14_im24.bmp_neg60_id21_im17.bmp,['Im_RobertPattinson.png', 'Im_RyanReynolds.png', 'Im_LeonardoDiCaprio.png', 'Im_HughJackman.png', 'Im_GeorgeClooney.png', 'Im_RobertDowneyJr.png', 'Im_KeanuReeves.png', 'Im_MattDamon.png', 'Im_JustinTimberlake.png', 'Im_ElijahWood.png'],diff,1,0.41719259999990754,4,95.23809523809524,
DEMA2901,12,neg,30,neg30_id7_im15.bmp_neg30_id19_im4.bmp,['Im_RobertPattinson.png', 'Im_RyanReynolds.png', 'Im_LeonardoDiCaprio.png', 'Im_HughJackman.png', 'Im_GeorgeClooney.png', 'Im_RobertDowneyJr.png', 'Im_KeanuReeves.png', 'Im_MattDamon.png', 'Im_JustinTimberlake.png', 'Im_ElijahWood.png'],diff,1,0.5587033000010706,5,95.23809523809524,
DEMA2901,12,neg,60,neg60_id6_im12.bmp_neg60_id7_im14.bmp,['Im_RobertPattinson.png', 'Im_RyanReynolds.png', 'Im_LeonardoDiCaprio.png', 'Im_HughJackman.png', 'Im_GeorgeClooney.png', 'Im_RobertDowneyJr.png', 'Im_KeanuReeves.png', 'Im_MattDamon.png', 'Im_JustinTimberlake.png', 'Im_ElijahWood.png'],diff,1,0.41679540000041015,6,95.23809523809524,
DEMA2901,12,neg,30,neg30_id10_im18.bmp_neg30_id10_im1.bmp,['Im_RobertPattinson.png', 'Im_RyanReynolds.png', 'Im_LeonardoDiCaprio.png', 'Im_HughJackman.png', 'Im_GeorgeClooney.png', 'Im_RobertDowneyJr.png', 'Im_KeanuReeves.png', 'Im_MattDamon.png', 'Im_JustinTimberlake.png', 'Im_ElijahWood.png'],same,1,0.6502880999996705,7,95.23809523809524,
DEMA2901,12,neg,150,neg150_id10_im18.bmp_neg150_id11_im2.bmp,['Im_RobertPattinson.png', 'Im_RyanReynolds.png', 'Im_LeonardoDiCaprio.png', 'Im_HughJackman.png', 'Im_GeorgeClooney.png', 'Im_RobertDowneyJr.png', 'Im_KeanuReeves.png', 'Im_MattDamon.png', 'Im_JustinTimberlake.png', 'Im_ElijahWood.png'],diff,1,0.4167355999998108,8,95.23809523809524,
DEMA2901,12,neg,90,neg90_id8_im20.bmp_neg90_id8_im13.bmp,['Im_RobertPattinson.png', 'Im_RyanReynolds.png', 'Im_LeonardoDiCaprio.png', 'Im_HughJackman.png', 'Im_GeorgeClooney.png', 'Im_RobertDowneyJr.png', 'Im_KeanuReeves.png', 'Im_MattDamon.png', 'Im_JustinTimberlake.png', 'Im_ElijahWood.png'],same,1,0.4167381999995996,9,95.23809523809524,
DEMA2901,12,neg,fs,negfs_id13_im15.bmp_negfs_id13_im10.bmp,['Im_RobertPattinson.png', 'Im_RyanReynolds.png', 'Im_LeonardoDiCaprio.png', 'Im_HughJackman.png', 'Im_GeorgeClooney.png', 'Im_RobertDowneyJr.png', 'Im_KeanuReeves.png', 'Im_MattDamon.png', 'Im_JustinTimberlake.png', 'Im_ElijahWood.png'],same,1,0.6916829000001599,10,95.23809523809524,
DEMA2901,12,neg,0,neg0_id21_im17.bmp_neg0_id21_im16.bmp,['Im_RobertPattinson.png', 'Im_RyanReynolds.png', 'Im_LeonardoDiCaprio.png', 'Im_HughJackman.png', 'Im_GeorgeClooney.png', 'Im_RobertDowneyJr.png', 'Im_KeanuReeves.png', 'Im_MattDamon.png', 'Im_JustinTimberlake.png', 'Im_ElijahWood.png'],same,1,0.4084541000011086,11,95.23809523809524,
DEMA2901,12,neg,120,neg120_id13_im29.bmp_neg120_id13_im15.bmp,['Im_RobertPattinson.png', 'Im_RyanReynolds.png', 'Im_LeonardoDiCaprio.png', 'Im_HughJackman.png', 'Im_GeorgeClooney.png', 'Im_RobertDowneyJr.png', 'Im_KeanuReeves.png', 'Im_MattDamon.png', 'Im_JustinTimberlake.png', 'Im_ElijahWood.png'],same,1,0.6587589999999182,12,95.23809523809524,
DEMA2901,12,neg,150,neg150_id11_im1.bmp_neg150_id18_im19.bmp,['Im_RobertPattinson.png', 'Im_RyanReynolds.png', 'Im_LeonardoDiCaprio.png', 'Im_HughJackman.png', 'Im_GeorgeClooney.png', 'Im_RobertDowneyJr.png', 'Im_KeanuReeves.png', 'Im_MattDamon.png', 'Im_JustinTimberlake.png', 'Im_ElijahWood.png'],same,0,0.8668797999998787,12,95.23809523809524,
DEMA2901,12,neg,0,neg0_id14_im24.bmp_neg0_id21_im17.bmp,['Im_RobertPattinson.png', 'Im_RyanReynolds.png', 'Im_LeonardoDiCaprio.png', 'Im_HughJackman.png', 'Im_GeorgeClooney.png', 'Im_RobertDowneyJr.png', 'Im_KeanuReeves.png', 'Im_MattDamon.png', 'Im_JustinTimberlake.png', 'Im_ElijahWood.png'],diff,1,0.7582481999997981,13,95.23809523809524,
DEMA2901,13,neg,60,neg60_id7_im14.bmp_neg60_id7_im15.bmp,['Im_RobertPattinson.png', 'Im_RyanReynolds.png', 'Im_LeonardoDiCaprio.png', 'Im_HughJackman.png', 'Im_GeorgeClooney.png', 'Im_RobertDowneyJr.png', 'Im_KeanuReeves.png', 'Im_MattDamon.png', 'Im_JustinTimberlake.png', 'Im_ElijahWood.png'],same,1,0.7253904999997758,14,95.23809523809524,
DEMA2901,13,neg,90,neg90_id18_im18.bmp_neg90_id18_im11.bmp,['Im_RobertPattinson.png', 'Im_RyanReynolds.png', 'Im_LeonardoDiCaprio.png', 'Im_HughJackman.png', 'Im_GeorgeClooney.png', 'Im_RobertDowneyJr.png', 'Im_KeanuReeves.png', 'Im_MattDamon.png', 'Im_JustinTimberlake.png', 'Im_ElijahWood.png'],same,1,0.7416926000005333,15,95.23809523809524,
DEMA2901,13,neg,60,neg60_id8_im21.bmp_neg60_id21_im22.bmp,['Im_RobertPattinson.png', 'Im_RyanReynolds.png', 'Im_LeonardoDiCaprio.png', 'Im_HughJackman.png', 'Im_GeorgeClooney.png', 'Im_RobertDowneyJr.png', 'Im_KeanuReeves.png', 'Im_MattDamon.png', 'Im_JustinTimberlake.png', 'Im_ElijahWood.png'],same,0,1.4585843999993813,15,95.23809523809524,
DEMA2901,13,neg,0,neg0_id11_im2.bmp_neg0_id11_im10.bmp,['Im_RobertPattinson.png', 'Im_RyanReynolds.png', 'Im_LeonardoDiCaprio.png', 'Im_HughJackman.png', 'Im_GeorgeClooney.png', 'Im_RobertDowneyJr.png', 'Im_KeanuReeves.png', 'Im_MattDamon.png', 'Im_JustinTimberlake.png', 'Im_ElijahWood.png'],same,1,0.5498648000011599,16,95.23809523809524,
DEMA2901,13,neg,90,neg90_id18_im11.bmp_neg90_id18_im19.bmp,['Im_RobertPattinson.png', 'Im_RyanReynolds.png', 'Im_LeonardoDiCaprio.png', 'Im_HughJackman.png', 'Im_GeorgeClooney.png', 'Im_RobertDowneyJr.png', 'Im_KeanuReeves.png', 'Im_MattDamon.png', 'Im_JustinTimberlake.png', 'Im_ElijahWood.png'],same,1,0.5416205000001355,17,95.23809523809524,
DEMA2901,13,neg,0,neg0_id10_im17.bmp_neg0_id10_im18.bmp,['Im_RobertPattinson.png', 'Im_RyanReynolds.png', 'Im_LeonardoDiCaprio.png', 'Im_HughJackman.png', 'Im_GeorgeClooney.png', 'Im_RobertDowneyJr.png', 'Im_KeanuReeves.png', 'Im_MattDamon.png', 'Im_JustinTimberlake.png', 'Im_ElijahWood.png'],same,1,0.48350120000031893,18,95.23809523809524,
DEMA2901,13,neg,fs,negfs_id19_im4.bmp_negfs_id7_im26.bmp,['Im_RobertPattinson.png', 'Im_RyanReynolds.png', 'Im_LeonardoDiCaprio.png', 'Im_HughJackman.png', 'Im_GeorgeClooney.png', 'Im_RobertDowneyJr.png', 'Im_KeanuReeves.png', 'Im_MattDamon.png', 'Im_JustinTimberlake.png', 'Im_ElijahWood.png'],diff,1,0.40837639999881503,19,95.23809523809524,
DEMA2901,13,neg,150,neg150_id19_im27.bmp_neg150_id19_im8.bmp,['Im_RobertPattinson.png', 'Im_RyanReynolds.png', 'Im_LeonardoDiCaprio.png', 'Im_HughJackman.png', 'Im_GeorgeClooney.png', 'Im_RobertDowneyJr.png', 'Im_KeanuReeves.png', 'Im_MattDamon.png', 'Im_JustinTimberlake.png', 'Im_ElijahWood.png'],same,1,0.4165580000008049,20,95.23809523809524,
DEMA2901,13,neg,30,neg30_id21_im16.bmp_neg30_id11_im2.bmp,['Im_RobertPattinson.png', 'Im_RyanReynolds.png', 'Im_LeonardoDiCaprio.png', 'Im_HughJackman.png', 'Im_GeorgeClooney.png', 'Im_RobertDowneyJr.png', 'Im_KeanuReeves.png', 'Im_MattDamon.png', 'Im_JustinTimberlake.png', 'Im_ElijahWood.png'],diff,1,0.43356839999978547,21,95.23809523809524,
DEMA2901,13,neg,fs,negfs_id10_im18.bmp_negfs_id19_im8.bmp,['Im_RobertPattinson.png', 'Im_RyanReynolds.png', 'Im_LeonardoDiCaprio.png', 'Im_HughJackman.png', 'Im_GeorgeClooney.png', 'Im_RobertDowneyJr.png', 'Im_KeanuReeves.png', 'Im_MattDamon.png', 'Im_JustinTimberlake.png', 'Im_ElijahWood.png'],same,0,0.4833957000009832,21,95.23809523809524,
DEMA2901,13,neg,120,neg120_id11_im1.bmp_neg120_id11_im2.bmp,['Im_RobertPattinson.png', 'Im_RyanReynolds.png', 'Im_LeonardoDiCaprio.png', 'Im_HughJackman.png', 'Im_GeorgeClooney.png', 'Im_RobertDowneyJr.png', 'Im_KeanuReeves.png', 'Im_MattDamon.png', 'Im_JustinTimberlake.png', 'Im_ElijahWood.png'],diff,0,0.9420234999997774,21,95.23809523809524,
DEMA2901,13,neg,30,neg30_id18_im19.bmp_neg30_id18_im11.bmp,['Im_RobertPattinson.png', 'Im_RyanReynolds.png', 'Im_LeonardoDiCaprio.png', 'Im_HughJackman.png', 'Im_GeorgeClooney.png', 'Im_RobertDowneyJr.png', 'Im_KeanuReeves.png', 'Im_MattDamon.png', 'Im_JustinTimberlake.png', 'Im_ElijahWood.png'],diff,0,0.583357800000158,21,95.23809523809524,
DEMA2901,13,neg,120,neg120_id10_im18.bmp_neg120_id10_im17.bmp,['Im_RobertPattinson.png', 'Im_RyanReynolds.png', 'Im_LeonardoDiCaprio.png', 'Im_HughJackman.png', 'Im_GeorgeClooney.png', 'Im_RobertDowneyJr.png', 'Im_KeanuReeves.png', 'Im_MattDamon.png', 'Im_JustinTimberlake.png', 'Im_ElijahWood.png'],same,1,0.4167328000003181,22,95.23809523809524,
DEMA2901,13,neg,150,neg150_id10_im1.bmp_neg150_id10_im18.bmp,['Im_RobertPattinson.png', 'Im_RyanReynolds.png', 'Im_LeonardoDiCaprio.png', 'Im_HughJackman.png', 'Im_GeorgeClooney.png', 'Im_RobertDowneyJr.png', 'Im_KeanuReeves.png', 'Im_MattDamon.png', 'Im_JustinTimberlake.png', 'Im_ElijahWood.png'],same,1,0.4250740000006772,23,95.23809523809524,
DEMA2901,14,inv,0,pos0_id14_im16.bmp_pos0_id11_im10.bmp,['Im_RobertPattinson.png', 'Im_RyanReynolds.png', 'Im_LeonardoDiCaprio.png', 'Im_HughJackman.png', 'Im_GeorgeClooney.png', 'Im_RobertDowneyJr.png', 'Im_KeanuReeves.png', 'Im_MattDamon.png', 'Im_JustinTimberlake.png', 'Im_ElijahWood.png'],diff,1,0.8833388000002742,24,95.23809523809524,
DEMA2901,14,inv,30,pos30_id11_im1.bmp_pos30_id18_im19.bmp,['Im_RobertPattinson.png', 'Im_RyanReynolds.png', 'Im_LeonardoDiCaprio.png', 'Im_HughJackman.png', 'Im_GeorgeClooney.png', 'Im_RobertDowneyJr.png', 'Im_KeanuReeves.png', 'Im_MattDamon.png', 'Im_JustinTimberlake.png', 'Im_ElijahWood.png'],same,0,1.0333737000000838,24,95.23809523809524,
DEMA2901,14,inv,30,pos30_id13_im15.bmp_pos30_id13_im10.bmp,['Im_RobertPattinson.png', 'Im_RyanReynolds.png', 'Im_LeonardoDiCaprio.png', 'Im_HughJackman.png', 'Im_GeorgeClooney.png', 'Im_RobertDowneyJr.png', 'Im_KeanuReeves.png', 'Im_MattDamon.png', 'Im_JustinTimberlake.png', 'Im_ElijahWood.png'],same,1,0.6334196000007069,25,95.23809523809524,
DEMA2901,14,inv,150,pos150_id21_im16.bmp_pos150_id10_im1.bmp,['Im_RobertPattinson.png', 'Im_RyanReynolds.png', 'Im_LeonardoDiCaprio.png', 'Im_HughJackman.png', 'Im_GeorgeClooney.png', 'Im_RobertDowneyJr.png', 'Im_KeanuReeves.png', 'Im_MattDamon.png', 'Im_JustinTimberlake.png', 'Im_ElijahWood.png'],diff,1,0.4251070999998774,26,95.23809523809524,
DEMA2901,14,inv,150,pos150_id18_im18.bmp_pos150_id8_im20.bmp,['Im_RobertPattinson.png', 'Im_RyanReynolds.png', 'Im_LeonardoDiCaprio.png', 'Im_HughJackman.png', 'Im_GeorgeClooney.png', 'Im_RobertDowneyJr.png', 'Im_KeanuReeves.png', 'Im_MattDamon.png', 'Im_JustinTimberlake.png', 'Im_ElijahWood.png'],diff,1,0.4500793999995949,27,95.23809523809524,
DEMA2901,14,inv,fs,posfs_id10_im18.bmp_posfs_id11_im2.bmp,['Im_RobertPattinson.png', 'Im_RyanReynolds.png', 'Im_LeonardoDiCaprio.png', 'Im_HughJackman.png', 'Im_GeorgeClooney.png', 'Im_RobertDowneyJr.png', 'Im_KeanuReeves.png', 'Im_MattDamon.png', 'Im_JustinTimberlake.png', 'Im_ElijahWood.png'],diff,1,0.4250735000005079,28,95.23809523809524,
DEMA2901,14,inv,60,pos60_id11_im1.bmp_pos60_id11_im10.bmp,['Im_RobertPattinson.png', 'Im_RyanReynolds.png', 'Im_LeonardoDiCaprio.png', 'Im_HughJackman.png', 'Im_GeorgeClooney.png', 'Im_RobertDowneyJr.png', 'Im_KeanuReeves.png', 'Im_MattDamon.png', 'Im_JustinTimberlake.png', 'Im_ElijahWood.png'],same,1,0.41674760000023525,29,95.23809523809524,
DEMA2901,14,inv,0,pos0_id21_im22.bmp_pos0_id14_im16.bmp,['Im_RobertPattinson.png', 'Im_RyanReynolds.png', 'Im_LeonardoDiCaprio.png', 'Im_HughJackman.png', 'Im_GeorgeClooney.png', 'Im_RobertDowneyJr.png', 'Im_KeanuReeves.png', 'Im_MattDamon.png', 'Im_JustinTimberlake.png', 'Im_ElijahWood.png'],diff,1,1.2503632999996626,30,95.23809523809524,
DEMA2901,14,inv,90,pos90_id11_im10.bmp_pos90_id18_im11.bmp,['Im_RobertPattinson.png', 'Im_RyanReynolds.png', 'Im_LeonardoDiCaprio.png', 'Im_HughJackman.png', 'Im_GeorgeClooney.png', 'Im_RobertDowneyJr.png', 'Im_KeanuReeves.png', 'Im_MattDamon.png', 'Im_JustinTimberlake.png', 'Im_ElijahWood.png'],diff,1,1.0004019999996672,31,95.23809523809524,
DEMA2901,14,inv,fs,posfs_id11_im1.bmp_posfs_id11_im2.bmp,['Im_RobertPattinson.png', 'Im_RyanReynolds.png', 'Im_LeonardoDiCaprio.png', 'Im_HughJackman.png', 'Im_GeorgeClooney.png', 'Im_RobertDowneyJr.png', 'Im_KeanuReeves.png', 'Im_MattDamon.png', 'Im_JustinTimberlake.png', 'Im_ElijahWood.png'],same,1,0.7499509999997827,32,95.23809523809524,
DEMA2901,14,inv,90,pos90_id6_im19.bmp_pos90_id14_im24.bmp,['Im_RobertPattinson.png', 'Im_RyanReynolds.png', 'Im_LeonardoDiCaprio.png', 'Im_HughJackman.png', 'Im_GeorgeClooney.png', 'Im_RobertDowneyJr.png', 'Im_KeanuReeves.png', 'Im_MattDamon.png', 'Im_JustinTimberlake.png', 'Im_ElijahWood.png'],diff,1,0.7429723999994167,33,95.23809523809524,
DEMA2901,14,inv,120,pos120_id18_im11.bmp_pos120_id18_im19.bmp,['Im_RobertPattinson.png', 'Im_RyanReynolds.png', 'Im_LeonardoDiCaprio.png', 'Im_HughJackman.png', 'Im_GeorgeClooney.png', 'Im_RobertDowneyJr.png', 'Im_KeanuReeves.png', 'Im_MattDamon.png', 'Im_JustinTimberlake.png', 'Im_ElijahWood.png'],same,1,0.5332266000004893,34,95.23809523809524,
