Sujet,Trial,Condition,Filter,Imname,Actor0,Actor1,Actor2,Actor3,Actor4,Actor5,Actor6,Actor7,Actor8,Actor9,Answer,Accu,RT,Score,Scoreperc, 
DEMA2901,train,neg,120,neg120_id10_im18.bmp_neg120_id11_im2.bmp,['Im_RobertPattinson.png', 'Im_JustinTimberlake.png', 'Im_RobertDowneyJr.png', 'Im_LeonardoDiCaprio.png', 'Im_KeanuReeves.png', 'Im_GeorgeClooney.png', 'Im_HughJackman.png', 'Im_RyanReynolds.png', 'Im_ElijahWood.png', 'Im_MattDamon.png'],diff,1,1.8666204999999536,1,0,
DEMA2901,train,neg,150,neg150_id7_im26.bmp_neg150_id19_im4.bmp,['Im_RobertPattinson.png', 'Im_JustinTimberlake.png', 'Im_RobertDowneyJr.png', 'Im_LeonardoDiCaprio.png', 'Im_KeanuReeves.png', 'Im_GeorgeClooney.png', 'Im_HughJackman.png', 'Im_RyanReynolds.png', 'Im_ElijahWood.png', 'Im_MattDamon.png'],diff,1,1.3499146999999994,2,0,
DEMA2901,train,neg,150,neg150_id10_im18.bmp_neg150_id19_im8.bmp,['Im_RobertPattinson.png', 'Im_JustinTimberlake.png', 'Im_RobertDowneyJr.png', 'Im_LeonardoDiCaprio.png', 'Im_KeanuReeves.png', 'Im_GeorgeClooney.png', 'Im_HughJackman.png', 'Im_RyanReynolds.png', 'Im_ElijahWood.png', 'Im_MattDamon.png'],same,0,1.6331665999998677,2,0,
DEMA2901,train,neg,60,neg60_id10_im17.bmp_neg60_id10_im18.bmp,['Im_RobertPattinson.png', 'Im_JustinTimberlake.png', 'Im_RobertDowneyJr.png', 'Im_LeonardoDiCaprio.png', 'Im_KeanuReeves.png', 'Im_GeorgeClooney.png', 'Im_HughJackman.png', 'Im_RyanReynolds.png', 'Im_ElijahWood.png', 'Im_MattDamon.png'],same,1,1.0002150000000256,3,0,
DEMA2901,train,neg,fs,negfs_id8_im21.bmp_negfs_id21_im22.bmp,['Im_RobertPattinson.png', 'Im_JustinTimberlake.png', 'Im_RobertDowneyJr.png', 'Im_LeonardoDiCaprio.png', 'Im_KeanuReeves.png', 'Im_GeorgeClooney.png', 'Im_HughJackman.png', 'Im_RyanReynolds.png', 'Im_ElijahWood.png', 'Im_MattDamon.png'],diff,1,2.816877199999908,4,0,
DEMA2901,train,neg,60,neg60_id19_im4.bmp_neg60_id19_im8.bmp,['Im_RobertPattinson.png', 'Im_JustinTimberlake.png', 'Im_RobertDowneyJr.png', 'Im_LeonardoDiCaprio.png', 'Im_KeanuReeves.png', 'Im_GeorgeClooney.png', 'Im_HughJackman.png', 'Im_RyanReynolds.png', 'Im_ElijahWood.png', 'Im_MattDamon.png'],same,1,1.44204499999978,5,0,
DEMA2901,train,neg,90,neg90_id10_im18.bmp_neg90_id11_im2.bmp,['Im_RobertPattinson.png', 'Im_JustinTimberlake.png', 'Im_RobertDowneyJr.png', 'Im_LeonardoDiCaprio.png', 'Im_KeanuReeves.png', 'Im_GeorgeClooney.png', 'Im_HughJackman.png', 'Im_RyanReynolds.png', 'Im_ElijahWood.png', 'Im_MattDamon.png'],diff,1,2.983737999999903,6,0,
DEMA2901,train,neg,30,neg30_id18_im18.bmp_neg30_id18_im19.bmp,['Im_RobertPattinson.png', 'Im_JustinTimberlake.png', 'Im_RobertDowneyJr.png', 'Im_LeonardoDiCaprio.png', 'Im_KeanuReeves.png', 'Im_GeorgeClooney.png', 'Im_HughJackman.png', 'Im_RyanReynolds.png', 'Im_ElijahWood.png', 'Im_MattDamon.png'],diff,0,3.316787000000204,6,0,
DEMA2901,train,neg,120,neg120_id19_im8.bmp_neg120_id19_im4.bmp,['Im_RobertPattinson.png', 'Im_JustinTimberlake.png', 'Im_RobertDowneyJr.png', 'Im_LeonardoDiCaprio.png', 'Im_KeanuReeves.png', 'Im_GeorgeClooney.png', 'Im_HughJackman.png', 'Im_RyanReynolds.png', 'Im_ElijahWood.png', 'Im_MattDamon.png'],same,1,1.5333519999999226,7,0,
DEMA2901,train,neg,90,neg90_id7_im15.bmp_neg90_id7_im14.bmp,['Im_RobertPattinson.png', 'Im_JustinTimberlake.png', 'Im_RobertDowneyJr.png', 'Im_LeonardoDiCaprio.png', 'Im_KeanuReeves.png', 'Im_GeorgeClooney.png', 'Im_HughJackman.png', 'Im_RyanReynolds.png', 'Im_ElijahWood.png', 'Im_MattDamon.png'],same,1,0.9834663999999975,8,0,
DEMA2901,train,neg,fs,negfs_id6_im12.bmp_negfs_id7_im14.bmp,['Im_RobertPattinson.png', 'Im_JustinTimberlake.png', 'Im_RobertDowneyJr.png', 'Im_LeonardoDiCaprio.png', 'Im_KeanuReeves.png', 'Im_GeorgeClooney.png', 'Im_HughJackman.png', 'Im_RyanReynolds.png', 'Im_ElijahWood.png', 'Im_MattDamon.png'],diff,1,1.0417195999998512,9,0,
DEMA2901,train,neg,30,neg30_id11_im2.bmp_neg30_id11_im10.bmp,['Im_RobertPattinson.png', 'Im_JustinTimberlake.png', 'Im_RobertDowneyJr.png', 'Im_LeonardoDiCaprio.png', 'Im_KeanuReeves.png', 'Im_GeorgeClooney.png', 'Im_HughJackman.png', 'Im_RyanReynolds.png', 'Im_ElijahWood.png', 'Im_MattDamon.png'],same,1,1.9000761000002058,10,0,
DEMA2901,train,neg,0,neg0_id7_im26.bmp_neg0_id7_im14.bmp,['Im_RobertPattinson.png', 'Im_JustinTimberlake.png', 'Im_RobertDowneyJr.png', 'Im_LeonardoDiCaprio.png', 'Im_KeanuReeves.png', 'Im_GeorgeClooney.png', 'Im_HughJackman.png', 'Im_RyanReynolds.png', 'Im_ElijahWood.png', 'Im_MattDamon.png'],same,1,1.4835380999998051,11,0,
DEMA2901,train,neg,0,neg0_id10_im1.bmp_neg0_id7_im14.bmp,['Im_RobertPattinson.png', 'Im_JustinTimberlake.png', 'Im_RobertDowneyJr.png', 'Im_LeonardoDiCaprio.png', 'Im_KeanuReeves.png', 'Im_GeorgeClooney.png', 'Im_HughJackman.png', 'Im_RyanReynolds.png', 'Im_ElijahWood.png', 'Im_MattDamon.png'],diff,1,1.6832617999998547,12,0,
DEMA2901,train,inv,0,pos0_id13_im15.bmp_pos0_id7_im15.bmp,['Im_RobertPattinson.png', 'Im_JustinTimberlake.png', 'Im_RobertDowneyJr.png', 'Im_LeonardoDiCaprio.png', 'Im_KeanuReeves.png', 'Im_GeorgeClooney.png', 'Im_HughJackman.png', 'Im_RyanReynolds.png', 'Im_ElijahWood.png', 'Im_MattDamon.png'],same,0,3.649880800000119,12,0,
DEMA2901,train,inv,120,pos120_id13_im10.bmp_pos120_id19_im27.bmp,['Im_RobertPattinson.png', 'Im_JustinTimberlake.png', 'Im_RobertDowneyJr.png', 'Im_LeonardoDiCaprio.png', 'Im_KeanuReeves.png', 'Im_GeorgeClooney.png', 'Im_HughJackman.png', 'Im_RyanReynolds.png', 'Im_ElijahWood.png', 'Im_MattDamon.png'],diff,1,2.0000498999997944,13,0,
DEMA2901,train,inv,30,pos30_id8_im20.bmp_pos30_id18_im18.bmp,['Im_RobertPattinson.png', 'Im_JustinTimberlake.png', 'Im_RobertDowneyJr.png', 'Im_LeonardoDiCaprio.png', 'Im_KeanuReeves.png', 'Im_GeorgeClooney.png', 'Im_HughJackman.png', 'Im_RyanReynolds.png', 'Im_ElijahWood.png', 'Im_MattDamon.png'],diff,1,2.1418644000000313,14,0,
DEMA2901,train,inv,150,pos150_id10_im17.bmp_pos150_id21_im17.bmp,['Im_RobertPattinson.png', 'Im_JustinTimberlake.png', 'Im_RobertDowneyJr.png', 'Im_LeonardoDiCaprio.png', 'Im_KeanuReeves.png', 'Im_GeorgeClooney.png', 'Im_HughJackman.png', 'Im_RyanReynolds.png', 'Im_ElijahWood.png', 'Im_MattDamon.png'],diff,1,0.9331604000003608,15,0,
DEMA2901,train,inv,0,pos0_id7_im14.bmp_pos0_id7_im15.bmp,['Im_RobertPattinson.png', 'Im_JustinTimberlake.png', 'Im_RobertDowneyJr.png', 'Im_LeonardoDiCaprio.png', 'Im_KeanuReeves.png', 'Im_GeorgeClooney.png', 'Im_HughJackman.png', 'Im_RyanReynolds.png', 'Im_ElijahWood.png', 'Im_MattDamon.png'],diff,0,1.7501795000002858,15,0,
DEMA2901,train,inv,90,pos90_id8_im13.bmp_pos90_id8_im20.bmp,['Im_RobertPattinson.png', 'Im_JustinTimberlake.png', 'Im_RobertDowneyJr.png', 'Im_LeonardoDiCaprio.png', 'Im_KeanuReeves.png', 'Im_GeorgeClooney.png', 'Im_HughJackman.png', 'Im_RyanReynolds.png', 'Im_ElijahWood.png', 'Im_MattDamon.png'],same,1,1.4669812000001912,16,0,
DEMA2901,train,inv,30,pos30_id14_im16.bmp_pos30_id14_im18.bmp,['Im_RobertPattinson.png', 'Im_JustinTimberlake.png', 'Im_RobertDowneyJr.png', 'Im_LeonardoDiCaprio.png', 'Im_KeanuReeves.png', 'Im_GeorgeClooney.png', 'Im_HughJackman.png', 'Im_RyanReynolds.png', 'Im_ElijahWood.png', 'Im_MattDamon.png'],same,1,1.5333396000000903,17,0,
DEMA2901,train,inv,fs,posfs_id10_im1.bmp_posfs_id7_im14.bmp,['Im_RobertPattinson.png', 'Im_JustinTimberlake.png', 'Im_RobertDowneyJr.png', 'Im_LeonardoDiCaprio.png', 'Im_KeanuReeves.png', 'Im_GeorgeClooney.png', 'Im_HughJackman.png', 'Im_RyanReynolds.png', 'Im_ElijahWood.png', 'Im_MattDamon.png'],diff,1,2.250251699999808,18,0,
DEMA2901,train,inv,150,pos150_id6_im19.bmp_pos150_id14_im24.bmp,['Im_RobertPattinson.png', 'Im_JustinTimberlake.png', 'Im_RobertDowneyJr.png', 'Im_LeonardoDiCaprio.png', 'Im_KeanuReeves.png', 'Im_GeorgeClooney.png', 'Im_HughJackman.png', 'Im_RyanReynolds.png', 'Im_ElijahWood.png', 'Im_MattDamon.png'],diff,1,0.850253800000246,19,0,
DEMA2901,train,inv,120,pos120_id7_im15.bmp_pos120_id19_im4.bmp,['Im_RobertPattinson.png', 'Im_JustinTimberlake.png', 'Im_RobertDowneyJr.png', 'Im_LeonardoDiCaprio.png', 'Im_KeanuReeves.png', 'Im_GeorgeClooney.png', 'Im_HughJackman.png', 'Im_RyanReynolds.png', 'Im_ElijahWood.png', 'Im_MattDamon.png'],diff,1,2.441917099999955,20,0,
DEMA2901,train,inv,60,pos60_id19_im27.bmp_pos60_id19_im8.bmp,['Im_RobertPattinson.png', 'Im_JustinTimberlake.png', 'Im_RobertDowneyJr.png', 'Im_LeonardoDiCaprio.png', 'Im_KeanuReeves.png', 'Im_GeorgeClooney.png', 'Im_HughJackman.png', 'Im_RyanReynolds.png', 'Im_ElijahWood.png', 'Im_MattDamon.png'],same,1,1.3085053999998308,21,0,
DEMA2901,train,inv,90,pos90_id18_im19.bmp_pos90_id11_im1.bmp,['Im_RobertPattinson.png', 'Im_JustinTimberlake.png', 'Im_RobertDowneyJr.png', 'Im_LeonardoDiCaprio.png', 'Im_KeanuReeves.png', 'Im_GeorgeClooney.png', 'Im_HughJackman.png', 'Im_RyanReynolds.png', 'Im_ElijahWood.png', 'Im_MattDamon.png'],same,0,1.000130099999751,21,0,
DEMA2901,train,inv,fs,posfs_id14_im24.bmp_posfs_id6_im19.bmp,['Im_RobertPattinson.png', 'Im_JustinTimberlake.png', 'Im_RobertDowneyJr.png', 'Im_LeonardoDiCaprio.png', 'Im_KeanuReeves.png', 'Im_GeorgeClooney.png', 'Im_HughJackman.png', 'Im_RyanReynolds.png', 'Im_ElijahWood.png', 'Im_MattDamon.png'],diff,1,1.4002220999996098,22,0,
DEMA2901,train,inv,60,pos60_id7_im15.bmp_pos60_id19_im4.bmp,['Im_RobertPattinson.png', 'Im_JustinTimberlake.png', 'Im_RobertDowneyJr.png', 'Im_LeonardoDiCaprio.png', 'Im_KeanuReeves.png', 'Im_GeorgeClooney.png', 'Im_HughJackman.png', 'Im_RyanReynolds.png', 'Im_ElijahWood.png', 'Im_MattDamon.png'],diff,1,1.2167446999997082,23,0,
DEMA2901,train,pos,0,pos0_id11_im10.bmp_pos0_id14_im16.bmp,['Im_RobertPattinson.png', 'Im_JustinTimberlake.png', 'Im_RobertDowneyJr.png', 'Im_LeonardoDiCaprio.png', 'Im_KeanuReeves.png', 'Im_GeorgeClooney.png', 'Im_HughJackman.png', 'Im_RyanReynolds.png', 'Im_ElijahWood.png', 'Im_MattDamon.png'],diff,1,2.175155899999936,24,0,
DEMA2901,train,pos,30,pos30_id14_im18.bmp_pos30_id14_im24.bmp,['Im_RobertPattinson.png', 'Im_JustinTimberlake.png', 'Im_RobertDowneyJr.png', 'Im_LeonardoDiCaprio.png', 'Im_KeanuReeves.png', 'Im_GeorgeClooney.png', 'Im_HughJackman.png', 'Im_RyanReynolds.png', 'Im_ElijahWood.png', 'Im_MattDamon.png'],same,1,1.5582181999998284,25,0,
DEMA2901,train,pos,150,pos150_id13_im15.bmp_pos150_id7_im15.bmp,['Im_RobertPattinson.png', 'Im_JustinTimberlake.png', 'Im_RobertDowneyJr.png', 'Im_LeonardoDiCaprio.png', 'Im_KeanuReeves.png', 'Im_GeorgeClooney.png', 'Im_HughJackman.png', 'Im_RyanReynolds.png', 'Im_ElijahWood.png', 'Im_MattDamon.png'],diff,1,1.3165271000002576,26,0,
DEMA2901,train,pos,60,pos60_id21_im17.bmp_pos60_id10_im17.bmp,['Im_RobertPattinson.png', 'Im_JustinTimberlake.png', 'Im_RobertDowneyJr.png', 'Im_LeonardoDiCaprio.png', 'Im_KeanuReeves.png', 'Im_GeorgeClooney.png', 'Im_HughJackman.png', 'Im_RyanReynolds.png', 'Im_ElijahWood.png', 'Im_MattDamon.png'],diff,1,1.558623400000215,27,0,
DEMA2901,train,pos,fs,posfs_id18_im19.bmp_posfs_id13_im29.bmp,['Im_RobertPattinson.png', 'Im_JustinTimberlake.png', 'Im_RobertDowneyJr.png', 'Im_LeonardoDiCaprio.png', 'Im_KeanuReeves.png', 'Im_GeorgeClooney.png', 'Im_HughJackman.png', 'Im_RyanReynolds.png', 'Im_ElijahWood.png', 'Im_MattDamon.png'],diff,1,1.183398600000146,28,0,
DEMA2901,train,pos,120,pos120_id14_im18.bmp_pos120_id14_im16.bmp,['Im_RobertPattinson.png', 'Im_JustinTimberlake.png', 'Im_RobertDowneyJr.png', 'Im_LeonardoDiCaprio.png', 'Im_KeanuReeves.png', 'Im_GeorgeClooney.png', 'Im_HughJackman.png', 'Im_RyanReynolds.png', 'Im_ElijahWood.png', 'Im_MattDamon.png'],same,1,1.6499416000001474,29,0,
DEMA2901,train,pos,90,pos90_id7_im15.bmp_pos90_id7_im14.bmp,['Im_RobertPattinson.png', 'Im_JustinTimberlake.png', 'Im_RobertDowneyJr.png', 'Im_LeonardoDiCaprio.png', 'Im_KeanuReeves.png', 'Im_GeorgeClooney.png', 'Im_HughJackman.png', 'Im_RyanReynolds.png', 'Im_ElijahWood.png', 'Im_MattDamon.png'],diff,0,1.5000743000000512,29,0,
DEMA2901,train,pos,90,pos90_id13_im15.bmp_pos90_id13_im29.bmp,['Im_RobertPattinson.png', 'Im_JustinTimberlake.png', 'Im_RobertDowneyJr.png', 'Im_LeonardoDiCaprio.png', 'Im_KeanuReeves.png', 'Im_GeorgeClooney.png', 'Im_HughJackman.png', 'Im_RyanReynolds.png', 'Im_ElijahWood.png', 'Im_MattDamon.png'],same,1,1.966711900000064,30,0,
DEMA2901,train,pos,120,pos120_id13_im15.bmp_pos120_id11_im1.bmp,['Im_RobertPattinson.png', 'Im_JustinTimberlake.png', 'Im_RobertDowneyJr.png', 'Im_LeonardoDiCaprio.png', 'Im_KeanuReeves.png', 'Im_GeorgeClooney.png', 'Im_HughJackman.png', 'Im_RyanReynolds.png', 'Im_ElijahWood.png', 'Im_MattDamon.png'],diff,1,2.375106799999685,31,0,
DEMA2901,train,pos,150,pos150_id6_im19.bmp_pos150_id14_im18.bmp,['Im_RobertPattinson.png', 'Im_JustinTimberlake.png', 'Im_RobertDowneyJr.png', 'Im_LeonardoDiCaprio.png', 'Im_KeanuReeves.png', 'Im_GeorgeClooney.png', 'Im_HughJackman.png', 'Im_RyanReynolds.png', 'Im_ElijahWood.png', 'Im_MattDamon.png'],diff,1,1.2166997999997875,32,0,
DEMA2901,train,pos,fs,posfs_id8_im13.bmp_posfs_id8_im20.bmp,['Im_RobertPattinson.png', 'Im_JustinTimberlake.png', 'Im_RobertDowneyJr.png', 'Im_LeonardoDiCaprio.png', 'Im_KeanuReeves.png', 'Im_GeorgeClooney.png', 'Im_HughJackman.png', 'Im_RyanReynolds.png', 'Im_ElijahWood.png', 'Im_MattDamon.png'],same,1,1.0833791999998539,33,0,
DEMA2901,train,pos,30,pos30_id10_im17.bmp_pos30_id14_im18.bmp,['Im_RobertPattinson.png', 'Im_JustinTimberlake.png', 'Im_RobertDowneyJr.png', 'Im_LeonardoDiCaprio.png', 'Im_KeanuReeves.png', 'Im_GeorgeClooney.png', 'Im_HughJackman.png', 'Im_RyanReynolds.png', 'Im_ElijahWood.png', 'Im_MattDamon.png'],diff,1,1.0747988000002806,34,0,
DEMA2901,train,pos,60,pos60_id19_im27.bmp_pos60_id19_im4.bmp,['Im_RobertPattinson.png', 'Im_JustinTimberlake.png', 'Im_RobertDowneyJr.png', 'Im_LeonardoDiCaprio.png', 'Im_KeanuReeves.png', 'Im_GeorgeClooney.png', 'Im_HughJackman.png', 'Im_RyanReynolds.png', 'Im_ElijahWood.png', 'Im_MattDamon.png'],same,1,1.0166712999998708,35,0,
DEMA2901,train,pos,0,pos0_id14_im18.bmp_pos0_id10_im17.bmp,['Im_RobertPattinson.png', 'Im_JustinTimberlake.png', 'Im_RobertDowneyJr.png', 'Im_LeonardoDiCaprio.png', 'Im_KeanuReeves.png', 'Im_GeorgeClooney.png', 'Im_HughJackman.png', 'Im_RyanReynolds.png', 'Im_ElijahWood.png', 'Im_MattDamon.png'],diff,1,1.0000477999997202,36,0,
DEMA2901,train,pos,30,pos30_id18_im11.bmp_pos30_id18_im18.bmp,['Im_RobertPattinson.png', 'Im_JustinTimberlake.png', 'Im_RobertDowneyJr.png', 'Im_LeonardoDiCaprio.png', 'Im_KeanuReeves.png', 'Im_GeorgeClooney.png', 'Im_HughJackman.png', 'Im_RyanReynolds.png', 'Im_ElijahWood.png', 'Im_MattDamon.png'],none,1,4.400026799999978,0,85.71428571428571,
DEMA2901,train,pos,fs,posfs_id10_im1.bmp_posfs_id10_im18.bmp,['Im_RobertPattinson.png', 'Im_JustinTimberlake.png', 'Im_RobertDowneyJr.png', 'Im_LeonardoDiCaprio.png', 'Im_KeanuReeves.png', 'Im_GeorgeClooney.png', 'Im_HughJackman.png', 'Im_RyanReynolds.png', 'Im_ElijahWood.png', 'Im_MattDamon.png'],diff,0,1.3166768999999476,0,85.71428571428571,
DEMA2901,train,pos,150,pos150_id7_im15.bmp_pos150_id7_im14.bmp,['Im_RobertPattinson.png', 'Im_JustinTimberlake.png', 'Im_RobertDowneyJr.png', 'Im_LeonardoDiCaprio.png', 'Im_KeanuReeves.png', 'Im_GeorgeClooney.png', 'Im_HughJackman.png', 'Im_RyanReynolds.png', 'Im_ElijahWood.png', 'Im_MattDamon.png'],same,1,0.7834789000003184,1,85.71428571428571,
DEMA2901,train,pos,60,pos60_id6_im18.bmp_pos60_id19_im8.bmp,['Im_RobertPattinson.png', 'Im_JustinTimberlake.png', 'Im_RobertDowneyJr.png', 'Im_LeonardoDiCaprio.png', 'Im_KeanuReeves.png', 'Im_GeorgeClooney.png', 'Im_HughJackman.png', 'Im_RyanReynolds.png', 'Im_ElijahWood.png', 'Im_MattDamon.png'],diff,1,2.133154099999956,2,85.71428571428571,
DEMA2901,train,pos,90,pos90_id13_im10.bmp_pos90_id13_im15.bmp,['Im_RobertPattinson.png', 'Im_JustinTimberlake.png', 'Im_RobertDowneyJr.png', 'Im_LeonardoDiCaprio.png', 'Im_KeanuReeves.png', 'Im_GeorgeClooney.png', 'Im_HughJackman.png', 'Im_RyanReynolds.png', 'Im_ElijahWood.png', 'Im_MattDamon.png'],same,1,0.9667198000001918,3,85.71428571428571,
DEMA2901,train,pos,120,pos120_id10_im17.bmp_pos120_id21_im17.bmp,['Im_RobertPattinson.png', 'Im_JustinTimberlake.png', 'Im_RobertDowneyJr.png', 'Im_LeonardoDiCaprio.png', 'Im_KeanuReeves.png', 'Im_GeorgeClooney.png', 'Im_HughJackman.png', 'Im_RyanReynolds.png', 'Im_ElijahWood.png', 'Im_MattDamon.png'],diff,1,0.8335163000001558,4,85.71428571428571,
DEMA2901,train,pos,120,pos120_id14_im24.bmp_pos120_id21_im17.bmp,['Im_RobertPattinson.png', 'Im_JustinTimberlake.png', 'Im_RobertDowneyJr.png', 'Im_LeonardoDiCaprio.png', 'Im_KeanuReeves.png', 'Im_GeorgeClooney.png', 'Im_HughJackman.png', 'Im_RyanReynolds.png', 'Im_ElijahWood.png', 'Im_MattDamon.png'],diff,1,0.9584279000000606,5,85.71428571428571,
DEMA2901,train,pos,150,pos150_id18_im19.bmp_pos150_id18_im18.bmp,['Im_RobertPattinson.png', 'Im_JustinTimberlake.png', 'Im_RobertDowneyJr.png', 'Im_LeonardoDiCaprio.png', 'Im_KeanuReeves.png', 'Im_GeorgeClooney.png', 'Im_HughJackman.png', 'Im_RyanReynolds.png', 'Im_ElijahWood.png', 'Im_MattDamon.png'],same,1,2.150271800000155,6,85.71428571428571,
DEMA2901,train,pos,fs,posfs_id21_im17.bmp_posfs_id14_im24.bmp,['Im_RobertPattinson.png', 'Im_JustinTimberlake.png', 'Im_RobertDowneyJr.png', 'Im_LeonardoDiCaprio.png', 'Im_KeanuReeves.png', 'Im_GeorgeClooney.png', 'Im_HughJackman.png', 'Im_RyanReynolds.png', 'Im_ElijahWood.png', 'Im_MattDamon.png'],diff,1,0.7334920999996939,7,85.71428571428571,
DEMA2901,train,pos,0,pos0_id21_im22.bmp_pos0_id14_im16.bmp,['Im_RobertPattinson.png', 'Im_JustinTimberlake.png', 'Im_RobertDowneyJr.png', 'Im_LeonardoDiCaprio.png', 'Im_KeanuReeves.png', 'Im_GeorgeClooney.png', 'Im_HughJackman.png', 'Im_RyanReynolds.png', 'Im_ElijahWood.png', 'Im_MattDamon.png'],diff,1,2.35850309999978,8,85.71428571428571,
DEMA2901,train,pos,90,pos90_id8_im21.bmp_pos90_id21_im22.bmp,['Im_RobertPattinson.png', 'Im_JustinTimberlake.png', 'Im_RobertDowneyJr.png', 'Im_LeonardoDiCaprio.png', 'Im_KeanuReeves.png', 'Im_GeorgeClooney.png', 'Im_HughJackman.png', 'Im_RyanReynolds.png', 'Im_ElijahWood.png', 'Im_MattDamon.png'],diff,1,1.1502164999997149,9,85.71428571428571,
DEMA2901,train,pos,30,pos30_id8_im20.bmp_pos30_id19_im27.bmp,['Im_RobertPattinson.png', 'Im_JustinTimberlake.png', 'Im_RobertDowneyJr.png', 'Im_LeonardoDiCaprio.png', 'Im_KeanuReeves.png', 'Im_GeorgeClooney.png', 'Im_HughJackman.png', 'Im_RyanReynolds.png', 'Im_ElijahWood.png', 'Im_MattDamon.png'],diff,1,1.4252959000000374,10,85.71428571428571,
DEMA2901,train,pos,0,pos0_id7_im15.bmp_pos0_id13_im15.bmp,['Im_RobertPattinson.png', 'Im_JustinTimberlake.png', 'Im_RobertDowneyJr.png', 'Im_LeonardoDiCaprio.png', 'Im_KeanuReeves.png', 'Im_GeorgeClooney.png', 'Im_HughJackman.png', 'Im_RyanReynolds.png', 'Im_ElijahWood.png', 'Im_MattDamon.png'],diff,1,1.1253022999999303,11,85.71428571428571,
DEMA2901,train,pos,60,pos60_id14_im16.bmp_pos60_id21_im22.bmp,['Im_RobertPattinson.png', 'Im_JustinTimberlake.png', 'Im_RobertDowneyJr.png', 'Im_LeonardoDiCaprio.png', 'Im_KeanuReeves.png', 'Im_GeorgeClooney.png', 'Im_HughJackman.png', 'Im_RyanReynolds.png', 'Im_ElijahWood.png', 'Im_MattDamon.png'],diff,1,1.8830819999998312,12,85.71428571428571,
DEMA2901,train,inv,90,pos90_id14_im18.bmp_pos90_id6_im19.bmp,['Im_RobertPattinson.png', 'Im_JustinTimberlake.png', 'Im_RobertDowneyJr.png', 'Im_LeonardoDiCaprio.png', 'Im_KeanuReeves.png', 'Im_GeorgeClooney.png', 'Im_HughJackman.png', 'Im_RyanReynolds.png', 'Im_ElijahWood.png', 'Im_MattDamon.png'],diff,1,1.2249996999998984,13,85.71428571428571,
DEMA2901,train,inv,fs,posfs_id6_im12.bmp_posfs_id6_im18.bmp,['Im_RobertPattinson.png', 'Im_JustinTimberlake.png', 'Im_RobertDowneyJr.png', 'Im_LeonardoDiCaprio.png', 'Im_KeanuReeves.png', 'Im_GeorgeClooney.png', 'Im_HughJackman.png', 'Im_RyanReynolds.png', 'Im_ElijahWood.png', 'Im_MattDamon.png'],same,1,1.466691499999797,14,85.71428571428571,
DEMA2901,train,inv,0,pos0_id21_im17.bmp_pos0_id21_im22.bmp,['Im_RobertPattinson.png', 'Im_JustinTimberlake.png', 'Im_RobertDowneyJr.png', 'Im_LeonardoDiCaprio.png', 'Im_KeanuReeves.png', 'Im_GeorgeClooney.png', 'Im_HughJackman.png', 'Im_RyanReynolds.png', 'Im_ElijahWood.png', 'Im_MattDamon.png'],same,1,1.0417818000000807,15,85.71428571428571,
DEMA2901,train,inv,90,pos90_id14_im18.bmp_pos90_id10_im17.bmp,['Im_RobertPattinson.png', 'Im_JustinTimberlake.png', 'Im_RobertDowneyJr.png', 'Im_LeonardoDiCaprio.png', 'Im_KeanuReeves.png', 'Im_GeorgeClooney.png', 'Im_HughJackman.png', 'Im_RyanReynolds.png', 'Im_ElijahWood.png', 'Im_MattDamon.png'],same,0,3.8082248999999138,15,85.71428571428571,
DEMA2901,train,inv,120,pos120_id21_im17.bmp_pos120_id21_im16.bmp,['Im_RobertPattinson.png', 'Im_JustinTimberlake.png', 'Im_RobertDowneyJr.png', 'Im_LeonardoDiCaprio.png', 'Im_KeanuReeves.png', 'Im_GeorgeClooney.png', 'Im_HughJackman.png', 'Im_RyanReynolds.png', 'Im_ElijahWood.png', 'Im_MattDamon.png'],same,1,1.0170452000002115,16,85.71428571428571,
DEMA2901,train,inv,30,pos30_id8_im21.bmp_pos30_id21_im22.bmp,['Im_RobertPattinson.png', 'Im_JustinTimberlake.png', 'Im_RobertDowneyJr.png', 'Im_LeonardoDiCaprio.png', 'Im_KeanuReeves.png', 'Im_GeorgeClooney.png', 'Im_HughJackman.png', 'Im_RyanReynolds.png', 'Im_ElijahWood.png', 'Im_MattDamon.png'],diff,1,1.1335760000001756,17,85.71428571428571,
DEMA2901,train,inv,0,pos0_id21_im22.bmp_pos0_id21_im16.bmp,['Im_RobertPattinson.png', 'Im_JustinTimberlake.png', 'Im_RobertDowneyJr.png', 'Im_LeonardoDiCaprio.png', 'Im_KeanuReeves.png', 'Im_GeorgeClooney.png', 'Im_HughJackman.png', 'Im_RyanReynolds.png', 'Im_ElijahWood.png', 'Im_MattDamon.png'],same,1,1.1000441999999566,18,85.71428571428571,
DEMA2901,train,inv,60,pos60_id21_im22.bmp_pos60_id14_im16.bmp,['Im_RobertPattinson.png', 'Im_JustinTimberlake.png', 'Im_RobertDowneyJr.png', 'Im_LeonardoDiCaprio.png', 'Im_KeanuReeves.png', 'Im_GeorgeClooney.png', 'Im_HughJackman.png', 'Im_RyanReynolds.png', 'Im_ElijahWood.png', 'Im_MattDamon.png'],diff,1,1.441701600000215,19,85.71428571428571,
DEMA2901,train,inv,60,pos60_id11_im10.bmp_pos60_id18_im11.bmp,['Im_RobertPattinson.png', 'Im_JustinTimberlake.png', 'Im_RobertDowneyJr.png', 'Im_LeonardoDiCaprio.png', 'Im_KeanuReeves.png', 'Im_GeorgeClooney.png', 'Im_HughJackman.png', 'Im_RyanReynolds.png', 'Im_ElijahWood.png', 'Im_MattDamon.png'],diff,1,2.141661600000134,20,85.71428571428571,
DEMA2901,train,inv,150,pos150_id11_im1.bmp_pos150_id11_im10.bmp,['Im_RobertPattinson.png', 'Im_JustinTimberlake.png', 'Im_RobertDowneyJr.png', 'Im_LeonardoDiCaprio.png', 'Im_KeanuReeves.png', 'Im_GeorgeClooney.png', 'Im_HughJackman.png', 'Im_RyanReynolds.png', 'Im_ElijahWood.png', 'Im_MattDamon.png'],diff,0,1.9749158999998144,20,85.71428571428571,
DEMA2901,train,inv,150,pos150_id14_im24.bmp_pos150_id14_im16.bmp,['Im_RobertPattinson.png', 'Im_JustinTimberlake.png', 'Im_RobertDowneyJr.png', 'Im_LeonardoDiCaprio.png', 'Im_KeanuReeves.png', 'Im_GeorgeClooney.png', 'Im_HughJackman.png', 'Im_RyanReynolds.png', 'Im_ElijahWood.png', 'Im_MattDamon.png'],diff,0,1.3918424000003142,20,85.71428571428571,
DEMA2901,train,inv,120,pos120_id21_im22.bmp_pos120_id8_im21.bmp,['Im_RobertPattinson.png', 'Im_JustinTimberlake.png', 'Im_RobertDowneyJr.png', 'Im_LeonardoDiCaprio.png', 'Im_KeanuReeves.png', 'Im_GeorgeClooney.png', 'Im_HughJackman.png', 'Im_RyanReynolds.png', 'Im_ElijahWood.png', 'Im_MattDamon.png'],diff,1,0.9165542000000642,21,85.71428571428571,
DEMA2901,train,inv,fs,posfs_id19_im8.bmp_posfs_id10_im18.bmp,['Im_RobertPattinson.png', 'Im_JustinTimberlake.png', 'Im_RobertDowneyJr.png', 'Im_LeonardoDiCaprio.png', 'Im_KeanuReeves.png', 'Im_GeorgeClooney.png', 'Im_HughJackman.png', 'Im_RyanReynolds.png', 'Im_ElijahWood.png', 'Im_MattDamon.png'],diff,1,1.3333969000000252,22,85.71428571428571,
DEMA2901,train,inv,30,pos30_id19_im27.bmp_pos30_id13_im10.bmp,['Im_RobertPattinson.png', 'Im_JustinTimberlake.png', 'Im_RobertDowneyJr.png', 'Im_LeonardoDiCaprio.png', 'Im_KeanuReeves.png', 'Im_GeorgeClooney.png', 'Im_HughJackman.png', 'Im_RyanReynolds.png', 'Im_ElijahWood.png', 'Im_MattDamon.png'],diff,1,1.2832096000001911,23,85.71428571428571,
DEMA2901,train,neg,fs,negfs_id21_im17.bmp_negfs_id21_im16.bmp,['Im_RobertPattinson.png', 'Im_JustinTimberlake.png', 'Im_RobertDowneyJr.png', 'Im_LeonardoDiCaprio.png', 'Im_KeanuReeves.png', 'Im_GeorgeClooney.png', 'Im_HughJackman.png', 'Im_RyanReynolds.png', 'Im_ElijahWood.png', 'Im_MattDamon.png'],same,1,1.000338400000146,24,85.71428571428571,
DEMA2901,train,neg,90,neg90_id14_im24.bmp_neg90_id21_im17.bmp,['Im_RobertPattinson.png', 'Im_JustinTimberlake.png', 'Im_RobertDowneyJr.png', 'Im_LeonardoDiCaprio.png', 'Im_KeanuReeves.png', 'Im_GeorgeClooney.png', 'Im_HughJackman.png', 'Im_RyanReynolds.png', 'Im_ElijahWood.png', 'Im_MattDamon.png'],diff,1,1.1000248999998803,25,85.71428571428571,
DEMA2901,train,neg,120,neg120_id6_im18.bmp_neg120_id19_im8.bmp,['Im_RobertPattinson.png', 'Im_JustinTimberlake.png', 'Im_RobertDowneyJr.png', 'Im_LeonardoDiCaprio.png', 'Im_KeanuReeves.png', 'Im_GeorgeClooney.png', 'Im_HughJackman.png', 'Im_RyanReynolds.png', 'Im_ElijahWood.png', 'Im_MattDamon.png'],diff,1,1.8751744000001054,26,85.71428571428571,
DEMA2901,train,neg,60,neg60_id14_im24.bmp_neg60_id21_im17.bmp,['Im_RobertPattinson.png', 'Im_JustinTimberlake.png', 'Im_RobertDowneyJr.png', 'Im_LeonardoDiCaprio.png', 'Im_KeanuReeves.png', 'Im_GeorgeClooney.png', 'Im_HughJackman.png', 'Im_RyanReynolds.png', 'Im_ElijahWood.png', 'Im_MattDamon.png'],diff,1,0.7999393000000055,27,85.71428571428571,
DEMA2901,train,neg,30,neg30_id19_im4.bmp_neg30_id7_im15.bmp,['Im_RobertPattinson.png', 'Im_JustinTimberlake.png', 'Im_RobertDowneyJr.png', 'Im_LeonardoDiCaprio.png', 'Im_KeanuReeves.png', 'Im_GeorgeClooney.png', 'Im_HughJackman.png', 'Im_RyanReynolds.png', 'Im_ElijahWood.png', 'Im_MattDamon.png'],diff,1,0.8167594000001372,28,85.71428571428571,
DEMA2901,train,neg,60,neg60_id7_im14.bmp_neg60_id6_im12.bmp,['Im_RobertPattinson.png', 'Im_JustinTimberlake.png', 'Im_RobertDowneyJr.png', 'Im_LeonardoDiCaprio.png', 'Im_KeanuReeves.png', 'Im_GeorgeClooney.png', 'Im_HughJackman.png', 'Im_RyanReynolds.png', 'Im_ElijahWood.png', 'Im_MattDamon.png'],diff,1,0.7998280000001614,29,85.71428571428571,
DEMA2901,train,neg,30,neg30_id10_im18.bmp_neg30_id10_im1.bmp,['Im_RobertPattinson.png', 'Im_JustinTimberlake.png', 'Im_RobertDowneyJr.png', 'Im_LeonardoDiCaprio.png', 'Im_KeanuReeves.png', 'Im_GeorgeClooney.png', 'Im_HughJackman.png', 'Im_RyanReynolds.png', 'Im_ElijahWood.png', 'Im_MattDamon.png'],diff,0,0.9585895000000164,29,85.71428571428571,
DEMA2901,train,neg,150,neg150_id11_im2.bmp_neg150_id10_im18.bmp,['Im_RobertPattinson.png', 'Im_JustinTimberlake.png', 'Im_RobertDowneyJr.png', 'Im_LeonardoDiCaprio.png', 'Im_KeanuReeves.png', 'Im_GeorgeClooney.png', 'Im_HughJackman.png', 'Im_RyanReynolds.png', 'Im_ElijahWood.png', 'Im_MattDamon.png'],diff,1,0.6917219000001751,30,85.71428571428571,
DEMA2901,train,neg,90,neg90_id8_im20.bmp_neg90_id8_im13.bmp,['Im_RobertPattinson.png', 'Im_JustinTimberlake.png', 'Im_RobertDowneyJr.png', 'Im_LeonardoDiCaprio.png', 'Im_KeanuReeves.png', 'Im_GeorgeClooney.png', 'Im_HughJackman.png', 'Im_RyanReynolds.png', 'Im_ElijahWood.png', 'Im_MattDamon.png'],same,1,1.0833470000002308,31,85.71428571428571,
DEMA2901,train,neg,fs,negfs_id13_im15.bmp_negfs_id13_im10.bmp,['Im_RobertPattinson.png', 'Im_JustinTimberlake.png', 'Im_RobertDowneyJr.png', 'Im_LeonardoDiCaprio.png', 'Im_KeanuReeves.png', 'Im_GeorgeClooney.png', 'Im_HughJackman.png', 'Im_RyanReynolds.png', 'Im_ElijahWood.png', 'Im_MattDamon.png'],same,1,0.7501586999997016,32,85.71428571428571,
DEMA2901,train,neg,0,neg0_id21_im16.bmp_neg0_id21_im17.bmp,['Im_RobertPattinson.png', 'Im_JustinTimberlake.png', 'Im_RobertDowneyJr.png', 'Im_LeonardoDiCaprio.png', 'Im_KeanuReeves.png', 'Im_GeorgeClooney.png', 'Im_HughJackman.png', 'Im_RyanReynolds.png', 'Im_ElijahWood.png', 'Im_MattDamon.png'],same,1,0.7917345000000751,33,85.71428571428571,
DEMA2901,train,neg,120,neg120_id13_im29.bmp_neg120_id13_im15.bmp,['Im_RobertPattinson.png', 'Im_JustinTimberlake.png', 'Im_RobertDowneyJr.png', 'Im_LeonardoDiCaprio.png', 'Im_KeanuReeves.png', 'Im_GeorgeClooney.png', 'Im_HughJackman.png', 'Im_RyanReynolds.png', 'Im_ElijahWood.png', 'Im_MattDamon.png'],same,1,0.716692299999977,34,85.71428571428571,
DEMA2901,train,neg,150,neg150_id18_im19.bmp_neg150_id11_im1.bmp,['Im_RobertPattinson.png', 'Im_JustinTimberlake.png', 'Im_RobertDowneyJr.png', 'Im_LeonardoDiCaprio.png', 'Im_KeanuReeves.png', 'Im_GeorgeClooney.png', 'Im_HughJackman.png', 'Im_RyanReynolds.png', 'Im_ElijahWood.png', 'Im_MattDamon.png'],same,0,1.2416153999997732,34,85.71428571428571,
DEMA2901,train,neg,0,neg0_id21_im17.bmp_neg0_id14_im24.bmp,['Im_RobertPattinson.png', 'Im_JustinTimberlake.png', 'Im_RobertDowneyJr.png', 'Im_LeonardoDiCaprio.png', 'Im_KeanuReeves.png', 'Im_GeorgeClooney.png', 'Im_HughJackman.png', 'Im_RyanReynolds.png', 'Im_ElijahWood.png', 'Im_MattDamon.png'],same,0,3.150195299999723,34,85.71428571428571,
DEMA2901,0,inv,120,pos120_id13_im15.bmp_pos120_id7_im15.bmp,['Im_RobertPattinson.png', 'Im_JustinTimberlake.png', 'Im_RobertDowneyJr.png', 'Im_LeonardoDiCaprio.png', 'Im_KeanuReeves.png', 'Im_GeorgeClooney.png', 'Im_HughJackman.png', 'Im_RyanReynolds.png', 'Im_ElijahWood.png', 'Im_MattDamon.png'],diff,1,2.9086122000003343,1,0,
DEMA2901,0,inv,60,pos60_id21_im17.bmp_pos60_id21_im22.bmp,['Im_RobertPattinson.png', 'Im_JustinTimberlake.png', 'Im_RobertDowneyJr.png', 'Im_LeonardoDiCaprio.png', 'Im_KeanuReeves.png', 'Im_GeorgeClooney.png', 'Im_HughJackman.png', 'Im_RyanReynolds.png', 'Im_ElijahWood.png', 'Im_MattDamon.png'],same,1,0.7915885999996135,2,0,
DEMA2901,0,inv,30,pos30_id8_im20.bmp_pos30_id8_im21.bmp,['Im_RobertPattinson.png', 'Im_JustinTimberlake.png', 'Im_RobertDowneyJr.png', 'Im_LeonardoDiCaprio.png', 'Im_KeanuReeves.png', 'Im_GeorgeClooney.png', 'Im_HughJackman.png', 'Im_RyanReynolds.png', 'Im_ElijahWood.png', 'Im_MattDamon.png'],same,1,0.6250988000001598,3,0,
DEMA2901,0,inv,60,pos60_id7_im14.bmp_pos60_id6_im12.bmp,['Im_RobertPattinson.png', 'Im_JustinTimberlake.png', 'Im_RobertDowneyJr.png', 'Im_LeonardoDiCaprio.png', 'Im_KeanuReeves.png', 'Im_GeorgeClooney.png', 'Im_HughJackman.png', 'Im_RyanReynolds.png', 'Im_ElijahWood.png', 'Im_MattDamon.png'],diff,1,1.0584954999999354,4,0,
DEMA2901,0,inv,150,pos150_id19_im8.bmp_pos150_id19_im27.bmp,['Im_RobertPattinson.png', 'Im_JustinTimberlake.png', 'Im_RobertDowneyJr.png', 'Im_LeonardoDiCaprio.png', 'Im_KeanuReeves.png', 'Im_GeorgeClooney.png', 'Im_HughJackman.png', 'Im_RyanReynolds.png', 'Im_ElijahWood.png', 'Im_MattDamon.png'],same,1,0.6253728000001502,5,0,
DEMA2901,0,inv,90,pos90_id21_im22.bmp_pos90_id21_im17.bmp,['Im_RobertPattinson.png', 'Im_JustinTimberlake.png', 'Im_RobertDowneyJr.png', 'Im_LeonardoDiCaprio.png', 'Im_KeanuReeves.png', 'Im_GeorgeClooney.png', 'Im_HughJackman.png', 'Im_RyanReynolds.png', 'Im_ElijahWood.png', 'Im_MattDamon.png'],same,1,1.0085131999999248,6,0,
DEMA2901,0,inv,120,pos120_id10_im18.bmp_pos120_id11_im2.bmp,['Im_RobertPattinson.png', 'Im_JustinTimberlake.png', 'Im_RobertDowneyJr.png', 'Im_LeonardoDiCaprio.png', 'Im_KeanuReeves.png', 'Im_GeorgeClooney.png', 'Im_HughJackman.png', 'Im_RyanReynolds.png', 'Im_ElijahWood.png', 'Im_MattDamon.png'],diff,1,1.8254157999999734,7,0,
DEMA2901,0,inv,fs,posfs_id11_im1.bmp_posfs_id18_im19.bmp,['Im_RobertPattinson.png', 'Im_JustinTimberlake.png', 'Im_RobertDowneyJr.png', 'Im_LeonardoDiCaprio.png', 'Im_KeanuReeves.png', 'Im_GeorgeClooney.png', 'Im_HughJackman.png', 'Im_RyanReynolds.png', 'Im_ElijahWood.png', 'Im_MattDamon.png'],diff,1,0.6917210000001432,8,0,
DEMA2901,0,inv,30,pos30_id6_im12.bmp_pos30_id6_im18.bmp,['Im_RobertPattinson.png', 'Im_JustinTimberlake.png', 'Im_RobertDowneyJr.png', 'Im_LeonardoDiCaprio.png', 'Im_KeanuReeves.png', 'Im_GeorgeClooney.png', 'Im_HughJackman.png', 'Im_RyanReynolds.png', 'Im_ElijahWood.png', 'Im_MattDamon.png'],same,1,1.2086007999996582,9,0,
DEMA2901,0,inv,fs,posfs_id7_im15.bmp_posfs_id7_im14.bmp,['Im_RobertPattinson.png', 'Im_JustinTimberlake.png', 'Im_RobertDowneyJr.png', 'Im_LeonardoDiCaprio.png', 'Im_KeanuReeves.png', 'Im_GeorgeClooney.png', 'Im_HughJackman.png', 'Im_RyanReynolds.png', 'Im_ElijahWood.png', 'Im_MattDamon.png'],same,1,0.9420079000001351,10,0,
DEMA2901,0,inv,0,pos0_id7_im14.bmp_pos0_id6_im12.bmp,['Im_RobertPattinson.png', 'Im_JustinTimberlake.png', 'Im_RobertDowneyJr.png', 'Im_LeonardoDiCaprio.png', 'Im_KeanuReeves.png', 'Im_GeorgeClooney.png', 'Im_HughJackman.png', 'Im_RyanReynolds.png', 'Im_ElijahWood.png', 'Im_MattDamon.png'],diff,1,1.1754344999999375,11,0,
DEMA2901,0,inv,0,pos0_id7_im15.bmp_pos0_id19_im4.bmp,['Im_RobertPattinson.png', 'Im_JustinTimberlake.png', 'Im_RobertDowneyJr.png', 'Im_LeonardoDiCaprio.png', 'Im_KeanuReeves.png', 'Im_GeorgeClooney.png', 'Im_HughJackman.png', 'Im_RyanReynolds.png', 'Im_ElijahWood.png', 'Im_MattDamon.png'],diff,1,2.7004125999997086,12,0,
DEMA2901,0,inv,150,pos150_id8_im21.bmp_pos150_id8_im20.bmp,['Im_RobertPattinson.png', 'Im_JustinTimberlake.png', 'Im_RobertDowneyJr.png', 'Im_LeonardoDiCaprio.png', 'Im_KeanuReeves.png', 'Im_GeorgeClooney.png', 'Im_HughJackman.png', 'Im_RyanReynolds.png', 'Im_ElijahWood.png', 'Im_MattDamon.png'],same,1,0.9171565999999984,13,0,
DEMA2901,0,inv,90,pos90_id11_im2.bmp_pos90_id11_im10.bmp,['Im_RobertPattinson.png', 'Im_JustinTimberlake.png', 'Im_RobertDowneyJr.png', 'Im_LeonardoDiCaprio.png', 'Im_KeanuReeves.png', 'Im_GeorgeClooney.png', 'Im_HughJackman.png', 'Im_RyanReynolds.png', 'Im_ElijahWood.png', 'Im_MattDamon.png'],diff,0,2.0084406000000854,13,0,
DEMA2901,1,pos,60,pos60_id6_im18.bmp_pos60_id6_im19.bmp,['Im_RobertPattinson.png', 'Im_JustinTimberlake.png', 'Im_RobertDowneyJr.png', 'Im_LeonardoDiCaprio.png', 'Im_KeanuReeves.png', 'Im_GeorgeClooney.png', 'Im_HughJackman.png', 'Im_RyanReynolds.png', 'Im_ElijahWood.png', 'Im_MattDamon.png'],same,1,0.9000363000000107,14,0,
DEMA2901,1,pos,60,pos60_id14_im24.bmp_pos60_id14_im16.bmp,['Im_RobertPattinson.png', 'Im_JustinTimberlake.png', 'Im_RobertDowneyJr.png', 'Im_LeonardoDiCaprio.png', 'Im_KeanuReeves.png', 'Im_GeorgeClooney.png', 'Im_HughJackman.png', 'Im_RyanReynolds.png', 'Im_ElijahWood.png', 'Im_MattDamon.png'],same,1,0.7000570000000153,15,0,
DEMA2901,1,pos,fs,posfs_id6_im18.bmp_posfs_id6_im19.bmp,['Im_RobertPattinson.png', 'Im_JustinTimberlake.png', 'Im_RobertDowneyJr.png', 'Im_LeonardoDiCaprio.png', 'Im_KeanuReeves.png', 'Im_GeorgeClooney.png', 'Im_HughJackman.png', 'Im_RyanReynolds.png', 'Im_ElijahWood.png', 'Im_MattDamon.png'],same,1,0.6667794999998478,16,0,
DEMA2901,1,pos,0,pos0_id10_im1.bmp_pos0_id7_im14.bmp,['Im_RobertPattinson.png', 'Im_JustinTimberlake.png', 'Im_RobertDowneyJr.png', 'Im_LeonardoDiCaprio.png', 'Im_KeanuReeves.png', 'Im_GeorgeClooney.png', 'Im_HughJackman.png', 'Im_RyanReynolds.png', 'Im_ElijahWood.png', 'Im_MattDamon.png'],diff,1,1.433623699999771,17,0,
DEMA2901,1,pos,150,pos150_id8_im13.bmp_pos150_id13_im29.bmp,['Im_RobertPattinson.png', 'Im_JustinTimberlake.png', 'Im_RobertDowneyJr.png', 'Im_LeonardoDiCaprio.png', 'Im_KeanuReeves.png', 'Im_GeorgeClooney.png', 'Im_HughJackman.png', 'Im_RyanReynolds.png', 'Im_ElijahWood.png', 'Im_MattDamon.png'],diff,1,0.9582773000001907,18,0,
DEMA2901,1,pos,30,pos30_id8_im21.bmp_pos30_id8_im20.bmp,['Im_RobertPattinson.png', 'Im_JustinTimberlake.png', 'Im_RobertDowneyJr.png', 'Im_LeonardoDiCaprio.png', 'Im_KeanuReeves.png', 'Im_GeorgeClooney.png', 'Im_HughJackman.png', 'Im_RyanReynolds.png', 'Im_ElijahWood.png', 'Im_MattDamon.png'],same,1,0.9671425999999883,19,0,
DEMA2901,1,pos,30,pos30_id8_im21.bmp_pos30_id18_im18.bmp,['Im_RobertPattinson.png', 'Im_JustinTimberlake.png', 'Im_RobertDowneyJr.png', 'Im_LeonardoDiCaprio.png', 'Im_KeanuReeves.png', 'Im_GeorgeClooney.png', 'Im_HughJackman.png', 'Im_RyanReynolds.png', 'Im_ElijahWood.png', 'Im_MattDamon.png'],diff,1,1.3918972000001304,20,0,
DEMA2901,1,pos,90,pos90_id18_im19.bmp_pos90_id18_im11.bmp,['Im_RobertPattinson.png', 'Im_JustinTimberlake.png', 'Im_RobertDowneyJr.png', 'Im_LeonardoDiCaprio.png', 'Im_KeanuReeves.png', 'Im_GeorgeClooney.png', 'Im_HughJackman.png', 'Im_RyanReynolds.png', 'Im_ElijahWood.png', 'Im_MattDamon.png'],diff,0,1.5335502999996606,20,0,
DEMA2901,1,pos,150,pos150_id14_im18.bmp_pos150_id14_im24.bmp,['Im_RobertPattinson.png', 'Im_JustinTimberlake.png', 'Im_RobertDowneyJr.png', 'Im_LeonardoDiCaprio.png', 'Im_KeanuReeves.png', 'Im_GeorgeClooney.png', 'Im_HughJackman.png', 'Im_RyanReynolds.png', 'Im_ElijahWood.png', 'Im_MattDamon.png'],same,1,0.875130899999931,21,0,
DEMA2901,1,pos,120,pos120_id13_im29.bmp_pos120_id13_im10.bmp,['Im_RobertPattinson.png', 'Im_JustinTimberlake.png', 'Im_RobertDowneyJr.png', 'Im_LeonardoDiCaprio.png', 'Im_KeanuReeves.png', 'Im_GeorgeClooney.png', 'Im_HughJackman.png', 'Im_RyanReynolds.png', 'Im_ElijahWood.png', 'Im_MattDamon.png'],same,1,0.933398500000294,22,0,
DEMA2901,1,pos,0,pos0_id21_im17.bmp_pos0_id10_im17.bmp,['Im_RobertPattinson.png', 'Im_JustinTimberlake.png', 'Im_RobertDowneyJr.png', 'Im_LeonardoDiCaprio.png', 'Im_KeanuReeves.png', 'Im_GeorgeClooney.png', 'Im_HughJackman.png', 'Im_RyanReynolds.png', 'Im_ElijahWood.png', 'Im_MattDamon.png'],diff,1,1.066702499999792,23,0,
DEMA2901,1,pos,90,pos90_id7_im26.bmp_pos90_id7_im14.bmp,['Im_RobertPattinson.png', 'Im_JustinTimberlake.png', 'Im_RobertDowneyJr.png', 'Im_LeonardoDiCaprio.png', 'Im_KeanuReeves.png', 'Im_GeorgeClooney.png', 'Im_HughJackman.png', 'Im_RyanReynolds.png', 'Im_ElijahWood.png', 'Im_MattDamon.png'],same,1,1.2834498000001986,24,0,
DEMA2901,1,pos,fs,posfs_id18_im19.bmp_posfs_id11_im1.bmp,['Im_RobertPattinson.png', 'Im_JustinTimberlake.png', 'Im_RobertDowneyJr.png', 'Im_LeonardoDiCaprio.png', 'Im_KeanuReeves.png', 'Im_GeorgeClooney.png', 'Im_HughJackman.png', 'Im_RyanReynolds.png', 'Im_ElijahWood.png', 'Im_MattDamon.png'],diff,1,0.6835795999995753,25,0,
DEMA2901,1,pos,120,pos120_id21_im16.bmp_pos120_id10_im1.bmp,['Im_RobertPattinson.png', 'Im_JustinTimberlake.png', 'Im_RobertDowneyJr.png', 'Im_LeonardoDiCaprio.png', 'Im_KeanuReeves.png', 'Im_GeorgeClooney.png', 'Im_HughJackman.png', 'Im_RyanReynolds.png', 'Im_ElijahWood.png', 'Im_MattDamon.png'],diff,1,0.8835781000002498,26,0,
DEMA2901,2,neg,150,neg150_id11_im1.bmp_neg150_id13_im15.bmp,['Im_RobertPattinson.png', 'Im_JustinTimberlake.png', 'Im_RobertDowneyJr.png', 'Im_LeonardoDiCaprio.png', 'Im_KeanuReeves.png', 'Im_GeorgeClooney.png', 'Im_HughJackman.png', 'Im_RyanReynolds.png', 'Im_ElijahWood.png', 'Im_MattDamon.png'],diff,1,0.8667466999995668,27,0,
DEMA2901,2,neg,0,neg0_id6_im12.bmp_neg0_id18_im11.bmp,['Im_RobertPattinson.png', 'Im_JustinTimberlake.png', 'Im_RobertDowneyJr.png', 'Im_LeonardoDiCaprio.png', 'Im_KeanuReeves.png', 'Im_GeorgeClooney.png', 'Im_HughJackman.png', 'Im_RyanReynolds.png', 'Im_ElijahWood.png', 'Im_MattDamon.png'],diff,1,0.7336808999998539,28,0,
DEMA2901,2,neg,30,neg30_id13_im15.bmp_neg30_id13_im29.bmp,['Im_RobertPattinson.png', 'Im_JustinTimberlake.png', 'Im_RobertDowneyJr.png', 'Im_LeonardoDiCaprio.png', 'Im_KeanuReeves.png', 'Im_GeorgeClooney.png', 'Im_HughJackman.png', 'Im_RyanReynolds.png', 'Im_ElijahWood.png', 'Im_MattDamon.png'],same,1,3.4502354999999625,29,0,
DEMA2901,2,neg,150,neg150_id14_im18.bmp_neg150_id6_im19.bmp,['Im_RobertPattinson.png', 'Im_JustinTimberlake.png', 'Im_RobertDowneyJr.png', 'Im_LeonardoDiCaprio.png', 'Im_KeanuReeves.png', 'Im_GeorgeClooney.png', 'Im_HughJackman.png', 'Im_RyanReynolds.png', 'Im_ElijahWood.png', 'Im_MattDamon.png'],diff,1,0.5753556999998182,30,0,
DEMA2901,2,neg,120,neg120_id21_im16.bmp_neg120_id10_im1.bmp,['Im_RobertPattinson.png', 'Im_JustinTimberlake.png', 'Im_RobertDowneyJr.png', 'Im_LeonardoDiCaprio.png', 'Im_KeanuReeves.png', 'Im_GeorgeClooney.png', 'Im_HughJackman.png', 'Im_RyanReynolds.png', 'Im_ElijahWood.png', 'Im_MattDamon.png'],diff,1,0.8002311000000191,31,0,
DEMA2901,2,neg,60,neg60_id11_im2.bmp_neg60_id11_im1.bmp,['Im_RobertPattinson.png', 'Im_JustinTimberlake.png', 'Im_RobertDowneyJr.png', 'Im_LeonardoDiCaprio.png', 'Im_KeanuReeves.png', 'Im_GeorgeClooney.png', 'Im_HughJackman.png', 'Im_RyanReynolds.png', 'Im_ElijahWood.png', 'Im_MattDamon.png'],same,1,1.0085014000001138,32,0,
DEMA2901,2,neg,0,neg0_id7_im26.bmp_neg0_id7_im15.bmp,['Im_RobertPattinson.png', 'Im_JustinTimberlake.png', 'Im_RobertDowneyJr.png', 'Im_LeonardoDiCaprio.png', 'Im_KeanuReeves.png', 'Im_GeorgeClooney.png', 'Im_HughJackman.png', 'Im_RyanReynolds.png', 'Im_ElijahWood.png', 'Im_MattDamon.png'],same,1,1.4753310999999485,33,0,
DEMA2901,2,neg,90,neg90_id8_im21.bmp_neg90_id18_im18.bmp,['Im_RobertPattinson.png', 'Im_JustinTimberlake.png', 'Im_RobertDowneyJr.png', 'Im_LeonardoDiCaprio.png', 'Im_KeanuReeves.png', 'Im_GeorgeClooney.png', 'Im_HughJackman.png', 'Im_RyanReynolds.png', 'Im_ElijahWood.png', 'Im_MattDamon.png'],diff,1,0.9915981999997712,34,0,
DEMA2901,2,neg,60,neg60_id10_im17.bmp_neg60_id10_im1.bmp,['Im_RobertPattinson.png', 'Im_JustinTimberlake.png', 'Im_RobertDowneyJr.png', 'Im_LeonardoDiCaprio.png', 'Im_KeanuReeves.png', 'Im_GeorgeClooney.png', 'Im_HughJackman.png', 'Im_RyanReynolds.png', 'Im_ElijahWood.png', 'Im_MattDamon.png'],same,1,0.6581528000001526,35,0,
DEMA2901,2,neg,fs,negfs_id8_im13.bmp_negfs_id13_im29.bmp,['Im_RobertPattinson.png', 'Im_JustinTimberlake.png', 'Im_RobertDowneyJr.png', 'Im_LeonardoDiCaprio.png', 'Im_KeanuReeves.png', 'Im_GeorgeClooney.png', 'Im_HughJackman.png', 'Im_RyanReynolds.png', 'Im_ElijahWood.png', 'Im_MattDamon.png'],diff,1,0.5836179999996602,36,0,
DEMA2901,2,neg,120,neg120_id18_im11.bmp_neg120_id11_im10.bmp,['Im_RobertPattinson.png', 'Im_JustinTimberlake.png', 'Im_RobertDowneyJr.png', 'Im_LeonardoDiCaprio.png', 'Im_KeanuReeves.png', 'Im_GeorgeClooney.png', 'Im_HughJackman.png', 'Im_RyanReynolds.png', 'Im_ElijahWood.png', 'Im_MattDamon.png'],diff,1,0.7840774000001147,37,0,
DEMA2901,2,neg,fs,negfs_id11_im1.bmp_negfs_id13_im15.bmp,['Im_RobertPattinson.png', 'Im_JustinTimberlake.png', 'Im_RobertDowneyJr.png', 'Im_LeonardoDiCaprio.png', 'Im_KeanuReeves.png', 'Im_GeorgeClooney.png', 'Im_HughJackman.png', 'Im_RyanReynolds.png', 'Im_ElijahWood.png', 'Im_MattDamon.png'],diff,1,0.8583839999996599,38,0,
DEMA2901,2,neg,90,neg90_id7_im15.bmp_neg90_id19_im4.bmp,['Im_RobertPattinson.png', 'Im_JustinTimberlake.png', 'Im_RobertDowneyJr.png', 'Im_LeonardoDiCaprio.png', 'Im_KeanuReeves.png', 'Im_GeorgeClooney.png', 'Im_HughJackman.png', 'Im_RyanReynolds.png', 'Im_ElijahWood.png', 'Im_MattDamon.png'],same,0,0.9753344999999172,38,0,
DEMA2901,2,neg,30,neg30_id14_im24.bmp_neg30_id21_im17.bmp,['Im_RobertPattinson.png', 'Im_JustinTimberlake.png', 'Im_RobertDowneyJr.png', 'Im_LeonardoDiCaprio.png', 'Im_KeanuReeves.png', 'Im_GeorgeClooney.png', 'Im_HughJackman.png', 'Im_RyanReynolds.png', 'Im_ElijahWood.png', 'Im_MattDamon.png'],diff,1,0.9250594000000092,39,0,
DEMA2901,3,inv,60,pos60_id11_im2.bmp_pos60_id21_im16.bmp,['Im_RobertPattinson.png', 'Im_JustinTimberlake.png', 'Im_RobertDowneyJr.png', 'Im_LeonardoDiCaprio.png', 'Im_KeanuReeves.png', 'Im_GeorgeClooney.png', 'Im_HughJackman.png', 'Im_RyanReynolds.png', 'Im_ElijahWood.png', 'Im_MattDamon.png'],same,0,1.6917324999999437,0,92.85714285714286,
DEMA2901,3,inv,30,pos30_id18_im19.bmp_pos30_id18_im18.bmp,['Im_RobertPattinson.png', 'Im_JustinTimberlake.png', 'Im_RobertDowneyJr.png', 'Im_LeonardoDiCaprio.png', 'Im_KeanuReeves.png', 'Im_GeorgeClooney.png', 'Im_HughJackman.png', 'Im_RyanReynolds.png', 'Im_ElijahWood.png', 'Im_MattDamon.png'],same,1,0.7424436999999671,1,92.85714285714286,
DEMA2901,3,inv,150,pos150_id11_im2.bmp_pos150_id11_im1.bmp,['Im_RobertPattinson.png', 'Im_JustinTimberlake.png', 'Im_RobertDowneyJr.png', 'Im_LeonardoDiCaprio.png', 'Im_KeanuReeves.png', 'Im_GeorgeClooney.png', 'Im_HughJackman.png', 'Im_RyanReynolds.png', 'Im_ElijahWood.png', 'Im_MattDamon.png'],same,1,2.1917084000001523,2,92.85714285714286,
DEMA2901,3,inv,60,pos60_id18_im19.bmp_pos60_id18_im18.bmp,['Im_RobertPattinson.png', 'Im_JustinTimberlake.png', 'Im_RobertDowneyJr.png', 'Im_LeonardoDiCaprio.png', 'Im_KeanuReeves.png', 'Im_GeorgeClooney.png', 'Im_HughJackman.png', 'Im_RyanReynolds.png', 'Im_ElijahWood.png', 'Im_MattDamon.png'],diff,0,1.8998379999998178,2,92.85714285714286,
DEMA2901,3,inv,0,pos0_id18_im18.bmp_pos0_id8_im20.bmp,['Im_RobertPattinson.png', 'Im_JustinTimberlake.png', 'Im_RobertDowneyJr.png', 'Im_LeonardoDiCaprio.png', 'Im_KeanuReeves.png', 'Im_GeorgeClooney.png', 'Im_HughJackman.png', 'Im_RyanReynolds.png', 'Im_ElijahWood.png', 'Im_MattDamon.png'],diff,1,1.4916637000001174,3,92.85714285714286,
DEMA2901,3,inv,90,pos90_id10_im18.bmp_pos90_id10_im17.bmp,['Im_RobertPattinson.png', 'Im_JustinTimberlake.png', 'Im_RobertDowneyJr.png', 'Im_LeonardoDiCaprio.png', 'Im_KeanuReeves.png', 'Im_GeorgeClooney.png', 'Im_HughJackman.png', 'Im_RyanReynolds.png', 'Im_ElijahWood.png', 'Im_MattDamon.png'],same,1,1.4840665000001536,4,92.85714285714286,
DEMA2901,3,inv,30,pos30_id10_im17.bmp_pos30_id10_im1.bmp,['Im_RobertPattinson.png', 'Im_JustinTimberlake.png', 'Im_RobertDowneyJr.png', 'Im_LeonardoDiCaprio.png', 'Im_KeanuReeves.png', 'Im_GeorgeClooney.png', 'Im_HughJackman.png', 'Im_RyanReynolds.png', 'Im_ElijahWood.png', 'Im_MattDamon.png'],same,1,0.825136399999792,5,92.85714285714286,
DEMA2901,3,inv,150,pos150_id13_im15.bmp_pos150_id11_im1.bmp,['Im_RobertPattinson.png', 'Im_JustinTimberlake.png', 'Im_RobertDowneyJr.png', 'Im_LeonardoDiCaprio.png', 'Im_KeanuReeves.png', 'Im_GeorgeClooney.png', 'Im_HughJackman.png', 'Im_RyanReynolds.png', 'Im_ElijahWood.png', 'Im_MattDamon.png'],diff,1,3.608583499999895,6,92.85714285714286,
DEMA2901,3,inv,120,pos120_id14_im24.bmp_pos120_id14_im18.bmp,['Im_RobertPattinson.png', 'Im_JustinTimberlake.png', 'Im_RobertDowneyJr.png', 'Im_LeonardoDiCaprio.png', 'Im_KeanuReeves.png', 'Im_GeorgeClooney.png', 'Im_HughJackman.png', 'Im_RyanReynolds.png', 'Im_ElijahWood.png', 'Im_MattDamon.png'],same,1,0.6500114999998914,7,92.85714285714286,
DEMA2901,3,inv,fs,posfs_id10_im1.bmp_posfs_id21_im16.bmp,['Im_RobertPattinson.png', 'Im_JustinTimberlake.png', 'Im_RobertDowneyJr.png', 'Im_LeonardoDiCaprio.png', 'Im_KeanuReeves.png', 'Im_GeorgeClooney.png', 'Im_HughJackman.png', 'Im_RyanReynolds.png', 'Im_ElijahWood.png', 'Im_MattDamon.png'],diff,1,0.9419186999998601,8,92.85714285714286,
DEMA2901,3,inv,120,pos120_id10_im1.bmp_pos120_id7_im14.bmp,['Im_RobertPattinson.png', 'Im_JustinTimberlake.png', 'Im_RobertDowneyJr.png', 'Im_LeonardoDiCaprio.png', 'Im_KeanuReeves.png', 'Im_GeorgeClooney.png', 'Im_HughJackman.png', 'Im_RyanReynolds.png', 'Im_ElijahWood.png', 'Im_MattDamon.png'],diff,1,2.4504484000003686,9,92.85714285714286,
DEMA2901,3,inv,fs,posfs_id13_im15.bmp_posfs_id13_im29.bmp,['Im_RobertPattinson.png', 'Im_JustinTimberlake.png', 'Im_RobertDowneyJr.png', 'Im_LeonardoDiCaprio.png', 'Im_KeanuReeves.png', 'Im_GeorgeClooney.png', 'Im_HughJackman.png', 'Im_RyanReynolds.png', 'Im_ElijahWood.png', 'Im_MattDamon.png'],same,1,0.9167011999998067,10,92.85714285714286,
DEMA2901,3,inv,0,pos0_id11_im10.bmp_pos0_id18_im11.bmp,['Im_RobertPattinson.png', 'Im_JustinTimberlake.png', 'Im_RobertDowneyJr.png', 'Im_LeonardoDiCaprio.png', 'Im_KeanuReeves.png', 'Im_GeorgeClooney.png', 'Im_HughJackman.png', 'Im_RyanReynolds.png', 'Im_ElijahWood.png', 'Im_MattDamon.png'],diff,1,0.9000381000000743,11,92.85714285714286,
DEMA2901,3,inv,90,pos90_id8_im13.bmp_pos90_id8_im21.bmp,['Im_RobertPattinson.png', 'Im_JustinTimberlake.png', 'Im_RobertDowneyJr.png', 'Im_LeonardoDiCaprio.png', 'Im_KeanuReeves.png', 'Im_GeorgeClooney.png', 'Im_HughJackman.png', 'Im_RyanReynolds.png', 'Im_ElijahWood.png', 'Im_MattDamon.png'],same,1,1.1836144999997487,12,92.85714285714286,
DEMA2901,4,neg,30,neg30_id10_im17.bmp_neg30_id14_im18.bmp,['Im_RobertPattinson.png', 'Im_JustinTimberlake.png', 'Im_RobertDowneyJr.png', 'Im_LeonardoDiCaprio.png', 'Im_KeanuReeves.png', 'Im_GeorgeClooney.png', 'Im_HughJackman.png', 'Im_RyanReynolds.png', 'Im_ElijahWood.png', 'Im_MattDamon.png'],diff,1,1.1004699000000073,13,92.85714285714286,
DEMA2901,4,neg,120,neg120_id11_im10.bmp_neg120_id14_im16.bmp,['Im_RobertPattinson.png', 'Im_JustinTimberlake.png', 'Im_RobertDowneyJr.png', 'Im_LeonardoDiCaprio.png', 'Im_KeanuReeves.png', 'Im_GeorgeClooney.png', 'Im_HughJackman.png', 'Im_RyanReynolds.png', 'Im_ElijahWood.png', 'Im_MattDamon.png'],same,0,0.875038399999994,13,92.85714285714286,
DEMA2901,4,neg,fs,negfs_id14_im24.bmp_negfs_id14_im16.bmp,['Im_RobertPattinson.png', 'Im_JustinTimberlake.png', 'Im_RobertDowneyJr.png', 'Im_LeonardoDiCaprio.png', 'Im_KeanuReeves.png', 'Im_GeorgeClooney.png', 'Im_HughJackman.png', 'Im_RyanReynolds.png', 'Im_ElijahWood.png', 'Im_MattDamon.png'],same,1,0.7000895000001037,14,92.85714285714286,
DEMA2901,4,neg,150,neg150_id21_im17.bmp_neg150_id21_im16.bmp,['Im_RobertPattinson.png', 'Im_JustinTimberlake.png', 'Im_RobertDowneyJr.png', 'Im_LeonardoDiCaprio.png', 'Im_KeanuReeves.png', 'Im_GeorgeClooney.png', 'Im_HughJackman.png', 'Im_RyanReynolds.png', 'Im_ElijahWood.png', 'Im_MattDamon.png'],same,1,0.816675000000032,15,92.85714285714286,
DEMA2901,4,neg,fs,negfs_id8_im20.bmp_negfs_id8_im21.bmp,['Im_RobertPattinson.png', 'Im_JustinTimberlake.png', 'Im_RobertDowneyJr.png', 'Im_LeonardoDiCaprio.png', 'Im_KeanuReeves.png', 'Im_GeorgeClooney.png', 'Im_HughJackman.png', 'Im_RyanReynolds.png', 'Im_ElijahWood.png', 'Im_MattDamon.png'],same,1,1.0083715000000666,16,92.85714285714286,
DEMA2901,4,neg,0,neg0_id8_im21.bmp_neg0_id8_im20.bmp,['Im_RobertPattinson.png', 'Im_JustinTimberlake.png', 'Im_RobertDowneyJr.png', 'Im_LeonardoDiCaprio.png', 'Im_KeanuReeves.png', 'Im_GeorgeClooney.png', 'Im_HughJackman.png', 'Im_RyanReynolds.png', 'Im_ElijahWood.png', 'Im_MattDamon.png'],same,1,0.8083711000003859,17,92.85714285714286,
DEMA2901,4,neg,60,neg60_id10_im18.bmp_neg60_id11_im2.bmp,['Im_RobertPattinson.png', 'Im_JustinTimberlake.png', 'Im_RobertDowneyJr.png', 'Im_LeonardoDiCaprio.png', 'Im_KeanuReeves.png', 'Im_GeorgeClooney.png', 'Im_HughJackman.png', 'Im_RyanReynolds.png', 'Im_ElijahWood.png', 'Im_MattDamon.png'],diff,1,0.46708029999990686,18,92.85714285714286,
DEMA2901,4,neg,90,neg90_id10_im17.bmp_neg90_id10_im1.bmp,['Im_RobertPattinson.png', 'Im_JustinTimberlake.png', 'Im_RobertDowneyJr.png', 'Im_LeonardoDiCaprio.png', 'Im_KeanuReeves.png', 'Im_GeorgeClooney.png', 'Im_HughJackman.png', 'Im_RyanReynolds.png', 'Im_ElijahWood.png', 'Im_MattDamon.png'],same,1,0.7251936000002388,19,92.85714285714286,
DEMA2901,4,neg,120,neg120_id13_im10.bmp_neg120_id13_im29.bmp,['Im_RobertPattinson.png', 'Im_JustinTimberlake.png', 'Im_RobertDowneyJr.png', 'Im_LeonardoDiCaprio.png', 'Im_KeanuReeves.png', 'Im_GeorgeClooney.png', 'Im_HughJackman.png', 'Im_RyanReynolds.png', 'Im_ElijahWood.png', 'Im_MattDamon.png'],same,1,1.9333888000001025,20,92.85714285714286,
DEMA2901,4,neg,150,neg150_id6_im18.bmp_neg150_id19_im8.bmp,['Im_RobertPattinson.png', 'Im_JustinTimberlake.png', 'Im_RobertDowneyJr.png', 'Im_LeonardoDiCaprio.png', 'Im_KeanuReeves.png', 'Im_GeorgeClooney.png', 'Im_HughJackman.png', 'Im_RyanReynolds.png', 'Im_ElijahWood.png', 'Im_MattDamon.png'],diff,1,2.5586272000000463,21,92.85714285714286,
DEMA2901,4,neg,0,neg0_id14_im18.bmp_neg0_id10_im17.bmp,['Im_RobertPattinson.png', 'Im_JustinTimberlake.png', 'Im_RobertDowneyJr.png', 'Im_LeonardoDiCaprio.png', 'Im_KeanuReeves.png', 'Im_GeorgeClooney.png', 'Im_HughJackman.png', 'Im_RyanReynolds.png', 'Im_ElijahWood.png', 'Im_MattDamon.png'],diff,1,1.1003153999999995,22,92.85714285714286,
DEMA2901,4,neg,60,neg60_id8_im13.bmp_neg60_id8_im20.bmp,['Im_RobertPattinson.png', 'Im_JustinTimberlake.png', 'Im_RobertDowneyJr.png', 'Im_LeonardoDiCaprio.png', 'Im_KeanuReeves.png', 'Im_GeorgeClooney.png', 'Im_HughJackman.png', 'Im_RyanReynolds.png', 'Im_ElijahWood.png', 'Im_MattDamon.png'],diff,0,0.825314900000194,22,92.85714285714286,
DEMA2901,4,neg,90,neg90_id14_im18.bmp_neg90_id14_im16.bmp,['Im_RobertPattinson.png', 'Im_JustinTimberlake.png', 'Im_RobertDowneyJr.png', 'Im_LeonardoDiCaprio.png', 'Im_KeanuReeves.png', 'Im_GeorgeClooney.png', 'Im_HughJackman.png', 'Im_RyanReynolds.png', 'Im_ElijahWood.png', 'Im_MattDamon.png'],same,1,1.1836443000001964,23,92.85714285714286,
DEMA2901,4,neg,30,neg30_id6_im19.bmp_neg30_id14_im18.bmp,['Im_RobertPattinson.png', 'Im_JustinTimberlake.png', 'Im_RobertDowneyJr.png', 'Im_LeonardoDiCaprio.png', 'Im_KeanuReeves.png', 'Im_GeorgeClooney.png', 'Im_HughJackman.png', 'Im_RyanReynolds.png', 'Im_ElijahWood.png', 'Im_MattDamon.png'],diff,1,0.7500588000002608,24,92.85714285714286,
DEMA2901,5,pos,30,pos30_id7_im15.bmp_pos30_id7_im14.bmp,['Im_RobertPattinson.png', 'Im_JustinTimberlake.png', 'Im_RobertDowneyJr.png', 'Im_LeonardoDiCaprio.png', 'Im_KeanuReeves.png', 'Im_GeorgeClooney.png', 'Im_HughJackman.png', 'Im_RyanReynolds.png', 'Im_ElijahWood.png', 'Im_MattDamon.png'],same,1,0.5750732999999855,25,92.85714285714286,
DEMA2901,5,pos,fs,posfs_id7_im15.bmp_posfs_id13_im15.bmp,['Im_RobertPattinson.png', 'Im_JustinTimberlake.png', 'Im_RobertDowneyJr.png', 'Im_LeonardoDiCaprio.png', 'Im_KeanuReeves.png', 'Im_GeorgeClooney.png', 'Im_HughJackman.png', 'Im_RyanReynolds.png', 'Im_ElijahWood.png', 'Im_MattDamon.png'],diff,1,0.4250355999997737,26,92.85714285714286,
DEMA2901,5,pos,0,pos0_id21_im22.bmp_pos0_id21_im17.bmp,['Im_RobertPattinson.png', 'Im_JustinTimberlake.png', 'Im_RobertDowneyJr.png', 'Im_LeonardoDiCaprio.png', 'Im_KeanuReeves.png', 'Im_GeorgeClooney.png', 'Im_HughJackman.png', 'Im_RyanReynolds.png', 'Im_ElijahWood.png', 'Im_MattDamon.png'],same,1,0.8085698999998385,27,92.85714285714286,
DEMA2901,5,pos,fs,posfs_id13_im15.bmp_posfs_id13_im10.bmp,['Im_RobertPattinson.png', 'Im_JustinTimberlake.png', 'Im_RobertDowneyJr.png', 'Im_LeonardoDiCaprio.png', 'Im_KeanuReeves.png', 'Im_GeorgeClooney.png', 'Im_HughJackman.png', 'Im_RyanReynolds.png', 'Im_ElijahWood.png', 'Im_MattDamon.png'],same,1,0.4166795999999522,28,92.85714285714286,
DEMA2901,5,pos,120,pos120_id8_im13.bmp_pos120_id13_im29.bmp,['Im_RobertPattinson.png', 'Im_JustinTimberlake.png', 'Im_RobertDowneyJr.png', 'Im_LeonardoDiCaprio.png', 'Im_KeanuReeves.png', 'Im_GeorgeClooney.png', 'Im_HughJackman.png', 'Im_RyanReynolds.png', 'Im_ElijahWood.png', 'Im_MattDamon.png'],diff,1,0.4250192999998035,29,92.85714285714286,
DEMA2901,5,pos,150,pos150_id10_im17.bmp_pos150_id14_im18.bmp,['Im_RobertPattinson.png', 'Im_JustinTimberlake.png', 'Im_RobertDowneyJr.png', 'Im_LeonardoDiCaprio.png', 'Im_KeanuReeves.png', 'Im_GeorgeClooney.png', 'Im_HughJackman.png', 'Im_RyanReynolds.png', 'Im_ElijahWood.png', 'Im_MattDamon.png'],diff,1,0.5500827000000754,30,92.85714285714286,
DEMA2901,5,pos,30,pos30_id10_im17.bmp_pos30_id21_im17.bmp,['Im_RobertPattinson.png', 'Im_JustinTimberlake.png', 'Im_RobertDowneyJr.png', 'Im_LeonardoDiCaprio.png', 'Im_KeanuReeves.png', 'Im_GeorgeClooney.png', 'Im_HughJackman.png', 'Im_RyanReynolds.png', 'Im_ElijahWood.png', 'Im_MattDamon.png'],diff,1,0.40841309999996156,31,92.85714285714286,
DEMA2901,5,pos,150,pos150_id21_im16.bmp_pos150_id21_im22.bmp,['Im_RobertPattinson.png', 'Im_JustinTimberlake.png', 'Im_RobertDowneyJr.png', 'Im_LeonardoDiCaprio.png', 'Im_KeanuReeves.png', 'Im_GeorgeClooney.png', 'Im_HughJackman.png', 'Im_RyanReynolds.png', 'Im_ElijahWood.png', 'Im_MattDamon.png'],same,1,0.8337008000003152,32,92.85714285714286,
DEMA2901,5,pos,60,pos60_id21_im22.bmp_pos60_id21_im17.bmp,['Im_RobertPattinson.png', 'Im_JustinTimberlake.png', 'Im_RobertDowneyJr.png', 'Im_LeonardoDiCaprio.png', 'Im_KeanuReeves.png', 'Im_GeorgeClooney.png', 'Im_HughJackman.png', 'Im_RyanReynolds.png', 'Im_ElijahWood.png', 'Im_MattDamon.png'],same,1,0.43340970000008383,33,92.85714285714286,
DEMA2901,5,pos,120,pos120_id19_im8.bmp_pos120_id10_im18.bmp,['Im_RobertPattinson.png', 'Im_JustinTimberlake.png', 'Im_RobertDowneyJr.png', 'Im_LeonardoDiCaprio.png', 'Im_KeanuReeves.png', 'Im_GeorgeClooney.png', 'Im_HughJackman.png', 'Im_RyanReynolds.png', 'Im_ElijahWood.png', 'Im_MattDamon.png'],diff,1,1.3250559999996767,34,92.85714285714286,
DEMA2901,5,pos,90,pos90_id8_im13.bmp_pos90_id6_im18.bmp,['Im_RobertPattinson.png', 'Im_JustinTimberlake.png', 'Im_RobertDowneyJr.png', 'Im_LeonardoDiCaprio.png', 'Im_KeanuReeves.png', 'Im_GeorgeClooney.png', 'Im_HughJackman.png', 'Im_RyanReynolds.png', 'Im_ElijahWood.png', 'Im_MattDamon.png'],diff,1,0.4251936000000569,35,92.85714285714286,
DEMA2901,5,pos,90,pos90_id10_im1.bmp_pos90_id10_im17.bmp,['Im_RobertPattinson.png', 'Im_JustinTimberlake.png', 'Im_RobertDowneyJr.png', 'Im_LeonardoDiCaprio.png', 'Im_KeanuReeves.png', 'Im_GeorgeClooney.png', 'Im_HughJackman.png', 'Im_RyanReynolds.png', 'Im_ElijahWood.png', 'Im_MattDamon.png'],same,1,1.6253993000000264,36,92.85714285714286,
DEMA2901,5,pos,0,pos0_id18_im18.bmp_pos0_id8_im20.bmp,['Im_RobertPattinson.png', 'Im_JustinTimberlake.png', 'Im_RobertDowneyJr.png', 'Im_LeonardoDiCaprio.png', 'Im_KeanuReeves.png', 'Im_GeorgeClooney.png', 'Im_HughJackman.png', 'Im_RyanReynolds.png', 'Im_ElijahWood.png', 'Im_MattDamon.png'],diff,1,1.616939900000034,37,92.85714285714286,
DEMA2901,5,pos,60,pos60_id19_im4.bmp_pos60_id7_im26.bmp,['Im_RobertPattinson.png', 'Im_JustinTimberlake.png', 'Im_RobertDowneyJr.png', 'Im_LeonardoDiCaprio.png', 'Im_KeanuReeves.png', 'Im_GeorgeClooney.png', 'Im_HughJackman.png', 'Im_RyanReynolds.png', 'Im_ElijahWood.png', 'Im_MattDamon.png'],diff,1,0.42484650000005786,38,92.85714285714286,
DEMA2901,6,neg,0,neg0_id21_im17.bmp_neg0_id10_im17.bmp,['Im_RobertPattinson.png', 'Im_JustinTimberlake.png', 'Im_RobertDowneyJr.png', 'Im_LeonardoDiCaprio.png', 'Im_KeanuReeves.png', 'Im_GeorgeClooney.png', 'Im_HughJackman.png', 'Im_RyanReynolds.png', 'Im_ElijahWood.png', 'Im_MattDamon.png'],diff,1,0.5250743999999941,1,90.47619047619048,
DEMA2901,6,neg,60,neg60_id6_im18.bmp_neg60_id6_im19.bmp,['Im_RobertPattinson.png', 'Im_JustinTimberlake.png', 'Im_RobertDowneyJr.png', 'Im_LeonardoDiCaprio.png', 'Im_KeanuReeves.png', 'Im_GeorgeClooney.png', 'Im_HughJackman.png', 'Im_RyanReynolds.png', 'Im_ElijahWood.png', 'Im_MattDamon.png'],same,1,0.566830900000241,2,90.47619047619048,
DEMA2901,6,neg,120,neg120_id21_im22.bmp_neg120_id8_im21.bmp,['Im_RobertPattinson.png', 'Im_JustinTimberlake.png', 'Im_RobertDowneyJr.png', 'Im_LeonardoDiCaprio.png', 'Im_KeanuReeves.png', 'Im_GeorgeClooney.png', 'Im_HughJackman.png', 'Im_RyanReynolds.png', 'Im_ElijahWood.png', 'Im_MattDamon.png'],diff,1,0.5000598999999966,3,90.47619047619048,
DEMA2901,6,neg,150,neg150_id8_im13.bmp_neg150_id13_im29.bmp,['Im_RobertPattinson.png', 'Im_JustinTimberlake.png', 'Im_RobertDowneyJr.png', 'Im_LeonardoDiCaprio.png', 'Im_KeanuReeves.png', 'Im_GeorgeClooney.png', 'Im_HughJackman.png', 'Im_RyanReynolds.png', 'Im_ElijahWood.png', 'Im_MattDamon.png'],diff,1,0.41674609999972745,4,90.47619047619048,
DEMA2901,6,neg,0,neg0_id11_im1.bmp_neg0_id11_im10.bmp,['Im_RobertPattinson.png', 'Im_JustinTimberlake.png', 'Im_RobertDowneyJr.png', 'Im_LeonardoDiCaprio.png', 'Im_KeanuReeves.png', 'Im_GeorgeClooney.png', 'Im_HughJackman.png', 'Im_RyanReynolds.png', 'Im_ElijahWood.png', 'Im_MattDamon.png'],same,1,1.5586054000000331,5,90.47619047619048,
DEMA2901,6,neg,90,neg90_id14_im18.bmp_neg90_id14_im24.bmp,['Im_RobertPattinson.png', 'Im_JustinTimberlake.png', 'Im_RobertDowneyJr.png', 'Im_LeonardoDiCaprio.png', 'Im_KeanuReeves.png', 'Im_GeorgeClooney.png', 'Im_HughJackman.png', 'Im_RyanReynolds.png', 'Im_ElijahWood.png', 'Im_MattDamon.png'],same,1,0.7417292999998608,6,90.47619047619048,
DEMA2901,6,neg,fs,negfs_id21_im17.bmp_negfs_id21_im22.bmp,['Im_RobertPattinson.png', 'Im_JustinTimberlake.png', 'Im_RobertDowneyJr.png', 'Im_LeonardoDiCaprio.png', 'Im_KeanuReeves.png', 'Im_GeorgeClooney.png', 'Im_HughJackman.png', 'Im_RyanReynolds.png', 'Im_ElijahWood.png', 'Im_MattDamon.png'],same,1,1.4503153000000566,7,90.47619047619048,
DEMA2901,6,neg,fs,negfs_id18_im11.bmp_negfs_id18_im18.bmp,['Im_RobertPattinson.png', 'Im_JustinTimberlake.png', 'Im_RobertDowneyJr.png', 'Im_LeonardoDiCaprio.png', 'Im_KeanuReeves.png', 'Im_GeorgeClooney.png', 'Im_HughJackman.png', 'Im_RyanReynolds.png', 'Im_ElijahWood.png', 'Im_MattDamon.png'],same,1,0.6418005999998968,8,90.47619047619048,
DEMA2901,6,neg,120,neg120_id11_im2.bmp_neg120_id11_im10.bmp,['Im_RobertPattinson.png', 'Im_JustinTimberlake.png', 'Im_RobertDowneyJr.png', 'Im_LeonardoDiCaprio.png', 'Im_KeanuReeves.png', 'Im_GeorgeClooney.png', 'Im_HughJackman.png', 'Im_RyanReynolds.png', 'Im_ElijahWood.png', 'Im_MattDamon.png'],same,1,0.9085519999998724,9,90.47619047619048,
DEMA2901,6,neg,30,neg30_id10_im17.bmp_neg30_id10_im1.bmp,['Im_RobertPattinson.png', 'Im_JustinTimberlake.png', 'Im_RobertDowneyJr.png', 'Im_LeonardoDiCaprio.png', 'Im_KeanuReeves.png', 'Im_GeorgeClooney.png', 'Im_HughJackman.png', 'Im_RyanReynolds.png', 'Im_ElijahWood.png', 'Im_MattDamon.png'],same,1,0.4167037000001983,10,90.47619047619048,
DEMA2901,6,neg,90,neg90_id6_im12.bmp_neg90_id7_im14.bmp,['Im_RobertPattinson.png', 'Im_JustinTimberlake.png', 'Im_RobertDowneyJr.png', 'Im_LeonardoDiCaprio.png', 'Im_KeanuReeves.png', 'Im_GeorgeClooney.png', 'Im_HughJackman.png', 'Im_RyanReynolds.png', 'Im_ElijahWood.png', 'Im_MattDamon.png'],diff,1,0.46693839999988995,11,90.47619047619048,
DEMA2901,6,neg,150,neg150_id8_im13.bmp_neg150_id6_im18.bmp,['Im_RobertPattinson.png', 'Im_JustinTimberlake.png', 'Im_RobertDowneyJr.png', 'Im_LeonardoDiCaprio.png', 'Im_KeanuReeves.png', 'Im_GeorgeClooney.png', 'Im_HughJackman.png', 'Im_RyanReynolds.png', 'Im_ElijahWood.png', 'Im_MattDamon.png'],diff,1,0.6750417000002926,12,90.47619047619048,
DEMA2901,6,neg,60,neg60_id8_im20.bmp_neg60_id18_im18.bmp,['Im_RobertPattinson.png', 'Im_JustinTimberlake.png', 'Im_RobertDowneyJr.png', 'Im_LeonardoDiCaprio.png', 'Im_KeanuReeves.png', 'Im_GeorgeClooney.png', 'Im_HughJackman.png', 'Im_RyanReynolds.png', 'Im_ElijahWood.png', 'Im_MattDamon.png'],diff,1,3.27532680000013,13,90.47619047619048,
DEMA2901,6,neg,30,neg30_id7_im15.bmp_neg30_id7_im26.bmp,['Im_RobertPattinson.png', 'Im_JustinTimberlake.png', 'Im_RobertDowneyJr.png', 'Im_LeonardoDiCaprio.png', 'Im_KeanuReeves.png', 'Im_GeorgeClooney.png', 'Im_HughJackman.png', 'Im_RyanReynolds.png', 'Im_ElijahWood.png', 'Im_MattDamon.png'],diff,0,0.7336280000004081,13,90.47619047619048,
DEMA2901,7,pos,120,pos120_id8_im20.bmp_pos120_id8_im21.bmp,['Im_RobertPattinson.png', 'Im_JustinTimberlake.png', 'Im_RobertDowneyJr.png', 'Im_LeonardoDiCaprio.png', 'Im_KeanuReeves.png', 'Im_GeorgeClooney.png', 'Im_HughJackman.png', 'Im_RyanReynolds.png', 'Im_ElijahWood.png', 'Im_MattDamon.png'],same,1,0.41673720000017056,14,90.47619047619048,
DEMA2901,7,pos,60,pos60_id19_im8.bmp_pos60_id10_im18.bmp,['Im_RobertPattinson.png', 'Im_JustinTimberlake.png', 'Im_RobertDowneyJr.png', 'Im_LeonardoDiCaprio.png', 'Im_KeanuReeves.png', 'Im_GeorgeClooney.png', 'Im_HughJackman.png', 'Im_RyanReynolds.png', 'Im_ElijahWood.png', 'Im_MattDamon.png'],diff,1,0.5085093000002416,15,90.47619047619048,
DEMA2901,7,pos,90,pos90_id6_im19.bmp_pos90_id6_im18.bmp,['Im_RobertPattinson.png', 'Im_JustinTimberlake.png', 'Im_RobertDowneyJr.png', 'Im_LeonardoDiCaprio.png', 'Im_KeanuReeves.png', 'Im_GeorgeClooney.png', 'Im_HughJackman.png', 'Im_RyanReynolds.png', 'Im_ElijahWood.png', 'Im_MattDamon.png'],same,1,0.41679229999999734,16,90.47619047619048,
DEMA2901,7,pos,fs,posfs_id14_im16.bmp_posfs_id14_im24.bmp,['Im_RobertPattinson.png', 'Im_JustinTimberlake.png', 'Im_RobertDowneyJr.png', 'Im_LeonardoDiCaprio.png', 'Im_KeanuReeves.png', 'Im_GeorgeClooney.png', 'Im_HughJackman.png', 'Im_RyanReynolds.png', 'Im_ElijahWood.png', 'Im_MattDamon.png'],same,1,0.7001221000000442,17,90.47619047619048,
DEMA2901,7,pos,30,pos30_id18_im11.bmp_pos30_id18_im19.bmp,['Im_RobertPattinson.png', 'Im_JustinTimberlake.png', 'Im_RobertDowneyJr.png', 'Im_LeonardoDiCaprio.png', 'Im_KeanuReeves.png', 'Im_GeorgeClooney.png', 'Im_HughJackman.png', 'Im_RyanReynolds.png', 'Im_ElijahWood.png', 'Im_MattDamon.png'],same,1,0.8667542000002868,18,90.47619047619048,
DEMA2901,7,pos,0,pos0_id6_im19.bmp_pos0_id14_im24.bmp,['Im_RobertPattinson.png', 'Im_JustinTimberlake.png', 'Im_RobertDowneyJr.png', 'Im_LeonardoDiCaprio.png', 'Im_KeanuReeves.png', 'Im_GeorgeClooney.png', 'Im_HughJackman.png', 'Im_RyanReynolds.png', 'Im_ElijahWood.png', 'Im_MattDamon.png'],diff,1,0.5332837000000836,19,90.47619047619048,
DEMA2901,7,pos,60,pos60_id8_im13.bmp_pos60_id13_im29.bmp,['Im_RobertPattinson.png', 'Im_JustinTimberlake.png', 'Im_RobertDowneyJr.png', 'Im_LeonardoDiCaprio.png', 'Im_KeanuReeves.png', 'Im_GeorgeClooney.png', 'Im_HughJackman.png', 'Im_RyanReynolds.png', 'Im_ElijahWood.png', 'Im_MattDamon.png'],diff,1,0.42519240000001446,20,90.47619047619048,
DEMA2901,7,pos,0,pos0_id13_im29.bmp_pos0_id13_im15.bmp,['Im_RobertPattinson.png', 'Im_JustinTimberlake.png', 'Im_RobertDowneyJr.png', 'Im_LeonardoDiCaprio.png', 'Im_KeanuReeves.png', 'Im_GeorgeClooney.png', 'Im_HughJackman.png', 'Im_RyanReynolds.png', 'Im_ElijahWood.png', 'Im_MattDamon.png'],same,1,0.6585693000001811,21,90.47619047619048,
DEMA2901,7,pos,120,pos120_id7_im26.bmp_pos120_id19_im4.bmp,['Im_RobertPattinson.png', 'Im_JustinTimberlake.png', 'Im_RobertDowneyJr.png', 'Im_LeonardoDiCaprio.png', 'Im_KeanuReeves.png', 'Im_GeorgeClooney.png', 'Im_HughJackman.png', 'Im_RyanReynolds.png', 'Im_ElijahWood.png', 'Im_MattDamon.png'],diff,1,2.1668798000000606,22,90.47619047619048,
DEMA2901,7,pos,150,pos150_id18_im19.bmp_pos150_id18_im11.bmp,['Im_RobertPattinson.png', 'Im_JustinTimberlake.png', 'Im_RobertDowneyJr.png', 'Im_LeonardoDiCaprio.png', 'Im_KeanuReeves.png', 'Im_GeorgeClooney.png', 'Im_HughJackman.png', 'Im_RyanReynolds.png', 'Im_ElijahWood.png', 'Im_MattDamon.png'],same,1,0.8500641000000542,23,90.47619047619048,
DEMA2901,7,pos,30,pos30_id10_im1.bmp_pos30_id21_im16.bmp,['Im_RobertPattinson.png', 'Im_JustinTimberlake.png', 'Im_RobertDowneyJr.png', 'Im_LeonardoDiCaprio.png', 'Im_KeanuReeves.png', 'Im_GeorgeClooney.png', 'Im_HughJackman.png', 'Im_RyanReynolds.png', 'Im_ElijahWood.png', 'Im_MattDamon.png'],diff,1,0.733629700000165,24,90.47619047619048,
DEMA2901,7,pos,90,pos90_id11_im1.bmp_pos90_id11_im2.bmp,['Im_RobertPattinson.png', 'Im_JustinTimberlake.png', 'Im_RobertDowneyJr.png', 'Im_LeonardoDiCaprio.png', 'Im_KeanuReeves.png', 'Im_GeorgeClooney.png', 'Im_HughJackman.png', 'Im_RyanReynolds.png', 'Im_ElijahWood.png', 'Im_MattDamon.png'],same,1,0.7918901000002734,25,90.47619047619048,
DEMA2901,7,pos,fs,posfs_id14_im18.bmp_posfs_id6_im19.bmp,['Im_RobertPattinson.png', 'Im_JustinTimberlake.png', 'Im_RobertDowneyJr.png', 'Im_LeonardoDiCaprio.png', 'Im_KeanuReeves.png', 'Im_GeorgeClooney.png', 'Im_HughJackman.png', 'Im_RyanReynolds.png', 'Im_ElijahWood.png', 'Im_MattDamon.png'],diff,1,0.45835529999976643,26,90.47619047619048,
DEMA2901,7,pos,150,pos150_id13_im15.bmp_pos150_id13_im10.bmp,['Im_RobertPattinson.png', 'Im_JustinTimberlake.png', 'Im_RobertDowneyJr.png', 'Im_LeonardoDiCaprio.png', 'Im_KeanuReeves.png', 'Im_GeorgeClooney.png', 'Im_HughJackman.png', 'Im_RyanReynolds.png', 'Im_ElijahWood.png', 'Im_MattDamon.png'],same,1,0.7015567999997074,27,90.47619047619048,
DEMA2901,8,inv,0,pos0_id18_im18.bmp_pos0_id18_im11.bmp,['Im_RobertPattinson.png', 'Im_JustinTimberlake.png', 'Im_RobertDowneyJr.png', 'Im_LeonardoDiCaprio.png', 'Im_KeanuReeves.png', 'Im_GeorgeClooney.png', 'Im_HughJackman.png', 'Im_RyanReynolds.png', 'Im_ElijahWood.png', 'Im_MattDamon.png'],diff,0,0.7751318999999057,27,90.47619047619048,
DEMA2901,8,inv,30,pos30_id18_im11.bmp_pos30_id11_im10.bmp,['Im_RobertPattinson.png', 'Im_JustinTimberlake.png', 'Im_RobertDowneyJr.png', 'Im_LeonardoDiCaprio.png', 'Im_KeanuReeves.png', 'Im_GeorgeClooney.png', 'Im_HughJackman.png', 'Im_RyanReynolds.png', 'Im_ElijahWood.png', 'Im_MattDamon.png'],diff,1,0.7665317000000869,28,90.47619047619048,
DEMA2901,8,inv,fs,posfs_id19_im8.bmp_posfs_id19_im4.bmp,['Im_RobertPattinson.png', 'Im_JustinTimberlake.png', 'Im_RobertDowneyJr.png', 'Im_LeonardoDiCaprio.png', 'Im_KeanuReeves.png', 'Im_GeorgeClooney.png', 'Im_HughJackman.png', 'Im_RyanReynolds.png', 'Im_ElijahWood.png', 'Im_MattDamon.png'],same,1,0.41656900000043606,29,90.47619047619048,
DEMA2901,8,inv,fs,posfs_id18_im19.bmp_posfs_id18_im18.bmp,['Im_RobertPattinson.png', 'Im_JustinTimberlake.png', 'Im_RobertDowneyJr.png', 'Im_LeonardoDiCaprio.png', 'Im_KeanuReeves.png', 'Im_GeorgeClooney.png', 'Im_HughJackman.png', 'Im_RyanReynolds.png', 'Im_ElijahWood.png', 'Im_MattDamon.png'],same,1,0.4669260000000577,30,90.47619047619048,
DEMA2901,8,inv,120,pos120_id10_im1.bmp_pos120_id10_im18.bmp,['Im_RobertPattinson.png', 'Im_JustinTimberlake.png', 'Im_RobertDowneyJr.png', 'Im_LeonardoDiCaprio.png', 'Im_KeanuReeves.png', 'Im_GeorgeClooney.png', 'Im_HughJackman.png', 'Im_RyanReynolds.png', 'Im_ElijahWood.png', 'Im_MattDamon.png'],diff,0,0.6499230999997962,30,90.47619047619048,
DEMA2901,8,inv,60,pos60_id7_im26.bmp_pos60_id13_im10.bmp,['Im_RobertPattinson.png', 'Im_JustinTimberlake.png', 'Im_RobertDowneyJr.png', 'Im_LeonardoDiCaprio.png', 'Im_KeanuReeves.png', 'Im_GeorgeClooney.png', 'Im_HughJackman.png', 'Im_RyanReynolds.png', 'Im_ElijahWood.png', 'Im_MattDamon.png'],diff,1,0.4338838999997279,31,90.47619047619048,
DEMA2901,8,inv,30,pos30_id13_im15.bmp_pos30_id13_im29.bmp,['Im_RobertPattinson.png', 'Im_JustinTimberlake.png', 'Im_RobertDowneyJr.png', 'Im_LeonardoDiCaprio.png', 'Im_KeanuReeves.png', 'Im_GeorgeClooney.png', 'Im_HughJackman.png', 'Im_RyanReynolds.png', 'Im_ElijahWood.png', 'Im_MattDamon.png'],diff,0,0.9249518999999964,31,90.47619047619048,
DEMA2901,8,inv,120,pos120_id19_im8.bmp_pos120_id6_im18.bmp,['Im_RobertPattinson.png', 'Im_JustinTimberlake.png', 'Im_RobertDowneyJr.png', 'Im_LeonardoDiCaprio.png', 'Im_KeanuReeves.png', 'Im_GeorgeClooney.png', 'Im_HughJackman.png', 'Im_RyanReynolds.png', 'Im_ElijahWood.png', 'Im_MattDamon.png'],diff,1,0.5417277000001377,32,90.47619047619048,
DEMA2901,8,inv,150,pos150_id10_im18.bmp_pos150_id10_im17.bmp,['Im_RobertPattinson.png', 'Im_JustinTimberlake.png', 'Im_RobertDowneyJr.png', 'Im_LeonardoDiCaprio.png', 'Im_KeanuReeves.png', 'Im_GeorgeClooney.png', 'Im_HughJackman.png', 'Im_RyanReynolds.png', 'Im_ElijahWood.png', 'Im_MattDamon.png'],same,1,0.43356679999988046,33,90.47619047619048,
DEMA2901,8,inv,60,pos60_id13_im29.bmp_pos60_id8_im13.bmp,['Im_RobertPattinson.png', 'Im_JustinTimberlake.png', 'Im_RobertDowneyJr.png', 'Im_LeonardoDiCaprio.png', 'Im_KeanuReeves.png', 'Im_GeorgeClooney.png', 'Im_HughJackman.png', 'Im_RyanReynolds.png', 'Im_ElijahWood.png', 'Im_MattDamon.png'],diff,1,0.5333740000000944,34,90.47619047619048,
DEMA2901,8,inv,0,pos0_id14_im16.bmp_pos0_id14_im18.bmp,['Im_RobertPattinson.png', 'Im_JustinTimberlake.png', 'Im_RobertDowneyJr.png', 'Im_LeonardoDiCaprio.png', 'Im_KeanuReeves.png', 'Im_GeorgeClooney.png', 'Im_HughJackman.png', 'Im_RyanReynolds.png', 'Im_ElijahWood.png', 'Im_MattDamon.png'],same,1,1.3751972000000023,35,90.47619047619048,
DEMA2901,8,inv,150,pos150_id8_im13.bmp_pos150_id8_im20.bmp,['Im_RobertPattinson.png', 'Im_JustinTimberlake.png', 'Im_RobertDowneyJr.png', 'Im_LeonardoDiCaprio.png', 'Im_KeanuReeves.png', 'Im_GeorgeClooney.png', 'Im_HughJackman.png', 'Im_RyanReynolds.png', 'Im_ElijahWood.png', 'Im_MattDamon.png'],same,1,0.8166886000003615,36,90.47619047619048,
DEMA2901,8,inv,90,pos90_id13_im10.bmp_pos90_id13_im15.bmp,['Im_RobertPattinson.png', 'Im_JustinTimberlake.png', 'Im_RobertDowneyJr.png', 'Im_LeonardoDiCaprio.png', 'Im_KeanuReeves.png', 'Im_GeorgeClooney.png', 'Im_HughJackman.png', 'Im_RyanReynolds.png', 'Im_ElijahWood.png', 'Im_MattDamon.png'],same,1,0.5501374999998916,37,90.47619047619048,
DEMA2901,8,inv,90,pos90_id6_im12.bmp_pos90_id7_im14.bmp,['Im_RobertPattinson.png', 'Im_JustinTimberlake.png', 'Im_RobertDowneyJr.png', 'Im_LeonardoDiCaprio.png', 'Im_KeanuReeves.png', 'Im_GeorgeClooney.png', 'Im_HughJackman.png', 'Im_RyanReynolds.png', 'Im_ElijahWood.png', 'Im_MattDamon.png'],diff,1,1.283205100000032,38,90.47619047619048,
DEMA2901,9,neg,0,neg0_id10_im1.bmp_neg0_id21_im16.bmp,['Im_RobertPattinson.png', 'Im_JustinTimberlake.png', 'Im_RobertDowneyJr.png', 'Im_LeonardoDiCaprio.png', 'Im_KeanuReeves.png', 'Im_GeorgeClooney.png', 'Im_HughJackman.png', 'Im_RyanReynolds.png', 'Im_ElijahWood.png', 'Im_MattDamon.png'],diff,1,3.008266999999705,1,90.47619047619048,
DEMA2901,9,neg,150,neg150_id19_im8.bmp_neg150_id19_im4.bmp,['Im_RobertPattinson.png', 'Im_JustinTimberlake.png', 'Im_RobertDowneyJr.png', 'Im_LeonardoDiCaprio.png', 'Im_KeanuReeves.png', 'Im_GeorgeClooney.png', 'Im_HughJackman.png', 'Im_RyanReynolds.png', 'Im_ElijahWood.png', 'Im_MattDamon.png'],same,1,0.8086428999999953,2,90.47619047619048,
DEMA2901,9,neg,120,neg120_id7_im26.bmp_neg120_id7_im14.bmp,['Im_RobertPattinson.png', 'Im_JustinTimberlake.png', 'Im_RobertDowneyJr.png', 'Im_LeonardoDiCaprio.png', 'Im_KeanuReeves.png', 'Im_GeorgeClooney.png', 'Im_HughJackman.png', 'Im_RyanReynolds.png', 'Im_ElijahWood.png', 'Im_MattDamon.png'],same,1,1.9085720000002766,3,90.47619047619048,
DEMA2901,9,neg,30,neg30_id6_im12.bmp_neg30_id7_im14.bmp,['Im_RobertPattinson.png', 'Im_JustinTimberlake.png', 'Im_RobertDowneyJr.png', 'Im_LeonardoDiCaprio.png', 'Im_KeanuReeves.png', 'Im_GeorgeClooney.png', 'Im_HughJackman.png', 'Im_RyanReynolds.png', 'Im_ElijahWood.png', 'Im_MattDamon.png'],diff,1,1.25872070000014,4,90.47619047619048,
DEMA2901,9,neg,120,neg120_id10_im17.bmp_neg120_id14_im18.bmp,['Im_RobertPattinson.png', 'Im_JustinTimberlake.png', 'Im_RobertDowneyJr.png', 'Im_LeonardoDiCaprio.png', 'Im_KeanuReeves.png', 'Im_GeorgeClooney.png', 'Im_HughJackman.png', 'Im_RyanReynolds.png', 'Im_ElijahWood.png', 'Im_MattDamon.png'],same,0,1.058320999999978,4,90.47619047619048,
DEMA2901,9,neg,fs,negfs_id8_im20.bmp_negfs_id18_im18.bmp,['Im_RobertPattinson.png', 'Im_JustinTimberlake.png', 'Im_RobertDowneyJr.png', 'Im_LeonardoDiCaprio.png', 'Im_KeanuReeves.png', 'Im_GeorgeClooney.png', 'Im_HughJackman.png', 'Im_RyanReynolds.png', 'Im_ElijahWood.png', 'Im_MattDamon.png'],diff,1,0.7669451000001573,5,90.47619047619048,
DEMA2901,9,neg,60,neg60_id7_im14.bmp_neg60_id10_im1.bmp,['Im_RobertPattinson.png', 'Im_JustinTimberlake.png', 'Im_RobertDowneyJr.png', 'Im_LeonardoDiCaprio.png', 'Im_KeanuReeves.png', 'Im_GeorgeClooney.png', 'Im_HughJackman.png', 'Im_RyanReynolds.png', 'Im_ElijahWood.png', 'Im_MattDamon.png'],diff,1,1.0585237999998753,6,90.47619047619048,
DEMA2901,9,neg,90,neg90_id10_im18.bmp_neg90_id19_im8.bmp,['Im_RobertPattinson.png', 'Im_JustinTimberlake.png', 'Im_RobertDowneyJr.png', 'Im_LeonardoDiCaprio.png', 'Im_KeanuReeves.png', 'Im_GeorgeClooney.png', 'Im_HughJackman.png', 'Im_RyanReynolds.png', 'Im_ElijahWood.png', 'Im_MattDamon.png'],same,0,0.40853489999972226,6,90.47619047619048,
DEMA2901,9,neg,30,neg30_id14_im18.bmp_neg30_id14_im24.bmp,['Im_RobertPattinson.png', 'Im_JustinTimberlake.png', 'Im_RobertDowneyJr.png', 'Im_LeonardoDiCaprio.png', 'Im_KeanuReeves.png', 'Im_GeorgeClooney.png', 'Im_HughJackman.png', 'Im_RyanReynolds.png', 'Im_ElijahWood.png', 'Im_MattDamon.png'],same,1,0.7167758999999023,7,90.47619047619048,
DEMA2901,9,neg,fs,negfs_id14_im16.bmp_negfs_id11_im10.bmp,['Im_RobertPattinson.png', 'Im_JustinTimberlake.png', 'Im_RobertDowneyJr.png', 'Im_LeonardoDiCaprio.png', 'Im_KeanuReeves.png', 'Im_GeorgeClooney.png', 'Im_HughJackman.png', 'Im_RyanReynolds.png', 'Im_ElijahWood.png', 'Im_MattDamon.png'],diff,1,0.4752324999999473,8,90.47619047619048,
DEMA2901,9,neg,0,neg0_id19_im27.bmp_neg0_id8_im20.bmp,['Im_RobertPattinson.png', 'Im_JustinTimberlake.png', 'Im_RobertDowneyJr.png', 'Im_LeonardoDiCaprio.png', 'Im_KeanuReeves.png', 'Im_GeorgeClooney.png', 'Im_HughJackman.png', 'Im_RyanReynolds.png', 'Im_ElijahWood.png', 'Im_MattDamon.png'],diff,1,0.6167294999995647,9,90.47619047619048,
DEMA2901,9,neg,90,neg90_id6_im18.bmp_neg90_id6_im12.bmp,['Im_RobertPattinson.png', 'Im_JustinTimberlake.png', 'Im_RobertDowneyJr.png', 'Im_LeonardoDiCaprio.png', 'Im_KeanuReeves.png', 'Im_GeorgeClooney.png', 'Im_HughJackman.png', 'Im_RyanReynolds.png', 'Im_ElijahWood.png', 'Im_MattDamon.png'],same,1,0.708658099999866,10,90.47619047619048,
DEMA2901,9,neg,150,neg150_id19_im27.bmp_neg150_id8_im20.bmp,['Im_RobertPattinson.png', 'Im_JustinTimberlake.png', 'Im_RobertDowneyJr.png', 'Im_LeonardoDiCaprio.png', 'Im_KeanuReeves.png', 'Im_GeorgeClooney.png', 'Im_HughJackman.png', 'Im_RyanReynolds.png', 'Im_ElijahWood.png', 'Im_MattDamon.png'],diff,1,0.9584980999998152,11,90.47619047619048,
DEMA2901,9,neg,60,neg60_id14_im18.bmp_neg60_id10_im17.bmp,['Im_RobertPattinson.png', 'Im_JustinTimberlake.png', 'Im_RobertDowneyJr.png', 'Im_LeonardoDiCaprio.png', 'Im_KeanuReeves.png', 'Im_GeorgeClooney.png', 'Im_HughJackman.png', 'Im_RyanReynolds.png', 'Im_ElijahWood.png', 'Im_MattDamon.png'],diff,1,0.8416746000002604,12,90.47619047619048,
DEMA2901,10,pos,120,pos120_id19_im27.bmp_pos120_id19_im8.bmp,['Im_RobertPattinson.png', 'Im_JustinTimberlake.png', 'Im_RobertDowneyJr.png', 'Im_LeonardoDiCaprio.png', 'Im_KeanuReeves.png', 'Im_GeorgeClooney.png', 'Im_HughJackman.png', 'Im_RyanReynolds.png', 'Im_ElijahWood.png', 'Im_MattDamon.png'],same,1,0.5336449999999786,13,90.47619047619048,
DEMA2901,10,pos,90,pos90_id18_im18.bmp_pos90_id18_im19.bmp,['Im_RobertPattinson.png', 'Im_JustinTimberlake.png', 'Im_RobertDowneyJr.png', 'Im_LeonardoDiCaprio.png', 'Im_KeanuReeves.png', 'Im_GeorgeClooney.png', 'Im_HughJackman.png', 'Im_RyanReynolds.png', 'Im_ElijahWood.png', 'Im_MattDamon.png'],same,1,0.9503107000000455,14,90.47619047619048,
DEMA2901,10,pos,30,pos30_id21_im22.bmp_pos30_id21_im17.bmp,['Im_RobertPattinson.png', 'Im_JustinTimberlake.png', 'Im_RobertDowneyJr.png', 'Im_LeonardoDiCaprio.png', 'Im_KeanuReeves.png', 'Im_GeorgeClooney.png', 'Im_HughJackman.png', 'Im_RyanReynolds.png', 'Im_ElijahWood.png', 'Im_MattDamon.png'],same,1,0.533559299999979,15,90.47619047619048,
DEMA2901,10,pos,30,pos30_id11_im2.bmp_pos30_id21_im16.bmp,['Im_RobertPattinson.png', 'Im_JustinTimberlake.png', 'Im_RobertDowneyJr.png', 'Im_LeonardoDiCaprio.png', 'Im_KeanuReeves.png', 'Im_GeorgeClooney.png', 'Im_HughJackman.png', 'Im_RyanReynolds.png', 'Im_ElijahWood.png', 'Im_MattDamon.png'],diff,1,0.6841935999996167,16,90.47619047619048,
DEMA2901,10,pos,60,pos60_id18_im11.bmp_pos60_id18_im18.bmp,['Im_RobertPattinson.png', 'Im_JustinTimberlake.png', 'Im_RobertDowneyJr.png', 'Im_LeonardoDiCaprio.png', 'Im_KeanuReeves.png', 'Im_GeorgeClooney.png', 'Im_HughJackman.png', 'Im_RyanReynolds.png', 'Im_ElijahWood.png', 'Im_MattDamon.png'],same,1,0.4167569999999614,17,90.47619047619048,
DEMA2901,10,pos,60,pos60_id18_im11.bmp_pos60_id6_im12.bmp,['Im_RobertPattinson.png', 'Im_JustinTimberlake.png', 'Im_RobertDowneyJr.png', 'Im_LeonardoDiCaprio.png', 'Im_KeanuReeves.png', 'Im_GeorgeClooney.png', 'Im_HughJackman.png', 'Im_RyanReynolds.png', 'Im_ElijahWood.png', 'Im_MattDamon.png'],diff,1,0.42507030000024315,18,90.47619047619048,
DEMA2901,10,pos,fs,posfs_id14_im18.bmp_posfs_id14_im24.bmp,['Im_RobertPattinson.png', 'Im_JustinTimberlake.png', 'Im_RobertDowneyJr.png', 'Im_LeonardoDiCaprio.png', 'Im_KeanuReeves.png', 'Im_GeorgeClooney.png', 'Im_HughJackman.png', 'Im_RyanReynolds.png', 'Im_ElijahWood.png', 'Im_MattDamon.png'],same,1,0.8583654999997634,19,90.47619047619048,
DEMA2901,10,pos,90,pos90_id10_im1.bmp_pos90_id7_im14.bmp,['Im_RobertPattinson.png', 'Im_JustinTimberlake.png', 'Im_RobertDowneyJr.png', 'Im_LeonardoDiCaprio.png', 'Im_KeanuReeves.png', 'Im_GeorgeClooney.png', 'Im_HughJackman.png', 'Im_RyanReynolds.png', 'Im_ElijahWood.png', 'Im_MattDamon.png'],diff,1,0.416759500000353,20,90.47619047619048,
DEMA2901,10,pos,fs,posfs_id10_im17.bmp_posfs_id21_im17.bmp,['Im_RobertPattinson.png', 'Im_JustinTimberlake.png', 'Im_RobertDowneyJr.png', 'Im_LeonardoDiCaprio.png', 'Im_KeanuReeves.png', 'Im_GeorgeClooney.png', 'Im_HughJackman.png', 'Im_RyanReynolds.png', 'Im_ElijahWood.png', 'Im_MattDamon.png'],diff,1,0.4083299000003535,21,90.47619047619048,
DEMA2901,10,pos,0,pos0_id18_im11.bmp_pos0_id11_im10.bmp,['Im_RobertPattinson.png', 'Im_JustinTimberlake.png', 'Im_RobertDowneyJr.png', 'Im_LeonardoDiCaprio.png', 'Im_KeanuReeves.png', 'Im_GeorgeClooney.png', 'Im_HughJackman.png', 'Im_RyanReynolds.png', 'Im_ElijahWood.png', 'Im_MattDamon.png'],diff,1,0.41670460000023013,22,90.47619047619048,
DEMA2901,10,pos,150,pos150_id19_im8.bmp_pos150_id6_im18.bmp,['Im_RobertPattinson.png', 'Im_JustinTimberlake.png', 'Im_RobertDowneyJr.png', 'Im_LeonardoDiCaprio.png', 'Im_KeanuReeves.png', 'Im_GeorgeClooney.png', 'Im_HughJackman.png', 'Im_RyanReynolds.png', 'Im_ElijahWood.png', 'Im_MattDamon.png'],diff,1,0.41677649999974165,23,90.47619047619048,
DEMA2901,10,pos,120,pos120_id11_im1.bmp_pos120_id11_im2.bmp,['Im_RobertPattinson.png', 'Im_JustinTimberlake.png', 'Im_RobertDowneyJr.png', 'Im_LeonardoDiCaprio.png', 'Im_KeanuReeves.png', 'Im_GeorgeClooney.png', 'Im_HughJackman.png', 'Im_RyanReynolds.png', 'Im_ElijahWood.png', 'Im_MattDamon.png'],same,1,0.6419611000001169,24,90.47619047619048,
DEMA2901,10,pos,150,pos150_id8_im20.bmp_pos150_id19_im27.bmp,['Im_RobertPattinson.png', 'Im_JustinTimberlake.png', 'Im_RobertDowneyJr.png', 'Im_LeonardoDiCaprio.png', 'Im_KeanuReeves.png', 'Im_GeorgeClooney.png', 'Im_HughJackman.png', 'Im_RyanReynolds.png', 'Im_ElijahWood.png', 'Im_MattDamon.png'],diff,1,1.1917413000001034,25,90.47619047619048,
DEMA2901,10,pos,0,pos0_id10_im18.bmp_pos0_id19_im8.bmp,['Im_RobertPattinson.png', 'Im_JustinTimberlake.png', 'Im_RobertDowneyJr.png', 'Im_LeonardoDiCaprio.png', 'Im_KeanuReeves.png', 'Im_GeorgeClooney.png', 'Im_HughJackman.png', 'Im_RyanReynolds.png', 'Im_ElijahWood.png', 'Im_MattDamon.png'],diff,1,1.291675700000269,26,90.47619047619048,
DEMA2901,11,inv,90,pos90_id6_im12.bmp_pos90_id6_im19.bmp,['Im_RobertPattinson.png', 'Im_JustinTimberlake.png', 'Im_RobertDowneyJr.png', 'Im_LeonardoDiCaprio.png', 'Im_KeanuReeves.png', 'Im_GeorgeClooney.png', 'Im_HughJackman.png', 'Im_RyanReynolds.png', 'Im_ElijahWood.png', 'Im_MattDamon.png'],same,1,0.7585579999999936,27,90.47619047619048,
DEMA2901,11,inv,0,pos0_id19_im8.bmp_pos0_id10_im18.bmp,['Im_RobertPattinson.png', 'Im_JustinTimberlake.png', 'Im_RobertDowneyJr.png', 'Im_LeonardoDiCaprio.png', 'Im_KeanuReeves.png', 'Im_GeorgeClooney.png', 'Im_HughJackman.png', 'Im_RyanReynolds.png', 'Im_ElijahWood.png', 'Im_MattDamon.png'],diff,1,0.9003511999999319,28,90.47619047619048,
DEMA2901,11,inv,30,pos30_id6_im18.bmp_pos30_id8_im13.bmp,['Im_RobertPattinson.png', 'Im_JustinTimberlake.png', 'Im_RobertDowneyJr.png', 'Im_LeonardoDiCaprio.png', 'Im_KeanuReeves.png', 'Im_GeorgeClooney.png', 'Im_HughJackman.png', 'Im_RyanReynolds.png', 'Im_ElijahWood.png', 'Im_MattDamon.png'],diff,1,1.6417398999997204,29,90.47619047619048,
DEMA2901,11,inv,120,pos120_id13_im10.bmp_pos120_id13_im15.bmp,['Im_RobertPattinson.png', 'Im_JustinTimberlake.png', 'Im_RobertDowneyJr.png', 'Im_LeonardoDiCaprio.png', 'Im_KeanuReeves.png', 'Im_GeorgeClooney.png', 'Im_HughJackman.png', 'Im_RyanReynolds.png', 'Im_ElijahWood.png', 'Im_MattDamon.png'],same,1,1.1834036000000197,30,90.47619047619048,
DEMA2901,11,inv,60,pos60_id7_im15.bmp_pos60_id7_im14.bmp,['Im_RobertPattinson.png', 'Im_JustinTimberlake.png', 'Im_RobertDowneyJr.png', 'Im_LeonardoDiCaprio.png', 'Im_KeanuReeves.png', 'Im_GeorgeClooney.png', 'Im_HughJackman.png', 'Im_RyanReynolds.png', 'Im_ElijahWood.png', 'Im_MattDamon.png'],same,1,0.7002897000002122,31,90.47619047619048,
DEMA2901,11,inv,120,pos120_id19_im4.bmp_pos120_id7_im26.bmp,['Im_RobertPattinson.png', 'Im_JustinTimberlake.png', 'Im_RobertDowneyJr.png', 'Im_LeonardoDiCaprio.png', 'Im_KeanuReeves.png', 'Im_GeorgeClooney.png', 'Im_HughJackman.png', 'Im_RyanReynolds.png', 'Im_ElijahWood.png', 'Im_MattDamon.png'],none,1,4.425062999999682,31,90.47619047619048,
DEMA2901,11,inv,fs,posfs_id6_im18.bmp_posfs_id8_im13.bmp,['Im_RobertPattinson.png', 'Im_JustinTimberlake.png', 'Im_RobertDowneyJr.png', 'Im_LeonardoDiCaprio.png', 'Im_KeanuReeves.png', 'Im_GeorgeClooney.png', 'Im_HughJackman.png', 'Im_RyanReynolds.png', 'Im_ElijahWood.png', 'Im_MattDamon.png'],diff,1,0.9167109999998502,32,90.47619047619048,
DEMA2901,11,inv,60,pos60_id21_im17.bmp_pos60_id14_im24.bmp,['Im_RobertPattinson.png', 'Im_JustinTimberlake.png', 'Im_RobertDowneyJr.png', 'Im_LeonardoDiCaprio.png', 'Im_KeanuReeves.png', 'Im_GeorgeClooney.png', 'Im_HughJackman.png', 'Im_RyanReynolds.png', 'Im_ElijahWood.png', 'Im_MattDamon.png'],same,0,0.4167121999998926,32,90.47619047619048,
DEMA2901,11,inv,30,pos30_id14_im24.bmp_pos30_id21_im17.bmp,['Im_RobertPattinson.png', 'Im_JustinTimberlake.png', 'Im_RobertDowneyJr.png', 'Im_LeonardoDiCaprio.png', 'Im_KeanuReeves.png', 'Im_GeorgeClooney.png', 'Im_HughJackman.png', 'Im_RyanReynolds.png', 'Im_ElijahWood.png', 'Im_MattDamon.png'],diff,1,1.0417239999997037,33,90.47619047619048,
DEMA2901,11,inv,150,pos150_id6_im19.bmp_pos150_id14_im18.bmp,['Im_RobertPattinson.png', 'Im_JustinTimberlake.png', 'Im_RobertDowneyJr.png', 'Im_LeonardoDiCaprio.png', 'Im_KeanuReeves.png', 'Im_GeorgeClooney.png', 'Im_HughJackman.png', 'Im_RyanReynolds.png', 'Im_ElijahWood.png', 'Im_MattDamon.png'],diff,1,1.0917073999999047,34,90.47619047619048,
DEMA2901,11,inv,150,pos150_id7_im15.bmp_pos150_id19_im4.bmp,['Im_RobertPattinson.png', 'Im_JustinTimberlake.png', 'Im_RobertDowneyJr.png', 'Im_LeonardoDiCaprio.png', 'Im_KeanuReeves.png', 'Im_GeorgeClooney.png', 'Im_HughJackman.png', 'Im_RyanReynolds.png', 'Im_ElijahWood.png', 'Im_MattDamon.png'],diff,1,1.4004656000001887,35,90.47619047619048,
DEMA2901,11,inv,fs,posfs_id14_im16.bmp_posfs_id11_im10.bmp,['Im_RobertPattinson.png', 'Im_JustinTimberlake.png', 'Im_RobertDowneyJr.png', 'Im_LeonardoDiCaprio.png', 'Im_KeanuReeves.png', 'Im_GeorgeClooney.png', 'Im_HughJackman.png', 'Im_RyanReynolds.png', 'Im_ElijahWood.png', 'Im_MattDamon.png'],diff,1,0.7085531000002447,36,90.47619047619048,
DEMA2901,11,inv,0,pos0_id11_im2.bmp_pos0_id10_im18.bmp,['Im_RobertPattinson.png', 'Im_JustinTimberlake.png', 'Im_RobertDowneyJr.png', 'Im_LeonardoDiCaprio.png', 'Im_KeanuReeves.png', 'Im_GeorgeClooney.png', 'Im_HughJackman.png', 'Im_RyanReynolds.png', 'Im_ElijahWood.png', 'Im_MattDamon.png'],diff,1,0.6917217000000164,37,90.47619047619048,
DEMA2901,11,inv,90,pos90_id6_im19.bmp_pos90_id6_im18.bmp,['Im_RobertPattinson.png', 'Im_JustinTimberlake.png', 'Im_RobertDowneyJr.png', 'Im_LeonardoDiCaprio.png', 'Im_KeanuReeves.png', 'Im_GeorgeClooney.png', 'Im_HughJackman.png', 'Im_RyanReynolds.png', 'Im_ElijahWood.png', 'Im_MattDamon.png'],same,1,0.7834004999999706,38,90.47619047619048,
DEMA2901,12,neg,150,neg150_id8_im13.bmp_neg150_id8_im21.bmp,['Im_RobertPattinson.png', 'Im_JustinTimberlake.png', 'Im_RobertDowneyJr.png', 'Im_LeonardoDiCaprio.png', 'Im_KeanuReeves.png', 'Im_GeorgeClooney.png', 'Im_HughJackman.png', 'Im_RyanReynolds.png', 'Im_ElijahWood.png', 'Im_MattDamon.png'],same,1,1.275088500000038,1,90.47619047619048,
DEMA2901,12,neg,fs,negfs_id7_im26.bmp_negfs_id7_im15.bmp,['Im_RobertPattinson.png', 'Im_JustinTimberlake.png', 'Im_RobertDowneyJr.png', 'Im_LeonardoDiCaprio.png', 'Im_KeanuReeves.png', 'Im_GeorgeClooney.png', 'Im_HughJackman.png', 'Im_RyanReynolds.png', 'Im_ElijahWood.png', 'Im_MattDamon.png'],same,1,0.5998908000001393,2,90.47619047619048,
DEMA2901,12,neg,120,neg120_id10_im1.bmp_neg120_id10_im17.bmp,['Im_RobertPattinson.png', 'Im_JustinTimberlake.png', 'Im_RobertDowneyJr.png', 'Im_LeonardoDiCaprio.png', 'Im_KeanuReeves.png', 'Im_GeorgeClooney.png', 'Im_HughJackman.png', 'Im_RyanReynolds.png', 'Im_ElijahWood.png', 'Im_MattDamon.png'],same,1,0.6667524999998022,3,90.47619047619048,
DEMA2901,12,neg,150,neg150_id14_im16.bmp_neg150_id21_im22.bmp,['Im_RobertPattinson.png', 'Im_JustinTimberlake.png', 'Im_RobertDowneyJr.png', 'Im_LeonardoDiCaprio.png', 'Im_KeanuReeves.png', 'Im_GeorgeClooney.png', 'Im_HughJackman.png', 'Im_RyanReynolds.png', 'Im_ElijahWood.png', 'Im_MattDamon.png'],diff,1,0.8585723000001053,4,90.47619047619048,
DEMA2901,12,neg,fs,negfs_id6_im18.bmp_negfs_id8_im13.bmp,['Im_RobertPattinson.png', 'Im_JustinTimberlake.png', 'Im_RobertDowneyJr.png', 'Im_LeonardoDiCaprio.png', 'Im_KeanuReeves.png', 'Im_GeorgeClooney.png', 'Im_HughJackman.png', 'Im_RyanReynolds.png', 'Im_ElijahWood.png', 'Im_MattDamon.png'],diff,1,0.425043000000187,5,90.47619047619048,
DEMA2901,12,neg,90,neg90_id13_im29.bmp_neg90_id8_im13.bmp,['Im_RobertPattinson.png', 'Im_JustinTimberlake.png', 'Im_RobertDowneyJr.png', 'Im_LeonardoDiCaprio.png', 'Im_KeanuReeves.png', 'Im_GeorgeClooney.png', 'Im_HughJackman.png', 'Im_RyanReynolds.png', 'Im_ElijahWood.png', 'Im_MattDamon.png'],diff,1,0.41679329999988113,6,90.47619047619048,
DEMA2901,12,neg,30,neg30_id7_im15.bmp_neg30_id7_im14.bmp,['Im_RobertPattinson.png', 'Im_JustinTimberlake.png', 'Im_RobertDowneyJr.png', 'Im_LeonardoDiCaprio.png', 'Im_KeanuReeves.png', 'Im_GeorgeClooney.png', 'Im_HughJackman.png', 'Im_RyanReynolds.png', 'Im_ElijahWood.png', 'Im_MattDamon.png'],diff,0,0.7003571999998712,6,90.47619047619048,
DEMA2901,12,neg,60,neg60_id13_im15.bmp_neg60_id13_im29.bmp,['Im_RobertPattinson.png', 'Im_JustinTimberlake.png', 'Im_RobertDowneyJr.png', 'Im_LeonardoDiCaprio.png', 'Im_KeanuReeves.png', 'Im_GeorgeClooney.png', 'Im_HughJackman.png', 'Im_RyanReynolds.png', 'Im_ElijahWood.png', 'Im_MattDamon.png'],same,1,0.5915732000003118,7,90.47619047619048,
DEMA2901,12,neg,30,neg30_id21_im22.bmp_neg30_id8_im21.bmp,['Im_RobertPattinson.png', 'Im_JustinTimberlake.png', 'Im_RobertDowneyJr.png', 'Im_LeonardoDiCaprio.png', 'Im_KeanuReeves.png', 'Im_GeorgeClooney.png', 'Im_HughJackman.png', 'Im_RyanReynolds.png', 'Im_ElijahWood.png', 'Im_MattDamon.png'],diff,1,0.42507949999981065,8,90.47619047619048,
DEMA2901,12,neg,90,neg90_id11_im2.bmp_neg90_id11_im10.bmp,['Im_RobertPattinson.png', 'Im_JustinTimberlake.png', 'Im_RobertDowneyJr.png', 'Im_LeonardoDiCaprio.png', 'Im_KeanuReeves.png', 'Im_GeorgeClooney.png', 'Im_HughJackman.png', 'Im_RyanReynolds.png', 'Im_ElijahWood.png', 'Im_MattDamon.png'],same,1,0.9087106000001768,9,90.47619047619048,
DEMA2901,12,neg,0,neg0_id10_im18.bmp_neg0_id19_im8.bmp,['Im_RobertPattinson.png', 'Im_JustinTimberlake.png', 'Im_RobertDowneyJr.png', 'Im_LeonardoDiCaprio.png', 'Im_KeanuReeves.png', 'Im_GeorgeClooney.png', 'Im_HughJackman.png', 'Im_RyanReynolds.png', 'Im_ElijahWood.png', 'Im_MattDamon.png'],same,0,0.8586029000002782,9,90.47619047619048,
DEMA2901,12,neg,60,neg60_id10_im1.bmp_neg60_id21_im16.bmp,['Im_RobertPattinson.png', 'Im_JustinTimberlake.png', 'Im_RobertDowneyJr.png', 'Im_LeonardoDiCaprio.png', 'Im_KeanuReeves.png', 'Im_GeorgeClooney.png', 'Im_HughJackman.png', 'Im_RyanReynolds.png', 'Im_ElijahWood.png', 'Im_MattDamon.png'],diff,1,0.4165634000000864,10,90.47619047619048,
DEMA2901,12,neg,0,neg0_id13_im10.bmp_neg0_id7_im26.bmp,['Im_RobertPattinson.png', 'Im_JustinTimberlake.png', 'Im_RobertDowneyJr.png', 'Im_LeonardoDiCaprio.png', 'Im_KeanuReeves.png', 'Im_GeorgeClooney.png', 'Im_HughJackman.png', 'Im_RyanReynolds.png', 'Im_ElijahWood.png', 'Im_MattDamon.png'],diff,1,0.4249480999997104,11,90.47619047619048,
DEMA2901,12,neg,120,neg120_id21_im22.bmp_neg120_id21_im17.bmp,['Im_RobertPattinson.png', 'Im_JustinTimberlake.png', 'Im_RobertDowneyJr.png', 'Im_LeonardoDiCaprio.png', 'Im_KeanuReeves.png', 'Im_GeorgeClooney.png', 'Im_HughJackman.png', 'Im_RyanReynolds.png', 'Im_ElijahWood.png', 'Im_MattDamon.png'],same,1,0.5337534999998752,12,90.47619047619048,
DEMA2901,13,pos,fs,posfs_id13_im10.bmp_posfs_id13_im29.bmp,['Im_RobertPattinson.png', 'Im_JustinTimberlake.png', 'Im_RobertDowneyJr.png', 'Im_LeonardoDiCaprio.png', 'Im_KeanuReeves.png', 'Im_GeorgeClooney.png', 'Im_HughJackman.png', 'Im_RyanReynolds.png', 'Im_ElijahWood.png', 'Im_MattDamon.png'],same,1,0.850433200000225,13,90.47619047619048,
DEMA2901,13,pos,60,pos60_id19_im8.bmp_pos60_id19_im27.bmp,['Im_RobertPattinson.png', 'Im_JustinTimberlake.png', 'Im_RobertDowneyJr.png', 'Im_LeonardoDiCaprio.png', 'Im_KeanuReeves.png', 'Im_GeorgeClooney.png', 'Im_HughJackman.png', 'Im_RyanReynolds.png', 'Im_ElijahWood.png', 'Im_MattDamon.png'],same,1,0.683656400000018,14,90.47619047619048,
DEMA2901,13,pos,150,pos150_id11_im1.bmp_pos150_id11_im10.bmp,['Im_RobertPattinson.png', 'Im_JustinTimberlake.png', 'Im_RobertDowneyJr.png', 'Im_LeonardoDiCaprio.png', 'Im_KeanuReeves.png', 'Im_GeorgeClooney.png', 'Im_HughJackman.png', 'Im_RyanReynolds.png', 'Im_ElijahWood.png', 'Im_MattDamon.png'],same,1,0.416597300000376,15,90.47619047619048,
DEMA2901,13,pos,120,pos120_id8_im13.bmp_pos120_id8_im20.bmp,['Im_RobertPattinson.png', 'Im_JustinTimberlake.png', 'Im_RobertDowneyJr.png', 'Im_LeonardoDiCaprio.png', 'Im_KeanuReeves.png', 'Im_GeorgeClooney.png', 'Im_HughJackman.png', 'Im_RyanReynolds.png', 'Im_ElijahWood.png', 'Im_MattDamon.png'],same,1,0.40837889999966137,16,90.47619047619048,
DEMA2901,13,pos,90,pos90_id13_im10.bmp_pos90_id19_im27.bmp,['Im_RobertPattinson.png', 'Im_JustinTimberlake.png', 'Im_RobertDowneyJr.png', 'Im_LeonardoDiCaprio.png', 'Im_KeanuReeves.png', 'Im_GeorgeClooney.png', 'Im_HughJackman.png', 'Im_RyanReynolds.png', 'Im_ElijahWood.png', 'Im_MattDamon.png'],diff,1,0.491751099999874,17,90.47619047619048,
DEMA2901,13,pos,30,pos30_id13_im10.bmp_pos30_id7_im26.bmp,['Im_RobertPattinson.png', 'Im_JustinTimberlake.png', 'Im_RobertDowneyJr.png', 'Im_LeonardoDiCaprio.png', 'Im_KeanuReeves.png', 'Im_GeorgeClooney.png', 'Im_HughJackman.png', 'Im_RyanReynolds.png', 'Im_ElijahWood.png', 'Im_MattDamon.png'],diff,1,0.9175097000002097,18,90.47619047619048,
DEMA2901,13,pos,0,pos0_id13_im10.bmp_pos0_id13_im29.bmp,['Im_RobertPattinson.png', 'Im_JustinTimberlake.png', 'Im_RobertDowneyJr.png', 'Im_LeonardoDiCaprio.png', 'Im_KeanuReeves.png', 'Im_GeorgeClooney.png', 'Im_HughJackman.png', 'Im_RyanReynolds.png', 'Im_ElijahWood.png', 'Im_MattDamon.png'],same,1,1.3167127000001528,19,90.47619047619048,
DEMA2901,13,pos,fs,posfs_id13_im29.bmp_posfs_id13_im15.bmp,['Im_RobertPattinson.png', 'Im_JustinTimberlake.png', 'Im_RobertDowneyJr.png', 'Im_LeonardoDiCaprio.png', 'Im_KeanuReeves.png', 'Im_GeorgeClooney.png', 'Im_HughJackman.png', 'Im_RyanReynolds.png', 'Im_ElijahWood.png', 'Im_MattDamon.png'],same,1,0.8248985000000175,20,90.47619047619048,
DEMA2901,13,pos,60,pos60_id13_im10.bmp_pos60_id19_im27.bmp,['Im_RobertPattinson.png', 'Im_JustinTimberlake.png', 'Im_RobertDowneyJr.png', 'Im_LeonardoDiCaprio.png', 'Im_KeanuReeves.png', 'Im_GeorgeClooney.png', 'Im_HughJackman.png', 'Im_RyanReynolds.png', 'Im_ElijahWood.png', 'Im_MattDamon.png'],diff,1,0.4083980000000338,21,90.47619047619048,
DEMA2901,13,pos,90,pos90_id8_im13.bmp_pos90_id8_im21.bmp,['Im_RobertPattinson.png', 'Im_JustinTimberlake.png', 'Im_RobertDowneyJr.png', 'Im_LeonardoDiCaprio.png', 'Im_KeanuReeves.png', 'Im_GeorgeClooney.png', 'Im_HughJackman.png', 'Im_RyanReynolds.png', 'Im_ElijahWood.png', 'Im_MattDamon.png'],same,1,0.5166917000001376,22,90.47619047619048,
DEMA2901,13,pos,30,pos30_id6_im18.bmp_pos30_id19_im8.bmp,['Im_RobertPattinson.png', 'Im_JustinTimberlake.png', 'Im_RobertDowneyJr.png', 'Im_LeonardoDiCaprio.png', 'Im_KeanuReeves.png', 'Im_GeorgeClooney.png', 'Im_HughJackman.png', 'Im_RyanReynolds.png', 'Im_ElijahWood.png', 'Im_MattDamon.png'],diff,1,0.416717300000073,23,90.47619047619048,
DEMA2901,13,pos,150,pos150_id11_im10.bmp_pos150_id14_im16.bmp,['Im_RobertPattinson.png', 'Im_JustinTimberlake.png', 'Im_RobertDowneyJr.png', 'Im_LeonardoDiCaprio.png', 'Im_KeanuReeves.png', 'Im_GeorgeClooney.png', 'Im_HughJackman.png', 'Im_RyanReynolds.png', 'Im_ElijahWood.png', 'Im_MattDamon.png'],diff,1,0.42510840000022654,24,90.47619047619048,
DEMA2901,13,pos,0,pos0_id10_im17.bmp_pos0_id10_im1.bmp,['Im_RobertPattinson.png', 'Im_JustinTimberlake.png', 'Im_RobertDowneyJr.png', 'Im_LeonardoDiCaprio.png', 'Im_KeanuReeves.png', 'Im_GeorgeClooney.png', 'Im_HughJackman.png', 'Im_RyanReynolds.png', 'Im_ElijahWood.png', 'Im_MattDamon.png'],same,1,0.5999246999999741,25,90.47619047619048,
DEMA2901,13,pos,120,pos120_id10_im17.bmp_pos120_id14_im18.bmp,['Im_RobertPattinson.png', 'Im_JustinTimberlake.png', 'Im_RobertDowneyJr.png', 'Im_LeonardoDiCaprio.png', 'Im_KeanuReeves.png', 'Im_GeorgeClooney.png', 'Im_HughJackman.png', 'Im_RyanReynolds.png', 'Im_ElijahWood.png', 'Im_MattDamon.png'],diff,1,0.4248802000001888,26,90.47619047619048,
DEMA2901,14,inv,30,pos30_id7_im14.bmp_pos30_id6_im12.bmp,['Im_RobertPattinson.png', 'Im_JustinTimberlake.png', 'Im_RobertDowneyJr.png', 'Im_LeonardoDiCaprio.png', 'Im_KeanuReeves.png', 'Im_GeorgeClooney.png', 'Im_HughJackman.png', 'Im_RyanReynolds.png', 'Im_ElijahWood.png', 'Im_MattDamon.png'],diff,1,0.4836236999999528,27,90.47619047619048,
DEMA2901,14,inv,120,pos120_id19_im27.bmp_pos120_id19_im4.bmp,['Im_RobertPattinson.png', 'Im_JustinTimberlake.png', 'Im_RobertDowneyJr.png', 'Im_LeonardoDiCaprio.png', 'Im_KeanuReeves.png', 'Im_GeorgeClooney.png', 'Im_HughJackman.png', 'Im_RyanReynolds.png', 'Im_ElijahWood.png', 'Im_MattDamon.png'],same,1,0.5419033999996827,28,90.47619047619048,
DEMA2901,14,inv,0,pos0_id11_im2.bmp_pos0_id11_im10.bmp,['Im_RobertPattinson.png', 'Im_JustinTimberlake.png', 'Im_RobertDowneyJr.png', 'Im_LeonardoDiCaprio.png', 'Im_KeanuReeves.png', 'Im_GeorgeClooney.png', 'Im_HughJackman.png', 'Im_RyanReynolds.png', 'Im_ElijahWood.png', 'Im_MattDamon.png'],same,1,0.8168493000002854,29,90.47619047619048,
DEMA2901,14,inv,30,pos30_id19_im27.bmp_pos30_id19_im4.bmp,['Im_RobertPattinson.png', 'Im_JustinTimberlake.png', 'Im_RobertDowneyJr.png', 'Im_LeonardoDiCaprio.png', 'Im_KeanuReeves.png', 'Im_GeorgeClooney.png', 'Im_HughJackman.png', 'Im_RyanReynolds.png', 'Im_ElijahWood.png', 'Im_MattDamon.png'],same,1,0.41683569999986503,30,90.47619047619048,
DEMA2901,14,inv,120,pos120_id8_im13.bmp_pos120_id13_im29.bmp,['Im_RobertPattinson.png', 'Im_JustinTimberlake.png', 'Im_RobertDowneyJr.png', 'Im_LeonardoDiCaprio.png', 'Im_KeanuReeves.png', 'Im_GeorgeClooney.png', 'Im_HughJackman.png', 'Im_RyanReynolds.png', 'Im_ElijahWood.png', 'Im_MattDamon.png'],diff,1,0.4667088999999578,31,90.47619047619048,
DEMA2901,14,inv,60,pos60_id19_im4.bmp_pos60_id19_im27.bmp,['Im_RobertPattinson.png', 'Im_JustinTimberlake.png', 'Im_RobertDowneyJr.png', 'Im_LeonardoDiCaprio.png', 'Im_KeanuReeves.png', 'Im_GeorgeClooney.png', 'Im_HughJackman.png', 'Im_RyanReynolds.png', 'Im_ElijahWood.png', 'Im_MattDamon.png'],same,1,0.41673179999997956,32,90.47619047619048,
DEMA2901,14,inv,90,pos90_id7_im15.bmp_pos90_id19_im4.bmp,['Im_RobertPattinson.png', 'Im_JustinTimberlake.png', 'Im_RobertDowneyJr.png', 'Im_LeonardoDiCaprio.png', 'Im_KeanuReeves.png', 'Im_GeorgeClooney.png', 'Im_HughJackman.png', 'Im_RyanReynolds.png', 'Im_ElijahWood.png', 'Im_MattDamon.png'],diff,1,0.44173000000000684,33,90.47619047619048,
DEMA2901,14,inv,fs,posfs_id6_im12.bmp_posfs_id18_im11.bmp,['Im_RobertPattinson.png', 'Im_JustinTimberlake.png', 'Im_RobertDowneyJr.png', 'Im_LeonardoDiCaprio.png', 'Im_KeanuReeves.png', 'Im_GeorgeClooney.png', 'Im_HughJackman.png', 'Im_RyanReynolds.png', 'Im_ElijahWood.png', 'Im_MattDamon.png'],diff,1,0.5417170999999144,34,90.47619047619048,
DEMA2901,14,inv,90,pos90_id11_im1.bmp_pos90_id11_im10.bmp,['Im_RobertPattinson.png', 'Im_JustinTimberlake.png', 'Im_RobertDowneyJr.png', 'Im_LeonardoDiCaprio.png', 'Im_KeanuReeves.png', 'Im_GeorgeClooney.png', 'Im_HughJackman.png', 'Im_RyanReynolds.png', 'Im_ElijahWood.png', 'Im_MattDamon.png'],diff,0,1.8920583999997689,34,90.47619047619048,
DEMA2901,14,inv,150,pos150_id7_im26.bmp_pos150_id7_im14.bmp,['Im_RobertPattinson.png', 'Im_JustinTimberlake.png', 'Im_RobertDowneyJr.png', 'Im_LeonardoDiCaprio.png', 'Im_KeanuReeves.png', 'Im_GeorgeClooney.png', 'Im_HughJackman.png', 'Im_RyanReynolds.png', 'Im_ElijahWood.png', 'Im_MattDamon.png'],same,1,0.4918797000000268,35,90.47619047619048,
DEMA2901,14,inv,150,pos150_id6_im19.bmp_pos150_id6_im18.bmp,['Im_RobertPattinson.png', 'Im_JustinTimberlake.png', 'Im_RobertDowneyJr.png', 'Im_LeonardoDiCaprio.png', 'Im_KeanuReeves.png', 'Im_GeorgeClooney.png', 'Im_HughJackman.png', 'Im_RyanReynolds.png', 'Im_ElijahWood.png', 'Im_MattDamon.png'],same,1,0.9418487000002642,36,90.47619047619048,
DEMA2901,14,inv,0,pos0_id8_im20.bmp_pos0_id19_im27.bmp,['Im_RobertPattinson.png', 'Im_JustinTimberlake.png', 'Im_RobertDowneyJr.png', 'Im_LeonardoDiCaprio.png', 'Im_KeanuReeves.png', 'Im_GeorgeClooney.png', 'Im_HughJackman.png', 'Im_RyanReynolds.png', 'Im_ElijahWood.png', 'Im_MattDamon.png'],diff,1,0.49201429999993707,37,90.47619047619048,
