Sujet,Trial,Condition,Filter,Imname,Actor0,Actor1,Actor2,Actor3,Actor4,Actor5,Actor6,Actor7,Actor8,Actor9,Answer,Accu,RT,Score,Scoreperc, 
DILA0206,train,inv,fs,posfs_id6_im19.bmp_posfs_id6_im18.bmp,['Im_KeanuReeves.png', 'Im_ElijahWood.png', 'Im_LeonardoDiCaprio.png', 'Im_GeorgeClooney.png', 'Im_BenStiller.png', 'Im_PatrickDempsey.png', 'Im_DanielRadcliffe.png', 'Im_BradPitt.png', 'Im_RobertPattinson.png', 'Im_RyanGosling.png'],same,1,0.9251340000009804,1,0,
DILA0206,train,inv,120,pos120_id20_im3.bmp_pos120_id20_im30.bmp,['Im_KeanuReeves.png', 'Im_ElijahWood.png', 'Im_LeonardoDiCaprio.png', 'Im_GeorgeClooney.png', 'Im_BenStiller.png', 'Im_PatrickDempsey.png', 'Im_DanielRadcliffe.png', 'Im_BradPitt.png', 'Im_RobertPattinson.png', 'Im_RyanGosling.png'],diff,0,2.1416578999997,1,0,
DILA0206,train,inv,fs,posfs_id17_im14.bmp_posfs_id17_im9.bmp,['Im_KeanuReeves.png', 'Im_ElijahWood.png', 'Im_LeonardoDiCaprio.png', 'Im_GeorgeClooney.png', 'Im_BenStiller.png', 'Im_PatrickDempsey.png', 'Im_DanielRadcliffe.png', 'Im_BradPitt.png', 'Im_RobertPattinson.png', 'Im_RyanGosling.png'],diff,0,1.3912950000012643,1,0,
DILA0206,train,inv,90,pos90_id19_im27.bmp_pos90_id19_im4.bmp,['Im_KeanuReeves.png', 'Im_ElijahWood.png', 'Im_LeonardoDiCaprio.png', 'Im_GeorgeClooney.png', 'Im_BenStiller.png', 'Im_PatrickDempsey.png', 'Im_DanielRadcliffe.png', 'Im_BradPitt.png', 'Im_RobertPattinson.png', 'Im_RyanGosling.png'],diff,0,2.1004008000018075,1,0,
DILA0206,train,inv,150,pos150_id19_im27.bmp_pos150_id19_im8.bmp,['Im_KeanuReeves.png', 'Im_ElijahWood.png', 'Im_LeonardoDiCaprio.png', 'Im_GeorgeClooney.png', 'Im_BenStiller.png', 'Im_PatrickDempsey.png', 'Im_DanielRadcliffe.png', 'Im_BradPitt.png', 'Im_RobertPattinson.png', 'Im_RyanGosling.png'],same,1,0.5751868999977887,2,0,
DILA0206,train,inv,0,pos0_id11_im10.bmp_pos0_id3_im6.bmp,['Im_KeanuReeves.png', 'Im_ElijahWood.png', 'Im_LeonardoDiCaprio.png', 'Im_GeorgeClooney.png', 'Im_BenStiller.png', 'Im_PatrickDempsey.png', 'Im_DanielRadcliffe.png', 'Im_BradPitt.png', 'Im_RobertPattinson.png', 'Im_RyanGosling.png'],diff,1,1.1170985999997356,3,0,
DILA0206,train,inv,150,pos150_id6_im12.bmp_pos150_id6_im19.bmp,['Im_KeanuReeves.png', 'Im_ElijahWood.png', 'Im_LeonardoDiCaprio.png', 'Im_GeorgeClooney.png', 'Im_BenStiller.png', 'Im_PatrickDempsey.png', 'Im_DanielRadcliffe.png', 'Im_BradPitt.png', 'Im_RobertPattinson.png', 'Im_RyanGosling.png'],diff,0,0.5916829999987385,3,0,
DILA0206,train,inv,60,pos60_id19_im27.bmp_pos60_id13_im15.bmp,['Im_KeanuReeves.png', 'Im_ElijahWood.png', 'Im_LeonardoDiCaprio.png', 'Im_GeorgeClooney.png', 'Im_BenStiller.png', 'Im_PatrickDempsey.png', 'Im_DanielRadcliffe.png', 'Im_BradPitt.png', 'Im_RobertPattinson.png', 'Im_RyanGosling.png'],diff,1,1.208699400001933,4,0,
DILA0206,train,inv,0,pos0_id5_im20.bmp_pos0_id5_im1.bmp,['Im_KeanuReeves.png', 'Im_ElijahWood.png', 'Im_LeonardoDiCaprio.png', 'Im_GeorgeClooney.png', 'Im_BenStiller.png', 'Im_PatrickDempsey.png', 'Im_DanielRadcliffe.png', 'Im_BradPitt.png', 'Im_RobertPattinson.png', 'Im_RyanGosling.png'],diff,0,1.2999348000012105,4,0,
DILA0206,train,inv,30,pos30_id2_im3.bmp_pos30_id2_im2.bmp,['Im_KeanuReeves.png', 'Im_ElijahWood.png', 'Im_LeonardoDiCaprio.png', 'Im_GeorgeClooney.png', 'Im_BenStiller.png', 'Im_PatrickDempsey.png', 'Im_DanielRadcliffe.png', 'Im_BradPitt.png', 'Im_RobertPattinson.png', 'Im_RyanGosling.png'],same,1,0.4167336999998952,5,0,
DILA0206,train,inv,60,pos60_id7_im26.bmp_pos60_id7_im15.bmp,['Im_KeanuReeves.png', 'Im_ElijahWood.png', 'Im_LeonardoDiCaprio.png', 'Im_GeorgeClooney.png', 'Im_BenStiller.png', 'Im_PatrickDempsey.png', 'Im_DanielRadcliffe.png', 'Im_BradPitt.png', 'Im_RobertPattinson.png', 'Im_RyanGosling.png'],same,1,1.0919180999990203,6,0,
DILA0206,train,inv,90,pos90_id2_im3.bmp_pos90_id2_im16.bmp,['Im_KeanuReeves.png', 'Im_ElijahWood.png', 'Im_LeonardoDiCaprio.png', 'Im_GeorgeClooney.png', 'Im_BenStiller.png', 'Im_PatrickDempsey.png', 'Im_DanielRadcliffe.png', 'Im_BradPitt.png', 'Im_RobertPattinson.png', 'Im_RyanGosling.png'],diff,0,0.4166393000014068,6,0,
DILA0206,train,inv,30,pos30_id17_im14.bmp_pos30_id2_im16.bmp,['Im_KeanuReeves.png', 'Im_ElijahWood.png', 'Im_LeonardoDiCaprio.png', 'Im_GeorgeClooney.png', 'Im_BenStiller.png', 'Im_PatrickDempsey.png', 'Im_DanielRadcliffe.png', 'Im_BradPitt.png', 'Im_RobertPattinson.png', 'Im_RyanGosling.png'],diff,1,0.7002534999992349,7,0,
DILA0206,train,inv,120,pos120_id2_im16.bmp_pos120_id2_im3.bmp,['Im_KeanuReeves.png', 'Im_ElijahWood.png', 'Im_LeonardoDiCaprio.png', 'Im_GeorgeClooney.png', 'Im_BenStiller.png', 'Im_PatrickDempsey.png', 'Im_DanielRadcliffe.png', 'Im_BradPitt.png', 'Im_RobertPattinson.png', 'Im_RyanGosling.png'],diff,0,1.1753355000000738,7,0,
DILA0206,train,neg,0,neg0_id11_im2.bmp_neg0_id11_im1.bmp,['Im_KeanuReeves.png', 'Im_ElijahWood.png', 'Im_LeonardoDiCaprio.png', 'Im_GeorgeClooney.png', 'Im_BenStiller.png', 'Im_PatrickDempsey.png', 'Im_DanielRadcliffe.png', 'Im_BradPitt.png', 'Im_RobertPattinson.png', 'Im_RyanGosling.png'],none,0,4.41666030000124,7,0,
DILA0206,train,neg,30,neg30_id17_im8.bmp_neg30_id17_im14.bmp,['Im_KeanuReeves.png', 'Im_ElijahWood.png', 'Im_LeonardoDiCaprio.png', 'Im_GeorgeClooney.png', 'Im_BenStiller.png', 'Im_PatrickDempsey.png', 'Im_DanielRadcliffe.png', 'Im_BradPitt.png', 'Im_RobertPattinson.png', 'Im_RyanGosling.png'],diff,0,1.1832052999998268,7,0,
DILA0206,train,neg,150,neg150_id3_im6.bmp_neg150_id19_im8.bmp,['Im_KeanuReeves.png', 'Im_ElijahWood.png', 'Im_LeonardoDiCaprio.png', 'Im_GeorgeClooney.png', 'Im_BenStiller.png', 'Im_PatrickDempsey.png', 'Im_DanielRadcliffe.png', 'Im_BradPitt.png', 'Im_RobertPattinson.png', 'Im_RyanGosling.png'],same,0,0.5583540000006906,7,0,
DILA0206,train,neg,fs,negfs_id19_im4.bmp_negfs_id11_im10.bmp,['Im_KeanuReeves.png', 'Im_ElijahWood.png', 'Im_LeonardoDiCaprio.png', 'Im_GeorgeClooney.png', 'Im_BenStiller.png', 'Im_PatrickDempsey.png', 'Im_DanielRadcliffe.png', 'Im_BradPitt.png', 'Im_RobertPattinson.png', 'Im_RyanGosling.png'],same,0,0.4167111000024306,7,0,
DILA0206,train,neg,90,neg90_id5_im20.bmp_neg90_id19_im4.bmp,['Im_KeanuReeves.png', 'Im_ElijahWood.png', 'Im_LeonardoDiCaprio.png', 'Im_GeorgeClooney.png', 'Im_BenStiller.png', 'Im_PatrickDempsey.png', 'Im_DanielRadcliffe.png', 'Im_BradPitt.png', 'Im_RobertPattinson.png', 'Im_RyanGosling.png'],same,0,1.433540300000459,7,0,
DILA0206,train,neg,60,neg60_id2_im3.bmp_neg60_id2_im16.bmp,['Im_KeanuReeves.png', 'Im_ElijahWood.png', 'Im_LeonardoDiCaprio.png', 'Im_GeorgeClooney.png', 'Im_BenStiller.png', 'Im_PatrickDempsey.png', 'Im_DanielRadcliffe.png', 'Im_BradPitt.png', 'Im_RobertPattinson.png', 'Im_RyanGosling.png'],same,1,1.1080041999994137,8,0,
DILA0206,train,neg,0,neg0_id7_im15.bmp_neg0_id7_im14.bmp,['Im_KeanuReeves.png', 'Im_ElijahWood.png', 'Im_LeonardoDiCaprio.png', 'Im_GeorgeClooney.png', 'Im_BenStiller.png', 'Im_PatrickDempsey.png', 'Im_DanielRadcliffe.png', 'Im_BradPitt.png', 'Im_RobertPattinson.png', 'Im_RyanGosling.png'],same,1,1.5918498999999429,9,0,
DILA0206,train,neg,150,neg150_id6_im12.bmp_neg150_id6_im19.bmp,['Im_KeanuReeves.png', 'Im_ElijahWood.png', 'Im_LeonardoDiCaprio.png', 'Im_GeorgeClooney.png', 'Im_BenStiller.png', 'Im_PatrickDempsey.png', 'Im_DanielRadcliffe.png', 'Im_BradPitt.png', 'Im_RobertPattinson.png', 'Im_RyanGosling.png'],same,1,2.1671174000002793,10,0,
DILA0206,train,neg,90,neg90_id19_im4.bmp_neg90_id11_im10.bmp,['Im_KeanuReeves.png', 'Im_ElijahWood.png', 'Im_LeonardoDiCaprio.png', 'Im_GeorgeClooney.png', 'Im_BenStiller.png', 'Im_PatrickDempsey.png', 'Im_DanielRadcliffe.png', 'Im_BradPitt.png', 'Im_RobertPattinson.png', 'Im_RyanGosling.png'],diff,1,2.5917062999978953,11,0,
DILA0206,train,neg,120,neg120_id20_im3.bmp_neg120_id7_im15.bmp,['Im_KeanuReeves.png', 'Im_ElijahWood.png', 'Im_LeonardoDiCaprio.png', 'Im_GeorgeClooney.png', 'Im_BenStiller.png', 'Im_PatrickDempsey.png', 'Im_DanielRadcliffe.png', 'Im_BradPitt.png', 'Im_RobertPattinson.png', 'Im_RyanGosling.png'],same,0,1.2415352999996685,11,0,
DILA0206,train,neg,60,neg60_id3_im8.bmp_neg60_id3_im6.bmp,['Im_KeanuReeves.png', 'Im_ElijahWood.png', 'Im_LeonardoDiCaprio.png', 'Im_GeorgeClooney.png', 'Im_BenStiller.png', 'Im_PatrickDempsey.png', 'Im_DanielRadcliffe.png', 'Im_BradPitt.png', 'Im_RobertPattinson.png', 'Im_RyanGosling.png'],diff,0,0.7001023999982863,11,0,
DILA0206,train,neg,fs,negfs_id13_im15.bmp_negfs_id19_im27.bmp,['Im_KeanuReeves.png', 'Im_ElijahWood.png', 'Im_LeonardoDiCaprio.png', 'Im_GeorgeClooney.png', 'Im_BenStiller.png', 'Im_PatrickDempsey.png', 'Im_DanielRadcliffe.png', 'Im_BradPitt.png', 'Im_RobertPattinson.png', 'Im_RyanGosling.png'],diff,1,2.316790700002457,12,0,
DILA0206,train,neg,120,neg120_id19_im27.bmp_neg120_id3_im8.bmp,['Im_KeanuReeves.png', 'Im_ElijahWood.png', 'Im_LeonardoDiCaprio.png', 'Im_GeorgeClooney.png', 'Im_BenStiller.png', 'Im_PatrickDempsey.png', 'Im_DanielRadcliffe.png', 'Im_BradPitt.png', 'Im_RobertPattinson.png', 'Im_RyanGosling.png'],same,0,0.6834406000016315,12,0,
DILA0206,train,neg,30,neg30_id13_im29.bmp_neg30_id13_im10.bmp,['Im_KeanuReeves.png', 'Im_ElijahWood.png', 'Im_LeonardoDiCaprio.png', 'Im_GeorgeClooney.png', 'Im_BenStiller.png', 'Im_PatrickDempsey.png', 'Im_DanielRadcliffe.png', 'Im_BradPitt.png', 'Im_RobertPattinson.png', 'Im_RyanGosling.png'],none,0,4.425057500000548,12,0,
DILA0206,train,pos,60,pos60_id5_im10.bmp_pos60_id5_im1.bmp,['Im_KeanuReeves.png', 'Im_ElijahWood.png', 'Im_LeonardoDiCaprio.png', 'Im_GeorgeClooney.png', 'Im_BenStiller.png', 'Im_PatrickDempsey.png', 'Im_DanielRadcliffe.png', 'Im_BradPitt.png', 'Im_RobertPattinson.png', 'Im_RyanGosling.png'],none,0,4.40836340000169,12,0,
DILA0206,train,pos,150,pos150_id3_im17.bmp_pos150_id13_im29.bmp,['Im_KeanuReeves.png', 'Im_ElijahWood.png', 'Im_LeonardoDiCaprio.png', 'Im_GeorgeClooney.png', 'Im_BenStiller.png', 'Im_PatrickDempsey.png', 'Im_DanielRadcliffe.png', 'Im_BradPitt.png', 'Im_RobertPattinson.png', 'Im_RyanGosling.png'],same,0,0.8331419999994978,12,0,
DILA0206,train,pos,90,pos90_id19_im4.bmp_pos90_id11_im10.bmp,['Im_KeanuReeves.png', 'Im_ElijahWood.png', 'Im_LeonardoDiCaprio.png', 'Im_GeorgeClooney.png', 'Im_BenStiller.png', 'Im_PatrickDempsey.png', 'Im_DanielRadcliffe.png', 'Im_BradPitt.png', 'Im_RobertPattinson.png', 'Im_RyanGosling.png'],same,0,0.7419373000011547,12,0,
DILA0206,train,pos,fs,posfs_id2_im2.bmp_posfs_id6_im19.bmp,['Im_KeanuReeves.png', 'Im_ElijahWood.png', 'Im_LeonardoDiCaprio.png', 'Im_GeorgeClooney.png', 'Im_BenStiller.png', 'Im_PatrickDempsey.png', 'Im_DanielRadcliffe.png', 'Im_BradPitt.png', 'Im_RobertPattinson.png', 'Im_RyanGosling.png'],diff,1,0.5917083000022103,13,0,
DILA0206,train,pos,0,pos0_id19_im27.bmp_pos0_id13_im15.bmp,['Im_KeanuReeves.png', 'Im_ElijahWood.png', 'Im_LeonardoDiCaprio.png', 'Im_GeorgeClooney.png', 'Im_BenStiller.png', 'Im_PatrickDempsey.png', 'Im_DanielRadcliffe.png', 'Im_BradPitt.png', 'Im_RobertPattinson.png', 'Im_RyanGosling.png'],same,0,0.4668877000003704,13,0,
DILA0206,train,pos,30,pos30_id3_im6.bmp_pos30_id11_im10.bmp,['Im_KeanuReeves.png', 'Im_ElijahWood.png', 'Im_LeonardoDiCaprio.png', 'Im_GeorgeClooney.png', 'Im_BenStiller.png', 'Im_PatrickDempsey.png', 'Im_DanielRadcliffe.png', 'Im_BradPitt.png', 'Im_RobertPattinson.png', 'Im_RyanGosling.png'],diff,1,4.208203099999082,14,0,
DILA0206,train,pos,150,pos150_id3_im8.bmp_pos150_id3_im6.bmp,['Im_KeanuReeves.png', 'Im_ElijahWood.png', 'Im_LeonardoDiCaprio.png', 'Im_GeorgeClooney.png', 'Im_BenStiller.png', 'Im_PatrickDempsey.png', 'Im_DanielRadcliffe.png', 'Im_BradPitt.png', 'Im_RobertPattinson.png', 'Im_RyanGosling.png'],same,1,0.4251602999975148,15,0,
DILA0206,train,pos,120,pos120_id7_im26.bmp_pos120_id7_im14.bmp,['Im_KeanuReeves.png', 'Im_ElijahWood.png', 'Im_LeonardoDiCaprio.png', 'Im_GeorgeClooney.png', 'Im_BenStiller.png', 'Im_PatrickDempsey.png', 'Im_DanielRadcliffe.png', 'Im_BradPitt.png', 'Im_RobertPattinson.png', 'Im_RyanGosling.png'],same,1,0.5333771999976307,16,0,
DILA0206,train,pos,60,pos60_id20_im12.bmp_pos60_id20_im30.bmp,['Im_KeanuReeves.png', 'Im_ElijahWood.png', 'Im_LeonardoDiCaprio.png', 'Im_GeorgeClooney.png', 'Im_BenStiller.png', 'Im_PatrickDempsey.png', 'Im_DanielRadcliffe.png', 'Im_BradPitt.png', 'Im_RobertPattinson.png', 'Im_RyanGosling.png'],same,1,0.4249815999974089,17,0,
DILA0206,train,pos,120,pos120_id6_im19.bmp_pos120_id2_im2.bmp,['Im_KeanuReeves.png', 'Im_ElijahWood.png', 'Im_LeonardoDiCaprio.png', 'Im_GeorgeClooney.png', 'Im_BenStiller.png', 'Im_PatrickDempsey.png', 'Im_DanielRadcliffe.png', 'Im_BradPitt.png', 'Im_RobertPattinson.png', 'Im_RyanGosling.png'],diff,1,0.44184279999899445,18,0,
DILA0206,train,pos,30,pos30_id3_im17.bmp_pos30_id3_im6.bmp,['Im_KeanuReeves.png', 'Im_ElijahWood.png', 'Im_LeonardoDiCaprio.png', 'Im_GeorgeClooney.png', 'Im_BenStiller.png', 'Im_PatrickDempsey.png', 'Im_DanielRadcliffe.png', 'Im_BradPitt.png', 'Im_RobertPattinson.png', 'Im_RyanGosling.png'],same,1,0.4169389999988198,19,0,
DILA0206,train,pos,90,pos90_id13_im15.bmp_pos90_id20_im12.bmp,['Im_KeanuReeves.png', 'Im_ElijahWood.png', 'Im_LeonardoDiCaprio.png', 'Im_GeorgeClooney.png', 'Im_BenStiller.png', 'Im_PatrickDempsey.png', 'Im_DanielRadcliffe.png', 'Im_BradPitt.png', 'Im_RobertPattinson.png', 'Im_RyanGosling.png'],diff,1,0.9417366000016045,20,0,
DILA0206,train,pos,0,pos0_id2_im3.bmp_pos0_id5_im10.bmp,['Im_KeanuReeves.png', 'Im_ElijahWood.png', 'Im_LeonardoDiCaprio.png', 'Im_GeorgeClooney.png', 'Im_BenStiller.png', 'Im_PatrickDempsey.png', 'Im_DanielRadcliffe.png', 'Im_BradPitt.png', 'Im_RobertPattinson.png', 'Im_RyanGosling.png'],diff,1,0.5085508000011032,21,0,
DILA0206,train,pos,fs,posfs_id20_im3.bmp_posfs_id20_im30.bmp,['Im_KeanuReeves.png', 'Im_ElijahWood.png', 'Im_LeonardoDiCaprio.png', 'Im_GeorgeClooney.png', 'Im_BenStiller.png', 'Im_PatrickDempsey.png', 'Im_DanielRadcliffe.png', 'Im_BradPitt.png', 'Im_RobertPattinson.png', 'Im_RyanGosling.png'],same,1,0.40856219999841414,22,0,
DILA0206,train,inv,150,pos150_id3_im8.bmp_pos150_id7_im26.bmp,['Im_KeanuReeves.png', 'Im_ElijahWood.png', 'Im_LeonardoDiCaprio.png', 'Im_GeorgeClooney.png', 'Im_BenStiller.png', 'Im_PatrickDempsey.png', 'Im_DanielRadcliffe.png', 'Im_BradPitt.png', 'Im_RobertPattinson.png', 'Im_RyanGosling.png'],diff,1,1.6750219000023208,1,52.38095238095238,
DILA0206,train,inv,0,pos0_id19_im4.bmp_pos0_id19_im27.bmp,['Im_KeanuReeves.png', 'Im_ElijahWood.png', 'Im_LeonardoDiCaprio.png', 'Im_GeorgeClooney.png', 'Im_BenStiller.png', 'Im_PatrickDempsey.png', 'Im_DanielRadcliffe.png', 'Im_BradPitt.png', 'Im_RobertPattinson.png', 'Im_RyanGosling.png'],same,1,0.6921306000003824,2,52.38095238095238,
DILA0206,train,inv,fs,posfs_id11_im10.bmp_posfs_id11_im1.bmp,['Im_KeanuReeves.png', 'Im_ElijahWood.png', 'Im_LeonardoDiCaprio.png', 'Im_GeorgeClooney.png', 'Im_BenStiller.png', 'Im_PatrickDempsey.png', 'Im_DanielRadcliffe.png', 'Im_BradPitt.png', 'Im_RobertPattinson.png', 'Im_RyanGosling.png'],same,1,0.7417042999986734,3,52.38095238095238,
DILA0206,train,inv,150,pos150_id20_im30.bmp_pos150_id17_im9.bmp,['Im_KeanuReeves.png', 'Im_ElijahWood.png', 'Im_LeonardoDiCaprio.png', 'Im_GeorgeClooney.png', 'Im_BenStiller.png', 'Im_PatrickDempsey.png', 'Im_DanielRadcliffe.png', 'Im_BradPitt.png', 'Im_RobertPattinson.png', 'Im_RyanGosling.png'],same,0,0.8163580000000366,3,52.38095238095238,
DILA0206,train,inv,60,pos60_id13_im10.bmp_pos60_id13_im29.bmp,['Im_KeanuReeves.png', 'Im_ElijahWood.png', 'Im_LeonardoDiCaprio.png', 'Im_GeorgeClooney.png', 'Im_BenStiller.png', 'Im_PatrickDempsey.png', 'Im_DanielRadcliffe.png', 'Im_BradPitt.png', 'Im_RobertPattinson.png', 'Im_RyanGosling.png'],diff,0,0.6333011000024271,3,52.38095238095238,
DILA0206,train,inv,30,pos30_id20_im30.bmp_pos30_id20_im12.bmp,['Im_KeanuReeves.png', 'Im_ElijahWood.png', 'Im_LeonardoDiCaprio.png', 'Im_GeorgeClooney.png', 'Im_BenStiller.png', 'Im_PatrickDempsey.png', 'Im_DanielRadcliffe.png', 'Im_BradPitt.png', 'Im_RobertPattinson.png', 'Im_RyanGosling.png'],same,1,0.9500174000022525,4,52.38095238095238,
DILA0206,train,inv,120,pos120_id5_im20.bmp_pos120_id19_im8.bmp,['Im_KeanuReeves.png', 'Im_ElijahWood.png', 'Im_LeonardoDiCaprio.png', 'Im_GeorgeClooney.png', 'Im_BenStiller.png', 'Im_PatrickDempsey.png', 'Im_DanielRadcliffe.png', 'Im_BradPitt.png', 'Im_RobertPattinson.png', 'Im_RyanGosling.png'],diff,1,0.7251681000016106,5,52.38095238095238,
DILA0206,train,inv,120,pos120_id19_im4.bmp_pos120_id19_im27.bmp,['Im_KeanuReeves.png', 'Im_ElijahWood.png', 'Im_LeonardoDiCaprio.png', 'Im_GeorgeClooney.png', 'Im_BenStiller.png', 'Im_PatrickDempsey.png', 'Im_DanielRadcliffe.png', 'Im_BradPitt.png', 'Im_RobertPattinson.png', 'Im_RyanGosling.png'],same,1,0.4167066000009072,6,52.38095238095238,
DILA0206,train,inv,fs,posfs_id3_im17.bmp_posfs_id3_im8.bmp,['Im_KeanuReeves.png', 'Im_ElijahWood.png', 'Im_LeonardoDiCaprio.png', 'Im_GeorgeClooney.png', 'Im_BenStiller.png', 'Im_PatrickDempsey.png', 'Im_DanielRadcliffe.png', 'Im_BradPitt.png', 'Im_RobertPattinson.png', 'Im_RyanGosling.png'],same,1,0.7001801000005798,7,52.38095238095238,
DILA0206,train,inv,90,pos90_id17_im8.bmp_pos90_id17_im14.bmp,['Im_KeanuReeves.png', 'Im_ElijahWood.png', 'Im_LeonardoDiCaprio.png', 'Im_GeorgeClooney.png', 'Im_BenStiller.png', 'Im_PatrickDempsey.png', 'Im_DanielRadcliffe.png', 'Im_BradPitt.png', 'Im_RobertPattinson.png', 'Im_RyanGosling.png'],same,1,0.42513879999751225,8,52.38095238095238,
DILA0206,train,inv,0,pos0_id13_im29.bmp_pos0_id11_im2.bmp,['Im_KeanuReeves.png', 'Im_ElijahWood.png', 'Im_LeonardoDiCaprio.png', 'Im_GeorgeClooney.png', 'Im_BenStiller.png', 'Im_PatrickDempsey.png', 'Im_DanielRadcliffe.png', 'Im_BradPitt.png', 'Im_RobertPattinson.png', 'Im_RyanGosling.png'],diff,1,0.8424324999978126,9,52.38095238095238,
DILA0206,train,inv,30,pos30_id2_im16.bmp_pos30_id7_im15.bmp,['Im_KeanuReeves.png', 'Im_ElijahWood.png', 'Im_LeonardoDiCaprio.png', 'Im_GeorgeClooney.png', 'Im_BenStiller.png', 'Im_PatrickDempsey.png', 'Im_DanielRadcliffe.png', 'Im_BradPitt.png', 'Im_RobertPattinson.png', 'Im_RyanGosling.png'],diff,1,0.5754173999994237,10,52.38095238095238,
DILA0206,train,inv,90,pos90_id2_im16.bmp_pos90_id2_im2.bmp,['Im_KeanuReeves.png', 'Im_ElijahWood.png', 'Im_LeonardoDiCaprio.png', 'Im_GeorgeClooney.png', 'Im_BenStiller.png', 'Im_PatrickDempsey.png', 'Im_DanielRadcliffe.png', 'Im_BradPitt.png', 'Im_RobertPattinson.png', 'Im_RyanGosling.png'],same,1,0.4249132000004465,11,52.38095238095238,
DILA0206,train,inv,60,pos60_id5_im10.bmp_pos60_id7_im14.bmp,['Im_KeanuReeves.png', 'Im_ElijahWood.png', 'Im_LeonardoDiCaprio.png', 'Im_GeorgeClooney.png', 'Im_BenStiller.png', 'Im_PatrickDempsey.png', 'Im_DanielRadcliffe.png', 'Im_BradPitt.png', 'Im_RobertPattinson.png', 'Im_RyanGosling.png'],diff,1,0.42491339999833144,12,52.38095238095238,
DILA0206,train,neg,150,neg150_id5_im1.bmp_neg150_id5_im10.bmp,['Im_KeanuReeves.png', 'Im_ElijahWood.png', 'Im_LeonardoDiCaprio.png', 'Im_GeorgeClooney.png', 'Im_BenStiller.png', 'Im_PatrickDempsey.png', 'Im_DanielRadcliffe.png', 'Im_BradPitt.png', 'Im_RobertPattinson.png', 'Im_RyanGosling.png'],same,1,0.40830259999711416,13,52.38095238095238,
DILA0206,train,neg,90,neg90_id13_im10.bmp_neg90_id20_im30.bmp,['Im_KeanuReeves.png', 'Im_ElijahWood.png', 'Im_LeonardoDiCaprio.png', 'Im_GeorgeClooney.png', 'Im_BenStiller.png', 'Im_PatrickDempsey.png', 'Im_DanielRadcliffe.png', 'Im_BradPitt.png', 'Im_RobertPattinson.png', 'Im_RyanGosling.png'],diff,1,0.758250599999883,14,52.38095238095238,
DILA0206,train,neg,0,neg0_id20_im30.bmp_neg0_id17_im9.bmp,['Im_KeanuReeves.png', 'Im_ElijahWood.png', 'Im_LeonardoDiCaprio.png', 'Im_GeorgeClooney.png', 'Im_BenStiller.png', 'Im_PatrickDempsey.png', 'Im_DanielRadcliffe.png', 'Im_BradPitt.png', 'Im_RobertPattinson.png', 'Im_RyanGosling.png'],same,0,0.43338890000086394,14,52.38095238095238,
DILA0206,train,neg,60,neg60_id19_im27.bmp_neg60_id3_im8.bmp,['Im_KeanuReeves.png', 'Im_ElijahWood.png', 'Im_LeonardoDiCaprio.png', 'Im_GeorgeClooney.png', 'Im_BenStiller.png', 'Im_PatrickDempsey.png', 'Im_DanielRadcliffe.png', 'Im_BradPitt.png', 'Im_RobertPattinson.png', 'Im_RyanGosling.png'],diff,1,0.4668039999996836,15,52.38095238095238,
DILA0206,train,neg,30,neg30_id19_im8.bmp_neg30_id19_im4.bmp,['Im_KeanuReeves.png', 'Im_ElijahWood.png', 'Im_LeonardoDiCaprio.png', 'Im_GeorgeClooney.png', 'Im_BenStiller.png', 'Im_PatrickDempsey.png', 'Im_DanielRadcliffe.png', 'Im_BradPitt.png', 'Im_RobertPattinson.png', 'Im_RyanGosling.png'],same,1,0.5915827000026184,16,52.38095238095238,
DILA0206,train,neg,60,neg60_id5_im1.bmp_neg60_id20_im12.bmp,['Im_KeanuReeves.png', 'Im_ElijahWood.png', 'Im_LeonardoDiCaprio.png', 'Im_GeorgeClooney.png', 'Im_BenStiller.png', 'Im_PatrickDempsey.png', 'Im_DanielRadcliffe.png', 'Im_BradPitt.png', 'Im_RobertPattinson.png', 'Im_RyanGosling.png'],diff,1,0.6342174999990675,17,52.38095238095238,
DILA0206,train,neg,120,neg120_id13_im29.bmp_neg120_id11_im2.bmp,['Im_KeanuReeves.png', 'Im_ElijahWood.png', 'Im_LeonardoDiCaprio.png', 'Im_GeorgeClooney.png', 'Im_BenStiller.png', 'Im_PatrickDempsey.png', 'Im_DanielRadcliffe.png', 'Im_BradPitt.png', 'Im_RobertPattinson.png', 'Im_RyanGosling.png'],diff,1,0.5168757999999798,18,52.38095238095238,
DILA0206,train,neg,30,neg30_id13_im15.bmp_neg30_id19_im27.bmp,['Im_KeanuReeves.png', 'Im_ElijahWood.png', 'Im_LeonardoDiCaprio.png', 'Im_GeorgeClooney.png', 'Im_BenStiller.png', 'Im_PatrickDempsey.png', 'Im_DanielRadcliffe.png', 'Im_BradPitt.png', 'Im_RobertPattinson.png', 'Im_RyanGosling.png'],same,0,0.4331657999973686,18,52.38095238095238,
DILA0206,train,neg,150,neg150_id13_im10.bmp_neg150_id13_im15.bmp,['Im_KeanuReeves.png', 'Im_ElijahWood.png', 'Im_LeonardoDiCaprio.png', 'Im_GeorgeClooney.png', 'Im_BenStiller.png', 'Im_PatrickDempsey.png', 'Im_DanielRadcliffe.png', 'Im_BradPitt.png', 'Im_RobertPattinson.png', 'Im_RyanGosling.png'],same,1,0.4166891000022588,19,52.38095238095238,
DILA0206,train,neg,120,neg120_id11_im10.bmp_neg120_id11_im2.bmp,['Im_KeanuReeves.png', 'Im_ElijahWood.png', 'Im_LeonardoDiCaprio.png', 'Im_GeorgeClooney.png', 'Im_BenStiller.png', 'Im_PatrickDempsey.png', 'Im_DanielRadcliffe.png', 'Im_BradPitt.png', 'Im_RobertPattinson.png', 'Im_RyanGosling.png'],same,1,0.4587085000021034,20,52.38095238095238,
DILA0206,train,neg,90,neg90_id6_im18.bmp_neg90_id6_im19.bmp,['Im_KeanuReeves.png', 'Im_ElijahWood.png', 'Im_LeonardoDiCaprio.png', 'Im_GeorgeClooney.png', 'Im_BenStiller.png', 'Im_PatrickDempsey.png', 'Im_DanielRadcliffe.png', 'Im_BradPitt.png', 'Im_RobertPattinson.png', 'Im_RyanGosling.png'],same,1,0.4251390999997966,21,52.38095238095238,
DILA0206,train,neg,fs,negfs_id6_im19.bmp_negfs_id17_im14.bmp,['Im_KeanuReeves.png', 'Im_ElijahWood.png', 'Im_LeonardoDiCaprio.png', 'Im_GeorgeClooney.png', 'Im_BenStiller.png', 'Im_PatrickDempsey.png', 'Im_DanielRadcliffe.png', 'Im_BradPitt.png', 'Im_RobertPattinson.png', 'Im_RyanGosling.png'],diff,1,0.4500006999987818,22,52.38095238095238,
DILA0206,train,neg,fs,negfs_id7_im26.bmp_negfs_id7_im15.bmp,['Im_KeanuReeves.png', 'Im_ElijahWood.png', 'Im_LeonardoDiCaprio.png', 'Im_GeorgeClooney.png', 'Im_BenStiller.png', 'Im_PatrickDempsey.png', 'Im_DanielRadcliffe.png', 'Im_BradPitt.png', 'Im_RobertPattinson.png', 'Im_RyanGosling.png'],same,1,0.4250332999981765,23,52.38095238095238,
DILA0206,train,neg,0,neg0_id13_im10.bmp_neg0_id17_im8.bmp,['Im_KeanuReeves.png', 'Im_ElijahWood.png', 'Im_LeonardoDiCaprio.png', 'Im_GeorgeClooney.png', 'Im_BenStiller.png', 'Im_PatrickDempsey.png', 'Im_DanielRadcliffe.png', 'Im_BradPitt.png', 'Im_RobertPattinson.png', 'Im_RyanGosling.png'],same,0,0.48334910000266973,23,52.38095238095238,
DILA0206,train,pos,120,pos120_id17_im9.bmp_pos120_id7_im14.bmp,['Im_KeanuReeves.png', 'Im_ElijahWood.png', 'Im_LeonardoDiCaprio.png', 'Im_GeorgeClooney.png', 'Im_BenStiller.png', 'Im_PatrickDempsey.png', 'Im_DanielRadcliffe.png', 'Im_BradPitt.png', 'Im_RobertPattinson.png', 'Im_RyanGosling.png'],diff,1,0.4248188999990816,24,52.38095238095238,
DILA0206,train,pos,150,pos150_id13_im15.bmp_pos150_id20_im12.bmp,['Im_KeanuReeves.png', 'Im_ElijahWood.png', 'Im_LeonardoDiCaprio.png', 'Im_GeorgeClooney.png', 'Im_BenStiller.png', 'Im_PatrickDempsey.png', 'Im_DanielRadcliffe.png', 'Im_BradPitt.png', 'Im_RobertPattinson.png', 'Im_RyanGosling.png'],diff,1,0.5502316000020073,25,52.38095238095238,
DILA0206,train,pos,60,pos60_id20_im30.bmp_pos60_id20_im3.bmp,['Im_KeanuReeves.png', 'Im_ElijahWood.png', 'Im_LeonardoDiCaprio.png', 'Im_GeorgeClooney.png', 'Im_BenStiller.png', 'Im_PatrickDempsey.png', 'Im_DanielRadcliffe.png', 'Im_BradPitt.png', 'Im_RobertPattinson.png', 'Im_RyanGosling.png'],same,1,0.40836160000253585,26,52.38095238095238,
DILA0206,train,pos,60,pos60_id20_im30.bmp_pos60_id17_im9.bmp,['Im_KeanuReeves.png', 'Im_ElijahWood.png', 'Im_LeonardoDiCaprio.png', 'Im_GeorgeClooney.png', 'Im_BenStiller.png', 'Im_PatrickDempsey.png', 'Im_DanielRadcliffe.png', 'Im_BradPitt.png', 'Im_RobertPattinson.png', 'Im_RyanGosling.png'],diff,1,0.4252328000002308,27,52.38095238095238,
DILA0206,train,pos,120,pos120_id3_im8.bmp_pos120_id3_im6.bmp,['Im_KeanuReeves.png', 'Im_ElijahWood.png', 'Im_LeonardoDiCaprio.png', 'Im_GeorgeClooney.png', 'Im_BenStiller.png', 'Im_PatrickDempsey.png', 'Im_DanielRadcliffe.png', 'Im_BradPitt.png', 'Im_RobertPattinson.png', 'Im_RyanGosling.png'],same,1,1.0917262000002665,28,52.38095238095238,
DILA0206,train,pos,0,pos0_id5_im10.bmp_pos0_id5_im20.bmp,['Im_KeanuReeves.png', 'Im_ElijahWood.png', 'Im_LeonardoDiCaprio.png', 'Im_GeorgeClooney.png', 'Im_BenStiller.png', 'Im_PatrickDempsey.png', 'Im_DanielRadcliffe.png', 'Im_BradPitt.png', 'Im_RobertPattinson.png', 'Im_RyanGosling.png'],diff,0,0.424919699999009,28,52.38095238095238,
DILA0206,train,pos,fs,posfs_id19_im27.bmp_posfs_id13_im15.bmp,['Im_KeanuReeves.png', 'Im_ElijahWood.png', 'Im_LeonardoDiCaprio.png', 'Im_GeorgeClooney.png', 'Im_BenStiller.png', 'Im_PatrickDempsey.png', 'Im_DanielRadcliffe.png', 'Im_BradPitt.png', 'Im_RobertPattinson.png', 'Im_RyanGosling.png'],diff,1,0.4165955999997095,29,52.38095238095238,
DILA0206,train,pos,fs,posfs_id3_im6.bmp_posfs_id3_im8.bmp,['Im_KeanuReeves.png', 'Im_ElijahWood.png', 'Im_LeonardoDiCaprio.png', 'Im_GeorgeClooney.png', 'Im_BenStiller.png', 'Im_PatrickDempsey.png', 'Im_DanielRadcliffe.png', 'Im_BradPitt.png', 'Im_RobertPattinson.png', 'Im_RyanGosling.png'],same,1,0.4167257000008249,30,52.38095238095238,
DILA0206,train,pos,90,pos90_id13_im15.bmp_pos90_id13_im29.bmp,['Im_KeanuReeves.png', 'Im_ElijahWood.png', 'Im_LeonardoDiCaprio.png', 'Im_GeorgeClooney.png', 'Im_BenStiller.png', 'Im_PatrickDempsey.png', 'Im_DanielRadcliffe.png', 'Im_BradPitt.png', 'Im_RobertPattinson.png', 'Im_RyanGosling.png'],same,1,0.41672149999794783,31,52.38095238095238,
DILA0206,train,pos,90,pos90_id7_im26.bmp_pos90_id7_im14.bmp,['Im_KeanuReeves.png', 'Im_ElijahWood.png', 'Im_LeonardoDiCaprio.png', 'Im_GeorgeClooney.png', 'Im_BenStiller.png', 'Im_PatrickDempsey.png', 'Im_DanielRadcliffe.png', 'Im_BradPitt.png', 'Im_RobertPattinson.png', 'Im_RyanGosling.png'],diff,0,0.4750270000004093,31,52.38095238095238,
DILA0206,train,pos,0,pos0_id11_im1.bmp_pos0_id11_im10.bmp,['Im_KeanuReeves.png', 'Im_ElijahWood.png', 'Im_LeonardoDiCaprio.png', 'Im_GeorgeClooney.png', 'Im_BenStiller.png', 'Im_PatrickDempsey.png', 'Im_DanielRadcliffe.png', 'Im_BradPitt.png', 'Im_RobertPattinson.png', 'Im_RyanGosling.png'],same,1,0.45825589999731164,32,52.38095238095238,
DILA0206,train,pos,30,pos30_id17_im9.bmp_pos30_id17_im14.bmp,['Im_KeanuReeves.png', 'Im_ElijahWood.png', 'Im_LeonardoDiCaprio.png', 'Im_GeorgeClooney.png', 'Im_BenStiller.png', 'Im_PatrickDempsey.png', 'Im_DanielRadcliffe.png', 'Im_BradPitt.png', 'Im_RobertPattinson.png', 'Im_RyanGosling.png'],same,1,0.41681810000227415,33,52.38095238095238,
DILA0206,train,pos,30,pos30_id19_im8.bmp_pos30_id19_im27.bmp,['Im_KeanuReeves.png', 'Im_ElijahWood.png', 'Im_LeonardoDiCaprio.png', 'Im_GeorgeClooney.png', 'Im_BenStiller.png', 'Im_PatrickDempsey.png', 'Im_DanielRadcliffe.png', 'Im_BradPitt.png', 'Im_RobertPattinson.png', 'Im_RyanGosling.png'],same,1,0.41662039999937406,34,52.38095238095238,
DILA0206,train,pos,150,pos150_id2_im2.bmp_pos150_id2_im3.bmp,['Im_KeanuReeves.png', 'Im_ElijahWood.png', 'Im_LeonardoDiCaprio.png', 'Im_GeorgeClooney.png', 'Im_BenStiller.png', 'Im_PatrickDempsey.png', 'Im_DanielRadcliffe.png', 'Im_BradPitt.png', 'Im_RobertPattinson.png', 'Im_RyanGosling.png'],same,1,0.40836579999813694,35,52.38095238095238,
DILA0206,train,inv,90,pos90_id2_im16.bmp_pos90_id7_im15.bmp,['Im_KeanuReeves.png', 'Im_ElijahWood.png', 'Im_LeonardoDiCaprio.png', 'Im_GeorgeClooney.png', 'Im_BenStiller.png', 'Im_PatrickDempsey.png', 'Im_DanielRadcliffe.png', 'Im_BradPitt.png', 'Im_RobertPattinson.png', 'Im_RyanGosling.png'],same,0,1.5415767999984382,0,83.33333333333333,
DILA0206,train,inv,fs,posfs_id20_im30.bmp_posfs_id20_im12.bmp,['Im_KeanuReeves.png', 'Im_ElijahWood.png', 'Im_LeonardoDiCaprio.png', 'Im_GeorgeClooney.png', 'Im_BenStiller.png', 'Im_PatrickDempsey.png', 'Im_DanielRadcliffe.png', 'Im_BradPitt.png', 'Im_RobertPattinson.png', 'Im_RyanGosling.png'],same,1,0.40837960000135354,1,83.33333333333333,
DILA0206,train,inv,0,pos0_id17_im14.bmp_pos0_id6_im19.bmp,['Im_KeanuReeves.png', 'Im_ElijahWood.png', 'Im_LeonardoDiCaprio.png', 'Im_GeorgeClooney.png', 'Im_BenStiller.png', 'Im_PatrickDempsey.png', 'Im_DanielRadcliffe.png', 'Im_BradPitt.png', 'Im_RobertPattinson.png', 'Im_RyanGosling.png'],diff,1,0.6422873999981675,2,83.33333333333333,
DILA0206,train,inv,150,pos150_id17_im9.bmp_pos150_id7_im14.bmp,['Im_KeanuReeves.png', 'Im_ElijahWood.png', 'Im_LeonardoDiCaprio.png', 'Im_GeorgeClooney.png', 'Im_BenStiller.png', 'Im_PatrickDempsey.png', 'Im_DanielRadcliffe.png', 'Im_BradPitt.png', 'Im_RobertPattinson.png', 'Im_RyanGosling.png'],diff,1,1.2918127000011737,3,83.33333333333333,
DILA0206,train,inv,120,pos120_id17_im14.bmp_pos120_id6_im19.bmp,['Im_KeanuReeves.png', 'Im_ElijahWood.png', 'Im_LeonardoDiCaprio.png', 'Im_GeorgeClooney.png', 'Im_BenStiller.png', 'Im_PatrickDempsey.png', 'Im_DanielRadcliffe.png', 'Im_BradPitt.png', 'Im_RobertPattinson.png', 'Im_RyanGosling.png'],same,0,0.4083878999990702,3,83.33333333333333,
DILA0206,train,inv,30,pos30_id19_im8.bmp_pos30_id5_im20.bmp,['Im_KeanuReeves.png', 'Im_ElijahWood.png', 'Im_LeonardoDiCaprio.png', 'Im_GeorgeClooney.png', 'Im_BenStiller.png', 'Im_PatrickDempsey.png', 'Im_DanielRadcliffe.png', 'Im_BradPitt.png', 'Im_RobertPattinson.png', 'Im_RyanGosling.png'],diff,1,0.6666242999999668,4,83.33333333333333,
DILA0206,train,inv,90,pos90_id13_im15.bmp_pos90_id20_im12.bmp,['Im_KeanuReeves.png', 'Im_ElijahWood.png', 'Im_LeonardoDiCaprio.png', 'Im_GeorgeClooney.png', 'Im_BenStiller.png', 'Im_PatrickDempsey.png', 'Im_DanielRadcliffe.png', 'Im_BradPitt.png', 'Im_RobertPattinson.png', 'Im_RyanGosling.png'],diff,1,0.9252870999989682,5,83.33333333333333,
DILA0206,train,inv,150,pos150_id3_im17.bmp_pos150_id3_im8.bmp,['Im_KeanuReeves.png', 'Im_ElijahWood.png', 'Im_LeonardoDiCaprio.png', 'Im_GeorgeClooney.png', 'Im_BenStiller.png', 'Im_PatrickDempsey.png', 'Im_DanielRadcliffe.png', 'Im_BradPitt.png', 'Im_RobertPattinson.png', 'Im_RyanGosling.png'],same,1,0.7585113999994064,6,83.33333333333333,
DILA0206,train,inv,30,pos30_id2_im2.bmp_pos30_id2_im16.bmp,['Im_KeanuReeves.png', 'Im_ElijahWood.png', 'Im_LeonardoDiCaprio.png', 'Im_GeorgeClooney.png', 'Im_BenStiller.png', 'Im_PatrickDempsey.png', 'Im_DanielRadcliffe.png', 'Im_BradPitt.png', 'Im_RobertPattinson.png', 'Im_RyanGosling.png'],same,1,0.4248248000003514,7,83.33333333333333,
DILA0206,train,inv,fs,posfs_id3_im17.bmp_posfs_id3_im6.bmp,['Im_KeanuReeves.png', 'Im_ElijahWood.png', 'Im_LeonardoDiCaprio.png', 'Im_GeorgeClooney.png', 'Im_BenStiller.png', 'Im_PatrickDempsey.png', 'Im_DanielRadcliffe.png', 'Im_BradPitt.png', 'Im_RobertPattinson.png', 'Im_RyanGosling.png'],same,1,0.408332099999825,8,83.33333333333333,
DILA0206,train,inv,60,pos60_id2_im3.bmp_pos60_id5_im10.bmp,['Im_KeanuReeves.png', 'Im_ElijahWood.png', 'Im_LeonardoDiCaprio.png', 'Im_GeorgeClooney.png', 'Im_BenStiller.png', 'Im_PatrickDempsey.png', 'Im_DanielRadcliffe.png', 'Im_BradPitt.png', 'Im_RobertPattinson.png', 'Im_RyanGosling.png'],diff,1,0.4165866000003007,9,83.33333333333333,
DILA0206,train,inv,60,pos60_id2_im2.bmp_pos60_id6_im19.bmp,['Im_KeanuReeves.png', 'Im_ElijahWood.png', 'Im_LeonardoDiCaprio.png', 'Im_GeorgeClooney.png', 'Im_BenStiller.png', 'Im_PatrickDempsey.png', 'Im_DanielRadcliffe.png', 'Im_BradPitt.png', 'Im_RobertPattinson.png', 'Im_RyanGosling.png'],same,0,0.49178979999851435,9,83.33333333333333,
DILA0206,train,inv,0,pos0_id20_im3.bmp_pos0_id7_im26.bmp,['Im_KeanuReeves.png', 'Im_ElijahWood.png', 'Im_LeonardoDiCaprio.png', 'Im_GeorgeClooney.png', 'Im_BenStiller.png', 'Im_PatrickDempsey.png', 'Im_DanielRadcliffe.png', 'Im_BradPitt.png', 'Im_RobertPattinson.png', 'Im_RyanGosling.png'],same,0,0.8998776000007638,9,83.33333333333333,
DILA0206,train,inv,120,pos120_id2_im16.bmp_pos120_id7_im15.bmp,['Im_KeanuReeves.png', 'Im_ElijahWood.png', 'Im_LeonardoDiCaprio.png', 'Im_GeorgeClooney.png', 'Im_BenStiller.png', 'Im_PatrickDempsey.png', 'Im_DanielRadcliffe.png', 'Im_BradPitt.png', 'Im_RobertPattinson.png', 'Im_RyanGosling.png'],same,0,1.5084318000008352,9,83.33333333333333,
DILA0206,train,pos,120,pos120_id17_im9.bmp_pos120_id20_im30.bmp,['Im_KeanuReeves.png', 'Im_ElijahWood.png', 'Im_LeonardoDiCaprio.png', 'Im_GeorgeClooney.png', 'Im_BenStiller.png', 'Im_PatrickDempsey.png', 'Im_DanielRadcliffe.png', 'Im_BradPitt.png', 'Im_RobertPattinson.png', 'Im_RyanGosling.png'],diff,1,1.433395299998665,10,83.33333333333333,
DILA0206,train,pos,fs,posfs_id20_im3.bmp_posfs_id7_im26.bmp,['Im_KeanuReeves.png', 'Im_ElijahWood.png', 'Im_LeonardoDiCaprio.png', 'Im_GeorgeClooney.png', 'Im_BenStiller.png', 'Im_PatrickDempsey.png', 'Im_DanielRadcliffe.png', 'Im_BradPitt.png', 'Im_RobertPattinson.png', 'Im_RyanGosling.png'],diff,1,2.450254600000335,11,83.33333333333333,
DILA0206,train,pos,30,pos30_id2_im16.bmp_pos30_id7_im15.bmp,['Im_KeanuReeves.png', 'Im_ElijahWood.png', 'Im_LeonardoDiCaprio.png', 'Im_GeorgeClooney.png', 'Im_BenStiller.png', 'Im_PatrickDempsey.png', 'Im_DanielRadcliffe.png', 'Im_BradPitt.png', 'Im_RobertPattinson.png', 'Im_RyanGosling.png'],same,0,0.5919063000001188,11,83.33333333333333,
DILA0206,train,pos,30,pos30_id20_im12.bmp_pos30_id13_im15.bmp,['Im_KeanuReeves.png', 'Im_ElijahWood.png', 'Im_LeonardoDiCaprio.png', 'Im_GeorgeClooney.png', 'Im_BenStiller.png', 'Im_PatrickDempsey.png', 'Im_DanielRadcliffe.png', 'Im_BradPitt.png', 'Im_RobertPattinson.png', 'Im_RyanGosling.png'],diff,1,0.41653100000257837,12,83.33333333333333,
DILA0206,train,pos,fs,posfs_id11_im1.bmp_posfs_id11_im10.bmp,['Im_KeanuReeves.png', 'Im_ElijahWood.png', 'Im_LeonardoDiCaprio.png', 'Im_GeorgeClooney.png', 'Im_BenStiller.png', 'Im_PatrickDempsey.png', 'Im_DanielRadcliffe.png', 'Im_BradPitt.png', 'Im_RobertPattinson.png', 'Im_RyanGosling.png'],same,1,0.425004100001388,13,83.33333333333333,
DILA0206,train,pos,90,pos90_id11_im2.bmp_pos90_id2_im3.bmp,['Im_KeanuReeves.png', 'Im_ElijahWood.png', 'Im_LeonardoDiCaprio.png', 'Im_GeorgeClooney.png', 'Im_BenStiller.png', 'Im_PatrickDempsey.png', 'Im_DanielRadcliffe.png', 'Im_BradPitt.png', 'Im_RobertPattinson.png', 'Im_RyanGosling.png'],diff,1,0.41674910000074306,14,83.33333333333333,
DILA0206,train,pos,150,pos150_id11_im1.bmp_pos150_id6_im12.bmp,['Im_KeanuReeves.png', 'Im_ElijahWood.png', 'Im_LeonardoDiCaprio.png', 'Im_GeorgeClooney.png', 'Im_BenStiller.png', 'Im_PatrickDempsey.png', 'Im_DanielRadcliffe.png', 'Im_BradPitt.png', 'Im_RobertPattinson.png', 'Im_RyanGosling.png'],diff,1,0.7337622999984887,15,83.33333333333333,
DILA0206,train,pos,0,pos0_id7_im26.bmp_pos0_id3_im8.bmp,['Im_KeanuReeves.png', 'Im_ElijahWood.png', 'Im_LeonardoDiCaprio.png', 'Im_GeorgeClooney.png', 'Im_BenStiller.png', 'Im_PatrickDempsey.png', 'Im_DanielRadcliffe.png', 'Im_BradPitt.png', 'Im_RobertPattinson.png', 'Im_RyanGosling.png'],same,0,0.40837930000270717,15,83.33333333333333,
DILA0206,train,pos,60,pos60_id7_im26.bmp_pos60_id7_im14.bmp,['Im_KeanuReeves.png', 'Im_ElijahWood.png', 'Im_LeonardoDiCaprio.png', 'Im_GeorgeClooney.png', 'Im_BenStiller.png', 'Im_PatrickDempsey.png', 'Im_DanielRadcliffe.png', 'Im_BradPitt.png', 'Im_RobertPattinson.png', 'Im_RyanGosling.png'],same,1,0.8169202999997651,16,83.33333333333333,
DILA0206,train,pos,150,pos150_id7_im14.bmp_pos150_id7_im15.bmp,['Im_KeanuReeves.png', 'Im_ElijahWood.png', 'Im_LeonardoDiCaprio.png', 'Im_GeorgeClooney.png', 'Im_BenStiller.png', 'Im_PatrickDempsey.png', 'Im_DanielRadcliffe.png', 'Im_BradPitt.png', 'Im_RobertPattinson.png', 'Im_RyanGosling.png'],same,1,0.424769400000514,17,83.33333333333333,
DILA0206,train,pos,120,pos120_id19_im8.bmp_pos120_id19_im27.bmp,['Im_KeanuReeves.png', 'Im_ElijahWood.png', 'Im_LeonardoDiCaprio.png', 'Im_GeorgeClooney.png', 'Im_BenStiller.png', 'Im_PatrickDempsey.png', 'Im_DanielRadcliffe.png', 'Im_BradPitt.png', 'Im_RobertPattinson.png', 'Im_RyanGosling.png'],same,1,0.41666479999912553,18,83.33333333333333,
DILA0206,train,pos,0,pos0_id6_im19.bmp_pos0_id6_im18.bmp,['Im_KeanuReeves.png', 'Im_ElijahWood.png', 'Im_LeonardoDiCaprio.png', 'Im_GeorgeClooney.png', 'Im_BenStiller.png', 'Im_PatrickDempsey.png', 'Im_DanielRadcliffe.png', 'Im_BradPitt.png', 'Im_RobertPattinson.png', 'Im_RyanGosling.png'],same,1,0.41681850000168197,19,83.33333333333333,
DILA0206,train,pos,90,pos90_id11_im1.bmp_pos90_id11_im2.bmp,['Im_KeanuReeves.png', 'Im_ElijahWood.png', 'Im_LeonardoDiCaprio.png', 'Im_GeorgeClooney.png', 'Im_BenStiller.png', 'Im_PatrickDempsey.png', 'Im_DanielRadcliffe.png', 'Im_BradPitt.png', 'Im_RobertPattinson.png', 'Im_RyanGosling.png'],diff,0,0.9171280999980809,19,83.33333333333333,
DILA0206,train,pos,60,pos60_id2_im2.bmp_pos60_id2_im16.bmp,['Im_KeanuReeves.png', 'Im_ElijahWood.png', 'Im_LeonardoDiCaprio.png', 'Im_GeorgeClooney.png', 'Im_BenStiller.png', 'Im_PatrickDempsey.png', 'Im_DanielRadcliffe.png', 'Im_BradPitt.png', 'Im_RobertPattinson.png', 'Im_RyanGosling.png'],same,1,0.41682070000024396,20,83.33333333333333,
DILA0206,train,neg,150,neg150_id5_im20.bmp_neg150_id5_im10.bmp,['Im_KeanuReeves.png', 'Im_ElijahWood.png', 'Im_LeonardoDiCaprio.png', 'Im_GeorgeClooney.png', 'Im_BenStiller.png', 'Im_PatrickDempsey.png', 'Im_DanielRadcliffe.png', 'Im_BradPitt.png', 'Im_RobertPattinson.png', 'Im_RyanGosling.png'],same,1,0.4419493000023067,21,83.33333333333333,
DILA0206,train,neg,0,neg0_id2_im16.bmp_neg0_id7_im15.bmp,['Im_KeanuReeves.png', 'Im_ElijahWood.png', 'Im_LeonardoDiCaprio.png', 'Im_GeorgeClooney.png', 'Im_BenStiller.png', 'Im_PatrickDempsey.png', 'Im_DanielRadcliffe.png', 'Im_BradPitt.png', 'Im_RobertPattinson.png', 'Im_RyanGosling.png'],same,0,0.4084082999979728,21,83.33333333333333,
DILA0206,train,neg,30,neg30_id11_im1.bmp_neg30_id6_im12.bmp,['Im_KeanuReeves.png', 'Im_ElijahWood.png', 'Im_LeonardoDiCaprio.png', 'Im_GeorgeClooney.png', 'Im_BenStiller.png', 'Im_PatrickDempsey.png', 'Im_DanielRadcliffe.png', 'Im_BradPitt.png', 'Im_RobertPattinson.png', 'Im_RyanGosling.png'],diff,1,0.43336899999849265,22,83.33333333333333,
DILA0206,train,neg,fs,negfs_id13_im15.bmp_negfs_id13_im29.bmp,['Im_KeanuReeves.png', 'Im_ElijahWood.png', 'Im_LeonardoDiCaprio.png', 'Im_GeorgeClooney.png', 'Im_BenStiller.png', 'Im_PatrickDempsey.png', 'Im_DanielRadcliffe.png', 'Im_BradPitt.png', 'Im_RobertPattinson.png', 'Im_RyanGosling.png'],same,1,0.424546599999303,23,83.33333333333333,
DILA0206,train,neg,60,neg60_id5_im10.bmp_neg60_id5_im20.bmp,['Im_KeanuReeves.png', 'Im_ElijahWood.png', 'Im_LeonardoDiCaprio.png', 'Im_GeorgeClooney.png', 'Im_BenStiller.png', 'Im_PatrickDempsey.png', 'Im_DanielRadcliffe.png', 'Im_BradPitt.png', 'Im_RobertPattinson.png', 'Im_RyanGosling.png'],same,1,0.558423499998753,24,83.33333333333333,
DILA0206,train,neg,60,neg60_id20_im12.bmp_neg60_id13_im15.bmp,['Im_KeanuReeves.png', 'Im_ElijahWood.png', 'Im_LeonardoDiCaprio.png', 'Im_GeorgeClooney.png', 'Im_BenStiller.png', 'Im_PatrickDempsey.png', 'Im_DanielRadcliffe.png', 'Im_BradPitt.png', 'Im_RobertPattinson.png', 'Im_RyanGosling.png'],diff,1,0.41668879999997444,25,83.33333333333333,
DILA0206,train,neg,0,neg0_id2_im2.bmp_neg0_id2_im3.bmp,['Im_KeanuReeves.png', 'Im_ElijahWood.png', 'Im_LeonardoDiCaprio.png', 'Im_GeorgeClooney.png', 'Im_BenStiller.png', 'Im_PatrickDempsey.png', 'Im_DanielRadcliffe.png', 'Im_BradPitt.png', 'Im_RobertPattinson.png', 'Im_RyanGosling.png'],same,1,0.41684059999897727,26,83.33333333333333,
DILA0206,train,neg,fs,negfs_id13_im15.bmp_negfs_id20_im12.bmp,['Im_KeanuReeves.png', 'Im_ElijahWood.png', 'Im_LeonardoDiCaprio.png', 'Im_GeorgeClooney.png', 'Im_BenStiller.png', 'Im_PatrickDempsey.png', 'Im_DanielRadcliffe.png', 'Im_BradPitt.png', 'Im_RobertPattinson.png', 'Im_RyanGosling.png'],diff,1,0.5170360999982222,27,83.33333333333333,
DILA0206,train,neg,120,neg120_id17_im9.bmp_neg120_id7_im14.bmp,['Im_KeanuReeves.png', 'Im_ElijahWood.png', 'Im_LeonardoDiCaprio.png', 'Im_GeorgeClooney.png', 'Im_BenStiller.png', 'Im_PatrickDempsey.png', 'Im_DanielRadcliffe.png', 'Im_BradPitt.png', 'Im_RobertPattinson.png', 'Im_RyanGosling.png'],diff,1,0.5332197999996424,28,83.33333333333333,
DILA0206,train,neg,90,neg90_id5_im10.bmp_neg90_id2_im3.bmp,['Im_KeanuReeves.png', 'Im_ElijahWood.png', 'Im_LeonardoDiCaprio.png', 'Im_GeorgeClooney.png', 'Im_BenStiller.png', 'Im_PatrickDempsey.png', 'Im_DanielRadcliffe.png', 'Im_BradPitt.png', 'Im_RobertPattinson.png', 'Im_RyanGosling.png'],diff,1,0.42520430000149645,29,83.33333333333333,
DILA0206,train,neg,150,neg150_id6_im12.bmp_neg150_id5_im1.bmp,['Im_KeanuReeves.png', 'Im_ElijahWood.png', 'Im_LeonardoDiCaprio.png', 'Im_GeorgeClooney.png', 'Im_BenStiller.png', 'Im_PatrickDempsey.png', 'Im_DanielRadcliffe.png', 'Im_BradPitt.png', 'Im_RobertPattinson.png', 'Im_RyanGosling.png'],same,0,1.0002567000010458,29,83.33333333333333,
DILA0206,train,neg,120,neg120_id3_im8.bmp_neg120_id7_im26.bmp,['Im_KeanuReeves.png', 'Im_ElijahWood.png', 'Im_LeonardoDiCaprio.png', 'Im_GeorgeClooney.png', 'Im_BenStiller.png', 'Im_PatrickDempsey.png', 'Im_DanielRadcliffe.png', 'Im_BradPitt.png', 'Im_RobertPattinson.png', 'Im_RyanGosling.png'],same,0,0.416790300001594,29,83.33333333333333,
DILA0206,train,neg,90,neg90_id19_im8.bmp_neg90_id5_im20.bmp,['Im_KeanuReeves.png', 'Im_ElijahWood.png', 'Im_LeonardoDiCaprio.png', 'Im_GeorgeClooney.png', 'Im_BenStiller.png', 'Im_PatrickDempsey.png', 'Im_DanielRadcliffe.png', 'Im_BradPitt.png', 'Im_RobertPattinson.png', 'Im_RyanGosling.png'],same,0,0.5503040000003239,29,83.33333333333333,
DILA0206,train,neg,30,neg30_id3_im6.bmp_neg30_id3_im8.bmp,['Im_KeanuReeves.png', 'Im_ElijahWood.png', 'Im_LeonardoDiCaprio.png', 'Im_GeorgeClooney.png', 'Im_BenStiller.png', 'Im_PatrickDempsey.png', 'Im_DanielRadcliffe.png', 'Im_BradPitt.png', 'Im_RobertPattinson.png', 'Im_RyanGosling.png'],same,1,0.5417692999981227,30,83.33333333333333,
DILA0206,train,neg,120,neg120_id13_im29.bmp_neg120_id3_im17.bmp,['Im_KeanuReeves.png', 'Im_ElijahWood.png', 'Im_LeonardoDiCaprio.png', 'Im_GeorgeClooney.png', 'Im_BenStiller.png', 'Im_PatrickDempsey.png', 'Im_DanielRadcliffe.png', 'Im_BradPitt.png', 'Im_RobertPattinson.png', 'Im_RyanGosling.png'],same,0,1.3082921999994142,0,71.42857142857143,
DILA0206,train,neg,30,neg30_id5_im10.bmp_neg30_id2_im3.bmp,['Im_KeanuReeves.png', 'Im_ElijahWood.png', 'Im_LeonardoDiCaprio.png', 'Im_GeorgeClooney.png', 'Im_BenStiller.png', 'Im_PatrickDempsey.png', 'Im_DanielRadcliffe.png', 'Im_BradPitt.png', 'Im_RobertPattinson.png', 'Im_RyanGosling.png'],diff,1,0.7918003999984649,1,71.42857142857143,
DILA0206,train,neg,0,neg0_id5_im20.bmp_neg0_id19_im4.bmp,['Im_KeanuReeves.png', 'Im_ElijahWood.png', 'Im_LeonardoDiCaprio.png', 'Im_GeorgeClooney.png', 'Im_BenStiller.png', 'Im_PatrickDempsey.png', 'Im_DanielRadcliffe.png', 'Im_BradPitt.png', 'Im_RobertPattinson.png', 'Im_RyanGosling.png'],same,0,0.4166250000016589,1,71.42857142857143,
DILA0206,train,neg,150,neg150_id11_im2.bmp_neg150_id11_im10.bmp,['Im_KeanuReeves.png', 'Im_ElijahWood.png', 'Im_LeonardoDiCaprio.png', 'Im_GeorgeClooney.png', 'Im_BenStiller.png', 'Im_PatrickDempsey.png', 'Im_DanielRadcliffe.png', 'Im_BradPitt.png', 'Im_RobertPattinson.png', 'Im_RyanGosling.png'],same,1,0.5502624000000651,2,71.42857142857143,
DILA0206,train,neg,120,neg120_id13_im10.bmp_neg120_id13_im15.bmp,['Im_KeanuReeves.png', 'Im_ElijahWood.png', 'Im_LeonardoDiCaprio.png', 'Im_GeorgeClooney.png', 'Im_BenStiller.png', 'Im_PatrickDempsey.png', 'Im_DanielRadcliffe.png', 'Im_BradPitt.png', 'Im_RobertPattinson.png', 'Im_RyanGosling.png'],same,1,0.9416333000008308,3,71.42857142857143,
DILA0206,train,neg,60,neg60_id5_im10.bmp_neg60_id5_im1.bmp,['Im_KeanuReeves.png', 'Im_ElijahWood.png', 'Im_LeonardoDiCaprio.png', 'Im_GeorgeClooney.png', 'Im_BenStiller.png', 'Im_PatrickDempsey.png', 'Im_DanielRadcliffe.png', 'Im_BradPitt.png', 'Im_RobertPattinson.png', 'Im_RyanGosling.png'],same,1,0.7168960999988485,4,71.42857142857143,
DILA0206,train,neg,30,neg30_id5_im20.bmp_neg30_id19_im4.bmp,['Im_KeanuReeves.png', 'Im_ElijahWood.png', 'Im_LeonardoDiCaprio.png', 'Im_GeorgeClooney.png', 'Im_BenStiller.png', 'Im_PatrickDempsey.png', 'Im_DanielRadcliffe.png', 'Im_BradPitt.png', 'Im_RobertPattinson.png', 'Im_RyanGosling.png'],same,0,0.6415066000008665,4,71.42857142857143,
DILA0206,train,neg,0,neg0_id7_im26.bmp_neg0_id7_im15.bmp,['Im_KeanuReeves.png', 'Im_ElijahWood.png', 'Im_LeonardoDiCaprio.png', 'Im_GeorgeClooney.png', 'Im_BenStiller.png', 'Im_PatrickDempsey.png', 'Im_DanielRadcliffe.png', 'Im_BradPitt.png', 'Im_RobertPattinson.png', 'Im_RyanGosling.png'],same,1,0.41671579999820096,5,71.42857142857143,
DILA0206,train,neg,fs,negfs_id6_im18.bmp_negfs_id6_im12.bmp,['Im_KeanuReeves.png', 'Im_ElijahWood.png', 'Im_LeonardoDiCaprio.png', 'Im_GeorgeClooney.png', 'Im_BenStiller.png', 'Im_PatrickDempsey.png', 'Im_DanielRadcliffe.png', 'Im_BradPitt.png', 'Im_RobertPattinson.png', 'Im_RyanGosling.png'],same,1,1.1084095000005618,6,71.42857142857143,
DILA0206,train,neg,fs,negfs_id13_im10.bmp_negfs_id13_im29.bmp,['Im_KeanuReeves.png', 'Im_ElijahWood.png', 'Im_LeonardoDiCaprio.png', 'Im_GeorgeClooney.png', 'Im_BenStiller.png', 'Im_PatrickDempsey.png', 'Im_DanielRadcliffe.png', 'Im_BradPitt.png', 'Im_RobertPattinson.png', 'Im_RyanGosling.png'],same,1,0.4416354999993928,7,71.42857142857143,
DILA0206,train,neg,90,neg90_id5_im10.bmp_neg90_id5_im20.bmp,['Im_KeanuReeves.png', 'Im_ElijahWood.png', 'Im_LeonardoDiCaprio.png', 'Im_GeorgeClooney.png', 'Im_BenStiller.png', 'Im_PatrickDempsey.png', 'Im_DanielRadcliffe.png', 'Im_BradPitt.png', 'Im_RobertPattinson.png', 'Im_RyanGosling.png'],same,1,0.7752269999982673,8,71.42857142857143,
DILA0206,train,neg,60,neg60_id19_im8.bmp_neg60_id19_im27.bmp,['Im_KeanuReeves.png', 'Im_ElijahWood.png', 'Im_LeonardoDiCaprio.png', 'Im_GeorgeClooney.png', 'Im_BenStiller.png', 'Im_PatrickDempsey.png', 'Im_DanielRadcliffe.png', 'Im_BradPitt.png', 'Im_RobertPattinson.png', 'Im_RyanGosling.png'],same,1,0.4083619000011822,9,71.42857142857143,
DILA0206,train,neg,90,neg90_id6_im18.bmp_neg90_id17_im8.bmp,['Im_KeanuReeves.png', 'Im_ElijahWood.png', 'Im_LeonardoDiCaprio.png', 'Im_GeorgeClooney.png', 'Im_BenStiller.png', 'Im_PatrickDempsey.png', 'Im_DanielRadcliffe.png', 'Im_BradPitt.png', 'Im_RobertPattinson.png', 'Im_RyanGosling.png'],diff,1,0.40819769999870914,10,71.42857142857143,
DILA0206,train,neg,150,neg150_id2_im3.bmp_neg150_id2_im16.bmp,['Im_KeanuReeves.png', 'Im_ElijahWood.png', 'Im_LeonardoDiCaprio.png', 'Im_GeorgeClooney.png', 'Im_BenStiller.png', 'Im_PatrickDempsey.png', 'Im_DanielRadcliffe.png', 'Im_BradPitt.png', 'Im_RobertPattinson.png', 'Im_RyanGosling.png'],same,1,0.40840140000000247,11,71.42857142857143,
DILA0206,train,pos,0,pos0_id17_im8.bmp_pos0_id17_im14.bmp,['Im_KeanuReeves.png', 'Im_ElijahWood.png', 'Im_LeonardoDiCaprio.png', 'Im_GeorgeClooney.png', 'Im_BenStiller.png', 'Im_PatrickDempsey.png', 'Im_DanielRadcliffe.png', 'Im_BradPitt.png', 'Im_RobertPattinson.png', 'Im_RyanGosling.png'],same,1,0.4752504999996745,12,71.42857142857143,
DILA0206,train,pos,0,pos0_id20_im12.bmp_pos0_id20_im3.bmp,['Im_KeanuReeves.png', 'Im_ElijahWood.png', 'Im_LeonardoDiCaprio.png', 'Im_GeorgeClooney.png', 'Im_BenStiller.png', 'Im_PatrickDempsey.png', 'Im_DanielRadcliffe.png', 'Im_BradPitt.png', 'Im_RobertPattinson.png', 'Im_RyanGosling.png'],same,1,0.42517720000250847,13,71.42857142857143,
DILA0206,train,pos,60,pos60_id13_im15.bmp_pos60_id19_im27.bmp,['Im_KeanuReeves.png', 'Im_ElijahWood.png', 'Im_LeonardoDiCaprio.png', 'Im_GeorgeClooney.png', 'Im_BenStiller.png', 'Im_PatrickDempsey.png', 'Im_DanielRadcliffe.png', 'Im_BradPitt.png', 'Im_RobertPattinson.png', 'Im_RyanGosling.png'],diff,1,0.5416972000020905,14,71.42857142857143,
DILA0206,train,pos,fs,posfs_id7_im14.bmp_posfs_id7_im26.bmp,['Im_KeanuReeves.png', 'Im_ElijahWood.png', 'Im_LeonardoDiCaprio.png', 'Im_GeorgeClooney.png', 'Im_BenStiller.png', 'Im_PatrickDempsey.png', 'Im_DanielRadcliffe.png', 'Im_BradPitt.png', 'Im_RobertPattinson.png', 'Im_RyanGosling.png'],same,1,0.4083850999995775,15,71.42857142857143,
DILA0206,train,pos,120,pos120_id17_im8.bmp_pos120_id6_im18.bmp,['Im_KeanuReeves.png', 'Im_ElijahWood.png', 'Im_LeonardoDiCaprio.png', 'Im_GeorgeClooney.png', 'Im_BenStiller.png', 'Im_PatrickDempsey.png', 'Im_DanielRadcliffe.png', 'Im_BradPitt.png', 'Im_RobertPattinson.png', 'Im_RyanGosling.png'],diff,1,0.44169950000286917,16,71.42857142857143,
DILA0206,train,pos,30,pos30_id17_im9.bmp_pos30_id7_im14.bmp,['Im_KeanuReeves.png', 'Im_ElijahWood.png', 'Im_LeonardoDiCaprio.png', 'Im_GeorgeClooney.png', 'Im_BenStiller.png', 'Im_PatrickDempsey.png', 'Im_DanielRadcliffe.png', 'Im_BradPitt.png', 'Im_RobertPattinson.png', 'Im_RyanGosling.png'],diff,1,0.42491159999917727,17,71.42857142857143,
DILA0206,train,pos,60,pos60_id3_im8.bmp_pos60_id3_im6.bmp,['Im_KeanuReeves.png', 'Im_ElijahWood.png', 'Im_LeonardoDiCaprio.png', 'Im_GeorgeClooney.png', 'Im_BenStiller.png', 'Im_PatrickDempsey.png', 'Im_DanielRadcliffe.png', 'Im_BradPitt.png', 'Im_RobertPattinson.png', 'Im_RyanGosling.png'],same,1,0.41676649999863,18,71.42857142857143,
DILA0206,train,pos,fs,posfs_id19_im27.bmp_posfs_id19_im4.bmp,['Im_KeanuReeves.png', 'Im_ElijahWood.png', 'Im_LeonardoDiCaprio.png', 'Im_GeorgeClooney.png', 'Im_BenStiller.png', 'Im_PatrickDempsey.png', 'Im_DanielRadcliffe.png', 'Im_BradPitt.png', 'Im_RobertPattinson.png', 'Im_RyanGosling.png'],same,1,0.4167139999990468,19,71.42857142857143,
DILA0206,train,pos,150,pos150_id11_im1.bmp_pos150_id11_im10.bmp,['Im_KeanuReeves.png', 'Im_ElijahWood.png', 'Im_LeonardoDiCaprio.png', 'Im_GeorgeClooney.png', 'Im_BenStiller.png', 'Im_PatrickDempsey.png', 'Im_DanielRadcliffe.png', 'Im_BradPitt.png', 'Im_RobertPattinson.png', 'Im_RyanGosling.png'],same,1,0.524809999998979,20,71.42857142857143,
DILA0206,train,pos,150,pos150_id7_im15.bmp_pos150_id2_im16.bmp,['Im_KeanuReeves.png', 'Im_ElijahWood.png', 'Im_LeonardoDiCaprio.png', 'Im_GeorgeClooney.png', 'Im_BenStiller.png', 'Im_PatrickDempsey.png', 'Im_DanielRadcliffe.png', 'Im_BradPitt.png', 'Im_RobertPattinson.png', 'Im_RyanGosling.png'],same,0,0.41677569999956177,20,71.42857142857143,
DILA0206,train,pos,120,pos120_id5_im10.bmp_pos120_id5_im20.bmp,['Im_KeanuReeves.png', 'Im_ElijahWood.png', 'Im_LeonardoDiCaprio.png', 'Im_GeorgeClooney.png', 'Im_BenStiller.png', 'Im_PatrickDempsey.png', 'Im_DanielRadcliffe.png', 'Im_BradPitt.png', 'Im_RobertPattinson.png', 'Im_RyanGosling.png'],same,1,0.5419489000014437,21,71.42857142857143,
DILA0206,train,pos,90,pos90_id5_im10.bmp_pos90_id5_im20.bmp,['Im_KeanuReeves.png', 'Im_ElijahWood.png', 'Im_LeonardoDiCaprio.png', 'Im_GeorgeClooney.png', 'Im_BenStiller.png', 'Im_PatrickDempsey.png', 'Im_DanielRadcliffe.png', 'Im_BradPitt.png', 'Im_RobertPattinson.png', 'Im_RyanGosling.png'],same,1,0.4751457999991544,22,71.42857142857143,
DILA0206,train,pos,30,pos30_id20_im12.bmp_pos30_id20_im30.bmp,['Im_KeanuReeves.png', 'Im_ElijahWood.png', 'Im_LeonardoDiCaprio.png', 'Im_GeorgeClooney.png', 'Im_BenStiller.png', 'Im_PatrickDempsey.png', 'Im_DanielRadcliffe.png', 'Im_BradPitt.png', 'Im_RobertPattinson.png', 'Im_RyanGosling.png'],same,1,0.4249636000022292,23,71.42857142857143,
DILA0206,train,pos,90,pos90_id3_im6.bmp_pos90_id3_im17.bmp,['Im_KeanuReeves.png', 'Im_ElijahWood.png', 'Im_LeonardoDiCaprio.png', 'Im_GeorgeClooney.png', 'Im_BenStiller.png', 'Im_PatrickDempsey.png', 'Im_DanielRadcliffe.png', 'Im_BradPitt.png', 'Im_RobertPattinson.png', 'Im_RyanGosling.png'],diff,0,1.7750317999998515,23,71.42857142857143,
DILA0206,train,inv,120,pos120_id7_im14.bmp_pos120_id7_im15.bmp,['Im_KeanuReeves.png', 'Im_ElijahWood.png', 'Im_LeonardoDiCaprio.png', 'Im_GeorgeClooney.png', 'Im_BenStiller.png', 'Im_PatrickDempsey.png', 'Im_DanielRadcliffe.png', 'Im_BradPitt.png', 'Im_RobertPattinson.png', 'Im_RyanGosling.png'],same,1,0.4252115999988746,24,71.42857142857143,
DILA0206,train,inv,150,pos150_id2_im2.bmp_pos150_id6_im18.bmp,['Im_KeanuReeves.png', 'Im_ElijahWood.png', 'Im_LeonardoDiCaprio.png', 'Im_GeorgeClooney.png', 'Im_BenStiller.png', 'Im_PatrickDempsey.png', 'Im_DanielRadcliffe.png', 'Im_BradPitt.png', 'Im_RobertPattinson.png', 'Im_RyanGosling.png'],diff,1,0.6915089000031003,25,71.42857142857143,
DILA0206,train,inv,60,pos60_id19_im27.bmp_pos60_id19_im4.bmp,['Im_KeanuReeves.png', 'Im_ElijahWood.png', 'Im_LeonardoDiCaprio.png', 'Im_GeorgeClooney.png', 'Im_BenStiller.png', 'Im_PatrickDempsey.png', 'Im_DanielRadcliffe.png', 'Im_BradPitt.png', 'Im_RobertPattinson.png', 'Im_RyanGosling.png'],same,1,0.40845469999840134,26,71.42857142857143,
DILA0206,train,inv,fs,posfs_id20_im3.bmp_posfs_id20_im12.bmp,['Im_KeanuReeves.png', 'Im_ElijahWood.png', 'Im_LeonardoDiCaprio.png', 'Im_GeorgeClooney.png', 'Im_BenStiller.png', 'Im_PatrickDempsey.png', 'Im_DanielRadcliffe.png', 'Im_BradPitt.png', 'Im_RobertPattinson.png', 'Im_RyanGosling.png'],same,1,0.40837890000329935,27,71.42857142857143,
DILA0206,train,inv,120,pos120_id6_im12.bmp_pos120_id5_im1.bmp,['Im_KeanuReeves.png', 'Im_ElijahWood.png', 'Im_LeonardoDiCaprio.png', 'Im_GeorgeClooney.png', 'Im_BenStiller.png', 'Im_PatrickDempsey.png', 'Im_DanielRadcliffe.png', 'Im_BradPitt.png', 'Im_RobertPattinson.png', 'Im_RyanGosling.png'],same,0,0.4250666999978421,27,71.42857142857143,
DILA0206,train,inv,0,pos0_id3_im17.bmp_pos0_id3_im6.bmp,['Im_KeanuReeves.png', 'Im_ElijahWood.png', 'Im_LeonardoDiCaprio.png', 'Im_GeorgeClooney.png', 'Im_BenStiller.png', 'Im_PatrickDempsey.png', 'Im_DanielRadcliffe.png', 'Im_BradPitt.png', 'Im_RobertPattinson.png', 'Im_RyanGosling.png'],same,1,0.6917437000010977,28,71.42857142857143,
DILA0206,train,inv,fs,posfs_id19_im27.bmp_posfs_id13_im15.bmp,['Im_KeanuReeves.png', 'Im_ElijahWood.png', 'Im_LeonardoDiCaprio.png', 'Im_GeorgeClooney.png', 'Im_BenStiller.png', 'Im_PatrickDempsey.png', 'Im_DanielRadcliffe.png', 'Im_BradPitt.png', 'Im_RobertPattinson.png', 'Im_RyanGosling.png'],diff,1,0.7585125000005064,29,71.42857142857143,
DILA0206,train,inv,30,pos30_id6_im18.bmp_pos30_id2_im2.bmp,['Im_KeanuReeves.png', 'Im_ElijahWood.png', 'Im_LeonardoDiCaprio.png', 'Im_GeorgeClooney.png', 'Im_BenStiller.png', 'Im_PatrickDempsey.png', 'Im_DanielRadcliffe.png', 'Im_BradPitt.png', 'Im_RobertPattinson.png', 'Im_RyanGosling.png'],diff,1,1.0835339000004751,30,71.42857142857143,
DILA0206,train,inv,150,pos150_id3_im17.bmp_pos150_id3_im6.bmp,['Im_KeanuReeves.png', 'Im_ElijahWood.png', 'Im_LeonardoDiCaprio.png', 'Im_GeorgeClooney.png', 'Im_BenStiller.png', 'Im_PatrickDempsey.png', 'Im_DanielRadcliffe.png', 'Im_BradPitt.png', 'Im_RobertPattinson.png', 'Im_RyanGosling.png'],diff,0,0.4166981999987911,30,71.42857142857143,
DILA0206,train,inv,90,pos90_id3_im17.bmp_pos90_id11_im1.bmp,['Im_KeanuReeves.png', 'Im_ElijahWood.png', 'Im_LeonardoDiCaprio.png', 'Im_GeorgeClooney.png', 'Im_BenStiller.png', 'Im_PatrickDempsey.png', 'Im_DanielRadcliffe.png', 'Im_BradPitt.png', 'Im_RobertPattinson.png', 'Im_RyanGosling.png'],same,0,1.2583753999970213,30,71.42857142857143,
DILA0206,train,inv,0,pos0_id6_im18.bmp_pos0_id6_im19.bmp,['Im_KeanuReeves.png', 'Im_ElijahWood.png', 'Im_LeonardoDiCaprio.png', 'Im_GeorgeClooney.png', 'Im_BenStiller.png', 'Im_PatrickDempsey.png', 'Im_DanielRadcliffe.png', 'Im_BradPitt.png', 'Im_RobertPattinson.png', 'Im_RyanGosling.png'],diff,0,0.7001889999992272,30,71.42857142857143,
DILA0206,train,inv,60,pos60_id2_im2.bmp_pos60_id2_im16.bmp,['Im_KeanuReeves.png', 'Im_ElijahWood.png', 'Im_LeonardoDiCaprio.png', 'Im_GeorgeClooney.png', 'Im_BenStiller.png', 'Im_PatrickDempsey.png', 'Im_DanielRadcliffe.png', 'Im_BradPitt.png', 'Im_RobertPattinson.png', 'Im_RyanGosling.png'],diff,0,1.0750582000000577,30,71.42857142857143,
DILA0206,train,inv,90,pos90_id17_im8.bmp_pos90_id13_im10.bmp,['Im_KeanuReeves.png', 'Im_ElijahWood.png', 'Im_LeonardoDiCaprio.png', 'Im_GeorgeClooney.png', 'Im_BenStiller.png', 'Im_PatrickDempsey.png', 'Im_DanielRadcliffe.png', 'Im_BradPitt.png', 'Im_RobertPattinson.png', 'Im_RyanGosling.png'],same,0,0.8749063000032038,30,71.42857142857143,
DILA0206,train,inv,30,pos30_id7_im26.bmp_pos30_id7_im14.bmp,['Im_KeanuReeves.png', 'Im_ElijahWood.png', 'Im_LeonardoDiCaprio.png', 'Im_GeorgeClooney.png', 'Im_BenStiller.png', 'Im_PatrickDempsey.png', 'Im_DanielRadcliffe.png', 'Im_BradPitt.png', 'Im_RobertPattinson.png', 'Im_RyanGosling.png'],same,1,0.5331525999972655,31,71.42857142857143,
DILA0206,train,inv,90,pos90_id19_im4.bmp_pos90_id11_im10.bmp,['Im_KeanuReeves.png', 'Im_ElijahWood.png', 'Im_LeonardoDiCaprio.png', 'Im_GeorgeClooney.png', 'Im_BenStiller.png', 'Im_PatrickDempsey.png', 'Im_DanielRadcliffe.png', 'Im_BradPitt.png', 'Im_RobertPattinson.png', 'Im_RyanGosling.png'],none,1,4.4166595000024245,0,73.80952380952381,
DILA0206,train,inv,150,pos150_id2_im3.bmp_pos150_id5_im10.bmp,['Im_KeanuReeves.png', 'Im_ElijahWood.png', 'Im_LeonardoDiCaprio.png', 'Im_GeorgeClooney.png', 'Im_BenStiller.png', 'Im_PatrickDempsey.png', 'Im_DanielRadcliffe.png', 'Im_BradPitt.png', 'Im_RobertPattinson.png', 'Im_RyanGosling.png'],same,0,2.9082180999976117,0,73.80952380952381,
DILA0206,train,inv,30,pos30_id17_im9.bmp_pos30_id20_im30.bmp,['Im_KeanuReeves.png', 'Im_ElijahWood.png', 'Im_LeonardoDiCaprio.png', 'Im_GeorgeClooney.png', 'Im_BenStiller.png', 'Im_PatrickDempsey.png', 'Im_DanielRadcliffe.png', 'Im_BradPitt.png', 'Im_RobertPattinson.png', 'Im_RyanGosling.png'],diff,1,0.8668950999999652,1,73.80952380952381,
DILA0206,train,inv,150,pos150_id5_im1.bmp_pos150_id20_im12.bmp,['Im_KeanuReeves.png', 'Im_ElijahWood.png', 'Im_LeonardoDiCaprio.png', 'Im_GeorgeClooney.png', 'Im_BenStiller.png', 'Im_PatrickDempsey.png', 'Im_DanielRadcliffe.png', 'Im_BradPitt.png', 'Im_RobertPattinson.png', 'Im_RyanGosling.png'],diff,1,1.6834639999979117,2,73.80952380952381,
DILA0206,train,inv,30,pos30_id7_im14.bmp_pos30_id17_im9.bmp,['Im_KeanuReeves.png', 'Im_ElijahWood.png', 'Im_LeonardoDiCaprio.png', 'Im_GeorgeClooney.png', 'Im_BenStiller.png', 'Im_PatrickDempsey.png', 'Im_DanielRadcliffe.png', 'Im_BradPitt.png', 'Im_RobertPattinson.png', 'Im_RyanGosling.png'],diff,1,0.8918708000019251,3,73.80952380952381,
DILA0206,train,inv,60,pos60_id3_im17.bmp_pos60_id11_im1.bmp,['Im_KeanuReeves.png', 'Im_ElijahWood.png', 'Im_LeonardoDiCaprio.png', 'Im_GeorgeClooney.png', 'Im_BenStiller.png', 'Im_PatrickDempsey.png', 'Im_DanielRadcliffe.png', 'Im_BradPitt.png', 'Im_RobertPattinson.png', 'Im_RyanGosling.png'],same,0,0.5416556999989552,3,73.80952380952381,
DILA0206,train,inv,0,pos0_id17_im14.bmp_pos0_id17_im8.bmp,['Im_KeanuReeves.png', 'Im_ElijahWood.png', 'Im_LeonardoDiCaprio.png', 'Im_GeorgeClooney.png', 'Im_BenStiller.png', 'Im_PatrickDempsey.png', 'Im_DanielRadcliffe.png', 'Im_BradPitt.png', 'Im_RobertPattinson.png', 'Im_RyanGosling.png'],diff,0,0.7586456999997608,3,73.80952380952381,
DILA0206,train,inv,120,pos120_id5_im10.bmp_pos120_id2_im3.bmp,['Im_KeanuReeves.png', 'Im_ElijahWood.png', 'Im_LeonardoDiCaprio.png', 'Im_GeorgeClooney.png', 'Im_BenStiller.png', 'Im_PatrickDempsey.png', 'Im_DanielRadcliffe.png', 'Im_BradPitt.png', 'Im_RobertPattinson.png', 'Im_RyanGosling.png'],diff,1,0.45818470000085654,4,73.80952380952381,
DILA0206,train,inv,fs,posfs_id19_im8.bmp_posfs_id19_im27.bmp,['Im_KeanuReeves.png', 'Im_ElijahWood.png', 'Im_LeonardoDiCaprio.png', 'Im_GeorgeClooney.png', 'Im_BenStiller.png', 'Im_PatrickDempsey.png', 'Im_DanielRadcliffe.png', 'Im_BradPitt.png', 'Im_RobertPattinson.png', 'Im_RyanGosling.png'],same,1,0.7003457999999227,5,73.80952380952381,
DILA0206,train,inv,90,pos90_id13_im10.bmp_pos90_id20_im30.bmp,['Im_KeanuReeves.png', 'Im_ElijahWood.png', 'Im_LeonardoDiCaprio.png', 'Im_GeorgeClooney.png', 'Im_BenStiller.png', 'Im_PatrickDempsey.png', 'Im_DanielRadcliffe.png', 'Im_BradPitt.png', 'Im_RobertPattinson.png', 'Im_RyanGosling.png'],diff,1,0.9749125999987882,6,73.80952380952381,
DILA0206,train,inv,fs,posfs_id17_im9.bmp_posfs_id17_im8.bmp,['Im_KeanuReeves.png', 'Im_ElijahWood.png', 'Im_LeonardoDiCaprio.png', 'Im_GeorgeClooney.png', 'Im_BenStiller.png', 'Im_PatrickDempsey.png', 'Im_DanielRadcliffe.png', 'Im_BradPitt.png', 'Im_RobertPattinson.png', 'Im_RyanGosling.png'],same,1,0.4082282000017585,7,73.80952380952381,
DILA0206,train,inv,120,pos120_id11_im2.bmp_pos120_id11_im10.bmp,['Im_KeanuReeves.png', 'Im_ElijahWood.png', 'Im_LeonardoDiCaprio.png', 'Im_GeorgeClooney.png', 'Im_BenStiller.png', 'Im_PatrickDempsey.png', 'Im_DanielRadcliffe.png', 'Im_BradPitt.png', 'Im_RobertPattinson.png', 'Im_RyanGosling.png'],diff,0,0.42503280000164523,7,73.80952380952381,
DILA0206,train,inv,0,pos0_id7_im26.bmp_pos0_id7_im14.bmp,['Im_KeanuReeves.png', 'Im_ElijahWood.png', 'Im_LeonardoDiCaprio.png', 'Im_GeorgeClooney.png', 'Im_BenStiller.png', 'Im_PatrickDempsey.png', 'Im_DanielRadcliffe.png', 'Im_BradPitt.png', 'Im_RobertPattinson.png', 'Im_RyanGosling.png'],same,1,0.4083524999987276,8,73.80952380952381,
DILA0206,train,inv,60,pos60_id7_im15.bmp_pos60_id2_im16.bmp,['Im_KeanuReeves.png', 'Im_ElijahWood.png', 'Im_LeonardoDiCaprio.png', 'Im_GeorgeClooney.png', 'Im_BenStiller.png', 'Im_PatrickDempsey.png', 'Im_DanielRadcliffe.png', 'Im_BradPitt.png', 'Im_RobertPattinson.png', 'Im_RyanGosling.png'],diff,1,0.6000343999985489,9,73.80952380952381,
DILA0206,train,neg,90,neg90_id20_im12.bmp_neg90_id20_im3.bmp,['Im_KeanuReeves.png', 'Im_ElijahWood.png', 'Im_LeonardoDiCaprio.png', 'Im_GeorgeClooney.png', 'Im_BenStiller.png', 'Im_PatrickDempsey.png', 'Im_DanielRadcliffe.png', 'Im_BradPitt.png', 'Im_RobertPattinson.png', 'Im_RyanGosling.png'],same,1,0.4164430999990145,10,73.80952380952381,
DILA0206,train,neg,0,neg0_id19_im27.bmp_neg0_id19_im8.bmp,['Im_KeanuReeves.png', 'Im_ElijahWood.png', 'Im_LeonardoDiCaprio.png', 'Im_GeorgeClooney.png', 'Im_BenStiller.png', 'Im_PatrickDempsey.png', 'Im_DanielRadcliffe.png', 'Im_BradPitt.png', 'Im_RobertPattinson.png', 'Im_RyanGosling.png'],same,1,0.4497400000000198,11,73.80952380952381,
DILA0206,train,neg,60,neg60_id13_im15.bmp_neg60_id13_im29.bmp,['Im_KeanuReeves.png', 'Im_ElijahWood.png', 'Im_LeonardoDiCaprio.png', 'Im_GeorgeClooney.png', 'Im_BenStiller.png', 'Im_PatrickDempsey.png', 'Im_DanielRadcliffe.png', 'Im_BradPitt.png', 'Im_RobertPattinson.png', 'Im_RyanGosling.png'],diff,0,0.41670560000056867,11,73.80952380952381,
DILA0206,train,neg,150,neg150_id20_im3.bmp_neg150_id20_im12.bmp,['Im_KeanuReeves.png', 'Im_ElijahWood.png', 'Im_LeonardoDiCaprio.png', 'Im_GeorgeClooney.png', 'Im_BenStiller.png', 'Im_PatrickDempsey.png', 'Im_DanielRadcliffe.png', 'Im_BradPitt.png', 'Im_RobertPattinson.png', 'Im_RyanGosling.png'],same,1,0.4168000999998185,12,73.80952380952381,
DILA0206,train,neg,90,neg90_id17_im9.bmp_neg90_id17_im14.bmp,['Im_KeanuReeves.png', 'Im_ElijahWood.png', 'Im_LeonardoDiCaprio.png', 'Im_GeorgeClooney.png', 'Im_BenStiller.png', 'Im_PatrickDempsey.png', 'Im_DanielRadcliffe.png', 'Im_BradPitt.png', 'Im_RobertPattinson.png', 'Im_RyanGosling.png'],same,1,0.4167699999998149,13,73.80952380952381,
DILA0206,train,neg,fs,negfs_id5_im10.bmp_negfs_id5_im20.bmp,['Im_KeanuReeves.png', 'Im_ElijahWood.png', 'Im_LeonardoDiCaprio.png', 'Im_GeorgeClooney.png', 'Im_BenStiller.png', 'Im_PatrickDempsey.png', 'Im_DanielRadcliffe.png', 'Im_BradPitt.png', 'Im_RobertPattinson.png', 'Im_RyanGosling.png'],same,1,0.6835275999983423,14,73.80952380952381,
DILA0206,train,neg,fs,negfs_id11_im1.bmp_negfs_id11_im2.bmp,['Im_KeanuReeves.png', 'Im_ElijahWood.png', 'Im_LeonardoDiCaprio.png', 'Im_GeorgeClooney.png', 'Im_BenStiller.png', 'Im_PatrickDempsey.png', 'Im_DanielRadcliffe.png', 'Im_BradPitt.png', 'Im_RobertPattinson.png', 'Im_RyanGosling.png'],same,1,0.41627819999848725,15,73.80952380952381,
DILA0206,train,neg,150,neg150_id6_im19.bmp_neg150_id2_im2.bmp,['Im_KeanuReeves.png', 'Im_ElijahWood.png', 'Im_LeonardoDiCaprio.png', 'Im_GeorgeClooney.png', 'Im_BenStiller.png', 'Im_PatrickDempsey.png', 'Im_DanielRadcliffe.png', 'Im_BradPitt.png', 'Im_RobertPattinson.png', 'Im_RyanGosling.png'],diff,1,0.4083834000011848,16,73.80952380952381,
DILA0206,train,neg,0,neg0_id20_im12.bmp_neg0_id13_im15.bmp,['Im_KeanuReeves.png', 'Im_ElijahWood.png', 'Im_LeonardoDiCaprio.png', 'Im_GeorgeClooney.png', 'Im_BenStiller.png', 'Im_PatrickDempsey.png', 'Im_DanielRadcliffe.png', 'Im_BradPitt.png', 'Im_RobertPattinson.png', 'Im_RyanGosling.png'],diff,1,1.0916866000006848,17,73.80952380952381,
DILA0206,train,neg,120,neg120_id7_im14.bmp_neg120_id7_im26.bmp,['Im_KeanuReeves.png', 'Im_ElijahWood.png', 'Im_LeonardoDiCaprio.png', 'Im_GeorgeClooney.png', 'Im_BenStiller.png', 'Im_PatrickDempsey.png', 'Im_DanielRadcliffe.png', 'Im_BradPitt.png', 'Im_RobertPattinson.png', 'Im_RyanGosling.png'],same,1,0.4086158999998588,18,73.80952380952381,
DILA0206,train,neg,60,neg60_id3_im6.bmp_neg60_id3_im17.bmp,['Im_KeanuReeves.png', 'Im_ElijahWood.png', 'Im_LeonardoDiCaprio.png', 'Im_GeorgeClooney.png', 'Im_BenStiller.png', 'Im_PatrickDempsey.png', 'Im_DanielRadcliffe.png', 'Im_BradPitt.png', 'Im_RobertPattinson.png', 'Im_RyanGosling.png'],same,1,0.4168649000021105,19,73.80952380952381,
DILA0206,train,neg,30,neg30_id11_im10.bmp_neg30_id11_im1.bmp,['Im_KeanuReeves.png', 'Im_ElijahWood.png', 'Im_LeonardoDiCaprio.png', 'Im_GeorgeClooney.png', 'Im_BenStiller.png', 'Im_PatrickDempsey.png', 'Im_DanielRadcliffe.png', 'Im_BradPitt.png', 'Im_RobertPattinson.png', 'Im_RyanGosling.png'],same,1,0.44198400000095717,20,73.80952380952381,
DILA0206,train,neg,30,neg30_id19_im4.bmp_neg30_id19_im27.bmp,['Im_KeanuReeves.png', 'Im_ElijahWood.png', 'Im_LeonardoDiCaprio.png', 'Im_GeorgeClooney.png', 'Im_BenStiller.png', 'Im_PatrickDempsey.png', 'Im_DanielRadcliffe.png', 'Im_BradPitt.png', 'Im_RobertPattinson.png', 'Im_RyanGosling.png'],same,1,0.4084079999993264,21,73.80952380952381,
DILA0206,train,neg,120,neg120_id6_im12.bmp_neg120_id11_im1.bmp,['Im_KeanuReeves.png', 'Im_ElijahWood.png', 'Im_LeonardoDiCaprio.png', 'Im_GeorgeClooney.png', 'Im_BenStiller.png', 'Im_PatrickDempsey.png', 'Im_DanielRadcliffe.png', 'Im_BradPitt.png', 'Im_RobertPattinson.png', 'Im_RyanGosling.png'],diff,1,0.4665224999989732,22,73.80952380952381,
DILA0206,train,pos,120,pos120_id13_im29.bmp_pos120_id13_im10.bmp,['Im_KeanuReeves.png', 'Im_ElijahWood.png', 'Im_LeonardoDiCaprio.png', 'Im_GeorgeClooney.png', 'Im_BenStiller.png', 'Im_PatrickDempsey.png', 'Im_DanielRadcliffe.png', 'Im_BradPitt.png', 'Im_RobertPattinson.png', 'Im_RyanGosling.png'],same,1,0.4083886000007624,23,73.80952380952381,
DILA0206,train,pos,0,pos0_id2_im2.bmp_pos0_id2_im16.bmp,['Im_KeanuReeves.png', 'Im_ElijahWood.png', 'Im_LeonardoDiCaprio.png', 'Im_GeorgeClooney.png', 'Im_BenStiller.png', 'Im_PatrickDempsey.png', 'Im_DanielRadcliffe.png', 'Im_BradPitt.png', 'Im_RobertPattinson.png', 'Im_RyanGosling.png'],same,1,0.42509549999886076,24,73.80952380952381,
DILA0206,train,pos,150,pos150_id2_im3.bmp_pos150_id2_im16.bmp,['Im_KeanuReeves.png', 'Im_ElijahWood.png', 'Im_LeonardoDiCaprio.png', 'Im_GeorgeClooney.png', 'Im_BenStiller.png', 'Im_PatrickDempsey.png', 'Im_DanielRadcliffe.png', 'Im_BradPitt.png', 'Im_RobertPattinson.png', 'Im_RyanGosling.png'],same,1,0.4164217999968969,25,73.80952380952381,
DILA0206,train,pos,150,pos150_id13_im10.bmp_pos150_id20_im30.bmp,['Im_KeanuReeves.png', 'Im_ElijahWood.png', 'Im_LeonardoDiCaprio.png', 'Im_GeorgeClooney.png', 'Im_BenStiller.png', 'Im_PatrickDempsey.png', 'Im_DanielRadcliffe.png', 'Im_BradPitt.png', 'Im_RobertPattinson.png', 'Im_RyanGosling.png'],same,0,0.408406799997465,25,73.80952380952381,
DILA0206,train,pos,60,pos60_id20_im3.bmp_pos60_id20_im12.bmp,['Im_KeanuReeves.png', 'Im_ElijahWood.png', 'Im_LeonardoDiCaprio.png', 'Im_GeorgeClooney.png', 'Im_BenStiller.png', 'Im_PatrickDempsey.png', 'Im_DanielRadcliffe.png', 'Im_BradPitt.png', 'Im_RobertPattinson.png', 'Im_RyanGosling.png'],same,1,0.41670090000116033,26,73.80952380952381,
DILA0206,train,pos,90,pos90_id3_im8.bmp_pos90_id19_im27.bmp,['Im_KeanuReeves.png', 'Im_ElijahWood.png', 'Im_LeonardoDiCaprio.png', 'Im_GeorgeClooney.png', 'Im_BenStiller.png', 'Im_PatrickDempsey.png', 'Im_DanielRadcliffe.png', 'Im_BradPitt.png', 'Im_RobertPattinson.png', 'Im_RyanGosling.png'],diff,1,0.4083896999982244,27,73.80952380952381,
DILA0206,train,pos,90,pos90_id2_im2.bmp_pos90_id2_im3.bmp,['Im_KeanuReeves.png', 'Im_ElijahWood.png', 'Im_LeonardoDiCaprio.png', 'Im_GeorgeClooney.png', 'Im_BenStiller.png', 'Im_PatrickDempsey.png', 'Im_DanielRadcliffe.png', 'Im_BradPitt.png', 'Im_RobertPattinson.png', 'Im_RyanGosling.png'],same,1,0.4166449000003922,28,73.80952380952381,
DILA0206,train,pos,120,pos120_id6_im12.bmp_pos120_id6_im18.bmp,['Im_KeanuReeves.png', 'Im_ElijahWood.png', 'Im_LeonardoDiCaprio.png', 'Im_GeorgeClooney.png', 'Im_BenStiller.png', 'Im_PatrickDempsey.png', 'Im_DanielRadcliffe.png', 'Im_BradPitt.png', 'Im_RobertPattinson.png', 'Im_RyanGosling.png'],same,1,0.42504100000223843,29,73.80952380952381,
DILA0206,train,pos,60,pos60_id13_im29.bmp_pos60_id13_im15.bmp,['Im_KeanuReeves.png', 'Im_ElijahWood.png', 'Im_LeonardoDiCaprio.png', 'Im_GeorgeClooney.png', 'Im_BenStiller.png', 'Im_PatrickDempsey.png', 'Im_DanielRadcliffe.png', 'Im_BradPitt.png', 'Im_RobertPattinson.png', 'Im_RyanGosling.png'],same,1,0.4164667000004556,30,73.80952380952381,
DILA0206,train,pos,fs,posfs_id19_im8.bmp_posfs_id19_im4.bmp,['Im_KeanuReeves.png', 'Im_ElijahWood.png', 'Im_LeonardoDiCaprio.png', 'Im_GeorgeClooney.png', 'Im_BenStiller.png', 'Im_PatrickDempsey.png', 'Im_DanielRadcliffe.png', 'Im_BradPitt.png', 'Im_RobertPattinson.png', 'Im_RyanGosling.png'],same,1,0.4250696999988577,31,73.80952380952381,
DILA0206,train,pos,0,pos0_id5_im20.bmp_pos0_id5_im1.bmp,['Im_KeanuReeves.png', 'Im_ElijahWood.png', 'Im_LeonardoDiCaprio.png', 'Im_GeorgeClooney.png', 'Im_BenStiller.png', 'Im_PatrickDempsey.png', 'Im_DanielRadcliffe.png', 'Im_BradPitt.png', 'Im_RobertPattinson.png', 'Im_RyanGosling.png'],same,1,0.4165234000029159,32,73.80952380952381,
DILA0206,train,pos,30,pos30_id2_im3.bmp_pos30_id5_im10.bmp,['Im_KeanuReeves.png', 'Im_ElijahWood.png', 'Im_LeonardoDiCaprio.png', 'Im_GeorgeClooney.png', 'Im_BenStiller.png', 'Im_PatrickDempsey.png', 'Im_DanielRadcliffe.png', 'Im_BradPitt.png', 'Im_RobertPattinson.png', 'Im_RyanGosling.png'],diff,1,0.4250045999979193,33,73.80952380952381,
DILA0206,train,pos,fs,posfs_id20_im30.bmp_posfs_id13_im10.bmp,['Im_KeanuReeves.png', 'Im_ElijahWood.png', 'Im_LeonardoDiCaprio.png', 'Im_GeorgeClooney.png', 'Im_BenStiller.png', 'Im_PatrickDempsey.png', 'Im_DanielRadcliffe.png', 'Im_BradPitt.png', 'Im_RobertPattinson.png', 'Im_RyanGosling.png'],diff,1,0.4167078999998921,34,73.80952380952381,
DILA0206,train,pos,30,pos30_id11_im1.bmp_pos30_id6_im12.bmp,['Im_KeanuReeves.png', 'Im_ElijahWood.png', 'Im_LeonardoDiCaprio.png', 'Im_GeorgeClooney.png', 'Im_BenStiller.png', 'Im_PatrickDempsey.png', 'Im_DanielRadcliffe.png', 'Im_BradPitt.png', 'Im_RobertPattinson.png', 'Im_RyanGosling.png'],diff,1,0.4083028999993985,35,73.80952380952381,
