Sujet,Trial,Condition,Filter,Imname,Actor0,Actor1,Actor2,Actor3,Actor4,Actor5,Actor6,Actor7,Actor8,Actor9,Answer,Accu,RT,Score,Scoreperc, 
DILA0206,train,inv,fs,posfs_id6_im18.bmp_posfs_id6_im19.bmp,['Im_ElijahWood.png', 'Im_BradPitt.png', 'Im_KeanuReeves.png', 'Im_PatrickDempsey.png', 'Im_RyanGosling.png', 'Im_BenStiller.png', 'Im_GeorgeClooney.png', 'Im_RobertPattinson.png', 'Im_LeonardoDiCaprio.png', 'Im_DanielRadcliffe.png'],same,1,1.833350099999734,1,0,
DILA0206,train,inv,120,pos120_id20_im30.bmp_pos120_id20_im3.bmp,['Im_ElijahWood.png', 'Im_BradPitt.png', 'Im_KeanuReeves.png', 'Im_PatrickDempsey.png', 'Im_RyanGosling.png', 'Im_BenStiller.png', 'Im_GeorgeClooney.png', 'Im_RobertPattinson.png', 'Im_LeonardoDiCaprio.png', 'Im_DanielRadcliffe.png'],same,1,0.8420986000000994,2,0,
DILA0206,train,inv,fs,posfs_id17_im9.bmp_posfs_id17_im14.bmp,['Im_ElijahWood.png', 'Im_BradPitt.png', 'Im_KeanuReeves.png', 'Im_PatrickDempsey.png', 'Im_RyanGosling.png', 'Im_BenStiller.png', 'Im_GeorgeClooney.png', 'Im_RobertPattinson.png', 'Im_LeonardoDiCaprio.png', 'Im_DanielRadcliffe.png'],same,1,0.4167003999991721,3,0,
DILA0206,train,inv,90,pos90_id19_im4.bmp_pos90_id19_im27.bmp,['Im_ElijahWood.png', 'Im_BradPitt.png', 'Im_KeanuReeves.png', 'Im_PatrickDempsey.png', 'Im_RyanGosling.png', 'Im_BenStiller.png', 'Im_GeorgeClooney.png', 'Im_RobertPattinson.png', 'Im_LeonardoDiCaprio.png', 'Im_DanielRadcliffe.png'],diff,0,0.41683220000049914,3,0,
DILA0206,train,inv,150,pos150_id19_im27.bmp_pos150_id19_im8.bmp,['Im_ElijahWood.png', 'Im_BradPitt.png', 'Im_KeanuReeves.png', 'Im_PatrickDempsey.png', 'Im_RyanGosling.png', 'Im_BenStiller.png', 'Im_GeorgeClooney.png', 'Im_RobertPattinson.png', 'Im_LeonardoDiCaprio.png', 'Im_DanielRadcliffe.png'],same,1,0.44160329999976966,4,0,
DILA0206,train,inv,0,pos0_id3_im6.bmp_pos0_id11_im10.bmp,['Im_ElijahWood.png', 'Im_BradPitt.png', 'Im_KeanuReeves.png', 'Im_PatrickDempsey.png', 'Im_RyanGosling.png', 'Im_BenStiller.png', 'Im_GeorgeClooney.png', 'Im_RobertPattinson.png', 'Im_LeonardoDiCaprio.png', 'Im_DanielRadcliffe.png'],diff,1,0.5500924999996641,5,0,
DILA0206,train,inv,150,pos150_id6_im19.bmp_pos150_id6_im12.bmp,['Im_ElijahWood.png', 'Im_BradPitt.png', 'Im_KeanuReeves.png', 'Im_PatrickDempsey.png', 'Im_RyanGosling.png', 'Im_BenStiller.png', 'Im_GeorgeClooney.png', 'Im_RobertPattinson.png', 'Im_LeonardoDiCaprio.png', 'Im_DanielRadcliffe.png'],diff,0,0.4166308999992907,5,0,
DILA0206,train,inv,60,pos60_id19_im27.bmp_pos60_id13_im15.bmp,['Im_ElijahWood.png', 'Im_BradPitt.png', 'Im_KeanuReeves.png', 'Im_PatrickDempsey.png', 'Im_RyanGosling.png', 'Im_BenStiller.png', 'Im_GeorgeClooney.png', 'Im_RobertPattinson.png', 'Im_LeonardoDiCaprio.png', 'Im_DanielRadcliffe.png'],diff,1,0.4668762000001152,6,0,
DILA0206,train,inv,0,pos0_id5_im20.bmp_pos0_id5_im1.bmp,['Im_ElijahWood.png', 'Im_BradPitt.png', 'Im_KeanuReeves.png', 'Im_PatrickDempsey.png', 'Im_RyanGosling.png', 'Im_BenStiller.png', 'Im_GeorgeClooney.png', 'Im_RobertPattinson.png', 'Im_LeonardoDiCaprio.png', 'Im_DanielRadcliffe.png'],diff,0,0.4166552999995474,6,0,
DILA0206,train,inv,30,pos30_id2_im3.bmp_pos30_id2_im2.bmp,['Im_ElijahWood.png', 'Im_BradPitt.png', 'Im_KeanuReeves.png', 'Im_PatrickDempsey.png', 'Im_RyanGosling.png', 'Im_BenStiller.png', 'Im_GeorgeClooney.png', 'Im_RobertPattinson.png', 'Im_LeonardoDiCaprio.png', 'Im_DanielRadcliffe.png'],diff,0,0.4251132999997935,6,0,
DILA0206,train,inv,60,pos60_id7_im26.bmp_pos60_id7_im15.bmp,['Im_ElijahWood.png', 'Im_BradPitt.png', 'Im_KeanuReeves.png', 'Im_PatrickDempsey.png', 'Im_RyanGosling.png', 'Im_BenStiller.png', 'Im_GeorgeClooney.png', 'Im_RobertPattinson.png', 'Im_LeonardoDiCaprio.png', 'Im_DanielRadcliffe.png'],same,1,0.4165529999991122,7,0,
DILA0206,train,inv,90,pos90_id2_im16.bmp_pos90_id2_im3.bmp,['Im_ElijahWood.png', 'Im_BradPitt.png', 'Im_KeanuReeves.png', 'Im_PatrickDempsey.png', 'Im_RyanGosling.png', 'Im_BenStiller.png', 'Im_GeorgeClooney.png', 'Im_RobertPattinson.png', 'Im_LeonardoDiCaprio.png', 'Im_DanielRadcliffe.png'],same,1,0.4502302000000782,8,0,
DILA0206,train,inv,30,pos30_id17_im14.bmp_pos30_id2_im16.bmp,['Im_ElijahWood.png', 'Im_BradPitt.png', 'Im_KeanuReeves.png', 'Im_PatrickDempsey.png', 'Im_RyanGosling.png', 'Im_BenStiller.png', 'Im_GeorgeClooney.png', 'Im_RobertPattinson.png', 'Im_LeonardoDiCaprio.png', 'Im_DanielRadcliffe.png'],same,0,0.4257367999998678,8,0,
DILA0206,train,inv,120,pos120_id2_im16.bmp_pos120_id2_im3.bmp,['Im_ElijahWood.png', 'Im_BradPitt.png', 'Im_KeanuReeves.png', 'Im_PatrickDempsey.png', 'Im_RyanGosling.png', 'Im_BenStiller.png', 'Im_GeorgeClooney.png', 'Im_RobertPattinson.png', 'Im_LeonardoDiCaprio.png', 'Im_DanielRadcliffe.png'],same,1,0.42502609999974084,9,0,
DILA0206,train,neg,0,neg0_id11_im1.bmp_neg0_id11_im2.bmp,['Im_ElijahWood.png', 'Im_BradPitt.png', 'Im_KeanuReeves.png', 'Im_PatrickDempsey.png', 'Im_RyanGosling.png', 'Im_BenStiller.png', 'Im_GeorgeClooney.png', 'Im_RobertPattinson.png', 'Im_LeonardoDiCaprio.png', 'Im_DanielRadcliffe.png'],diff,0,0.4249311999992642,9,0,
DILA0206,train,neg,30,neg30_id17_im8.bmp_neg30_id17_im14.bmp,['Im_ElijahWood.png', 'Im_BradPitt.png', 'Im_KeanuReeves.png', 'Im_PatrickDempsey.png', 'Im_RyanGosling.png', 'Im_BenStiller.png', 'Im_GeorgeClooney.png', 'Im_RobertPattinson.png', 'Im_LeonardoDiCaprio.png', 'Im_DanielRadcliffe.png'],same,1,0.4333241000003909,10,0,
DILA0206,train,neg,150,neg150_id19_im8.bmp_neg150_id3_im6.bmp,['Im_ElijahWood.png', 'Im_BradPitt.png', 'Im_KeanuReeves.png', 'Im_PatrickDempsey.png', 'Im_RyanGosling.png', 'Im_BenStiller.png', 'Im_GeorgeClooney.png', 'Im_RobertPattinson.png', 'Im_LeonardoDiCaprio.png', 'Im_DanielRadcliffe.png'],diff,1,0.40842569999949774,11,0,
DILA0206,train,neg,fs,negfs_id11_im10.bmp_negfs_id19_im4.bmp,['Im_ElijahWood.png', 'Im_BradPitt.png', 'Im_KeanuReeves.png', 'Im_PatrickDempsey.png', 'Im_RyanGosling.png', 'Im_BenStiller.png', 'Im_GeorgeClooney.png', 'Im_RobertPattinson.png', 'Im_LeonardoDiCaprio.png', 'Im_DanielRadcliffe.png'],diff,1,0.4248129000006884,12,0,
DILA0206,train,neg,90,neg90_id5_im20.bmp_neg90_id19_im4.bmp,['Im_ElijahWood.png', 'Im_BradPitt.png', 'Im_KeanuReeves.png', 'Im_PatrickDempsey.png', 'Im_RyanGosling.png', 'Im_BenStiller.png', 'Im_GeorgeClooney.png', 'Im_RobertPattinson.png', 'Im_LeonardoDiCaprio.png', 'Im_DanielRadcliffe.png'],same,0,0.42506590000084543,12,0,
DILA0206,train,neg,60,neg60_id2_im16.bmp_neg60_id2_im3.bmp,['Im_ElijahWood.png', 'Im_BradPitt.png', 'Im_KeanuReeves.png', 'Im_PatrickDempsey.png', 'Im_RyanGosling.png', 'Im_BenStiller.png', 'Im_GeorgeClooney.png', 'Im_RobertPattinson.png', 'Im_LeonardoDiCaprio.png', 'Im_DanielRadcliffe.png'],same,1,0.4832016999989719,13,0,
DILA0206,train,neg,0,neg0_id7_im14.bmp_neg0_id7_im15.bmp,['Im_ElijahWood.png', 'Im_BradPitt.png', 'Im_KeanuReeves.png', 'Im_PatrickDempsey.png', 'Im_RyanGosling.png', 'Im_BenStiller.png', 'Im_GeorgeClooney.png', 'Im_RobertPattinson.png', 'Im_LeonardoDiCaprio.png', 'Im_DanielRadcliffe.png'],same,1,0.8251619999991817,14,0,
DILA0206,train,neg,150,neg150_id6_im19.bmp_neg150_id6_im12.bmp,['Im_ElijahWood.png', 'Im_BradPitt.png', 'Im_KeanuReeves.png', 'Im_PatrickDempsey.png', 'Im_RyanGosling.png', 'Im_BenStiller.png', 'Im_GeorgeClooney.png', 'Im_RobertPattinson.png', 'Im_LeonardoDiCaprio.png', 'Im_DanielRadcliffe.png'],same,1,0.40834799999902316,15,0,
DILA0206,train,neg,90,neg90_id11_im10.bmp_neg90_id19_im4.bmp,['Im_ElijahWood.png', 'Im_BradPitt.png', 'Im_KeanuReeves.png', 'Im_PatrickDempsey.png', 'Im_RyanGosling.png', 'Im_BenStiller.png', 'Im_GeorgeClooney.png', 'Im_RobertPattinson.png', 'Im_LeonardoDiCaprio.png', 'Im_DanielRadcliffe.png'],same,0,0.5500635000007605,15,0,
DILA0206,train,neg,120,neg120_id20_im3.bmp_neg120_id7_im15.bmp,['Im_ElijahWood.png', 'Im_BradPitt.png', 'Im_KeanuReeves.png', 'Im_PatrickDempsey.png', 'Im_RyanGosling.png', 'Im_BenStiller.png', 'Im_GeorgeClooney.png', 'Im_RobertPattinson.png', 'Im_LeonardoDiCaprio.png', 'Im_DanielRadcliffe.png'],diff,1,0.6748483999999735,16,0,
DILA0206,train,neg,60,neg60_id3_im6.bmp_neg60_id3_im8.bmp,['Im_ElijahWood.png', 'Im_BradPitt.png', 'Im_KeanuReeves.png', 'Im_PatrickDempsey.png', 'Im_RyanGosling.png', 'Im_BenStiller.png', 'Im_GeorgeClooney.png', 'Im_RobertPattinson.png', 'Im_LeonardoDiCaprio.png', 'Im_DanielRadcliffe.png'],same,1,0.4168897999988985,17,0,
DILA0206,train,neg,fs,negfs_id13_im15.bmp_negfs_id19_im27.bmp,['Im_ElijahWood.png', 'Im_BradPitt.png', 'Im_KeanuReeves.png', 'Im_PatrickDempsey.png', 'Im_RyanGosling.png', 'Im_BenStiller.png', 'Im_GeorgeClooney.png', 'Im_RobertPattinson.png', 'Im_LeonardoDiCaprio.png', 'Im_DanielRadcliffe.png'],diff,1,0.4333494000002247,18,0,
DILA0206,train,neg,120,neg120_id3_im8.bmp_neg120_id19_im27.bmp,['Im_ElijahWood.png', 'Im_BradPitt.png', 'Im_KeanuReeves.png', 'Im_PatrickDempsey.png', 'Im_RyanGosling.png', 'Im_BenStiller.png', 'Im_GeorgeClooney.png', 'Im_RobertPattinson.png', 'Im_LeonardoDiCaprio.png', 'Im_DanielRadcliffe.png'],same,0,0.5088106999992306,18,0,
DILA0206,train,neg,30,neg30_id13_im29.bmp_neg30_id13_im10.bmp,['Im_ElijahWood.png', 'Im_BradPitt.png', 'Im_KeanuReeves.png', 'Im_PatrickDempsey.png', 'Im_RyanGosling.png', 'Im_BenStiller.png', 'Im_GeorgeClooney.png', 'Im_RobertPattinson.png', 'Im_LeonardoDiCaprio.png', 'Im_DanielRadcliffe.png'],diff,0,0.8330293999988498,18,0,
DILA0206,train,pos,60,pos60_id5_im1.bmp_pos60_id5_im10.bmp,['Im_ElijahWood.png', 'Im_BradPitt.png', 'Im_KeanuReeves.png', 'Im_PatrickDempsey.png', 'Im_RyanGosling.png', 'Im_BenStiller.png', 'Im_GeorgeClooney.png', 'Im_RobertPattinson.png', 'Im_LeonardoDiCaprio.png', 'Im_DanielRadcliffe.png'],same,1,0.42498499999965134,19,0,
DILA0206,train,pos,150,pos150_id3_im17.bmp_pos150_id13_im29.bmp,['Im_ElijahWood.png', 'Im_BradPitt.png', 'Im_KeanuReeves.png', 'Im_PatrickDempsey.png', 'Im_RyanGosling.png', 'Im_BenStiller.png', 'Im_GeorgeClooney.png', 'Im_RobertPattinson.png', 'Im_LeonardoDiCaprio.png', 'Im_DanielRadcliffe.png'],same,0,0.4251386000014463,19,0,
DILA0206,train,pos,90,pos90_id19_im4.bmp_pos90_id11_im10.bmp,['Im_ElijahWood.png', 'Im_BradPitt.png', 'Im_KeanuReeves.png', 'Im_PatrickDempsey.png', 'Im_RyanGosling.png', 'Im_BenStiller.png', 'Im_GeorgeClooney.png', 'Im_RobertPattinson.png', 'Im_LeonardoDiCaprio.png', 'Im_DanielRadcliffe.png'],diff,1,0.41662189999988186,20,0,
DILA0206,train,pos,fs,posfs_id6_im19.bmp_posfs_id2_im2.bmp,['Im_ElijahWood.png', 'Im_BradPitt.png', 'Im_KeanuReeves.png', 'Im_PatrickDempsey.png', 'Im_RyanGosling.png', 'Im_BenStiller.png', 'Im_GeorgeClooney.png', 'Im_RobertPattinson.png', 'Im_LeonardoDiCaprio.png', 'Im_DanielRadcliffe.png'],diff,1,0.43348619999960647,21,0,
DILA0206,train,pos,0,pos0_id19_im27.bmp_pos0_id13_im15.bmp,['Im_ElijahWood.png', 'Im_BradPitt.png', 'Im_KeanuReeves.png', 'Im_PatrickDempsey.png', 'Im_RyanGosling.png', 'Im_BenStiller.png', 'Im_GeorgeClooney.png', 'Im_RobertPattinson.png', 'Im_LeonardoDiCaprio.png', 'Im_DanielRadcliffe.png'],diff,1,0.4167566000014631,22,0,
DILA0206,train,pos,30,pos30_id11_im10.bmp_pos30_id3_im6.bmp,['Im_ElijahWood.png', 'Im_BradPitt.png', 'Im_KeanuReeves.png', 'Im_PatrickDempsey.png', 'Im_RyanGosling.png', 'Im_BenStiller.png', 'Im_GeorgeClooney.png', 'Im_RobertPattinson.png', 'Im_LeonardoDiCaprio.png', 'Im_DanielRadcliffe.png'],diff,1,0.4332042999994883,23,0,
DILA0206,train,pos,150,pos150_id3_im8.bmp_pos150_id3_im6.bmp,['Im_ElijahWood.png', 'Im_BradPitt.png', 'Im_KeanuReeves.png', 'Im_PatrickDempsey.png', 'Im_RyanGosling.png', 'Im_BenStiller.png', 'Im_GeorgeClooney.png', 'Im_RobertPattinson.png', 'Im_LeonardoDiCaprio.png', 'Im_DanielRadcliffe.png'],same,1,0.42501959999935934,24,0,
DILA0206,train,pos,120,pos120_id7_im26.bmp_pos120_id7_im14.bmp,['Im_ElijahWood.png', 'Im_BradPitt.png', 'Im_KeanuReeves.png', 'Im_PatrickDempsey.png', 'Im_RyanGosling.png', 'Im_BenStiller.png', 'Im_GeorgeClooney.png', 'Im_RobertPattinson.png', 'Im_LeonardoDiCaprio.png', 'Im_DanielRadcliffe.png'],same,1,0.4251396999989083,25,0,
DILA0206,train,pos,60,pos60_id20_im30.bmp_pos60_id20_im12.bmp,['Im_ElijahWood.png', 'Im_BradPitt.png', 'Im_KeanuReeves.png', 'Im_PatrickDempsey.png', 'Im_RyanGosling.png', 'Im_BenStiller.png', 'Im_GeorgeClooney.png', 'Im_RobertPattinson.png', 'Im_LeonardoDiCaprio.png', 'Im_DanielRadcliffe.png'],same,1,0.4168343000001187,26,0,
DILA0206,train,pos,120,pos120_id6_im19.bmp_pos120_id2_im2.bmp,['Im_ElijahWood.png', 'Im_BradPitt.png', 'Im_KeanuReeves.png', 'Im_PatrickDempsey.png', 'Im_RyanGosling.png', 'Im_BenStiller.png', 'Im_GeorgeClooney.png', 'Im_RobertPattinson.png', 'Im_LeonardoDiCaprio.png', 'Im_DanielRadcliffe.png'],diff,1,0.4585982000007789,27,0,
DILA0206,train,pos,30,pos30_id3_im17.bmp_pos30_id3_im6.bmp,['Im_ElijahWood.png', 'Im_BradPitt.png', 'Im_KeanuReeves.png', 'Im_PatrickDempsey.png', 'Im_RyanGosling.png', 'Im_BenStiller.png', 'Im_GeorgeClooney.png', 'Im_RobertPattinson.png', 'Im_LeonardoDiCaprio.png', 'Im_DanielRadcliffe.png'],same,1,0.4167154999995546,28,0,
DILA0206,train,pos,90,pos90_id13_im15.bmp_pos90_id20_im12.bmp,['Im_ElijahWood.png', 'Im_BradPitt.png', 'Im_KeanuReeves.png', 'Im_PatrickDempsey.png', 'Im_RyanGosling.png', 'Im_BenStiller.png', 'Im_GeorgeClooney.png', 'Im_RobertPattinson.png', 'Im_LeonardoDiCaprio.png', 'Im_DanielRadcliffe.png'],diff,1,0.4250818000000436,29,0,
DILA0206,train,pos,0,pos0_id5_im10.bmp_pos0_id2_im3.bmp,['Im_ElijahWood.png', 'Im_BradPitt.png', 'Im_KeanuReeves.png', 'Im_PatrickDempsey.png', 'Im_RyanGosling.png', 'Im_BenStiller.png', 'Im_GeorgeClooney.png', 'Im_RobertPattinson.png', 'Im_LeonardoDiCaprio.png', 'Im_DanielRadcliffe.png'],diff,1,0.4163888999992196,30,0,
DILA0206,train,pos,fs,posfs_id20_im30.bmp_posfs_id20_im3.bmp,['Im_ElijahWood.png', 'Im_BradPitt.png', 'Im_KeanuReeves.png', 'Im_PatrickDempsey.png', 'Im_RyanGosling.png', 'Im_BenStiller.png', 'Im_GeorgeClooney.png', 'Im_RobertPattinson.png', 'Im_LeonardoDiCaprio.png', 'Im_DanielRadcliffe.png'],same,1,0.4167464000001928,31,0,
DILA0206,train,inv,150,pos150_id3_im8.bmp_pos150_id7_im26.bmp,['Im_ElijahWood.png', 'Im_BradPitt.png', 'Im_KeanuReeves.png', 'Im_PatrickDempsey.png', 'Im_RyanGosling.png', 'Im_BenStiller.png', 'Im_GeorgeClooney.png', 'Im_RobertPattinson.png', 'Im_LeonardoDiCaprio.png', 'Im_DanielRadcliffe.png'],same,0,0.4082374000008713,0,73.80952380952381,
DILA0206,train,inv,0,pos0_id19_im4.bmp_pos0_id19_im27.bmp,['Im_ElijahWood.png', 'Im_BradPitt.png', 'Im_KeanuReeves.png', 'Im_PatrickDempsey.png', 'Im_RyanGosling.png', 'Im_BenStiller.png', 'Im_GeorgeClooney.png', 'Im_RobertPattinson.png', 'Im_LeonardoDiCaprio.png', 'Im_DanielRadcliffe.png'],same,1,0.4167001000005257,1,73.80952380952381,
DILA0206,train,inv,fs,posfs_id11_im1.bmp_posfs_id11_im10.bmp,['Im_ElijahWood.png', 'Im_BradPitt.png', 'Im_KeanuReeves.png', 'Im_PatrickDempsey.png', 'Im_RyanGosling.png', 'Im_BenStiller.png', 'Im_GeorgeClooney.png', 'Im_RobertPattinson.png', 'Im_LeonardoDiCaprio.png', 'Im_DanielRadcliffe.png'],same,1,0.42509619999873394,2,73.80952380952381,
DILA0206,train,inv,150,pos150_id17_im9.bmp_pos150_id20_im30.bmp,['Im_ElijahWood.png', 'Im_BradPitt.png', 'Im_KeanuReeves.png', 'Im_PatrickDempsey.png', 'Im_RyanGosling.png', 'Im_BenStiller.png', 'Im_GeorgeClooney.png', 'Im_RobertPattinson.png', 'Im_LeonardoDiCaprio.png', 'Im_DanielRadcliffe.png'],diff,1,0.6751380999994581,3,73.80952380952381,
DILA0206,train,inv,60,pos60_id13_im10.bmp_pos60_id13_im29.bmp,['Im_ElijahWood.png', 'Im_BradPitt.png', 'Im_KeanuReeves.png', 'Im_PatrickDempsey.png', 'Im_RyanGosling.png', 'Im_BenStiller.png', 'Im_GeorgeClooney.png', 'Im_RobertPattinson.png', 'Im_LeonardoDiCaprio.png', 'Im_DanielRadcliffe.png'],same,1,0.40824069999871426,4,73.80952380952381,
DILA0206,train,inv,30,pos30_id20_im12.bmp_pos30_id20_im30.bmp,['Im_ElijahWood.png', 'Im_BradPitt.png', 'Im_KeanuReeves.png', 'Im_PatrickDempsey.png', 'Im_RyanGosling.png', 'Im_BenStiller.png', 'Im_GeorgeClooney.png', 'Im_RobertPattinson.png', 'Im_LeonardoDiCaprio.png', 'Im_DanielRadcliffe.png'],same,1,0.4168549999994866,5,73.80952380952381,
DILA0206,train,inv,120,pos120_id5_im20.bmp_pos120_id19_im8.bmp,['Im_ElijahWood.png', 'Im_BradPitt.png', 'Im_KeanuReeves.png', 'Im_PatrickDempsey.png', 'Im_RyanGosling.png', 'Im_BenStiller.png', 'Im_GeorgeClooney.png', 'Im_RobertPattinson.png', 'Im_LeonardoDiCaprio.png', 'Im_DanielRadcliffe.png'],diff,1,0.40835859999970126,6,73.80952380952381,
DILA0206,train,inv,120,pos120_id19_im4.bmp_pos120_id19_im27.bmp,['Im_ElijahWood.png', 'Im_BradPitt.png', 'Im_KeanuReeves.png', 'Im_PatrickDempsey.png', 'Im_RyanGosling.png', 'Im_BenStiller.png', 'Im_GeorgeClooney.png', 'Im_RobertPattinson.png', 'Im_LeonardoDiCaprio.png', 'Im_DanielRadcliffe.png'],same,1,0.44187549999878684,7,73.80952380952381,
DILA0206,train,inv,fs,posfs_id3_im17.bmp_posfs_id3_im8.bmp,['Im_ElijahWood.png', 'Im_BradPitt.png', 'Im_KeanuReeves.png', 'Im_PatrickDempsey.png', 'Im_RyanGosling.png', 'Im_BenStiller.png', 'Im_GeorgeClooney.png', 'Im_RobertPattinson.png', 'Im_LeonardoDiCaprio.png', 'Im_DanielRadcliffe.png'],same,1,0.4168315999995684,8,73.80952380952381,
DILA0206,train,inv,90,pos90_id17_im14.bmp_pos90_id17_im8.bmp,['Im_ElijahWood.png', 'Im_BradPitt.png', 'Im_KeanuReeves.png', 'Im_PatrickDempsey.png', 'Im_RyanGosling.png', 'Im_BenStiller.png', 'Im_GeorgeClooney.png', 'Im_RobertPattinson.png', 'Im_LeonardoDiCaprio.png', 'Im_DanielRadcliffe.png'],diff,0,0.4251397999996698,8,73.80952380952381,
DILA0206,train,inv,0,pos0_id13_im29.bmp_pos0_id11_im2.bmp,['Im_ElijahWood.png', 'Im_BradPitt.png', 'Im_KeanuReeves.png', 'Im_PatrickDempsey.png', 'Im_RyanGosling.png', 'Im_BenStiller.png', 'Im_GeorgeClooney.png', 'Im_RobertPattinson.png', 'Im_LeonardoDiCaprio.png', 'Im_DanielRadcliffe.png'],diff,1,0.41647910000028787,9,73.80952380952381,
DILA0206,train,inv,30,pos30_id2_im16.bmp_pos30_id7_im15.bmp,['Im_ElijahWood.png', 'Im_BradPitt.png', 'Im_KeanuReeves.png', 'Im_PatrickDempsey.png', 'Im_RyanGosling.png', 'Im_BenStiller.png', 'Im_GeorgeClooney.png', 'Im_RobertPattinson.png', 'Im_LeonardoDiCaprio.png', 'Im_DanielRadcliffe.png'],same,0,0.6669849999998405,9,73.80952380952381,
DILA0206,train,inv,90,pos90_id2_im16.bmp_pos90_id2_im2.bmp,['Im_ElijahWood.png', 'Im_BradPitt.png', 'Im_KeanuReeves.png', 'Im_PatrickDempsey.png', 'Im_RyanGosling.png', 'Im_BenStiller.png', 'Im_GeorgeClooney.png', 'Im_RobertPattinson.png', 'Im_LeonardoDiCaprio.png', 'Im_DanielRadcliffe.png'],diff,0,0.4917411999995238,9,73.80952380952381,
DILA0206,train,inv,60,pos60_id7_im14.bmp_pos60_id5_im10.bmp,['Im_ElijahWood.png', 'Im_BradPitt.png', 'Im_KeanuReeves.png', 'Im_PatrickDempsey.png', 'Im_RyanGosling.png', 'Im_BenStiller.png', 'Im_GeorgeClooney.png', 'Im_RobertPattinson.png', 'Im_LeonardoDiCaprio.png', 'Im_DanielRadcliffe.png'],diff,1,0.4166574999999284,10,73.80952380952381,
DILA0206,train,neg,150,neg150_id5_im1.bmp_neg150_id5_im10.bmp,['Im_ElijahWood.png', 'Im_BradPitt.png', 'Im_KeanuReeves.png', 'Im_PatrickDempsey.png', 'Im_RyanGosling.png', 'Im_BenStiller.png', 'Im_GeorgeClooney.png', 'Im_RobertPattinson.png', 'Im_LeonardoDiCaprio.png', 'Im_DanielRadcliffe.png'],same,1,0.40803650000088965,11,73.80952380952381,
DILA0206,train,neg,90,neg90_id13_im10.bmp_neg90_id20_im30.bmp,['Im_ElijahWood.png', 'Im_BradPitt.png', 'Im_KeanuReeves.png', 'Im_PatrickDempsey.png', 'Im_RyanGosling.png', 'Im_BenStiller.png', 'Im_GeorgeClooney.png', 'Im_RobertPattinson.png', 'Im_LeonardoDiCaprio.png', 'Im_DanielRadcliffe.png'],diff,1,0.4167588000000251,12,73.80952380952381,
DILA0206,train,neg,0,neg0_id17_im9.bmp_neg0_id20_im30.bmp,['Im_ElijahWood.png', 'Im_BradPitt.png', 'Im_KeanuReeves.png', 'Im_PatrickDempsey.png', 'Im_RyanGosling.png', 'Im_BenStiller.png', 'Im_GeorgeClooney.png', 'Im_RobertPattinson.png', 'Im_LeonardoDiCaprio.png', 'Im_DanielRadcliffe.png'],diff,1,0.4252071999999316,13,73.80952380952381,
DILA0206,train,neg,60,neg60_id3_im8.bmp_neg60_id19_im27.bmp,['Im_ElijahWood.png', 'Im_BradPitt.png', 'Im_KeanuReeves.png', 'Im_PatrickDempsey.png', 'Im_RyanGosling.png', 'Im_BenStiller.png', 'Im_GeorgeClooney.png', 'Im_RobertPattinson.png', 'Im_LeonardoDiCaprio.png', 'Im_DanielRadcliffe.png'],same,0,0.42508450000059383,13,73.80952380952381,
DILA0206,train,neg,30,neg30_id19_im8.bmp_neg30_id19_im4.bmp,['Im_ElijahWood.png', 'Im_BradPitt.png', 'Im_KeanuReeves.png', 'Im_PatrickDempsey.png', 'Im_RyanGosling.png', 'Im_BenStiller.png', 'Im_GeorgeClooney.png', 'Im_RobertPattinson.png', 'Im_LeonardoDiCaprio.png', 'Im_DanielRadcliffe.png'],same,1,0.4415062999996735,14,73.80952380952381,
DILA0206,train,neg,60,neg60_id20_im12.bmp_neg60_id5_im1.bmp,['Im_ElijahWood.png', 'Im_BradPitt.png', 'Im_KeanuReeves.png', 'Im_PatrickDempsey.png', 'Im_RyanGosling.png', 'Im_BenStiller.png', 'Im_GeorgeClooney.png', 'Im_RobertPattinson.png', 'Im_LeonardoDiCaprio.png', 'Im_DanielRadcliffe.png'],diff,1,0.41668180000124266,15,73.80952380952381,
DILA0206,train,neg,120,neg120_id11_im2.bmp_neg120_id13_im29.bmp,['Im_ElijahWood.png', 'Im_BradPitt.png', 'Im_KeanuReeves.png', 'Im_PatrickDempsey.png', 'Im_RyanGosling.png', 'Im_BenStiller.png', 'Im_GeorgeClooney.png', 'Im_RobertPattinson.png', 'Im_LeonardoDiCaprio.png', 'Im_DanielRadcliffe.png'],diff,1,0.45835540000007313,16,73.80952380952381,
DILA0206,train,neg,30,neg30_id19_im27.bmp_neg30_id13_im15.bmp,['Im_ElijahWood.png', 'Im_BradPitt.png', 'Im_KeanuReeves.png', 'Im_PatrickDempsey.png', 'Im_RyanGosling.png', 'Im_BenStiller.png', 'Im_GeorgeClooney.png', 'Im_RobertPattinson.png', 'Im_LeonardoDiCaprio.png', 'Im_DanielRadcliffe.png'],diff,1,0.5416754000016226,17,73.80952380952381,
DILA0206,train,neg,150,neg150_id13_im10.bmp_neg150_id13_im15.bmp,['Im_ElijahWood.png', 'Im_BradPitt.png', 'Im_KeanuReeves.png', 'Im_PatrickDempsey.png', 'Im_RyanGosling.png', 'Im_BenStiller.png', 'Im_GeorgeClooney.png', 'Im_RobertPattinson.png', 'Im_LeonardoDiCaprio.png', 'Im_DanielRadcliffe.png'],same,1,0.424887299999682,18,73.80952380952381,
DILA0206,train,neg,120,neg120_id11_im2.bmp_neg120_id11_im10.bmp,['Im_ElijahWood.png', 'Im_BradPitt.png', 'Im_KeanuReeves.png', 'Im_PatrickDempsey.png', 'Im_RyanGosling.png', 'Im_BenStiller.png', 'Im_GeorgeClooney.png', 'Im_RobertPattinson.png', 'Im_LeonardoDiCaprio.png', 'Im_DanielRadcliffe.png'],same,1,0.4251953000002686,19,73.80952380952381,
DILA0206,train,neg,90,neg90_id6_im18.bmp_neg90_id6_im19.bmp,['Im_ElijahWood.png', 'Im_BradPitt.png', 'Im_KeanuReeves.png', 'Im_PatrickDempsey.png', 'Im_RyanGosling.png', 'Im_BenStiller.png', 'Im_GeorgeClooney.png', 'Im_RobertPattinson.png', 'Im_LeonardoDiCaprio.png', 'Im_DanielRadcliffe.png'],same,1,0.41660630000114907,20,73.80952380952381,
DILA0206,train,neg,fs,negfs_id6_im19.bmp_negfs_id17_im14.bmp,['Im_ElijahWood.png', 'Im_BradPitt.png', 'Im_KeanuReeves.png', 'Im_PatrickDempsey.png', 'Im_RyanGosling.png', 'Im_BenStiller.png', 'Im_GeorgeClooney.png', 'Im_RobertPattinson.png', 'Im_LeonardoDiCaprio.png', 'Im_DanielRadcliffe.png'],diff,1,0.508313399999679,21,73.80952380952381,
DILA0206,train,neg,fs,negfs_id7_im15.bmp_negfs_id7_im26.bmp,['Im_ElijahWood.png', 'Im_BradPitt.png', 'Im_KeanuReeves.png', 'Im_PatrickDempsey.png', 'Im_RyanGosling.png', 'Im_BenStiller.png', 'Im_GeorgeClooney.png', 'Im_RobertPattinson.png', 'Im_LeonardoDiCaprio.png', 'Im_DanielRadcliffe.png'],same,1,0.41661959999873943,22,73.80952380952381,
DILA0206,train,neg,0,neg0_id13_im10.bmp_neg0_id17_im8.bmp,['Im_ElijahWood.png', 'Im_BradPitt.png', 'Im_KeanuReeves.png', 'Im_PatrickDempsey.png', 'Im_RyanGosling.png', 'Im_BenStiller.png', 'Im_GeorgeClooney.png', 'Im_RobertPattinson.png', 'Im_LeonardoDiCaprio.png', 'Im_DanielRadcliffe.png'],same,0,0.4166722000009031,22,73.80952380952381,
DILA0206,train,pos,120,pos120_id7_im14.bmp_pos120_id17_im9.bmp,['Im_ElijahWood.png', 'Im_BradPitt.png', 'Im_KeanuReeves.png', 'Im_PatrickDempsey.png', 'Im_RyanGosling.png', 'Im_BenStiller.png', 'Im_GeorgeClooney.png', 'Im_RobertPattinson.png', 'Im_LeonardoDiCaprio.png', 'Im_DanielRadcliffe.png'],diff,1,0.4084027999997488,23,73.80952380952381,
DILA0206,train,pos,150,pos150_id20_im12.bmp_pos150_id13_im15.bmp,['Im_ElijahWood.png', 'Im_BradPitt.png', 'Im_KeanuReeves.png', 'Im_PatrickDempsey.png', 'Im_RyanGosling.png', 'Im_BenStiller.png', 'Im_GeorgeClooney.png', 'Im_RobertPattinson.png', 'Im_LeonardoDiCaprio.png', 'Im_DanielRadcliffe.png'],diff,1,0.4167347999991762,24,73.80952380952381,
DILA0206,train,pos,60,pos60_id20_im3.bmp_pos60_id20_im30.bmp,['Im_ElijahWood.png', 'Im_BradPitt.png', 'Im_KeanuReeves.png', 'Im_PatrickDempsey.png', 'Im_RyanGosling.png', 'Im_BenStiller.png', 'Im_GeorgeClooney.png', 'Im_RobertPattinson.png', 'Im_LeonardoDiCaprio.png', 'Im_DanielRadcliffe.png'],same,1,0.41683970000121917,25,73.80952380952381,
DILA0206,train,pos,60,pos60_id20_im30.bmp_pos60_id17_im9.bmp,['Im_ElijahWood.png', 'Im_BradPitt.png', 'Im_KeanuReeves.png', 'Im_PatrickDempsey.png', 'Im_RyanGosling.png', 'Im_BenStiller.png', 'Im_GeorgeClooney.png', 'Im_RobertPattinson.png', 'Im_LeonardoDiCaprio.png', 'Im_DanielRadcliffe.png'],diff,1,0.42502760000024864,26,73.80952380952381,
DILA0206,train,pos,120,pos120_id3_im6.bmp_pos120_id3_im8.bmp,['Im_ElijahWood.png', 'Im_BradPitt.png', 'Im_KeanuReeves.png', 'Im_PatrickDempsey.png', 'Im_RyanGosling.png', 'Im_BenStiller.png', 'Im_GeorgeClooney.png', 'Im_RobertPattinson.png', 'Im_LeonardoDiCaprio.png', 'Im_DanielRadcliffe.png'],same,1,0.40854790000048524,27,73.80952380952381,
DILA0206,train,pos,0,pos0_id5_im10.bmp_pos0_id5_im20.bmp,['Im_ElijahWood.png', 'Im_BradPitt.png', 'Im_KeanuReeves.png', 'Im_PatrickDempsey.png', 'Im_RyanGosling.png', 'Im_BenStiller.png', 'Im_GeorgeClooney.png', 'Im_RobertPattinson.png', 'Im_LeonardoDiCaprio.png', 'Im_DanielRadcliffe.png'],same,1,0.47461529999964114,28,73.80952380952381,
DILA0206,train,pos,fs,posfs_id19_im27.bmp_posfs_id13_im15.bmp,['Im_ElijahWood.png', 'Im_BradPitt.png', 'Im_KeanuReeves.png', 'Im_PatrickDempsey.png', 'Im_RyanGosling.png', 'Im_BenStiller.png', 'Im_GeorgeClooney.png', 'Im_RobertPattinson.png', 'Im_LeonardoDiCaprio.png', 'Im_DanielRadcliffe.png'],diff,1,0.40843820000009146,29,73.80952380952381,
DILA0206,train,pos,fs,posfs_id3_im8.bmp_posfs_id3_im6.bmp,['Im_ElijahWood.png', 'Im_BradPitt.png', 'Im_KeanuReeves.png', 'Im_PatrickDempsey.png', 'Im_RyanGosling.png', 'Im_BenStiller.png', 'Im_GeorgeClooney.png', 'Im_RobertPattinson.png', 'Im_LeonardoDiCaprio.png', 'Im_DanielRadcliffe.png'],same,1,0.41669700000056764,30,73.80952380952381,
DILA0206,train,pos,90,pos90_id13_im15.bmp_pos90_id13_im29.bmp,['Im_ElijahWood.png', 'Im_BradPitt.png', 'Im_KeanuReeves.png', 'Im_PatrickDempsey.png', 'Im_RyanGosling.png', 'Im_BenStiller.png', 'Im_GeorgeClooney.png', 'Im_RobertPattinson.png', 'Im_LeonardoDiCaprio.png', 'Im_DanielRadcliffe.png'],same,1,0.41688279999834776,31,73.80952380952381,
DILA0206,train,pos,90,pos90_id7_im14.bmp_pos90_id7_im26.bmp,['Im_ElijahWood.png', 'Im_BradPitt.png', 'Im_KeanuReeves.png', 'Im_PatrickDempsey.png', 'Im_RyanGosling.png', 'Im_BenStiller.png', 'Im_GeorgeClooney.png', 'Im_RobertPattinson.png', 'Im_LeonardoDiCaprio.png', 'Im_DanielRadcliffe.png'],same,1,0.41666369999984454,32,73.80952380952381,
DILA0206,train,pos,0,pos0_id11_im10.bmp_pos0_id11_im1.bmp,['Im_ElijahWood.png', 'Im_BradPitt.png', 'Im_KeanuReeves.png', 'Im_PatrickDempsey.png', 'Im_RyanGosling.png', 'Im_BenStiller.png', 'Im_GeorgeClooney.png', 'Im_RobertPattinson.png', 'Im_LeonardoDiCaprio.png', 'Im_DanielRadcliffe.png'],same,1,0.42507499999919673,33,73.80952380952381,
DILA0206,train,pos,30,pos30_id17_im14.bmp_pos30_id17_im9.bmp,['Im_ElijahWood.png', 'Im_BradPitt.png', 'Im_KeanuReeves.png', 'Im_PatrickDempsey.png', 'Im_RyanGosling.png', 'Im_BenStiller.png', 'Im_GeorgeClooney.png', 'Im_RobertPattinson.png', 'Im_LeonardoDiCaprio.png', 'Im_DanielRadcliffe.png'],same,1,0.4166359000009834,34,73.80952380952381,
DILA0206,train,pos,30,pos30_id19_im27.bmp_pos30_id19_im8.bmp,['Im_ElijahWood.png', 'Im_BradPitt.png', 'Im_KeanuReeves.png', 'Im_PatrickDempsey.png', 'Im_RyanGosling.png', 'Im_BenStiller.png', 'Im_GeorgeClooney.png', 'Im_RobertPattinson.png', 'Im_LeonardoDiCaprio.png', 'Im_DanielRadcliffe.png'],same,1,0.42508920000000217,35,73.80952380952381,
DILA0206,train,pos,150,pos150_id2_im3.bmp_pos150_id2_im2.bmp,['Im_ElijahWood.png', 'Im_BradPitt.png', 'Im_KeanuReeves.png', 'Im_PatrickDempsey.png', 'Im_RyanGosling.png', 'Im_BenStiller.png', 'Im_GeorgeClooney.png', 'Im_RobertPattinson.png', 'Im_LeonardoDiCaprio.png', 'Im_DanielRadcliffe.png'],same,1,0.40847759999996924,36,73.80952380952381,
DILA0206,train,inv,90,pos90_id2_im16.bmp_pos90_id7_im15.bmp,['Im_ElijahWood.png', 'Im_BradPitt.png', 'Im_KeanuReeves.png', 'Im_PatrickDempsey.png', 'Im_RyanGosling.png', 'Im_BenStiller.png', 'Im_GeorgeClooney.png', 'Im_RobertPattinson.png', 'Im_LeonardoDiCaprio.png', 'Im_DanielRadcliffe.png'],same,0,0.43335170000136713,0,85.71428571428571,
DILA0206,train,inv,fs,posfs_id20_im30.bmp_posfs_id20_im12.bmp,['Im_ElijahWood.png', 'Im_BradPitt.png', 'Im_KeanuReeves.png', 'Im_PatrickDempsey.png', 'Im_RyanGosling.png', 'Im_BenStiller.png', 'Im_GeorgeClooney.png', 'Im_RobertPattinson.png', 'Im_LeonardoDiCaprio.png', 'Im_DanielRadcliffe.png'],same,1,0.4251027000009344,1,85.71428571428571,
DILA0206,train,inv,0,pos0_id17_im14.bmp_pos0_id6_im19.bmp,['Im_ElijahWood.png', 'Im_BradPitt.png', 'Im_KeanuReeves.png', 'Im_PatrickDempsey.png', 'Im_RyanGosling.png', 'Im_BenStiller.png', 'Im_GeorgeClooney.png', 'Im_RobertPattinson.png', 'Im_LeonardoDiCaprio.png', 'Im_DanielRadcliffe.png'],same,0,0.5083601999995153,1,85.71428571428571,
DILA0206,train,inv,150,pos150_id7_im14.bmp_pos150_id17_im9.bmp,['Im_ElijahWood.png', 'Im_BradPitt.png', 'Im_KeanuReeves.png', 'Im_PatrickDempsey.png', 'Im_RyanGosling.png', 'Im_BenStiller.png', 'Im_GeorgeClooney.png', 'Im_RobertPattinson.png', 'Im_LeonardoDiCaprio.png', 'Im_DanielRadcliffe.png'],diff,1,0.4332694000004267,2,85.71428571428571,
DILA0206,train,inv,120,pos120_id6_im19.bmp_pos120_id17_im14.bmp,['Im_ElijahWood.png', 'Im_BradPitt.png', 'Im_KeanuReeves.png', 'Im_PatrickDempsey.png', 'Im_RyanGosling.png', 'Im_BenStiller.png', 'Im_GeorgeClooney.png', 'Im_RobertPattinson.png', 'Im_LeonardoDiCaprio.png', 'Im_DanielRadcliffe.png'],diff,1,0.6002838000003976,3,85.71428571428571,
DILA0206,train,inv,30,pos30_id5_im20.bmp_pos30_id19_im8.bmp,['Im_ElijahWood.png', 'Im_BradPitt.png', 'Im_KeanuReeves.png', 'Im_PatrickDempsey.png', 'Im_RyanGosling.png', 'Im_BenStiller.png', 'Im_GeorgeClooney.png', 'Im_RobertPattinson.png', 'Im_LeonardoDiCaprio.png', 'Im_DanielRadcliffe.png'],same,0,0.6503998999996838,3,85.71428571428571,
DILA0206,train,inv,90,pos90_id20_im12.bmp_pos90_id13_im15.bmp,['Im_ElijahWood.png', 'Im_BradPitt.png', 'Im_KeanuReeves.png', 'Im_PatrickDempsey.png', 'Im_RyanGosling.png', 'Im_BenStiller.png', 'Im_GeorgeClooney.png', 'Im_RobertPattinson.png', 'Im_LeonardoDiCaprio.png', 'Im_DanielRadcliffe.png'],same,0,0.5581917999988946,3,85.71428571428571,
DILA0206,train,inv,150,pos150_id3_im17.bmp_pos150_id3_im8.bmp,['Im_ElijahWood.png', 'Im_BradPitt.png', 'Im_KeanuReeves.png', 'Im_PatrickDempsey.png', 'Im_RyanGosling.png', 'Im_BenStiller.png', 'Im_GeorgeClooney.png', 'Im_RobertPattinson.png', 'Im_LeonardoDiCaprio.png', 'Im_DanielRadcliffe.png'],same,1,0.6253271000005043,4,85.71428571428571,
DILA0206,train,inv,30,pos30_id2_im2.bmp_pos30_id2_im16.bmp,['Im_ElijahWood.png', 'Im_BradPitt.png', 'Im_KeanuReeves.png', 'Im_PatrickDempsey.png', 'Im_RyanGosling.png', 'Im_BenStiller.png', 'Im_GeorgeClooney.png', 'Im_RobertPattinson.png', 'Im_LeonardoDiCaprio.png', 'Im_DanielRadcliffe.png'],diff,0,0.6919760000000679,4,85.71428571428571,
DILA0206,train,inv,fs,posfs_id3_im17.bmp_posfs_id3_im6.bmp,['Im_ElijahWood.png', 'Im_BradPitt.png', 'Im_KeanuReeves.png', 'Im_PatrickDempsey.png', 'Im_RyanGosling.png', 'Im_BenStiller.png', 'Im_GeorgeClooney.png', 'Im_RobertPattinson.png', 'Im_LeonardoDiCaprio.png', 'Im_DanielRadcliffe.png'],same,1,0.42495379999854777,5,85.71428571428571,
DILA0206,train,inv,60,pos60_id2_im3.bmp_pos60_id5_im10.bmp,['Im_ElijahWood.png', 'Im_BradPitt.png', 'Im_KeanuReeves.png', 'Im_PatrickDempsey.png', 'Im_RyanGosling.png', 'Im_BenStiller.png', 'Im_GeorgeClooney.png', 'Im_RobertPattinson.png', 'Im_LeonardoDiCaprio.png', 'Im_DanielRadcliffe.png'],diff,1,0.4084832999997161,6,85.71428571428571,
DILA0206,train,inv,60,pos60_id6_im19.bmp_pos60_id2_im2.bmp,['Im_ElijahWood.png', 'Im_BradPitt.png', 'Im_KeanuReeves.png', 'Im_PatrickDempsey.png', 'Im_RyanGosling.png', 'Im_BenStiller.png', 'Im_GeorgeClooney.png', 'Im_RobertPattinson.png', 'Im_LeonardoDiCaprio.png', 'Im_DanielRadcliffe.png'],diff,1,0.41652570000042033,7,85.71428571428571,
DILA0206,train,inv,0,pos0_id7_im26.bmp_pos0_id20_im3.bmp,['Im_ElijahWood.png', 'Im_BradPitt.png', 'Im_KeanuReeves.png', 'Im_PatrickDempsey.png', 'Im_RyanGosling.png', 'Im_BenStiller.png', 'Im_GeorgeClooney.png', 'Im_RobertPattinson.png', 'Im_LeonardoDiCaprio.png', 'Im_DanielRadcliffe.png'],diff,1,0.41680389999964973,8,85.71428571428571,
DILA0206,train,inv,120,pos120_id2_im16.bmp_pos120_id7_im15.bmp,['Im_ElijahWood.png', 'Im_BradPitt.png', 'Im_KeanuReeves.png', 'Im_PatrickDempsey.png', 'Im_RyanGosling.png', 'Im_BenStiller.png', 'Im_GeorgeClooney.png', 'Im_RobertPattinson.png', 'Im_LeonardoDiCaprio.png', 'Im_DanielRadcliffe.png'],same,0,0.5825031999993371,8,85.71428571428571,
DILA0206,train,pos,120,pos120_id17_im9.bmp_pos120_id20_im30.bmp,['Im_ElijahWood.png', 'Im_BradPitt.png', 'Im_KeanuReeves.png', 'Im_PatrickDempsey.png', 'Im_RyanGosling.png', 'Im_BenStiller.png', 'Im_GeorgeClooney.png', 'Im_RobertPattinson.png', 'Im_LeonardoDiCaprio.png', 'Im_DanielRadcliffe.png'],diff,1,0.41678739999952086,9,85.71428571428571,
DILA0206,train,pos,fs,posfs_id7_im26.bmp_posfs_id20_im3.bmp,['Im_ElijahWood.png', 'Im_BradPitt.png', 'Im_KeanuReeves.png', 'Im_PatrickDempsey.png', 'Im_RyanGosling.png', 'Im_BenStiller.png', 'Im_GeorgeClooney.png', 'Im_RobertPattinson.png', 'Im_LeonardoDiCaprio.png', 'Im_DanielRadcliffe.png'],same,0,0.4252798999987135,9,85.71428571428571,
DILA0206,train,pos,30,pos30_id7_im15.bmp_pos30_id2_im16.bmp,['Im_ElijahWood.png', 'Im_BradPitt.png', 'Im_KeanuReeves.png', 'Im_PatrickDempsey.png', 'Im_RyanGosling.png', 'Im_BenStiller.png', 'Im_GeorgeClooney.png', 'Im_RobertPattinson.png', 'Im_LeonardoDiCaprio.png', 'Im_DanielRadcliffe.png'],same,0,0.424944600001254,9,85.71428571428571,
DILA0206,train,pos,30,pos30_id20_im12.bmp_pos30_id13_im15.bmp,['Im_ElijahWood.png', 'Im_BradPitt.png', 'Im_KeanuReeves.png', 'Im_PatrickDempsey.png', 'Im_RyanGosling.png', 'Im_BenStiller.png', 'Im_GeorgeClooney.png', 'Im_RobertPattinson.png', 'Im_LeonardoDiCaprio.png', 'Im_DanielRadcliffe.png'],diff,1,0.4166322000000946,10,85.71428571428571,
DILA0206,train,pos,fs,posfs_id11_im1.bmp_posfs_id11_im10.bmp,['Im_ElijahWood.png', 'Im_BradPitt.png', 'Im_KeanuReeves.png', 'Im_PatrickDempsey.png', 'Im_RyanGosling.png', 'Im_BenStiller.png', 'Im_GeorgeClooney.png', 'Im_RobertPattinson.png', 'Im_LeonardoDiCaprio.png', 'Im_DanielRadcliffe.png'],same,1,0.425019299998894,11,85.71428571428571,
DILA0206,train,pos,90,pos90_id11_im2.bmp_pos90_id2_im3.bmp,['Im_ElijahWood.png', 'Im_BradPitt.png', 'Im_KeanuReeves.png', 'Im_PatrickDempsey.png', 'Im_RyanGosling.png', 'Im_BenStiller.png', 'Im_GeorgeClooney.png', 'Im_RobertPattinson.png', 'Im_LeonardoDiCaprio.png', 'Im_DanielRadcliffe.png'],diff,1,0.4168424999988929,12,85.71428571428571,
DILA0206,train,pos,150,pos150_id6_im12.bmp_pos150_id11_im1.bmp,['Im_ElijahWood.png', 'Im_BradPitt.png', 'Im_KeanuReeves.png', 'Im_PatrickDempsey.png', 'Im_RyanGosling.png', 'Im_BenStiller.png', 'Im_GeorgeClooney.png', 'Im_RobertPattinson.png', 'Im_LeonardoDiCaprio.png', 'Im_DanielRadcliffe.png'],diff,1,0.41667820000111533,13,85.71428571428571,
DILA0206,train,pos,0,pos0_id7_im26.bmp_pos0_id3_im8.bmp,['Im_ElijahWood.png', 'Im_BradPitt.png', 'Im_KeanuReeves.png', 'Im_PatrickDempsey.png', 'Im_RyanGosling.png', 'Im_BenStiller.png', 'Im_GeorgeClooney.png', 'Im_RobertPattinson.png', 'Im_LeonardoDiCaprio.png', 'Im_DanielRadcliffe.png'],diff,1,0.9083011000002443,14,85.71428571428571,
DILA0206,train,pos,60,pos60_id7_im14.bmp_pos60_id7_im26.bmp,['Im_ElijahWood.png', 'Im_BradPitt.png', 'Im_KeanuReeves.png', 'Im_PatrickDempsey.png', 'Im_RyanGosling.png', 'Im_BenStiller.png', 'Im_GeorgeClooney.png', 'Im_RobertPattinson.png', 'Im_LeonardoDiCaprio.png', 'Im_DanielRadcliffe.png'],same,1,0.42496940000091854,15,85.71428571428571,
DILA0206,train,pos,150,pos150_id7_im15.bmp_pos150_id7_im14.bmp,['Im_ElijahWood.png', 'Im_BradPitt.png', 'Im_KeanuReeves.png', 'Im_PatrickDempsey.png', 'Im_RyanGosling.png', 'Im_BenStiller.png', 'Im_GeorgeClooney.png', 'Im_RobertPattinson.png', 'Im_LeonardoDiCaprio.png', 'Im_DanielRadcliffe.png'],same,1,0.41658600000118895,16,85.71428571428571,
DILA0206,train,pos,120,pos120_id19_im27.bmp_pos120_id19_im8.bmp,['Im_ElijahWood.png', 'Im_BradPitt.png', 'Im_KeanuReeves.png', 'Im_PatrickDempsey.png', 'Im_RyanGosling.png', 'Im_BenStiller.png', 'Im_GeorgeClooney.png', 'Im_RobertPattinson.png', 'Im_LeonardoDiCaprio.png', 'Im_DanielRadcliffe.png'],same,1,0.41657780000059574,17,85.71428571428571,
DILA0206,train,pos,0,pos0_id6_im18.bmp_pos0_id6_im19.bmp,['Im_ElijahWood.png', 'Im_BradPitt.png', 'Im_KeanuReeves.png', 'Im_PatrickDempsey.png', 'Im_RyanGosling.png', 'Im_BenStiller.png', 'Im_GeorgeClooney.png', 'Im_RobertPattinson.png', 'Im_LeonardoDiCaprio.png', 'Im_DanielRadcliffe.png'],same,1,0.4249650000001566,18,85.71428571428571,
DILA0206,train,pos,90,pos90_id11_im1.bmp_pos90_id11_im2.bmp,['Im_ElijahWood.png', 'Im_BradPitt.png', 'Im_KeanuReeves.png', 'Im_PatrickDempsey.png', 'Im_RyanGosling.png', 'Im_BenStiller.png', 'Im_GeorgeClooney.png', 'Im_RobertPattinson.png', 'Im_LeonardoDiCaprio.png', 'Im_DanielRadcliffe.png'],same,1,0.4252412000005279,19,85.71428571428571,
DILA0206,train,pos,60,pos60_id2_im2.bmp_pos60_id2_im16.bmp,['Im_ElijahWood.png', 'Im_BradPitt.png', 'Im_KeanuReeves.png', 'Im_PatrickDempsey.png', 'Im_RyanGosling.png', 'Im_BenStiller.png', 'Im_GeorgeClooney.png', 'Im_RobertPattinson.png', 'Im_LeonardoDiCaprio.png', 'Im_DanielRadcliffe.png'],same,1,0.4250438999988546,20,85.71428571428571,
DILA0206,train,neg,150,neg150_id5_im20.bmp_neg150_id5_im10.bmp,['Im_ElijahWood.png', 'Im_BradPitt.png', 'Im_KeanuReeves.png', 'Im_PatrickDempsey.png', 'Im_RyanGosling.png', 'Im_BenStiller.png', 'Im_GeorgeClooney.png', 'Im_RobertPattinson.png', 'Im_LeonardoDiCaprio.png', 'Im_DanielRadcliffe.png'],same,1,0.41682849999961036,21,85.71428571428571,
DILA0206,train,neg,0,neg0_id2_im16.bmp_neg0_id7_im15.bmp,['Im_ElijahWood.png', 'Im_BradPitt.png', 'Im_KeanuReeves.png', 'Im_PatrickDempsey.png', 'Im_RyanGosling.png', 'Im_BenStiller.png', 'Im_GeorgeClooney.png', 'Im_RobertPattinson.png', 'Im_LeonardoDiCaprio.png', 'Im_DanielRadcliffe.png'],same,0,0.41659470000013243,21,85.71428571428571,
DILA0206,train,neg,30,neg30_id6_im12.bmp_neg30_id11_im1.bmp,['Im_ElijahWood.png', 'Im_BradPitt.png', 'Im_KeanuReeves.png', 'Im_PatrickDempsey.png', 'Im_RyanGosling.png', 'Im_BenStiller.png', 'Im_GeorgeClooney.png', 'Im_RobertPattinson.png', 'Im_LeonardoDiCaprio.png', 'Im_DanielRadcliffe.png'],diff,1,0.45802030000049854,22,85.71428571428571,
DILA0206,train,neg,fs,negfs_id13_im29.bmp_negfs_id13_im15.bmp,['Im_ElijahWood.png', 'Im_BradPitt.png', 'Im_KeanuReeves.png', 'Im_PatrickDempsey.png', 'Im_RyanGosling.png', 'Im_BenStiller.png', 'Im_GeorgeClooney.png', 'Im_RobertPattinson.png', 'Im_LeonardoDiCaprio.png', 'Im_DanielRadcliffe.png'],same,1,0.758708100000149,23,85.71428571428571,
DILA0206,train,neg,60,neg60_id5_im20.bmp_neg60_id5_im10.bmp,['Im_ElijahWood.png', 'Im_BradPitt.png', 'Im_KeanuReeves.png', 'Im_PatrickDempsey.png', 'Im_RyanGosling.png', 'Im_BenStiller.png', 'Im_GeorgeClooney.png', 'Im_RobertPattinson.png', 'Im_LeonardoDiCaprio.png', 'Im_DanielRadcliffe.png'],diff,0,0.48343779999959224,23,85.71428571428571,
DILA0206,train,neg,60,neg60_id13_im15.bmp_neg60_id20_im12.bmp,['Im_ElijahWood.png', 'Im_BradPitt.png', 'Im_KeanuReeves.png', 'Im_PatrickDempsey.png', 'Im_RyanGosling.png', 'Im_BenStiller.png', 'Im_GeorgeClooney.png', 'Im_RobertPattinson.png', 'Im_LeonardoDiCaprio.png', 'Im_DanielRadcliffe.png'],same,0,0.6002941999995528,23,85.71428571428571,
DILA0206,train,neg,0,neg0_id2_im3.bmp_neg0_id2_im2.bmp,['Im_ElijahWood.png', 'Im_BradPitt.png', 'Im_KeanuReeves.png', 'Im_PatrickDempsey.png', 'Im_RyanGosling.png', 'Im_BenStiller.png', 'Im_GeorgeClooney.png', 'Im_RobertPattinson.png', 'Im_LeonardoDiCaprio.png', 'Im_DanielRadcliffe.png'],same,1,0.5166986999993242,24,85.71428571428571,
DILA0206,train,neg,fs,negfs_id13_im15.bmp_negfs_id20_im12.bmp,['Im_ElijahWood.png', 'Im_BradPitt.png', 'Im_KeanuReeves.png', 'Im_PatrickDempsey.png', 'Im_RyanGosling.png', 'Im_BenStiller.png', 'Im_GeorgeClooney.png', 'Im_RobertPattinson.png', 'Im_LeonardoDiCaprio.png', 'Im_DanielRadcliffe.png'],diff,1,0.4333022000009805,25,85.71428571428571,
DILA0206,train,neg,120,neg120_id17_im9.bmp_neg120_id7_im14.bmp,['Im_ElijahWood.png', 'Im_BradPitt.png', 'Im_KeanuReeves.png', 'Im_PatrickDempsey.png', 'Im_RyanGosling.png', 'Im_BenStiller.png', 'Im_GeorgeClooney.png', 'Im_RobertPattinson.png', 'Im_LeonardoDiCaprio.png', 'Im_DanielRadcliffe.png'],diff,1,0.4083480999997846,26,85.71428571428571,
DILA0206,train,neg,90,neg90_id5_im10.bmp_neg90_id2_im3.bmp,['Im_ElijahWood.png', 'Im_BradPitt.png', 'Im_KeanuReeves.png', 'Im_PatrickDempsey.png', 'Im_RyanGosling.png', 'Im_BenStiller.png', 'Im_GeorgeClooney.png', 'Im_RobertPattinson.png', 'Im_LeonardoDiCaprio.png', 'Im_DanielRadcliffe.png'],diff,1,0.42514609999852837,27,85.71428571428571,
DILA0206,train,neg,150,neg150_id5_im1.bmp_neg150_id6_im12.bmp,['Im_ElijahWood.png', 'Im_BradPitt.png', 'Im_KeanuReeves.png', 'Im_PatrickDempsey.png', 'Im_RyanGosling.png', 'Im_BenStiller.png', 'Im_GeorgeClooney.png', 'Im_RobertPattinson.png', 'Im_LeonardoDiCaprio.png', 'Im_DanielRadcliffe.png'],same,0,0.650047999999515,27,85.71428571428571,
DILA0206,train,neg,120,neg120_id3_im8.bmp_neg120_id7_im26.bmp,['Im_ElijahWood.png', 'Im_BradPitt.png', 'Im_KeanuReeves.png', 'Im_PatrickDempsey.png', 'Im_RyanGosling.png', 'Im_BenStiller.png', 'Im_GeorgeClooney.png', 'Im_RobertPattinson.png', 'Im_LeonardoDiCaprio.png', 'Im_DanielRadcliffe.png'],diff,1,0.9335018999991007,28,85.71428571428571,
DILA0206,train,neg,90,neg90_id5_im20.bmp_neg90_id19_im8.bmp,['Im_ElijahWood.png', 'Im_BradPitt.png', 'Im_KeanuReeves.png', 'Im_PatrickDempsey.png', 'Im_RyanGosling.png', 'Im_BenStiller.png', 'Im_GeorgeClooney.png', 'Im_RobertPattinson.png', 'Im_LeonardoDiCaprio.png', 'Im_DanielRadcliffe.png'],diff,1,0.9834760000012466,29,85.71428571428571,
DILA0206,train,neg,30,neg30_id3_im8.bmp_neg30_id3_im6.bmp,['Im_ElijahWood.png', 'Im_BradPitt.png', 'Im_KeanuReeves.png', 'Im_PatrickDempsey.png', 'Im_RyanGosling.png', 'Im_BenStiller.png', 'Im_GeorgeClooney.png', 'Im_RobertPattinson.png', 'Im_LeonardoDiCaprio.png', 'Im_DanielRadcliffe.png'],same,1,0.40831729999990785,30,85.71428571428571,
DILA0206,train,neg,120,neg120_id3_im17.bmp_neg120_id13_im29.bmp,['Im_ElijahWood.png', 'Im_BradPitt.png', 'Im_KeanuReeves.png', 'Im_PatrickDempsey.png', 'Im_RyanGosling.png', 'Im_BenStiller.png', 'Im_GeorgeClooney.png', 'Im_RobertPattinson.png', 'Im_LeonardoDiCaprio.png', 'Im_DanielRadcliffe.png'],same,0,0.49199700000099256,0,71.42857142857143,
DILA0206,train,neg,30,neg30_id5_im10.bmp_neg30_id2_im3.bmp,['Im_ElijahWood.png', 'Im_BradPitt.png', 'Im_KeanuReeves.png', 'Im_PatrickDempsey.png', 'Im_RyanGosling.png', 'Im_BenStiller.png', 'Im_GeorgeClooney.png', 'Im_RobertPattinson.png', 'Im_LeonardoDiCaprio.png', 'Im_DanielRadcliffe.png'],diff,1,0.4168238999991445,1,71.42857142857143,
DILA0206,train,neg,0,neg0_id19_im4.bmp_neg0_id5_im20.bmp,['Im_ElijahWood.png', 'Im_BradPitt.png', 'Im_KeanuReeves.png', 'Im_PatrickDempsey.png', 'Im_RyanGosling.png', 'Im_BenStiller.png', 'Im_GeorgeClooney.png', 'Im_RobertPattinson.png', 'Im_LeonardoDiCaprio.png', 'Im_DanielRadcliffe.png'],diff,1,0.4916216000001441,2,71.42857142857143,
DILA0206,train,neg,150,neg150_id11_im2.bmp_neg150_id11_im10.bmp,['Im_ElijahWood.png', 'Im_BradPitt.png', 'Im_KeanuReeves.png', 'Im_PatrickDempsey.png', 'Im_RyanGosling.png', 'Im_BenStiller.png', 'Im_GeorgeClooney.png', 'Im_RobertPattinson.png', 'Im_LeonardoDiCaprio.png', 'Im_DanielRadcliffe.png'],same,1,0.6665633000011439,3,71.42857142857143,
DILA0206,train,neg,120,neg120_id13_im15.bmp_neg120_id13_im10.bmp,['Im_ElijahWood.png', 'Im_BradPitt.png', 'Im_KeanuReeves.png', 'Im_PatrickDempsey.png', 'Im_RyanGosling.png', 'Im_BenStiller.png', 'Im_GeorgeClooney.png', 'Im_RobertPattinson.png', 'Im_LeonardoDiCaprio.png', 'Im_DanielRadcliffe.png'],same,1,0.5249673999987863,4,71.42857142857143,
DILA0206,train,neg,60,neg60_id5_im10.bmp_neg60_id5_im1.bmp,['Im_ElijahWood.png', 'Im_BradPitt.png', 'Im_KeanuReeves.png', 'Im_PatrickDempsey.png', 'Im_RyanGosling.png', 'Im_BenStiller.png', 'Im_GeorgeClooney.png', 'Im_RobertPattinson.png', 'Im_LeonardoDiCaprio.png', 'Im_DanielRadcliffe.png'],same,1,0.5087043000003177,5,71.42857142857143,
DILA0206,train,neg,30,neg30_id5_im20.bmp_neg30_id19_im4.bmp,['Im_ElijahWood.png', 'Im_BradPitt.png', 'Im_KeanuReeves.png', 'Im_PatrickDempsey.png', 'Im_RyanGosling.png', 'Im_BenStiller.png', 'Im_GeorgeClooney.png', 'Im_RobertPattinson.png', 'Im_LeonardoDiCaprio.png', 'Im_DanielRadcliffe.png'],same,0,0.8502300000000105,5,71.42857142857143,
DILA0206,train,neg,0,neg0_id7_im26.bmp_neg0_id7_im15.bmp,['Im_ElijahWood.png', 'Im_BradPitt.png', 'Im_KeanuReeves.png', 'Im_PatrickDempsey.png', 'Im_RyanGosling.png', 'Im_BenStiller.png', 'Im_GeorgeClooney.png', 'Im_RobertPattinson.png', 'Im_LeonardoDiCaprio.png', 'Im_DanielRadcliffe.png'],diff,0,0.7085132999982307,5,71.42857142857143,
DILA0206,train,neg,fs,negfs_id6_im12.bmp_negfs_id6_im18.bmp,['Im_ElijahWood.png', 'Im_BradPitt.png', 'Im_KeanuReeves.png', 'Im_PatrickDempsey.png', 'Im_RyanGosling.png', 'Im_BenStiller.png', 'Im_GeorgeClooney.png', 'Im_RobertPattinson.png', 'Im_LeonardoDiCaprio.png', 'Im_DanielRadcliffe.png'],same,1,0.4332606999996642,6,71.42857142857143,
DILA0206,train,neg,fs,negfs_id13_im29.bmp_negfs_id13_im10.bmp,['Im_ElijahWood.png', 'Im_BradPitt.png', 'Im_KeanuReeves.png', 'Im_PatrickDempsey.png', 'Im_RyanGosling.png', 'Im_BenStiller.png', 'Im_GeorgeClooney.png', 'Im_RobertPattinson.png', 'Im_LeonardoDiCaprio.png', 'Im_DanielRadcliffe.png'],diff,0,0.7082983999989665,6,71.42857142857143,
DILA0206,train,neg,90,neg90_id5_im10.bmp_neg90_id5_im20.bmp,['Im_ElijahWood.png', 'Im_BradPitt.png', 'Im_KeanuReeves.png', 'Im_PatrickDempsey.png', 'Im_RyanGosling.png', 'Im_BenStiller.png', 'Im_GeorgeClooney.png', 'Im_RobertPattinson.png', 'Im_LeonardoDiCaprio.png', 'Im_DanielRadcliffe.png'],same,1,0.533538600000611,7,71.42857142857143,
DILA0206,train,neg,60,neg60_id19_im8.bmp_neg60_id19_im27.bmp,['Im_ElijahWood.png', 'Im_BradPitt.png', 'Im_KeanuReeves.png', 'Im_PatrickDempsey.png', 'Im_RyanGosling.png', 'Im_BenStiller.png', 'Im_GeorgeClooney.png', 'Im_RobertPattinson.png', 'Im_LeonardoDiCaprio.png', 'Im_DanielRadcliffe.png'],same,1,0.41672960000141757,8,71.42857142857143,
DILA0206,train,neg,90,neg90_id17_im8.bmp_neg90_id6_im18.bmp,['Im_ElijahWood.png', 'Im_BradPitt.png', 'Im_KeanuReeves.png', 'Im_PatrickDempsey.png', 'Im_RyanGosling.png', 'Im_BenStiller.png', 'Im_GeorgeClooney.png', 'Im_RobertPattinson.png', 'Im_LeonardoDiCaprio.png', 'Im_DanielRadcliffe.png'],diff,1,0.5998378000003868,9,71.42857142857143,
DILA0206,train,neg,150,neg150_id2_im16.bmp_neg150_id2_im3.bmp,['Im_ElijahWood.png', 'Im_BradPitt.png', 'Im_KeanuReeves.png', 'Im_PatrickDempsey.png', 'Im_RyanGosling.png', 'Im_BenStiller.png', 'Im_GeorgeClooney.png', 'Im_RobertPattinson.png', 'Im_LeonardoDiCaprio.png', 'Im_DanielRadcliffe.png'],same,1,0.425262600001588,10,71.42857142857143,
DILA0206,train,pos,0,pos0_id17_im14.bmp_pos0_id17_im8.bmp,['Im_ElijahWood.png', 'Im_BradPitt.png', 'Im_KeanuReeves.png', 'Im_PatrickDempsey.png', 'Im_RyanGosling.png', 'Im_BenStiller.png', 'Im_GeorgeClooney.png', 'Im_RobertPattinson.png', 'Im_LeonardoDiCaprio.png', 'Im_DanielRadcliffe.png'],same,1,0.4166922999993403,11,71.42857142857143,
DILA0206,train,pos,0,pos0_id20_im3.bmp_pos0_id20_im12.bmp,['Im_ElijahWood.png', 'Im_BradPitt.png', 'Im_KeanuReeves.png', 'Im_PatrickDempsey.png', 'Im_RyanGosling.png', 'Im_BenStiller.png', 'Im_GeorgeClooney.png', 'Im_RobertPattinson.png', 'Im_LeonardoDiCaprio.png', 'Im_DanielRadcliffe.png'],same,1,0.41669809999984864,12,71.42857142857143,
DILA0206,train,pos,60,pos60_id19_im27.bmp_pos60_id13_im15.bmp,['Im_ElijahWood.png', 'Im_BradPitt.png', 'Im_KeanuReeves.png', 'Im_PatrickDempsey.png', 'Im_RyanGosling.png', 'Im_BenStiller.png', 'Im_GeorgeClooney.png', 'Im_RobertPattinson.png', 'Im_LeonardoDiCaprio.png', 'Im_DanielRadcliffe.png'],diff,1,0.4249992999993992,13,71.42857142857143,
DILA0206,train,pos,fs,posfs_id7_im14.bmp_posfs_id7_im26.bmp,['Im_ElijahWood.png', 'Im_BradPitt.png', 'Im_KeanuReeves.png', 'Im_PatrickDempsey.png', 'Im_RyanGosling.png', 'Im_BenStiller.png', 'Im_GeorgeClooney.png', 'Im_RobertPattinson.png', 'Im_LeonardoDiCaprio.png', 'Im_DanielRadcliffe.png'],same,1,0.41677269999854616,14,71.42857142857143,
DILA0206,train,pos,120,pos120_id17_im8.bmp_pos120_id6_im18.bmp,['Im_ElijahWood.png', 'Im_BradPitt.png', 'Im_KeanuReeves.png', 'Im_PatrickDempsey.png', 'Im_RyanGosling.png', 'Im_BenStiller.png', 'Im_GeorgeClooney.png', 'Im_RobertPattinson.png', 'Im_LeonardoDiCaprio.png', 'Im_DanielRadcliffe.png'],diff,1,0.7168717000004108,15,71.42857142857143,
DILA0206,train,pos,30,pos30_id7_im14.bmp_pos30_id17_im9.bmp,['Im_ElijahWood.png', 'Im_BradPitt.png', 'Im_KeanuReeves.png', 'Im_PatrickDempsey.png', 'Im_RyanGosling.png', 'Im_BenStiller.png', 'Im_GeorgeClooney.png', 'Im_RobertPattinson.png', 'Im_LeonardoDiCaprio.png', 'Im_DanielRadcliffe.png'],diff,1,0.4083453000002919,16,71.42857142857143,
DILA0206,train,pos,60,pos60_id3_im8.bmp_pos60_id3_im6.bmp,['Im_ElijahWood.png', 'Im_BradPitt.png', 'Im_KeanuReeves.png', 'Im_PatrickDempsey.png', 'Im_RyanGosling.png', 'Im_BenStiller.png', 'Im_GeorgeClooney.png', 'Im_RobertPattinson.png', 'Im_LeonardoDiCaprio.png', 'Im_DanielRadcliffe.png'],same,1,0.4250750000010157,17,71.42857142857143,
DILA0206,train,pos,fs,posfs_id19_im4.bmp_posfs_id19_im27.bmp,['Im_ElijahWood.png', 'Im_BradPitt.png', 'Im_KeanuReeves.png', 'Im_PatrickDempsey.png', 'Im_RyanGosling.png', 'Im_BenStiller.png', 'Im_GeorgeClooney.png', 'Im_RobertPattinson.png', 'Im_LeonardoDiCaprio.png', 'Im_DanielRadcliffe.png'],same,1,0.4249610000006214,18,71.42857142857143,
DILA0206,train,pos,150,pos150_id11_im1.bmp_pos150_id11_im10.bmp,['Im_ElijahWood.png', 'Im_BradPitt.png', 'Im_KeanuReeves.png', 'Im_PatrickDempsey.png', 'Im_RyanGosling.png', 'Im_BenStiller.png', 'Im_GeorgeClooney.png', 'Im_RobertPattinson.png', 'Im_LeonardoDiCaprio.png', 'Im_DanielRadcliffe.png'],same,1,0.4169898000000103,19,71.42857142857143,
DILA0206,train,pos,150,pos150_id7_im15.bmp_pos150_id2_im16.bmp,['Im_ElijahWood.png', 'Im_BradPitt.png', 'Im_KeanuReeves.png', 'Im_PatrickDempsey.png', 'Im_RyanGosling.png', 'Im_BenStiller.png', 'Im_GeorgeClooney.png', 'Im_RobertPattinson.png', 'Im_LeonardoDiCaprio.png', 'Im_DanielRadcliffe.png'],diff,1,0.5247003000004042,20,71.42857142857143,
DILA0206,train,pos,120,pos120_id5_im20.bmp_pos120_id5_im10.bmp,['Im_ElijahWood.png', 'Im_BradPitt.png', 'Im_KeanuReeves.png', 'Im_PatrickDempsey.png', 'Im_RyanGosling.png', 'Im_BenStiller.png', 'Im_GeorgeClooney.png', 'Im_RobertPattinson.png', 'Im_LeonardoDiCaprio.png', 'Im_DanielRadcliffe.png'],diff,0,0.4251375999992888,20,71.42857142857143,
DILA0206,train,pos,90,pos90_id5_im10.bmp_pos90_id5_im20.bmp,['Im_ElijahWood.png', 'Im_BradPitt.png', 'Im_KeanuReeves.png', 'Im_PatrickDempsey.png', 'Im_RyanGosling.png', 'Im_BenStiller.png', 'Im_GeorgeClooney.png', 'Im_RobertPattinson.png', 'Im_LeonardoDiCaprio.png', 'Im_DanielRadcliffe.png'],same,1,0.4166433999998844,21,71.42857142857143,
DILA0206,train,pos,30,pos30_id20_im30.bmp_pos30_id20_im12.bmp,['Im_ElijahWood.png', 'Im_BradPitt.png', 'Im_KeanuReeves.png', 'Im_PatrickDempsey.png', 'Im_RyanGosling.png', 'Im_BenStiller.png', 'Im_GeorgeClooney.png', 'Im_RobertPattinson.png', 'Im_LeonardoDiCaprio.png', 'Im_DanielRadcliffe.png'],same,1,0.41660810000030324,22,71.42857142857143,
DILA0206,train,pos,90,pos90_id3_im6.bmp_pos90_id3_im17.bmp,['Im_ElijahWood.png', 'Im_BradPitt.png', 'Im_KeanuReeves.png', 'Im_PatrickDempsey.png', 'Im_RyanGosling.png', 'Im_BenStiller.png', 'Im_GeorgeClooney.png', 'Im_RobertPattinson.png', 'Im_LeonardoDiCaprio.png', 'Im_DanielRadcliffe.png'],diff,0,0.7252446000002237,22,71.42857142857143,
DILA0206,train,inv,120,pos120_id7_im15.bmp_pos120_id7_im14.bmp,['Im_ElijahWood.png', 'Im_BradPitt.png', 'Im_KeanuReeves.png', 'Im_PatrickDempsey.png', 'Im_RyanGosling.png', 'Im_BenStiller.png', 'Im_GeorgeClooney.png', 'Im_RobertPattinson.png', 'Im_LeonardoDiCaprio.png', 'Im_DanielRadcliffe.png'],same,1,0.42486660000031407,23,71.42857142857143,
DILA0206,train,inv,150,pos150_id6_im18.bmp_pos150_id2_im2.bmp,['Im_ElijahWood.png', 'Im_BradPitt.png', 'Im_KeanuReeves.png', 'Im_PatrickDempsey.png', 'Im_RyanGosling.png', 'Im_BenStiller.png', 'Im_GeorgeClooney.png', 'Im_RobertPattinson.png', 'Im_LeonardoDiCaprio.png', 'Im_DanielRadcliffe.png'],diff,1,0.43364670000119077,24,71.42857142857143,
DILA0206,train,inv,60,pos60_id19_im4.bmp_pos60_id19_im27.bmp,['Im_ElijahWood.png', 'Im_BradPitt.png', 'Im_KeanuReeves.png', 'Im_PatrickDempsey.png', 'Im_RyanGosling.png', 'Im_BenStiller.png', 'Im_GeorgeClooney.png', 'Im_RobertPattinson.png', 'Im_LeonardoDiCaprio.png', 'Im_DanielRadcliffe.png'],diff,0,0.6750202000002901,24,71.42857142857143,
DILA0206,train,inv,fs,posfs_id20_im3.bmp_posfs_id20_im12.bmp,['Im_ElijahWood.png', 'Im_BradPitt.png', 'Im_KeanuReeves.png', 'Im_PatrickDempsey.png', 'Im_RyanGosling.png', 'Im_BenStiller.png', 'Im_GeorgeClooney.png', 'Im_RobertPattinson.png', 'Im_LeonardoDiCaprio.png', 'Im_DanielRadcliffe.png'],same,1,0.4250867999999173,25,71.42857142857143,
DILA0206,train,inv,120,pos120_id5_im1.bmp_pos120_id6_im12.bmp,['Im_ElijahWood.png', 'Im_BradPitt.png', 'Im_KeanuReeves.png', 'Im_PatrickDempsey.png', 'Im_RyanGosling.png', 'Im_BenStiller.png', 'Im_GeorgeClooney.png', 'Im_RobertPattinson.png', 'Im_LeonardoDiCaprio.png', 'Im_DanielRadcliffe.png'],same,0,0.433275200000935,25,71.42857142857143,
DILA0206,train,inv,0,pos0_id3_im6.bmp_pos0_id3_im17.bmp,['Im_ElijahWood.png', 'Im_BradPitt.png', 'Im_KeanuReeves.png', 'Im_PatrickDempsey.png', 'Im_RyanGosling.png', 'Im_BenStiller.png', 'Im_GeorgeClooney.png', 'Im_RobertPattinson.png', 'Im_LeonardoDiCaprio.png', 'Im_DanielRadcliffe.png'],same,1,0.41658879999886267,26,71.42857142857143,
DILA0206,train,inv,fs,posfs_id13_im15.bmp_posfs_id19_im27.bmp,['Im_ElijahWood.png', 'Im_BradPitt.png', 'Im_KeanuReeves.png', 'Im_PatrickDempsey.png', 'Im_RyanGosling.png', 'Im_BenStiller.png', 'Im_GeorgeClooney.png', 'Im_RobertPattinson.png', 'Im_LeonardoDiCaprio.png', 'Im_DanielRadcliffe.png'],diff,1,0.42497720000028494,27,71.42857142857143,
DILA0206,train,inv,30,pos30_id6_im18.bmp_pos30_id2_im2.bmp,['Im_ElijahWood.png', 'Im_BradPitt.png', 'Im_KeanuReeves.png', 'Im_PatrickDempsey.png', 'Im_RyanGosling.png', 'Im_BenStiller.png', 'Im_GeorgeClooney.png', 'Im_RobertPattinson.png', 'Im_LeonardoDiCaprio.png', 'Im_DanielRadcliffe.png'],diff,1,0.4166395000011107,28,71.42857142857143,
DILA0206,train,inv,150,pos150_id3_im6.bmp_pos150_id3_im17.bmp,['Im_ElijahWood.png', 'Im_BradPitt.png', 'Im_KeanuReeves.png', 'Im_PatrickDempsey.png', 'Im_RyanGosling.png', 'Im_BenStiller.png', 'Im_GeorgeClooney.png', 'Im_RobertPattinson.png', 'Im_LeonardoDiCaprio.png', 'Im_DanielRadcliffe.png'],same,1,0.8419442000013078,29,71.42857142857143,
DILA0206,train,inv,90,pos90_id3_im17.bmp_pos90_id11_im1.bmp,['Im_ElijahWood.png', 'Im_BradPitt.png', 'Im_KeanuReeves.png', 'Im_PatrickDempsey.png', 'Im_RyanGosling.png', 'Im_BenStiller.png', 'Im_GeorgeClooney.png', 'Im_RobertPattinson.png', 'Im_LeonardoDiCaprio.png', 'Im_DanielRadcliffe.png'],diff,1,0.5833382999990135,30,71.42857142857143,
DILA0206,train,inv,0,pos0_id6_im18.bmp_pos0_id6_im19.bmp,['Im_ElijahWood.png', 'Im_BradPitt.png', 'Im_KeanuReeves.png', 'Im_PatrickDempsey.png', 'Im_RyanGosling.png', 'Im_BenStiller.png', 'Im_GeorgeClooney.png', 'Im_RobertPattinson.png', 'Im_LeonardoDiCaprio.png', 'Im_DanielRadcliffe.png'],same,1,0.4333121999989089,31,71.42857142857143,
DILA0206,train,inv,60,pos60_id2_im2.bmp_pos60_id2_im16.bmp,['Im_ElijahWood.png', 'Im_BradPitt.png', 'Im_KeanuReeves.png', 'Im_PatrickDempsey.png', 'Im_RyanGosling.png', 'Im_BenStiller.png', 'Im_GeorgeClooney.png', 'Im_RobertPattinson.png', 'Im_LeonardoDiCaprio.png', 'Im_DanielRadcliffe.png'],diff,0,0.49167690000103903,31,71.42857142857143,
DILA0206,train,inv,90,pos90_id13_im10.bmp_pos90_id17_im8.bmp,['Im_ElijahWood.png', 'Im_BradPitt.png', 'Im_KeanuReeves.png', 'Im_PatrickDempsey.png', 'Im_RyanGosling.png', 'Im_BenStiller.png', 'Im_GeorgeClooney.png', 'Im_RobertPattinson.png', 'Im_LeonardoDiCaprio.png', 'Im_DanielRadcliffe.png'],diff,1,0.5583178999986558,32,71.42857142857143,
DILA0206,train,inv,30,pos30_id7_im26.bmp_pos30_id7_im14.bmp,['Im_ElijahWood.png', 'Im_BradPitt.png', 'Im_KeanuReeves.png', 'Im_PatrickDempsey.png', 'Im_RyanGosling.png', 'Im_BenStiller.png', 'Im_GeorgeClooney.png', 'Im_RobertPattinson.png', 'Im_LeonardoDiCaprio.png', 'Im_DanielRadcliffe.png'],diff,0,0.41676469999947585,32,71.42857142857143,
DILA0206,train,inv,90,pos90_id19_im4.bmp_pos90_id11_im10.bmp,['Im_ElijahWood.png', 'Im_BradPitt.png', 'Im_KeanuReeves.png', 'Im_PatrickDempsey.png', 'Im_RyanGosling.png', 'Im_BenStiller.png', 'Im_GeorgeClooney.png', 'Im_RobertPattinson.png', 'Im_LeonardoDiCaprio.png', 'Im_DanielRadcliffe.png'],diff,1,0.4251927000004798,1,76.19047619047619,
DILA0206,train,inv,150,pos150_id2_im3.bmp_pos150_id5_im10.bmp,['Im_ElijahWood.png', 'Im_BradPitt.png', 'Im_KeanuReeves.png', 'Im_PatrickDempsey.png', 'Im_RyanGosling.png', 'Im_BenStiller.png', 'Im_GeorgeClooney.png', 'Im_RobertPattinson.png', 'Im_LeonardoDiCaprio.png', 'Im_DanielRadcliffe.png'],diff,1,0.4248987000009947,2,76.19047619047619,
DILA0206,train,inv,30,pos30_id20_im30.bmp_pos30_id17_im9.bmp,['Im_ElijahWood.png', 'Im_BradPitt.png', 'Im_KeanuReeves.png', 'Im_PatrickDempsey.png', 'Im_RyanGosling.png', 'Im_BenStiller.png', 'Im_GeorgeClooney.png', 'Im_RobertPattinson.png', 'Im_LeonardoDiCaprio.png', 'Im_DanielRadcliffe.png'],diff,1,0.40837959999953455,3,76.19047619047619,
DILA0206,train,inv,150,pos150_id5_im1.bmp_pos150_id20_im12.bmp,['Im_ElijahWood.png', 'Im_BradPitt.png', 'Im_KeanuReeves.png', 'Im_PatrickDempsey.png', 'Im_RyanGosling.png', 'Im_BenStiller.png', 'Im_GeorgeClooney.png', 'Im_RobertPattinson.png', 'Im_LeonardoDiCaprio.png', 'Im_DanielRadcliffe.png'],diff,1,0.4250058000015997,4,76.19047619047619,
DILA0206,train,inv,30,pos30_id7_im14.bmp_pos30_id17_im9.bmp,['Im_ElijahWood.png', 'Im_BradPitt.png', 'Im_KeanuReeves.png', 'Im_PatrickDempsey.png', 'Im_RyanGosling.png', 'Im_BenStiller.png', 'Im_GeorgeClooney.png', 'Im_RobertPattinson.png', 'Im_LeonardoDiCaprio.png', 'Im_DanielRadcliffe.png'],diff,1,0.4170253000011144,5,76.19047619047619,
DILA0206,train,inv,60,pos60_id3_im17.bmp_pos60_id11_im1.bmp,['Im_ElijahWood.png', 'Im_BradPitt.png', 'Im_KeanuReeves.png', 'Im_PatrickDempsey.png', 'Im_RyanGosling.png', 'Im_BenStiller.png', 'Im_GeorgeClooney.png', 'Im_RobertPattinson.png', 'Im_LeonardoDiCaprio.png', 'Im_DanielRadcliffe.png'],diff,1,0.6502041000003373,6,76.19047619047619,
DILA0206,train,inv,0,pos0_id17_im14.bmp_pos0_id17_im8.bmp,['Im_ElijahWood.png', 'Im_BradPitt.png', 'Im_KeanuReeves.png', 'Im_PatrickDempsey.png', 'Im_RyanGosling.png', 'Im_BenStiller.png', 'Im_GeorgeClooney.png', 'Im_RobertPattinson.png', 'Im_LeonardoDiCaprio.png', 'Im_DanielRadcliffe.png'],same,1,0.41673090000040247,7,76.19047619047619,
DILA0206,train,inv,120,pos120_id2_im3.bmp_pos120_id5_im10.bmp,['Im_ElijahWood.png', 'Im_BradPitt.png', 'Im_KeanuReeves.png', 'Im_PatrickDempsey.png', 'Im_RyanGosling.png', 'Im_BenStiller.png', 'Im_GeorgeClooney.png', 'Im_RobertPattinson.png', 'Im_LeonardoDiCaprio.png', 'Im_DanielRadcliffe.png'],diff,1,0.42515520000051765,8,76.19047619047619,
DILA0206,train,inv,fs,posfs_id19_im27.bmp_posfs_id19_im8.bmp,['Im_ElijahWood.png', 'Im_BradPitt.png', 'Im_KeanuReeves.png', 'Im_PatrickDempsey.png', 'Im_RyanGosling.png', 'Im_BenStiller.png', 'Im_GeorgeClooney.png', 'Im_RobertPattinson.png', 'Im_LeonardoDiCaprio.png', 'Im_DanielRadcliffe.png'],same,1,0.424889500000063,9,76.19047619047619,
DILA0206,train,inv,90,pos90_id13_im10.bmp_pos90_id20_im30.bmp,['Im_ElijahWood.png', 'Im_BradPitt.png', 'Im_KeanuReeves.png', 'Im_PatrickDempsey.png', 'Im_RyanGosling.png', 'Im_BenStiller.png', 'Im_GeorgeClooney.png', 'Im_RobertPattinson.png', 'Im_LeonardoDiCaprio.png', 'Im_DanielRadcliffe.png'],diff,1,0.42511220000051253,10,76.19047619047619,
DILA0206,train,inv,fs,posfs_id17_im8.bmp_posfs_id17_im9.bmp,['Im_ElijahWood.png', 'Im_BradPitt.png', 'Im_KeanuReeves.png', 'Im_PatrickDempsey.png', 'Im_RyanGosling.png', 'Im_BenStiller.png', 'Im_GeorgeClooney.png', 'Im_RobertPattinson.png', 'Im_LeonardoDiCaprio.png', 'Im_DanielRadcliffe.png'],same,1,0.4165207999994891,11,76.19047619047619,
DILA0206,train,inv,120,pos120_id11_im10.bmp_pos120_id11_im2.bmp,['Im_ElijahWood.png', 'Im_BradPitt.png', 'Im_KeanuReeves.png', 'Im_PatrickDempsey.png', 'Im_RyanGosling.png', 'Im_BenStiller.png', 'Im_GeorgeClooney.png', 'Im_RobertPattinson.png', 'Im_LeonardoDiCaprio.png', 'Im_DanielRadcliffe.png'],diff,0,0.4166464999998425,11,76.19047619047619,
DILA0206,train,inv,0,pos0_id7_im14.bmp_pos0_id7_im26.bmp,['Im_ElijahWood.png', 'Im_BradPitt.png', 'Im_KeanuReeves.png', 'Im_PatrickDempsey.png', 'Im_RyanGosling.png', 'Im_BenStiller.png', 'Im_GeorgeClooney.png', 'Im_RobertPattinson.png', 'Im_LeonardoDiCaprio.png', 'Im_DanielRadcliffe.png'],same,1,0.42502669999885256,12,76.19047619047619,
DILA0206,train,inv,60,pos60_id2_im16.bmp_pos60_id7_im15.bmp,['Im_ElijahWood.png', 'Im_BradPitt.png', 'Im_KeanuReeves.png', 'Im_PatrickDempsey.png', 'Im_RyanGosling.png', 'Im_BenStiller.png', 'Im_GeorgeClooney.png', 'Im_RobertPattinson.png', 'Im_LeonardoDiCaprio.png', 'Im_DanielRadcliffe.png'],same,0,0.6418333000001439,12,76.19047619047619,
DILA0206,train,neg,90,neg90_id20_im3.bmp_neg90_id20_im12.bmp,['Im_ElijahWood.png', 'Im_BradPitt.png', 'Im_KeanuReeves.png', 'Im_PatrickDempsey.png', 'Im_RyanGosling.png', 'Im_BenStiller.png', 'Im_GeorgeClooney.png', 'Im_RobertPattinson.png', 'Im_LeonardoDiCaprio.png', 'Im_DanielRadcliffe.png'],same,1,0.4250131999997393,13,76.19047619047619,
DILA0206,train,neg,0,neg0_id19_im8.bmp_neg0_id19_im27.bmp,['Im_ElijahWood.png', 'Im_BradPitt.png', 'Im_KeanuReeves.png', 'Im_PatrickDempsey.png', 'Im_RyanGosling.png', 'Im_BenStiller.png', 'Im_GeorgeClooney.png', 'Im_RobertPattinson.png', 'Im_LeonardoDiCaprio.png', 'Im_DanielRadcliffe.png'],same,1,0.40843709999899147,14,76.19047619047619,
DILA0206,train,neg,60,neg60_id13_im15.bmp_neg60_id13_im29.bmp,['Im_ElijahWood.png', 'Im_BradPitt.png', 'Im_KeanuReeves.png', 'Im_PatrickDempsey.png', 'Im_RyanGosling.png', 'Im_BenStiller.png', 'Im_GeorgeClooney.png', 'Im_RobertPattinson.png', 'Im_LeonardoDiCaprio.png', 'Im_DanielRadcliffe.png'],diff,0,0.41684910000003583,14,76.19047619047619,
DILA0206,train,neg,150,neg150_id20_im3.bmp_neg150_id20_im12.bmp,['Im_ElijahWood.png', 'Im_BradPitt.png', 'Im_KeanuReeves.png', 'Im_PatrickDempsey.png', 'Im_RyanGosling.png', 'Im_BenStiller.png', 'Im_GeorgeClooney.png', 'Im_RobertPattinson.png', 'Im_LeonardoDiCaprio.png', 'Im_DanielRadcliffe.png'],same,1,0.41686790000130713,15,76.19047619047619,
DILA0206,train,neg,90,neg90_id17_im9.bmp_neg90_id17_im14.bmp,['Im_ElijahWood.png', 'Im_BradPitt.png', 'Im_KeanuReeves.png', 'Im_PatrickDempsey.png', 'Im_RyanGosling.png', 'Im_BenStiller.png', 'Im_GeorgeClooney.png', 'Im_RobertPattinson.png', 'Im_LeonardoDiCaprio.png', 'Im_DanielRadcliffe.png'],same,1,0.8335972000004404,16,76.19047619047619,
DILA0206,train,neg,fs,negfs_id5_im10.bmp_negfs_id5_im20.bmp,['Im_ElijahWood.png', 'Im_BradPitt.png', 'Im_KeanuReeves.png', 'Im_PatrickDempsey.png', 'Im_RyanGosling.png', 'Im_BenStiller.png', 'Im_GeorgeClooney.png', 'Im_RobertPattinson.png', 'Im_LeonardoDiCaprio.png', 'Im_DanielRadcliffe.png'],same,1,0.5249444000000949,17,76.19047619047619,
DILA0206,train,neg,fs,negfs_id11_im2.bmp_negfs_id11_im1.bmp,['Im_ElijahWood.png', 'Im_BradPitt.png', 'Im_KeanuReeves.png', 'Im_PatrickDempsey.png', 'Im_RyanGosling.png', 'Im_BenStiller.png', 'Im_GeorgeClooney.png', 'Im_RobertPattinson.png', 'Im_LeonardoDiCaprio.png', 'Im_DanielRadcliffe.png'],same,1,0.40816499999891676,18,76.19047619047619,
DILA0206,train,neg,150,neg150_id6_im19.bmp_neg150_id2_im2.bmp,['Im_ElijahWood.png', 'Im_BradPitt.png', 'Im_KeanuReeves.png', 'Im_PatrickDempsey.png', 'Im_RyanGosling.png', 'Im_BenStiller.png', 'Im_GeorgeClooney.png', 'Im_RobertPattinson.png', 'Im_LeonardoDiCaprio.png', 'Im_DanielRadcliffe.png'],diff,1,0.4083637000003364,19,76.19047619047619,
DILA0206,train,neg,0,neg0_id20_im12.bmp_neg0_id13_im15.bmp,['Im_ElijahWood.png', 'Im_BradPitt.png', 'Im_KeanuReeves.png', 'Im_PatrickDempsey.png', 'Im_RyanGosling.png', 'Im_BenStiller.png', 'Im_GeorgeClooney.png', 'Im_RobertPattinson.png', 'Im_LeonardoDiCaprio.png', 'Im_DanielRadcliffe.png'],diff,1,0.42519390000052226,20,76.19047619047619,
DILA0206,train,neg,120,neg120_id7_im26.bmp_neg120_id7_im14.bmp,['Im_ElijahWood.png', 'Im_BradPitt.png', 'Im_KeanuReeves.png', 'Im_PatrickDempsey.png', 'Im_RyanGosling.png', 'Im_BenStiller.png', 'Im_GeorgeClooney.png', 'Im_RobertPattinson.png', 'Im_LeonardoDiCaprio.png', 'Im_DanielRadcliffe.png'],same,1,0.4251747999987856,21,76.19047619047619,
DILA0206,train,neg,60,neg60_id3_im17.bmp_neg60_id3_im6.bmp,['Im_ElijahWood.png', 'Im_BradPitt.png', 'Im_KeanuReeves.png', 'Im_PatrickDempsey.png', 'Im_RyanGosling.png', 'Im_BenStiller.png', 'Im_GeorgeClooney.png', 'Im_RobertPattinson.png', 'Im_LeonardoDiCaprio.png', 'Im_DanielRadcliffe.png'],same,1,0.7665906000001996,22,76.19047619047619,
DILA0206,train,neg,30,neg30_id11_im10.bmp_neg30_id11_im1.bmp,['Im_ElijahWood.png', 'Im_BradPitt.png', 'Im_KeanuReeves.png', 'Im_PatrickDempsey.png', 'Im_RyanGosling.png', 'Im_BenStiller.png', 'Im_GeorgeClooney.png', 'Im_RobertPattinson.png', 'Im_LeonardoDiCaprio.png', 'Im_DanielRadcliffe.png'],diff,0,0.41685340000003634,22,76.19047619047619,
DILA0206,train,neg,30,neg30_id19_im4.bmp_neg30_id19_im27.bmp,['Im_ElijahWood.png', 'Im_BradPitt.png', 'Im_KeanuReeves.png', 'Im_PatrickDempsey.png', 'Im_RyanGosling.png', 'Im_BenStiller.png', 'Im_GeorgeClooney.png', 'Im_RobertPattinson.png', 'Im_LeonardoDiCaprio.png', 'Im_DanielRadcliffe.png'],same,1,0.40843920000043,23,76.19047619047619,
DILA0206,train,neg,120,neg120_id6_im12.bmp_neg120_id11_im1.bmp,['Im_ElijahWood.png', 'Im_BradPitt.png', 'Im_KeanuReeves.png', 'Im_PatrickDempsey.png', 'Im_RyanGosling.png', 'Im_BenStiller.png', 'Im_GeorgeClooney.png', 'Im_RobertPattinson.png', 'Im_LeonardoDiCaprio.png', 'Im_DanielRadcliffe.png'],diff,1,0.51673590000064,24,76.19047619047619,
DILA0206,train,pos,120,pos120_id13_im10.bmp_pos120_id13_im29.bmp,['Im_ElijahWood.png', 'Im_BradPitt.png', 'Im_KeanuReeves.png', 'Im_PatrickDempsey.png', 'Im_RyanGosling.png', 'Im_BenStiller.png', 'Im_GeorgeClooney.png', 'Im_RobertPattinson.png', 'Im_LeonardoDiCaprio.png', 'Im_DanielRadcliffe.png'],same,1,0.4168121999991854,25,76.19047619047619,
DILA0206,train,pos,0,pos0_id2_im2.bmp_pos0_id2_im16.bmp,['Im_ElijahWood.png', 'Im_BradPitt.png', 'Im_KeanuReeves.png', 'Im_PatrickDempsey.png', 'Im_RyanGosling.png', 'Im_BenStiller.png', 'Im_GeorgeClooney.png', 'Im_RobertPattinson.png', 'Im_LeonardoDiCaprio.png', 'Im_DanielRadcliffe.png'],same,1,0.4166698000008182,26,76.19047619047619,
DILA0206,train,pos,150,pos150_id2_im3.bmp_pos150_id2_im16.bmp,['Im_ElijahWood.png', 'Im_BradPitt.png', 'Im_KeanuReeves.png', 'Im_PatrickDempsey.png', 'Im_RyanGosling.png', 'Im_BenStiller.png', 'Im_GeorgeClooney.png', 'Im_RobertPattinson.png', 'Im_LeonardoDiCaprio.png', 'Im_DanielRadcliffe.png'],same,1,0.45825890000014624,27,76.19047619047619,
DILA0206,train,pos,150,pos150_id13_im10.bmp_pos150_id20_im30.bmp,['Im_ElijahWood.png', 'Im_BradPitt.png', 'Im_KeanuReeves.png', 'Im_PatrickDempsey.png', 'Im_RyanGosling.png', 'Im_BenStiller.png', 'Im_GeorgeClooney.png', 'Im_RobertPattinson.png', 'Im_LeonardoDiCaprio.png', 'Im_DanielRadcliffe.png'],diff,1,0.40822140000091167,28,76.19047619047619,
DILA0206,train,pos,60,pos60_id20_im3.bmp_pos60_id20_im12.bmp,['Im_ElijahWood.png', 'Im_BradPitt.png', 'Im_KeanuReeves.png', 'Im_PatrickDempsey.png', 'Im_RyanGosling.png', 'Im_BenStiller.png', 'Im_GeorgeClooney.png', 'Im_RobertPattinson.png', 'Im_LeonardoDiCaprio.png', 'Im_DanielRadcliffe.png'],same,1,0.40857359999972687,29,76.19047619047619,
DILA0206,train,pos,90,pos90_id3_im8.bmp_pos90_id19_im27.bmp,['Im_ElijahWood.png', 'Im_BradPitt.png', 'Im_KeanuReeves.png', 'Im_PatrickDempsey.png', 'Im_RyanGosling.png', 'Im_BenStiller.png', 'Im_GeorgeClooney.png', 'Im_RobertPattinson.png', 'Im_LeonardoDiCaprio.png', 'Im_DanielRadcliffe.png'],diff,1,0.42511580000063987,30,76.19047619047619,
DILA0206,train,pos,90,pos90_id2_im2.bmp_pos90_id2_im3.bmp,['Im_ElijahWood.png', 'Im_BradPitt.png', 'Im_KeanuReeves.png', 'Im_PatrickDempsey.png', 'Im_RyanGosling.png', 'Im_BenStiller.png', 'Im_GeorgeClooney.png', 'Im_RobertPattinson.png', 'Im_LeonardoDiCaprio.png', 'Im_DanielRadcliffe.png'],same,1,0.408234700000321,31,76.19047619047619,
DILA0206,train,pos,120,pos120_id6_im12.bmp_pos120_id6_im18.bmp,['Im_ElijahWood.png', 'Im_BradPitt.png', 'Im_KeanuReeves.png', 'Im_PatrickDempsey.png', 'Im_RyanGosling.png', 'Im_BenStiller.png', 'Im_GeorgeClooney.png', 'Im_RobertPattinson.png', 'Im_LeonardoDiCaprio.png', 'Im_DanielRadcliffe.png'],same,1,0.49183070000071893,32,76.19047619047619,
DILA0206,train,pos,60,pos60_id13_im29.bmp_pos60_id13_im15.bmp,['Im_ElijahWood.png', 'Im_BradPitt.png', 'Im_KeanuReeves.png', 'Im_PatrickDempsey.png', 'Im_RyanGosling.png', 'Im_BenStiller.png', 'Im_GeorgeClooney.png', 'Im_RobertPattinson.png', 'Im_LeonardoDiCaprio.png', 'Im_DanielRadcliffe.png'],diff,0,0.42501439999978174,32,76.19047619047619,
DILA0206,train,pos,fs,posfs_id19_im8.bmp_posfs_id19_im4.bmp,['Im_ElijahWood.png', 'Im_BradPitt.png', 'Im_KeanuReeves.png', 'Im_PatrickDempsey.png', 'Im_RyanGosling.png', 'Im_BenStiller.png', 'Im_GeorgeClooney.png', 'Im_RobertPattinson.png', 'Im_LeonardoDiCaprio.png', 'Im_DanielRadcliffe.png'],same,1,0.41682140000011714,33,76.19047619047619,
DILA0206,train,pos,0,pos0_id5_im20.bmp_pos0_id5_im1.bmp,['Im_ElijahWood.png', 'Im_BradPitt.png', 'Im_KeanuReeves.png', 'Im_PatrickDempsey.png', 'Im_RyanGosling.png', 'Im_BenStiller.png', 'Im_GeorgeClooney.png', 'Im_RobertPattinson.png', 'Im_LeonardoDiCaprio.png', 'Im_DanielRadcliffe.png'],same,1,0.4251612000007299,34,76.19047619047619,
DILA0206,train,pos,30,pos30_id5_im10.bmp_pos30_id2_im3.bmp,['Im_ElijahWood.png', 'Im_BradPitt.png', 'Im_KeanuReeves.png', 'Im_PatrickDempsey.png', 'Im_RyanGosling.png', 'Im_BenStiller.png', 'Im_GeorgeClooney.png', 'Im_RobertPattinson.png', 'Im_LeonardoDiCaprio.png', 'Im_DanielRadcliffe.png'],diff,1,0.4167538000001514,35,76.19047619047619,
DILA0206,train,pos,fs,posfs_id13_im10.bmp_posfs_id20_im30.bmp,['Im_ElijahWood.png', 'Im_BradPitt.png', 'Im_KeanuReeves.png', 'Im_PatrickDempsey.png', 'Im_RyanGosling.png', 'Im_BenStiller.png', 'Im_GeorgeClooney.png', 'Im_RobertPattinson.png', 'Im_LeonardoDiCaprio.png', 'Im_DanielRadcliffe.png'],diff,1,0.43331690000013623,36,76.19047619047619,
DILA0206,train,pos,30,pos30_id6_im12.bmp_pos30_id11_im1.bmp,['Im_ElijahWood.png', 'Im_BradPitt.png', 'Im_KeanuReeves.png', 'Im_PatrickDempsey.png', 'Im_RyanGosling.png', 'Im_BenStiller.png', 'Im_GeorgeClooney.png', 'Im_RobertPattinson.png', 'Im_LeonardoDiCaprio.png', 'Im_DanielRadcliffe.png'],diff,1,0.4166683000003104,37,76.19047619047619,
DILA0206,0,inv,0,pos0_id3_im17.bmp_pos0_id11_im1.bmp,['Im_ElijahWood.png', 'Im_BradPitt.png', 'Im_KeanuReeves.png', 'Im_PatrickDempsey.png', 'Im_RyanGosling.png', 'Im_BenStiller.png', 'Im_GeorgeClooney.png', 'Im_RobertPattinson.png', 'Im_LeonardoDiCaprio.png', 'Im_DanielRadcliffe.png'],diff,1,0.424804000000222,1,0,
DILA0206,0,inv,60,pos60_id5_im20.bmp_pos60_id5_im10.bmp,['Im_ElijahWood.png', 'Im_BradPitt.png', 'Im_KeanuReeves.png', 'Im_PatrickDempsey.png', 'Im_RyanGosling.png', 'Im_BenStiller.png', 'Im_GeorgeClooney.png', 'Im_RobertPattinson.png', 'Im_LeonardoDiCaprio.png', 'Im_DanielRadcliffe.png'],same,1,0.40825390000100015,2,0,
DILA0206,0,inv,30,pos30_id11_im1.bmp_pos30_id3_im17.bmp,['Im_ElijahWood.png', 'Im_BradPitt.png', 'Im_KeanuReeves.png', 'Im_PatrickDempsey.png', 'Im_RyanGosling.png', 'Im_BenStiller.png', 'Im_GeorgeClooney.png', 'Im_RobertPattinson.png', 'Im_LeonardoDiCaprio.png', 'Im_DanielRadcliffe.png'],diff,1,0.42514699999992445,3,0,
DILA0206,0,inv,90,pos90_id20_im12.bmp_pos90_id5_im1.bmp,['Im_ElijahWood.png', 'Im_BradPitt.png', 'Im_KeanuReeves.png', 'Im_PatrickDempsey.png', 'Im_RyanGosling.png', 'Im_BenStiller.png', 'Im_GeorgeClooney.png', 'Im_RobertPattinson.png', 'Im_LeonardoDiCaprio.png', 'Im_DanielRadcliffe.png'],diff,1,0.42515260000072885,4,0,
DILA0206,0,inv,90,pos90_id17_im9.bmp_pos90_id20_im30.bmp,['Im_ElijahWood.png', 'Im_BradPitt.png', 'Im_KeanuReeves.png', 'Im_PatrickDempsey.png', 'Im_RyanGosling.png', 'Im_BenStiller.png', 'Im_GeorgeClooney.png', 'Im_RobertPattinson.png', 'Im_LeonardoDiCaprio.png', 'Im_DanielRadcliffe.png'],diff,1,0.4250257999992755,5,0,
DILA0206,0,inv,150,pos150_id11_im2.bmp_pos150_id2_im3.bmp,['Im_ElijahWood.png', 'Im_BradPitt.png', 'Im_KeanuReeves.png', 'Im_PatrickDempsey.png', 'Im_RyanGosling.png', 'Im_BenStiller.png', 'Im_GeorgeClooney.png', 'Im_RobertPattinson.png', 'Im_LeonardoDiCaprio.png', 'Im_DanielRadcliffe.png'],diff,1,0.4333943999990879,6,0,
DILA0206,0,inv,120,pos120_id7_im26.bmp_pos120_id7_im15.bmp,['Im_ElijahWood.png', 'Im_BradPitt.png', 'Im_KeanuReeves.png', 'Im_PatrickDempsey.png', 'Im_RyanGosling.png', 'Im_BenStiller.png', 'Im_GeorgeClooney.png', 'Im_RobertPattinson.png', 'Im_LeonardoDiCaprio.png', 'Im_DanielRadcliffe.png'],same,1,0.41666860000077577,7,0,
DILA0206,0,inv,fs,posfs_id17_im9.bmp_posfs_id7_im14.bmp,['Im_ElijahWood.png', 'Im_BradPitt.png', 'Im_KeanuReeves.png', 'Im_PatrickDempsey.png', 'Im_RyanGosling.png', 'Im_BenStiller.png', 'Im_GeorgeClooney.png', 'Im_RobertPattinson.png', 'Im_LeonardoDiCaprio.png', 'Im_DanielRadcliffe.png'],diff,1,0.4167391000009957,8,0,
DILA0206,0,inv,30,pos30_id2_im3.bmp_pos30_id11_im2.bmp,['Im_ElijahWood.png', 'Im_BradPitt.png', 'Im_KeanuReeves.png', 'Im_PatrickDempsey.png', 'Im_RyanGosling.png', 'Im_BenStiller.png', 'Im_GeorgeClooney.png', 'Im_RobertPattinson.png', 'Im_LeonardoDiCaprio.png', 'Im_DanielRadcliffe.png'],same,0,0.4833859999998822,8,0,
DILA0206,0,inv,150,pos150_id17_im14.bmp_pos150_id17_im9.bmp,['Im_ElijahWood.png', 'Im_BradPitt.png', 'Im_KeanuReeves.png', 'Im_PatrickDempsey.png', 'Im_RyanGosling.png', 'Im_BenStiller.png', 'Im_GeorgeClooney.png', 'Im_RobertPattinson.png', 'Im_LeonardoDiCaprio.png', 'Im_DanielRadcliffe.png'],same,1,0.41678959999990184,9,0,
DILA0206,0,inv,60,pos60_id17_im9.bmp_pos60_id7_im14.bmp,['Im_ElijahWood.png', 'Im_BradPitt.png', 'Im_KeanuReeves.png', 'Im_PatrickDempsey.png', 'Im_RyanGosling.png', 'Im_BenStiller.png', 'Im_GeorgeClooney.png', 'Im_RobertPattinson.png', 'Im_LeonardoDiCaprio.png', 'Im_DanielRadcliffe.png'],diff,1,0.4335728999994899,10,0,
DILA0206,0,inv,120,pos120_id6_im12.bmp_pos120_id6_im18.bmp,['Im_ElijahWood.png', 'Im_BradPitt.png', 'Im_KeanuReeves.png', 'Im_PatrickDempsey.png', 'Im_RyanGosling.png', 'Im_BenStiller.png', 'Im_GeorgeClooney.png', 'Im_RobertPattinson.png', 'Im_LeonardoDiCaprio.png', 'Im_DanielRadcliffe.png'],same,1,0.66676759999973,11,0,
DILA0206,0,inv,0,pos0_id7_im15.bmp_pos0_id7_im26.bmp,['Im_ElijahWood.png', 'Im_BradPitt.png', 'Im_KeanuReeves.png', 'Im_PatrickDempsey.png', 'Im_RyanGosling.png', 'Im_BenStiller.png', 'Im_GeorgeClooney.png', 'Im_RobertPattinson.png', 'Im_LeonardoDiCaprio.png', 'Im_DanielRadcliffe.png'],same,1,0.4333074000005581,12,0,
DILA0206,0,inv,fs,posfs_id7_im14.bmp_posfs_id7_im26.bmp,['Im_ElijahWood.png', 'Im_BradPitt.png', 'Im_KeanuReeves.png', 'Im_PatrickDempsey.png', 'Im_RyanGosling.png', 'Im_BenStiller.png', 'Im_GeorgeClooney.png', 'Im_RobertPattinson.png', 'Im_LeonardoDiCaprio.png', 'Im_DanielRadcliffe.png'],same,1,0.4167385999990074,13,0,
DILA0206,1,neg,150,neg150_id5_im20.bmp_neg150_id5_im1.bmp,['Im_ElijahWood.png', 'Im_BradPitt.png', 'Im_KeanuReeves.png', 'Im_PatrickDempsey.png', 'Im_RyanGosling.png', 'Im_BenStiller.png', 'Im_GeorgeClooney.png', 'Im_RobertPattinson.png', 'Im_LeonardoDiCaprio.png', 'Im_DanielRadcliffe.png'],same,1,0.4335676999999123,14,0,
DILA0206,1,neg,60,neg60_id11_im2.bmp_neg60_id2_im3.bmp,['Im_ElijahWood.png', 'Im_BradPitt.png', 'Im_KeanuReeves.png', 'Im_PatrickDempsey.png', 'Im_RyanGosling.png', 'Im_BenStiller.png', 'Im_GeorgeClooney.png', 'Im_RobertPattinson.png', 'Im_LeonardoDiCaprio.png', 'Im_DanielRadcliffe.png'],same,0,0.4166704999988724,14,0,
DILA0206,1,neg,fs,negfs_id17_im14.bmp_negfs_id17_im8.bmp,['Im_ElijahWood.png', 'Im_BradPitt.png', 'Im_KeanuReeves.png', 'Im_PatrickDempsey.png', 'Im_RyanGosling.png', 'Im_BenStiller.png', 'Im_GeorgeClooney.png', 'Im_RobertPattinson.png', 'Im_LeonardoDiCaprio.png', 'Im_DanielRadcliffe.png'],same,1,0.49185559999932593,15,0,
DILA0206,1,neg,30,neg30_id13_im29.bmp_neg30_id11_im2.bmp,['Im_ElijahWood.png', 'Im_BradPitt.png', 'Im_KeanuReeves.png', 'Im_PatrickDempsey.png', 'Im_RyanGosling.png', 'Im_BenStiller.png', 'Im_GeorgeClooney.png', 'Im_RobertPattinson.png', 'Im_LeonardoDiCaprio.png', 'Im_DanielRadcliffe.png'],diff,1,0.4334436999997706,16,0,
DILA0206,1,neg,0,neg0_id7_im14.bmp_neg0_id17_im9.bmp,['Im_ElijahWood.png', 'Im_BradPitt.png', 'Im_KeanuReeves.png', 'Im_PatrickDempsey.png', 'Im_RyanGosling.png', 'Im_BenStiller.png', 'Im_GeorgeClooney.png', 'Im_RobertPattinson.png', 'Im_LeonardoDiCaprio.png', 'Im_DanielRadcliffe.png'],diff,1,0.42514959999971325,17,0,
DILA0206,1,neg,fs,negfs_id3_im17.bmp_negfs_id11_im1.bmp,['Im_ElijahWood.png', 'Im_BradPitt.png', 'Im_KeanuReeves.png', 'Im_PatrickDempsey.png', 'Im_RyanGosling.png', 'Im_BenStiller.png', 'Im_GeorgeClooney.png', 'Im_RobertPattinson.png', 'Im_LeonardoDiCaprio.png', 'Im_DanielRadcliffe.png'],diff,1,0.4168982999999571,18,0,
DILA0206,1,neg,60,neg60_id6_im12.bmp_neg60_id6_im18.bmp,['Im_ElijahWood.png', 'Im_BradPitt.png', 'Im_KeanuReeves.png', 'Im_PatrickDempsey.png', 'Im_RyanGosling.png', 'Im_BenStiller.png', 'Im_GeorgeClooney.png', 'Im_RobertPattinson.png', 'Im_LeonardoDiCaprio.png', 'Im_DanielRadcliffe.png'],same,1,0.41672229999858246,19,0,
DILA0206,1,neg,90,neg90_id3_im17.bmp_neg90_id11_im1.bmp,['Im_ElijahWood.png', 'Im_BradPitt.png', 'Im_KeanuReeves.png', 'Im_PatrickDempsey.png', 'Im_RyanGosling.png', 'Im_BenStiller.png', 'Im_GeorgeClooney.png', 'Im_RobertPattinson.png', 'Im_LeonardoDiCaprio.png', 'Im_DanielRadcliffe.png'],diff,1,0.5427794999995967,20,0,
DILA0206,1,neg,30,neg30_id7_im14.bmp_neg30_id17_im9.bmp,['Im_ElijahWood.png', 'Im_BradPitt.png', 'Im_KeanuReeves.png', 'Im_PatrickDempsey.png', 'Im_RyanGosling.png', 'Im_BenStiller.png', 'Im_GeorgeClooney.png', 'Im_RobertPattinson.png', 'Im_LeonardoDiCaprio.png', 'Im_DanielRadcliffe.png'],diff,1,0.6499121999986528,21,0,
DILA0206,1,neg,120,neg120_id17_im9.bmp_neg120_id20_im30.bmp,['Im_ElijahWood.png', 'Im_BradPitt.png', 'Im_KeanuReeves.png', 'Im_PatrickDempsey.png', 'Im_RyanGosling.png', 'Im_BenStiller.png', 'Im_GeorgeClooney.png', 'Im_RobertPattinson.png', 'Im_LeonardoDiCaprio.png', 'Im_DanielRadcliffe.png'],diff,1,0.41674129999955767,22,0,
DILA0206,1,neg,90,neg90_id13_im15.bmp_neg90_id19_im27.bmp,['Im_ElijahWood.png', 'Im_BradPitt.png', 'Im_KeanuReeves.png', 'Im_PatrickDempsey.png', 'Im_RyanGosling.png', 'Im_BenStiller.png', 'Im_GeorgeClooney.png', 'Im_RobertPattinson.png', 'Im_LeonardoDiCaprio.png', 'Im_DanielRadcliffe.png'],diff,1,0.5166898000006768,23,0,
DILA0206,1,neg,120,neg120_id17_im14.bmp_neg120_id17_im9.bmp,['Im_ElijahWood.png', 'Im_BradPitt.png', 'Im_KeanuReeves.png', 'Im_PatrickDempsey.png', 'Im_RyanGosling.png', 'Im_BenStiller.png', 'Im_GeorgeClooney.png', 'Im_RobertPattinson.png', 'Im_LeonardoDiCaprio.png', 'Im_DanielRadcliffe.png'],same,1,1.2001624000004085,24,0,
DILA0206,1,neg,150,neg150_id7_im15.bmp_neg150_id20_im3.bmp,['Im_ElijahWood.png', 'Im_BradPitt.png', 'Im_KeanuReeves.png', 'Im_PatrickDempsey.png', 'Im_RyanGosling.png', 'Im_BenStiller.png', 'Im_GeorgeClooney.png', 'Im_RobertPattinson.png', 'Im_LeonardoDiCaprio.png', 'Im_DanielRadcliffe.png'],diff,1,0.5501487000001362,25,0,
DILA0206,1,neg,0,neg0_id2_im3.bmp_neg0_id5_im10.bmp,['Im_ElijahWood.png', 'Im_BradPitt.png', 'Im_KeanuReeves.png', 'Im_PatrickDempsey.png', 'Im_RyanGosling.png', 'Im_BenStiller.png', 'Im_GeorgeClooney.png', 'Im_RobertPattinson.png', 'Im_LeonardoDiCaprio.png', 'Im_DanielRadcliffe.png'],diff,1,0.6249190999988059,26,0,
DILA0206,2,pos,150,pos150_id20_im12.bmp_pos150_id20_im3.bmp,['Im_ElijahWood.png', 'Im_BradPitt.png', 'Im_KeanuReeves.png', 'Im_PatrickDempsey.png', 'Im_RyanGosling.png', 'Im_BenStiller.png', 'Im_GeorgeClooney.png', 'Im_RobertPattinson.png', 'Im_LeonardoDiCaprio.png', 'Im_DanielRadcliffe.png'],same,1,0.42509439999957976,27,0,
DILA0206,2,pos,30,pos30_id2_im2.bmp_pos30_id2_im3.bmp,['Im_ElijahWood.png', 'Im_BradPitt.png', 'Im_KeanuReeves.png', 'Im_PatrickDempsey.png', 'Im_RyanGosling.png', 'Im_BenStiller.png', 'Im_GeorgeClooney.png', 'Im_RobertPattinson.png', 'Im_LeonardoDiCaprio.png', 'Im_DanielRadcliffe.png'],same,1,0.4167441999998118,28,0,
DILA0206,2,pos,0,pos0_id19_im4.bmp_pos0_id11_im10.bmp,['Im_ElijahWood.png', 'Im_BradPitt.png', 'Im_KeanuReeves.png', 'Im_PatrickDempsey.png', 'Im_RyanGosling.png', 'Im_BenStiller.png', 'Im_GeorgeClooney.png', 'Im_RobertPattinson.png', 'Im_LeonardoDiCaprio.png', 'Im_DanielRadcliffe.png'],diff,1,0.5917267999993783,29,0,
DILA0206,2,pos,fs,posfs_id11_im1.bmp_posfs_id11_im2.bmp,['Im_ElijahWood.png', 'Im_BradPitt.png', 'Im_KeanuReeves.png', 'Im_PatrickDempsey.png', 'Im_RyanGosling.png', 'Im_BenStiller.png', 'Im_GeorgeClooney.png', 'Im_RobertPattinson.png', 'Im_LeonardoDiCaprio.png', 'Im_DanielRadcliffe.png'],same,1,0.4336796999996295,30,0,
DILA0206,2,pos,90,pos90_id20_im30.bmp_pos90_id20_im3.bmp,['Im_ElijahWood.png', 'Im_BradPitt.png', 'Im_KeanuReeves.png', 'Im_PatrickDempsey.png', 'Im_RyanGosling.png', 'Im_BenStiller.png', 'Im_GeorgeClooney.png', 'Im_RobertPattinson.png', 'Im_LeonardoDiCaprio.png', 'Im_DanielRadcliffe.png'],diff,0,0.49167079999824637,30,0,
DILA0206,2,pos,90,pos90_id17_im14.bmp_pos90_id17_im8.bmp,['Im_ElijahWood.png', 'Im_BradPitt.png', 'Im_KeanuReeves.png', 'Im_PatrickDempsey.png', 'Im_RyanGosling.png', 'Im_BenStiller.png', 'Im_GeorgeClooney.png', 'Im_RobertPattinson.png', 'Im_LeonardoDiCaprio.png', 'Im_DanielRadcliffe.png'],same,1,0.5167290999997931,31,0,
DILA0206,2,pos,30,pos30_id6_im12.bmp_pos30_id6_im18.bmp,['Im_ElijahWood.png', 'Im_BradPitt.png', 'Im_KeanuReeves.png', 'Im_PatrickDempsey.png', 'Im_RyanGosling.png', 'Im_BenStiller.png', 'Im_GeorgeClooney.png', 'Im_RobertPattinson.png', 'Im_LeonardoDiCaprio.png', 'Im_DanielRadcliffe.png'],same,1,0.41670390000035695,32,0,
DILA0206,2,pos,150,pos150_id6_im18.bmp_pos150_id2_im2.bmp,['Im_ElijahWood.png', 'Im_BradPitt.png', 'Im_KeanuReeves.png', 'Im_PatrickDempsey.png', 'Im_RyanGosling.png', 'Im_BenStiller.png', 'Im_GeorgeClooney.png', 'Im_RobertPattinson.png', 'Im_LeonardoDiCaprio.png', 'Im_DanielRadcliffe.png'],diff,1,0.4333556999990833,33,0,
DILA0206,2,pos,0,pos0_id6_im19.bmp_pos0_id17_im14.bmp,['Im_ElijahWood.png', 'Im_BradPitt.png', 'Im_KeanuReeves.png', 'Im_PatrickDempsey.png', 'Im_RyanGosling.png', 'Im_BenStiller.png', 'Im_GeorgeClooney.png', 'Im_RobertPattinson.png', 'Im_LeonardoDiCaprio.png', 'Im_DanielRadcliffe.png'],diff,1,0.41666340000119817,34,0,
DILA0206,2,pos,fs,posfs_id20_im12.bmp_posfs_id20_im3.bmp,['Im_ElijahWood.png', 'Im_BradPitt.png', 'Im_KeanuReeves.png', 'Im_PatrickDempsey.png', 'Im_RyanGosling.png', 'Im_BenStiller.png', 'Im_GeorgeClooney.png', 'Im_RobertPattinson.png', 'Im_LeonardoDiCaprio.png', 'Im_DanielRadcliffe.png'],same,1,0.4166953999992984,35,0,
DILA0206,2,pos,60,pos60_id5_im1.bmp_pos60_id5_im20.bmp,['Im_ElijahWood.png', 'Im_BradPitt.png', 'Im_KeanuReeves.png', 'Im_PatrickDempsey.png', 'Im_RyanGosling.png', 'Im_BenStiller.png', 'Im_GeorgeClooney.png', 'Im_RobertPattinson.png', 'Im_LeonardoDiCaprio.png', 'Im_DanielRadcliffe.png'],same,1,0.4166817000004812,36,0,
DILA0206,2,pos,60,pos60_id13_im15.bmp_pos60_id13_im10.bmp,['Im_ElijahWood.png', 'Im_BradPitt.png', 'Im_KeanuReeves.png', 'Im_PatrickDempsey.png', 'Im_RyanGosling.png', 'Im_BenStiller.png', 'Im_GeorgeClooney.png', 'Im_RobertPattinson.png', 'Im_LeonardoDiCaprio.png', 'Im_DanielRadcliffe.png'],same,1,0.4167708000004495,37,0,
DILA0206,2,pos,120,pos120_id13_im10.bmp_pos120_id13_im15.bmp,['Im_ElijahWood.png', 'Im_BradPitt.png', 'Im_KeanuReeves.png', 'Im_PatrickDempsey.png', 'Im_RyanGosling.png', 'Im_BenStiller.png', 'Im_GeorgeClooney.png', 'Im_RobertPattinson.png', 'Im_LeonardoDiCaprio.png', 'Im_DanielRadcliffe.png'],same,1,0.4333409999999276,38,0,
DILA0206,2,pos,120,pos120_id19_im4.bmp_pos120_id19_im8.bmp,['Im_ElijahWood.png', 'Im_BradPitt.png', 'Im_KeanuReeves.png', 'Im_PatrickDempsey.png', 'Im_RyanGosling.png', 'Im_BenStiller.png', 'Im_GeorgeClooney.png', 'Im_RobertPattinson.png', 'Im_LeonardoDiCaprio.png', 'Im_DanielRadcliffe.png'],same,1,0.4252620000006573,39,0,
DILA0206,3,neg,30,neg30_id7_im15.bmp_neg30_id7_im26.bmp,['Im_ElijahWood.png', 'Im_BradPitt.png', 'Im_KeanuReeves.png', 'Im_PatrickDempsey.png', 'Im_RyanGosling.png', 'Im_BenStiller.png', 'Im_GeorgeClooney.png', 'Im_RobertPattinson.png', 'Im_LeonardoDiCaprio.png', 'Im_DanielRadcliffe.png'],same,1,0.4167416999989655,1,92.85714285714286,
DILA0206,3,neg,150,neg150_id17_im9.bmp_neg150_id17_im8.bmp,['Im_ElijahWood.png', 'Im_BradPitt.png', 'Im_KeanuReeves.png', 'Im_PatrickDempsey.png', 'Im_RyanGosling.png', 'Im_BenStiller.png', 'Im_GeorgeClooney.png', 'Im_RobertPattinson.png', 'Im_LeonardoDiCaprio.png', 'Im_DanielRadcliffe.png'],same,1,0.5336217999993096,2,92.85714285714286,
DILA0206,3,neg,90,neg90_id13_im10.bmp_neg90_id17_im8.bmp,['Im_ElijahWood.png', 'Im_BradPitt.png', 'Im_KeanuReeves.png', 'Im_PatrickDempsey.png', 'Im_RyanGosling.png', 'Im_BenStiller.png', 'Im_GeorgeClooney.png', 'Im_RobertPattinson.png', 'Im_LeonardoDiCaprio.png', 'Im_DanielRadcliffe.png'],same,0,0.40855349999947066,2,92.85714285714286,
DILA0206,3,neg,fs,negfs_id11_im10.bmp_negfs_id11_im2.bmp,['Im_ElijahWood.png', 'Im_BradPitt.png', 'Im_KeanuReeves.png', 'Im_PatrickDempsey.png', 'Im_RyanGosling.png', 'Im_BenStiller.png', 'Im_GeorgeClooney.png', 'Im_RobertPattinson.png', 'Im_LeonardoDiCaprio.png', 'Im_DanielRadcliffe.png'],same,1,0.43345399999998335,3,92.85714285714286,
DILA0206,3,neg,120,neg120_id13_im10.bmp_neg120_id17_im8.bmp,['Im_ElijahWood.png', 'Im_BradPitt.png', 'Im_KeanuReeves.png', 'Im_PatrickDempsey.png', 'Im_RyanGosling.png', 'Im_BenStiller.png', 'Im_GeorgeClooney.png', 'Im_RobertPattinson.png', 'Im_LeonardoDiCaprio.png', 'Im_DanielRadcliffe.png'],diff,1,0.4250592999997025,4,92.85714285714286,
DILA0206,3,neg,120,neg120_id20_im12.bmp_neg120_id5_im1.bmp,['Im_ElijahWood.png', 'Im_BradPitt.png', 'Im_KeanuReeves.png', 'Im_PatrickDempsey.png', 'Im_RyanGosling.png', 'Im_BenStiller.png', 'Im_GeorgeClooney.png', 'Im_RobertPattinson.png', 'Im_LeonardoDiCaprio.png', 'Im_DanielRadcliffe.png'],diff,1,0.42486169999938284,5,92.85714285714286,
DILA0206,3,neg,90,neg90_id7_im14.bmp_neg90_id7_im26.bmp,['Im_ElijahWood.png', 'Im_BradPitt.png', 'Im_KeanuReeves.png', 'Im_PatrickDempsey.png', 'Im_RyanGosling.png', 'Im_BenStiller.png', 'Im_GeorgeClooney.png', 'Im_RobertPattinson.png', 'Im_LeonardoDiCaprio.png', 'Im_DanielRadcliffe.png'],same,1,0.40848670000013954,6,92.85714285714286,
DILA0206,3,neg,150,neg150_id13_im15.bmp_neg150_id13_im29.bmp,['Im_ElijahWood.png', 'Im_BradPitt.png', 'Im_KeanuReeves.png', 'Im_PatrickDempsey.png', 'Im_RyanGosling.png', 'Im_BenStiller.png', 'Im_GeorgeClooney.png', 'Im_RobertPattinson.png', 'Im_LeonardoDiCaprio.png', 'Im_DanielRadcliffe.png'],diff,0,0.4333363999994617,6,92.85714285714286,
DILA0206,3,neg,60,neg60_id6_im18.bmp_neg60_id2_im2.bmp,['Im_ElijahWood.png', 'Im_BradPitt.png', 'Im_KeanuReeves.png', 'Im_PatrickDempsey.png', 'Im_RyanGosling.png', 'Im_BenStiller.png', 'Im_GeorgeClooney.png', 'Im_RobertPattinson.png', 'Im_LeonardoDiCaprio.png', 'Im_DanielRadcliffe.png'],diff,1,0.5835606000000553,7,92.85714285714286,
DILA0206,3,neg,60,neg60_id19_im8.bmp_neg60_id5_im20.bmp,['Im_ElijahWood.png', 'Im_BradPitt.png', 'Im_KeanuReeves.png', 'Im_PatrickDempsey.png', 'Im_RyanGosling.png', 'Im_BenStiller.png', 'Im_GeorgeClooney.png', 'Im_RobertPattinson.png', 'Im_LeonardoDiCaprio.png', 'Im_DanielRadcliffe.png'],same,0,0.4168066000002,7,92.85714285714286,
DILA0206,3,neg,0,neg0_id19_im4.bmp_neg0_id11_im10.bmp,['Im_ElijahWood.png', 'Im_BradPitt.png', 'Im_KeanuReeves.png', 'Im_PatrickDempsey.png', 'Im_RyanGosling.png', 'Im_BenStiller.png', 'Im_GeorgeClooney.png', 'Im_RobertPattinson.png', 'Im_LeonardoDiCaprio.png', 'Im_DanielRadcliffe.png'],diff,1,0.4168198000006669,8,92.85714285714286,
DILA0206,3,neg,30,neg30_id11_im2.bmp_neg30_id11_im10.bmp,['Im_ElijahWood.png', 'Im_BradPitt.png', 'Im_KeanuReeves.png', 'Im_PatrickDempsey.png', 'Im_RyanGosling.png', 'Im_BenStiller.png', 'Im_GeorgeClooney.png', 'Im_RobertPattinson.png', 'Im_LeonardoDiCaprio.png', 'Im_DanielRadcliffe.png'],same,1,0.41677209999943443,9,92.85714285714286,
DILA0206,3,neg,fs,negfs_id3_im17.bmp_negfs_id3_im8.bmp,['Im_ElijahWood.png', 'Im_BradPitt.png', 'Im_KeanuReeves.png', 'Im_PatrickDempsey.png', 'Im_RyanGosling.png', 'Im_BenStiller.png', 'Im_GeorgeClooney.png', 'Im_RobertPattinson.png', 'Im_LeonardoDiCaprio.png', 'Im_DanielRadcliffe.png'],diff,0,0.5500156999987666,9,92.85714285714286,
DILA0206,3,neg,0,neg0_id2_im2.bmp_neg0_id6_im18.bmp,['Im_ElijahWood.png', 'Im_BradPitt.png', 'Im_KeanuReeves.png', 'Im_PatrickDempsey.png', 'Im_RyanGosling.png', 'Im_BenStiller.png', 'Im_GeorgeClooney.png', 'Im_RobertPattinson.png', 'Im_LeonardoDiCaprio.png', 'Im_DanielRadcliffe.png'],diff,1,0.5500694000002113,10,92.85714285714286,
DILA0206,4,inv,fs,posfs_id19_im4.bmp_posfs_id19_im27.bmp,['Im_ElijahWood.png', 'Im_BradPitt.png', 'Im_KeanuReeves.png', 'Im_PatrickDempsey.png', 'Im_RyanGosling.png', 'Im_BenStiller.png', 'Im_GeorgeClooney.png', 'Im_RobertPattinson.png', 'Im_LeonardoDiCaprio.png', 'Im_DanielRadcliffe.png'],same,1,0.4083733999996184,11,92.85714285714286,
DILA0206,4,inv,120,pos120_id7_im26.bmp_pos120_id3_im8.bmp,['Im_ElijahWood.png', 'Im_BradPitt.png', 'Im_KeanuReeves.png', 'Im_PatrickDempsey.png', 'Im_RyanGosling.png', 'Im_BenStiller.png', 'Im_GeorgeClooney.png', 'Im_RobertPattinson.png', 'Im_LeonardoDiCaprio.png', 'Im_DanielRadcliffe.png'],diff,1,0.41689230000156385,12,92.85714285714286,
DILA0206,4,inv,60,pos60_id5_im1.bmp_pos60_id6_im12.bmp,['Im_ElijahWood.png', 'Im_BradPitt.png', 'Im_KeanuReeves.png', 'Im_PatrickDempsey.png', 'Im_RyanGosling.png', 'Im_BenStiller.png', 'Im_GeorgeClooney.png', 'Im_RobertPattinson.png', 'Im_LeonardoDiCaprio.png', 'Im_DanielRadcliffe.png'],same,0,0.43337009999959264,12,92.85714285714286,
DILA0206,4,inv,90,pos90_id19_im4.bmp_pos90_id19_im8.bmp,['Im_ElijahWood.png', 'Im_BradPitt.png', 'Im_KeanuReeves.png', 'Im_PatrickDempsey.png', 'Im_RyanGosling.png', 'Im_BenStiller.png', 'Im_GeorgeClooney.png', 'Im_RobertPattinson.png', 'Im_LeonardoDiCaprio.png', 'Im_DanielRadcliffe.png'],diff,0,0.4833304000003409,12,92.85714285714286,
DILA0206,4,inv,150,pos150_id11_im10.bmp_pos150_id19_im4.bmp,['Im_ElijahWood.png', 'Im_BradPitt.png', 'Im_KeanuReeves.png', 'Im_PatrickDempsey.png', 'Im_RyanGosling.png', 'Im_BenStiller.png', 'Im_GeorgeClooney.png', 'Im_RobertPattinson.png', 'Im_LeonardoDiCaprio.png', 'Im_DanielRadcliffe.png'],diff,1,0.5000263999991148,13,92.85714285714286,
DILA0206,4,inv,60,pos60_id20_im3.bmp_pos60_id7_im15.bmp,['Im_ElijahWood.png', 'Im_BradPitt.png', 'Im_KeanuReeves.png', 'Im_PatrickDempsey.png', 'Im_RyanGosling.png', 'Im_BenStiller.png', 'Im_GeorgeClooney.png', 'Im_RobertPattinson.png', 'Im_LeonardoDiCaprio.png', 'Im_DanielRadcliffe.png'],same,0,0.40849359999992885,13,92.85714285714286,
DILA0206,4,inv,30,pos30_id5_im20.bmp_pos30_id5_im1.bmp,['Im_ElijahWood.png', 'Im_BradPitt.png', 'Im_KeanuReeves.png', 'Im_PatrickDempsey.png', 'Im_RyanGosling.png', 'Im_BenStiller.png', 'Im_GeorgeClooney.png', 'Im_RobertPattinson.png', 'Im_LeonardoDiCaprio.png', 'Im_DanielRadcliffe.png'],same,1,0.4166794000011578,14,92.85714285714286,
DILA0206,4,inv,120,pos120_id7_im14.bmp_pos120_id5_im10.bmp,['Im_ElijahWood.png', 'Im_BradPitt.png', 'Im_KeanuReeves.png', 'Im_PatrickDempsey.png', 'Im_RyanGosling.png', 'Im_BenStiller.png', 'Im_GeorgeClooney.png', 'Im_RobertPattinson.png', 'Im_LeonardoDiCaprio.png', 'Im_DanielRadcliffe.png'],diff,1,0.41679860000112967,15,92.85714285714286,
DILA0206,4,inv,0,pos0_id3_im17.bmp_pos0_id13_im29.bmp,['Im_ElijahWood.png', 'Im_BradPitt.png', 'Im_KeanuReeves.png', 'Im_PatrickDempsey.png', 'Im_RyanGosling.png', 'Im_BenStiller.png', 'Im_GeorgeClooney.png', 'Im_RobertPattinson.png', 'Im_LeonardoDiCaprio.png', 'Im_DanielRadcliffe.png'],same,0,0.5420516999984102,15,92.85714285714286,
DILA0206,4,inv,0,pos0_id6_im19.bmp_pos0_id2_im2.bmp,['Im_ElijahWood.png', 'Im_BradPitt.png', 'Im_KeanuReeves.png', 'Im_PatrickDempsey.png', 'Im_RyanGosling.png', 'Im_BenStiller.png', 'Im_GeorgeClooney.png', 'Im_RobertPattinson.png', 'Im_LeonardoDiCaprio.png', 'Im_DanielRadcliffe.png'],diff,1,1.6165239000001748,16,92.85714285714286,
DILA0206,4,inv,30,pos30_id13_im10.bmp_pos30_id17_im8.bmp,['Im_ElijahWood.png', 'Im_BradPitt.png', 'Im_KeanuReeves.png', 'Im_PatrickDempsey.png', 'Im_RyanGosling.png', 'Im_BenStiller.png', 'Im_GeorgeClooney.png', 'Im_RobertPattinson.png', 'Im_LeonardoDiCaprio.png', 'Im_DanielRadcliffe.png'],same,0,0.7334596000000602,16,92.85714285714286,
DILA0206,4,inv,90,pos90_id13_im29.bmp_pos90_id13_im15.bmp,['Im_ElijahWood.png', 'Im_BradPitt.png', 'Im_KeanuReeves.png', 'Im_PatrickDempsey.png', 'Im_RyanGosling.png', 'Im_BenStiller.png', 'Im_GeorgeClooney.png', 'Im_RobertPattinson.png', 'Im_LeonardoDiCaprio.png', 'Im_DanielRadcliffe.png'],same,1,0.4250314000000799,17,92.85714285714286,
DILA0206,4,inv,150,pos150_id2_im16.bmp_pos150_id2_im2.bmp,['Im_ElijahWood.png', 'Im_BradPitt.png', 'Im_KeanuReeves.png', 'Im_PatrickDempsey.png', 'Im_RyanGosling.png', 'Im_BenStiller.png', 'Im_GeorgeClooney.png', 'Im_RobertPattinson.png', 'Im_LeonardoDiCaprio.png', 'Im_DanielRadcliffe.png'],same,1,0.42501460000130464,18,92.85714285714286,
DILA0206,4,inv,fs,posfs_id11_im1.bmp_posfs_id6_im12.bmp,['Im_ElijahWood.png', 'Im_BradPitt.png', 'Im_KeanuReeves.png', 'Im_PatrickDempsey.png', 'Im_RyanGosling.png', 'Im_BenStiller.png', 'Im_GeorgeClooney.png', 'Im_RobertPattinson.png', 'Im_LeonardoDiCaprio.png', 'Im_DanielRadcliffe.png'],diff,1,0.408346199999869,19,92.85714285714286,
DILA0206,5,pos,120,pos120_id2_im3.bmp_pos120_id2_im2.bmp,['Im_ElijahWood.png', 'Im_BradPitt.png', 'Im_KeanuReeves.png', 'Im_PatrickDempsey.png', 'Im_RyanGosling.png', 'Im_BenStiller.png', 'Im_GeorgeClooney.png', 'Im_RobertPattinson.png', 'Im_LeonardoDiCaprio.png', 'Im_DanielRadcliffe.png'],same,1,0.416781699999774,20,92.85714285714286,
DILA0206,5,pos,150,pos150_id7_im26.bmp_pos150_id7_im15.bmp,['Im_ElijahWood.png', 'Im_BradPitt.png', 'Im_KeanuReeves.png', 'Im_PatrickDempsey.png', 'Im_RyanGosling.png', 'Im_BenStiller.png', 'Im_GeorgeClooney.png', 'Im_RobertPattinson.png', 'Im_LeonardoDiCaprio.png', 'Im_DanielRadcliffe.png'],same,1,0.4167598000003636,21,92.85714285714286,
DILA0206,5,pos,120,pos120_id6_im19.bmp_pos120_id6_im12.bmp,['Im_ElijahWood.png', 'Im_BradPitt.png', 'Im_KeanuReeves.png', 'Im_PatrickDempsey.png', 'Im_RyanGosling.png', 'Im_BenStiller.png', 'Im_GeorgeClooney.png', 'Im_RobertPattinson.png', 'Im_LeonardoDiCaprio.png', 'Im_DanielRadcliffe.png'],same,1,0.4166920999996364,22,92.85714285714286,
DILA0206,5,pos,30,pos30_id3_im8.bmp_pos30_id3_im17.bmp,['Im_ElijahWood.png', 'Im_BradPitt.png', 'Im_KeanuReeves.png', 'Im_PatrickDempsey.png', 'Im_RyanGosling.png', 'Im_BenStiller.png', 'Im_GeorgeClooney.png', 'Im_RobertPattinson.png', 'Im_LeonardoDiCaprio.png', 'Im_DanielRadcliffe.png'],same,1,0.4168133000002854,23,92.85714285714286,
DILA0206,5,pos,30,pos30_id3_im6.bmp_pos30_id19_im8.bmp,['Im_ElijahWood.png', 'Im_BradPitt.png', 'Im_KeanuReeves.png', 'Im_PatrickDempsey.png', 'Im_RyanGosling.png', 'Im_BenStiller.png', 'Im_GeorgeClooney.png', 'Im_RobertPattinson.png', 'Im_LeonardoDiCaprio.png', 'Im_DanielRadcliffe.png'],diff,1,0.41678890000002866,24,92.85714285714286,
DILA0206,5,pos,fs,posfs_id13_im29.bmp_posfs_id13_im15.bmp,['Im_ElijahWood.png', 'Im_BradPitt.png', 'Im_KeanuReeves.png', 'Im_PatrickDempsey.png', 'Im_RyanGosling.png', 'Im_BenStiller.png', 'Im_GeorgeClooney.png', 'Im_RobertPattinson.png', 'Im_LeonardoDiCaprio.png', 'Im_DanielRadcliffe.png'],same,1,0.42505139999957464,25,92.85714285714286,
DILA0206,5,pos,90,pos90_id13_im15.bmp_pos90_id13_im10.bmp,['Im_ElijahWood.png', 'Im_BradPitt.png', 'Im_KeanuReeves.png', 'Im_PatrickDempsey.png', 'Im_RyanGosling.png', 'Im_BenStiller.png', 'Im_GeorgeClooney.png', 'Im_RobertPattinson.png', 'Im_LeonardoDiCaprio.png', 'Im_DanielRadcliffe.png'],same,1,0.4168172000008781,26,92.85714285714286,
DILA0206,5,pos,60,pos60_id17_im14.bmp_pos60_id2_im16.bmp,['Im_ElijahWood.png', 'Im_BradPitt.png', 'Im_KeanuReeves.png', 'Im_PatrickDempsey.png', 'Im_RyanGosling.png', 'Im_BenStiller.png', 'Im_GeorgeClooney.png', 'Im_RobertPattinson.png', 'Im_LeonardoDiCaprio.png', 'Im_DanielRadcliffe.png'],diff,1,0.42499539999880653,27,92.85714285714286,
DILA0206,5,pos,60,pos60_id11_im1.bmp_pos60_id6_im12.bmp,['Im_ElijahWood.png', 'Im_BradPitt.png', 'Im_KeanuReeves.png', 'Im_PatrickDempsey.png', 'Im_RyanGosling.png', 'Im_BenStiller.png', 'Im_GeorgeClooney.png', 'Im_RobertPattinson.png', 'Im_LeonardoDiCaprio.png', 'Im_DanielRadcliffe.png'],diff,1,0.4164792999999918,28,92.85714285714286,
DILA0206,5,pos,150,pos150_id6_im12.bmp_pos150_id6_im19.bmp,['Im_ElijahWood.png', 'Im_BradPitt.png', 'Im_KeanuReeves.png', 'Im_PatrickDempsey.png', 'Im_RyanGosling.png', 'Im_BenStiller.png', 'Im_GeorgeClooney.png', 'Im_RobertPattinson.png', 'Im_LeonardoDiCaprio.png', 'Im_DanielRadcliffe.png'],same,1,0.5000018999999156,29,92.85714285714286,
DILA0206,5,pos,0,pos0_id13_im29.bmp_pos0_id11_im2.bmp,['Im_ElijahWood.png', 'Im_BradPitt.png', 'Im_KeanuReeves.png', 'Im_PatrickDempsey.png', 'Im_RyanGosling.png', 'Im_BenStiller.png', 'Im_GeorgeClooney.png', 'Im_RobertPattinson.png', 'Im_LeonardoDiCaprio.png', 'Im_DanielRadcliffe.png'],diff,1,0.43343000000095344,30,92.85714285714286,
DILA0206,5,pos,90,pos90_id20_im12.bmp_pos90_id20_im30.bmp,['Im_ElijahWood.png', 'Im_BradPitt.png', 'Im_KeanuReeves.png', 'Im_PatrickDempsey.png', 'Im_RyanGosling.png', 'Im_BenStiller.png', 'Im_GeorgeClooney.png', 'Im_RobertPattinson.png', 'Im_LeonardoDiCaprio.png', 'Im_DanielRadcliffe.png'],same,1,0.42501939999965543,31,92.85714285714286,
DILA0206,5,pos,0,pos0_id11_im2.bmp_pos0_id2_im3.bmp,['Im_ElijahWood.png', 'Im_BradPitt.png', 'Im_KeanuReeves.png', 'Im_PatrickDempsey.png', 'Im_RyanGosling.png', 'Im_BenStiller.png', 'Im_GeorgeClooney.png', 'Im_RobertPattinson.png', 'Im_LeonardoDiCaprio.png', 'Im_DanielRadcliffe.png'],diff,1,0.5750643999999738,32,92.85714285714286,
DILA0206,5,pos,fs,posfs_id6_im12.bmp_posfs_id5_im1.bmp,['Im_ElijahWood.png', 'Im_BradPitt.png', 'Im_KeanuReeves.png', 'Im_PatrickDempsey.png', 'Im_RyanGosling.png', 'Im_BenStiller.png', 'Im_GeorgeClooney.png', 'Im_RobertPattinson.png', 'Im_LeonardoDiCaprio.png', 'Im_DanielRadcliffe.png'],same,0,0.4665881000000809,32,92.85714285714286,
DILA0206,6,inv,fs,posfs_id6_im18.bmp_posfs_id6_im12.bmp,['Im_ElijahWood.png', 'Im_BradPitt.png', 'Im_KeanuReeves.png', 'Im_PatrickDempsey.png', 'Im_RyanGosling.png', 'Im_BenStiller.png', 'Im_GeorgeClooney.png', 'Im_RobertPattinson.png', 'Im_LeonardoDiCaprio.png', 'Im_DanielRadcliffe.png'],diff,0,0.42521920000035607,0,76.19047619047619,
