Sujet,Trial,Condition,Filter,Imname,Actor0,Actor1,Actor2,Actor3,Actor4,Actor5,Actor6,Actor7,Actor8,Actor9,Answer,Accu,RT,Score,Scoreperc, 
ELHE1110,train,inv,0,pos0_id14_im18.bmp_pos0_id14_im16.bmp,['Im_JustinTimberlake.png', 'Im_ElijahWood.png', 'Im_HughJackman.png', 'Im_OrlandoBloom.png', 'Im_MattDamon.png', 'Im_DanielCraig.png', 'Im_RobertDowneyJr.png', 'Im_GeorgeClooney.png', 'Im_PatrickDempsey.png', 'Im_RyanGosling.png'],same,1,1.0833307000000332,1,0,
ELHE1110,train,inv,60,pos60_id6_im12.bmp_pos60_id7_im14.bmp,['Im_JustinTimberlake.png', 'Im_ElijahWood.png', 'Im_HughJackman.png', 'Im_OrlandoBloom.png', 'Im_MattDamon.png', 'Im_DanielCraig.png', 'Im_RobertDowneyJr.png', 'Im_GeorgeClooney.png', 'Im_PatrickDempsey.png', 'Im_RyanGosling.png'],diff,1,0.4083602999999698,2,0,
ELHE1110,train,inv,150,pos150_id20_im12.bmp_pos150_id20_im3.bmp,['Im_JustinTimberlake.png', 'Im_ElijahWood.png', 'Im_HughJackman.png', 'Im_OrlandoBloom.png', 'Im_MattDamon.png', 'Im_DanielCraig.png', 'Im_RobertDowneyJr.png', 'Im_GeorgeClooney.png', 'Im_PatrickDempsey.png', 'Im_RyanGosling.png'],same,1,0.4167857999999569,3,0,
ELHE1110,train,inv,90,pos90_id20_im30.bmp_pos90_id10_im18.bmp,['Im_JustinTimberlake.png', 'Im_ElijahWood.png', 'Im_HughJackman.png', 'Im_OrlandoBloom.png', 'Im_MattDamon.png', 'Im_DanielCraig.png', 'Im_RobertDowneyJr.png', 'Im_GeorgeClooney.png', 'Im_PatrickDempsey.png', 'Im_RyanGosling.png'],diff,1,0.8086101000000099,4,0,
ELHE1110,train,inv,30,pos30_id20_im30.bmp_pos30_id20_im3.bmp,['Im_JustinTimberlake.png', 'Im_ElijahWood.png', 'Im_HughJackman.png', 'Im_OrlandoBloom.png', 'Im_MattDamon.png', 'Im_DanielCraig.png', 'Im_RobertDowneyJr.png', 'Im_GeorgeClooney.png', 'Im_PatrickDempsey.png', 'Im_RyanGosling.png'],same,1,0.5499484999999709,5,0,
ELHE1110,train,inv,90,pos90_id16_im19.bmp_pos90_id20_im12.bmp,['Im_JustinTimberlake.png', 'Im_ElijahWood.png', 'Im_HughJackman.png', 'Im_OrlandoBloom.png', 'Im_MattDamon.png', 'Im_DanielCraig.png', 'Im_RobertDowneyJr.png', 'Im_GeorgeClooney.png', 'Im_PatrickDempsey.png', 'Im_RyanGosling.png'],diff,1,0.683305799999971,6,0,
ELHE1110,train,inv,120,pos120_id7_im26.bmp_pos120_id7_im15.bmp,['Im_JustinTimberlake.png', 'Im_ElijahWood.png', 'Im_HughJackman.png', 'Im_OrlandoBloom.png', 'Im_MattDamon.png', 'Im_DanielCraig.png', 'Im_RobertDowneyJr.png', 'Im_GeorgeClooney.png', 'Im_PatrickDempsey.png', 'Im_RyanGosling.png'],same,1,0.7004678000000126,7,0,
ELHE1110,train,inv,0,pos0_id7_im14.bmp_pos0_id6_im12.bmp,['Im_JustinTimberlake.png', 'Im_ElijahWood.png', 'Im_HughJackman.png', 'Im_OrlandoBloom.png', 'Im_MattDamon.png', 'Im_DanielCraig.png', 'Im_RobertDowneyJr.png', 'Im_GeorgeClooney.png', 'Im_PatrickDempsey.png', 'Im_RyanGosling.png'],diff,1,0.5335665000000063,8,0,
ELHE1110,train,inv,fs,posfs_id14_im24.bmp_posfs_id14_im18.bmp,['Im_JustinTimberlake.png', 'Im_ElijahWood.png', 'Im_HughJackman.png', 'Im_OrlandoBloom.png', 'Im_MattDamon.png', 'Im_DanielCraig.png', 'Im_RobertDowneyJr.png', 'Im_GeorgeClooney.png', 'Im_PatrickDempsey.png', 'Im_RyanGosling.png'],same,1,0.5832619999999906,9,0,
ELHE1110,train,inv,150,pos150_id6_im19.bmp_pos150_id17_im8.bmp,['Im_JustinTimberlake.png', 'Im_ElijahWood.png', 'Im_HughJackman.png', 'Im_OrlandoBloom.png', 'Im_MattDamon.png', 'Im_DanielCraig.png', 'Im_RobertDowneyJr.png', 'Im_GeorgeClooney.png', 'Im_PatrickDempsey.png', 'Im_RyanGosling.png'],diff,1,1.2165975000000344,10,0,
ELHE1110,train,inv,fs,posfs_id4_im7.bmp_posfs_id4_im20.bmp,['Im_JustinTimberlake.png', 'Im_ElijahWood.png', 'Im_HughJackman.png', 'Im_OrlandoBloom.png', 'Im_MattDamon.png', 'Im_DanielCraig.png', 'Im_RobertDowneyJr.png', 'Im_GeorgeClooney.png', 'Im_PatrickDempsey.png', 'Im_RyanGosling.png'],same,1,0.5666218999999728,11,0,
ELHE1110,train,inv,60,pos60_id16_im2.bmp_pos60_id16_im3.bmp,['Im_JustinTimberlake.png', 'Im_ElijahWood.png', 'Im_HughJackman.png', 'Im_OrlandoBloom.png', 'Im_MattDamon.png', 'Im_DanielCraig.png', 'Im_RobertDowneyJr.png', 'Im_GeorgeClooney.png', 'Im_PatrickDempsey.png', 'Im_RyanGosling.png'],same,1,0.7419681999999739,12,0,
ELHE1110,train,inv,30,pos30_id16_im19.bmp_pos30_id16_im2.bmp,['Im_JustinTimberlake.png', 'Im_ElijahWood.png', 'Im_HughJackman.png', 'Im_OrlandoBloom.png', 'Im_MattDamon.png', 'Im_DanielCraig.png', 'Im_RobertDowneyJr.png', 'Im_GeorgeClooney.png', 'Im_PatrickDempsey.png', 'Im_RyanGosling.png'],same,1,1.2584769000000051,13,0,
ELHE1110,train,inv,120,pos120_id4_im15.bmp_pos120_id10_im1.bmp,['Im_JustinTimberlake.png', 'Im_ElijahWood.png', 'Im_HughJackman.png', 'Im_OrlandoBloom.png', 'Im_MattDamon.png', 'Im_DanielCraig.png', 'Im_RobertDowneyJr.png', 'Im_GeorgeClooney.png', 'Im_PatrickDempsey.png', 'Im_RyanGosling.png'],diff,1,0.5167787000000317,14,0,
ELHE1110,train,inv,90,pos90_id18_im11.bmp_pos90_id18_im18.bmp,['Im_JustinTimberlake.png', 'Im_ElijahWood.png', 'Im_HughJackman.png', 'Im_OrlandoBloom.png', 'Im_MattDamon.png', 'Im_DanielCraig.png', 'Im_RobertDowneyJr.png', 'Im_GeorgeClooney.png', 'Im_PatrickDempsey.png', 'Im_RyanGosling.png'],same,1,0.7420476000000349,15,0,
ELHE1110,train,inv,150,pos150_id16_im3.bmp_pos150_id18_im19.bmp,['Im_JustinTimberlake.png', 'Im_ElijahWood.png', 'Im_HughJackman.png', 'Im_OrlandoBloom.png', 'Im_MattDamon.png', 'Im_DanielCraig.png', 'Im_RobertDowneyJr.png', 'Im_GeorgeClooney.png', 'Im_PatrickDempsey.png', 'Im_RyanGosling.png'],same,0,0.6083488999999531,15,0,
ELHE1110,train,inv,60,pos60_id8_im20.bmp_pos60_id20_im12.bmp,['Im_JustinTimberlake.png', 'Im_ElijahWood.png', 'Im_HughJackman.png', 'Im_OrlandoBloom.png', 'Im_MattDamon.png', 'Im_DanielCraig.png', 'Im_RobertDowneyJr.png', 'Im_GeorgeClooney.png', 'Im_PatrickDempsey.png', 'Im_RyanGosling.png'],same,0,0.48366210000000365,15,0,
ELHE1110,train,inv,fs,posfs_id17_im14.bmp_posfs_id14_im18.bmp,['Im_JustinTimberlake.png', 'Im_ElijahWood.png', 'Im_HughJackman.png', 'Im_OrlandoBloom.png', 'Im_MattDamon.png', 'Im_DanielCraig.png', 'Im_RobertDowneyJr.png', 'Im_GeorgeClooney.png', 'Im_PatrickDempsey.png', 'Im_RyanGosling.png'],same,0,1.026043800000025,15,0,
ELHE1110,train,inv,90,pos90_id18_im11.bmp_pos90_id6_im12.bmp,['Im_JustinTimberlake.png', 'Im_ElijahWood.png', 'Im_HughJackman.png', 'Im_OrlandoBloom.png', 'Im_MattDamon.png', 'Im_DanielCraig.png', 'Im_RobertDowneyJr.png', 'Im_GeorgeClooney.png', 'Im_PatrickDempsey.png', 'Im_RyanGosling.png'],diff,1,1.2590662000000066,16,0,
ELHE1110,train,inv,60,pos60_id17_im8.bmp_pos60_id10_im17.bmp,['Im_JustinTimberlake.png', 'Im_ElijahWood.png', 'Im_HughJackman.png', 'Im_OrlandoBloom.png', 'Im_MattDamon.png', 'Im_DanielCraig.png', 'Im_RobertDowneyJr.png', 'Im_GeorgeClooney.png', 'Im_PatrickDempsey.png', 'Im_RyanGosling.png'],diff,1,1.9166099999999915,17,0,
ELHE1110,train,inv,fs,posfs_id7_im14.bmp_posfs_id10_im1.bmp,['Im_JustinTimberlake.png', 'Im_ElijahWood.png', 'Im_HughJackman.png', 'Im_OrlandoBloom.png', 'Im_MattDamon.png', 'Im_DanielCraig.png', 'Im_RobertDowneyJr.png', 'Im_GeorgeClooney.png', 'Im_PatrickDempsey.png', 'Im_RyanGosling.png'],diff,1,1.5420435999999995,18,0,
ELHE1110,train,inv,120,pos120_id17_im8.bmp_pos120_id17_im9.bmp,['Im_JustinTimberlake.png', 'Im_ElijahWood.png', 'Im_HughJackman.png', 'Im_OrlandoBloom.png', 'Im_MattDamon.png', 'Im_DanielCraig.png', 'Im_RobertDowneyJr.png', 'Im_GeorgeClooney.png', 'Im_PatrickDempsey.png', 'Im_RyanGosling.png'],same,1,0.8670379000000139,19,0,
ELHE1110,train,inv,120,pos120_id14_im18.bmp_pos120_id14_im24.bmp,['Im_JustinTimberlake.png', 'Im_ElijahWood.png', 'Im_HughJackman.png', 'Im_OrlandoBloom.png', 'Im_MattDamon.png', 'Im_DanielCraig.png', 'Im_RobertDowneyJr.png', 'Im_GeorgeClooney.png', 'Im_PatrickDempsey.png', 'Im_RyanGosling.png'],same,1,0.6084816000000046,20,0,
ELHE1110,train,inv,0,pos0_id7_im26.bmp_pos0_id20_im3.bmp,['Im_JustinTimberlake.png', 'Im_ElijahWood.png', 'Im_HughJackman.png', 'Im_OrlandoBloom.png', 'Im_MattDamon.png', 'Im_DanielCraig.png', 'Im_RobertDowneyJr.png', 'Im_GeorgeClooney.png', 'Im_PatrickDempsey.png', 'Im_RyanGosling.png'],diff,1,0.5500748000000044,21,0,
ELHE1110,train,inv,0,pos0_id4_im20.bmp_pos0_id10_im17.bmp,['Im_JustinTimberlake.png', 'Im_ElijahWood.png', 'Im_HughJackman.png', 'Im_OrlandoBloom.png', 'Im_MattDamon.png', 'Im_DanielCraig.png', 'Im_RobertDowneyJr.png', 'Im_GeorgeClooney.png', 'Im_PatrickDempsey.png', 'Im_RyanGosling.png'],diff,1,0.5586534000000256,22,0,
ELHE1110,train,inv,30,pos30_id7_im14.bmp_pos30_id6_im12.bmp,['Im_JustinTimberlake.png', 'Im_ElijahWood.png', 'Im_HughJackman.png', 'Im_OrlandoBloom.png', 'Im_MattDamon.png', 'Im_DanielCraig.png', 'Im_RobertDowneyJr.png', 'Im_GeorgeClooney.png', 'Im_PatrickDempsey.png', 'Im_RyanGosling.png'],diff,1,0.5500155000000291,23,0,
ELHE1110,train,inv,150,pos150_id14_im16.bmp_pos150_id18_im19.bmp,['Im_JustinTimberlake.png', 'Im_ElijahWood.png', 'Im_HughJackman.png', 'Im_OrlandoBloom.png', 'Im_MattDamon.png', 'Im_DanielCraig.png', 'Im_RobertDowneyJr.png', 'Im_GeorgeClooney.png', 'Im_PatrickDempsey.png', 'Im_RyanGosling.png'],same,0,0.7585806999999818,23,0,
ELHE1110,train,inv,30,pos30_id6_im18.bmp_pos30_id6_im19.bmp,['Im_JustinTimberlake.png', 'Im_ElijahWood.png', 'Im_HughJackman.png', 'Im_OrlandoBloom.png', 'Im_MattDamon.png', 'Im_DanielCraig.png', 'Im_RobertDowneyJr.png', 'Im_GeorgeClooney.png', 'Im_PatrickDempsey.png', 'Im_RyanGosling.png'],same,1,0.5504730999999765,24,0,
ELHE1110,train,neg,90,neg90_id10_im1.bmp_neg90_id4_im15.bmp,['Im_JustinTimberlake.png', 'Im_ElijahWood.png', 'Im_HughJackman.png', 'Im_OrlandoBloom.png', 'Im_MattDamon.png', 'Im_DanielCraig.png', 'Im_RobertDowneyJr.png', 'Im_GeorgeClooney.png', 'Im_PatrickDempsey.png', 'Im_RyanGosling.png'],diff,1,0.600091300000031,25,0,
ELHE1110,train,neg,60,neg60_id18_im19.bmp_neg60_id18_im18.bmp,['Im_JustinTimberlake.png', 'Im_ElijahWood.png', 'Im_HughJackman.png', 'Im_OrlandoBloom.png', 'Im_MattDamon.png', 'Im_DanielCraig.png', 'Im_RobertDowneyJr.png', 'Im_GeorgeClooney.png', 'Im_PatrickDempsey.png', 'Im_RyanGosling.png'],same,1,0.6919962999999711,26,0,
ELHE1110,train,neg,120,neg120_id6_im18.bmp_neg120_id6_im19.bmp,['Im_JustinTimberlake.png', 'Im_ElijahWood.png', 'Im_HughJackman.png', 'Im_OrlandoBloom.png', 'Im_MattDamon.png', 'Im_DanielCraig.png', 'Im_RobertDowneyJr.png', 'Im_GeorgeClooney.png', 'Im_PatrickDempsey.png', 'Im_RyanGosling.png'],same,1,0.5172334999999748,27,0,
ELHE1110,train,neg,fs,negfs_id4_im15.bmp_negfs_id14_im24.bmp,['Im_JustinTimberlake.png', 'Im_ElijahWood.png', 'Im_HughJackman.png', 'Im_OrlandoBloom.png', 'Im_MattDamon.png', 'Im_DanielCraig.png', 'Im_RobertDowneyJr.png', 'Im_GeorgeClooney.png', 'Im_PatrickDempsey.png', 'Im_RyanGosling.png'],diff,1,0.4082150000000411,28,0,
ELHE1110,train,neg,150,neg150_id6_im12.bmp_neg150_id6_im18.bmp,['Im_JustinTimberlake.png', 'Im_ElijahWood.png', 'Im_HughJackman.png', 'Im_OrlandoBloom.png', 'Im_MattDamon.png', 'Im_DanielCraig.png', 'Im_RobertDowneyJr.png', 'Im_GeorgeClooney.png', 'Im_PatrickDempsey.png', 'Im_RyanGosling.png'],diff,0,0.8420113999999899,28,0,
ELHE1110,train,neg,120,neg120_id16_im19.bmp_neg120_id16_im2.bmp,['Im_JustinTimberlake.png', 'Im_ElijahWood.png', 'Im_HughJackman.png', 'Im_OrlandoBloom.png', 'Im_MattDamon.png', 'Im_DanielCraig.png', 'Im_RobertDowneyJr.png', 'Im_GeorgeClooney.png', 'Im_PatrickDempsey.png', 'Im_RyanGosling.png'],same,1,0.46702379999999266,29,0,
ELHE1110,train,neg,90,neg90_id7_im26.bmp_neg90_id16_im19.bmp,['Im_JustinTimberlake.png', 'Im_ElijahWood.png', 'Im_HughJackman.png', 'Im_OrlandoBloom.png', 'Im_MattDamon.png', 'Im_DanielCraig.png', 'Im_RobertDowneyJr.png', 'Im_GeorgeClooney.png', 'Im_PatrickDempsey.png', 'Im_RyanGosling.png'],diff,1,0.6505900999999881,30,0,
ELHE1110,train,neg,150,neg150_id17_im8.bmp_neg150_id10_im17.bmp,['Im_JustinTimberlake.png', 'Im_ElijahWood.png', 'Im_HughJackman.png', 'Im_OrlandoBloom.png', 'Im_MattDamon.png', 'Im_DanielCraig.png', 'Im_RobertDowneyJr.png', 'Im_GeorgeClooney.png', 'Im_PatrickDempsey.png', 'Im_RyanGosling.png'],diff,1,0.8004391000000055,31,0,
ELHE1110,train,neg,30,neg30_id16_im19.bmp_neg30_id7_im26.bmp,['Im_JustinTimberlake.png', 'Im_ElijahWood.png', 'Im_HughJackman.png', 'Im_OrlandoBloom.png', 'Im_MattDamon.png', 'Im_DanielCraig.png', 'Im_RobertDowneyJr.png', 'Im_GeorgeClooney.png', 'Im_PatrickDempsey.png', 'Im_RyanGosling.png'],diff,1,0.733306999999968,32,0,
ELHE1110,train,neg,fs,negfs_id4_im15.bmp_negfs_id4_im7.bmp,['Im_JustinTimberlake.png', 'Im_ElijahWood.png', 'Im_HughJackman.png', 'Im_OrlandoBloom.png', 'Im_MattDamon.png', 'Im_DanielCraig.png', 'Im_RobertDowneyJr.png', 'Im_GeorgeClooney.png', 'Im_PatrickDempsey.png', 'Im_RyanGosling.png'],same,1,0.4167413000000124,33,0,
ELHE1110,train,neg,0,neg0_id18_im19.bmp_neg0_id18_im11.bmp,['Im_JustinTimberlake.png', 'Im_ElijahWood.png', 'Im_HughJackman.png', 'Im_OrlandoBloom.png', 'Im_MattDamon.png', 'Im_DanielCraig.png', 'Im_RobertDowneyJr.png', 'Im_GeorgeClooney.png', 'Im_PatrickDempsey.png', 'Im_RyanGosling.png'],same,1,0.44156570000006923,34,0,
ELHE1110,train,neg,60,neg60_id8_im13.bmp_neg60_id8_im21.bmp,['Im_JustinTimberlake.png', 'Im_ElijahWood.png', 'Im_HughJackman.png', 'Im_OrlandoBloom.png', 'Im_MattDamon.png', 'Im_DanielCraig.png', 'Im_RobertDowneyJr.png', 'Im_GeorgeClooney.png', 'Im_PatrickDempsey.png', 'Im_RyanGosling.png'],diff,0,0.5500804000000699,34,0,
ELHE1110,train,neg,30,neg30_id10_im18.bmp_neg30_id10_im1.bmp,['Im_JustinTimberlake.png', 'Im_ElijahWood.png', 'Im_HughJackman.png', 'Im_OrlandoBloom.png', 'Im_MattDamon.png', 'Im_DanielCraig.png', 'Im_RobertDowneyJr.png', 'Im_GeorgeClooney.png', 'Im_PatrickDempsey.png', 'Im_RyanGosling.png'],same,1,0.43333060000009027,35,0,
ELHE1110,train,neg,0,neg0_id8_im13.bmp_neg0_id8_im21.bmp,['Im_JustinTimberlake.png', 'Im_ElijahWood.png', 'Im_HughJackman.png', 'Im_OrlandoBloom.png', 'Im_MattDamon.png', 'Im_DanielCraig.png', 'Im_RobertDowneyJr.png', 'Im_GeorgeClooney.png', 'Im_PatrickDempsey.png', 'Im_RyanGosling.png'],same,1,0.4669238999999834,36,0,
ELHE1110,train,pos,150,pos150_id8_im13.bmp_pos150_id16_im3.bmp,['Im_JustinTimberlake.png', 'Im_ElijahWood.png', 'Im_HughJackman.png', 'Im_OrlandoBloom.png', 'Im_MattDamon.png', 'Im_DanielCraig.png', 'Im_RobertDowneyJr.png', 'Im_GeorgeClooney.png', 'Im_PatrickDempsey.png', 'Im_RyanGosling.png'],diff,1,0.4167065999999977,1,85.71428571428571,
ELHE1110,train,pos,90,pos90_id7_im26.bmp_pos90_id7_im15.bmp,['Im_JustinTimberlake.png', 'Im_ElijahWood.png', 'Im_HughJackman.png', 'Im_OrlandoBloom.png', 'Im_MattDamon.png', 'Im_DanielCraig.png', 'Im_RobertDowneyJr.png', 'Im_GeorgeClooney.png', 'Im_PatrickDempsey.png', 'Im_RyanGosling.png'],same,1,0.566963200000032,2,85.71428571428571,
ELHE1110,train,pos,120,pos120_id6_im12.bmp_pos120_id6_im18.bmp,['Im_JustinTimberlake.png', 'Im_ElijahWood.png', 'Im_HughJackman.png', 'Im_OrlandoBloom.png', 'Im_MattDamon.png', 'Im_DanielCraig.png', 'Im_RobertDowneyJr.png', 'Im_GeorgeClooney.png', 'Im_PatrickDempsey.png', 'Im_RyanGosling.png'],same,1,0.5312089999999898,3,85.71428571428571,
ELHE1110,train,pos,120,pos120_id16_im19.bmp_pos120_id20_im12.bmp,['Im_JustinTimberlake.png', 'Im_ElijahWood.png', 'Im_HughJackman.png', 'Im_OrlandoBloom.png', 'Im_MattDamon.png', 'Im_DanielCraig.png', 'Im_RobertDowneyJr.png', 'Im_GeorgeClooney.png', 'Im_PatrickDempsey.png', 'Im_RyanGosling.png'],diff,1,0.4155746999999792,4,85.71428571428571,
ELHE1110,train,pos,0,pos0_id7_im14.bmp_pos0_id7_im26.bmp,['Im_JustinTimberlake.png', 'Im_ElijahWood.png', 'Im_HughJackman.png', 'Im_OrlandoBloom.png', 'Im_MattDamon.png', 'Im_DanielCraig.png', 'Im_RobertDowneyJr.png', 'Im_GeorgeClooney.png', 'Im_PatrickDempsey.png', 'Im_RyanGosling.png'],diff,0,0.8960662999999158,4,85.71428571428571,
ELHE1110,train,pos,90,pos90_id14_im16.bmp_pos90_id18_im19.bmp,['Im_JustinTimberlake.png', 'Im_ElijahWood.png', 'Im_HughJackman.png', 'Im_OrlandoBloom.png', 'Im_MattDamon.png', 'Im_DanielCraig.png', 'Im_RobertDowneyJr.png', 'Im_GeorgeClooney.png', 'Im_PatrickDempsey.png', 'Im_RyanGosling.png'],diff,1,0.7668343000000277,5,85.71428571428571,
ELHE1110,train,pos,150,pos150_id7_im14.bmp_pos150_id6_im12.bmp,['Im_JustinTimberlake.png', 'Im_ElijahWood.png', 'Im_HughJackman.png', 'Im_OrlandoBloom.png', 'Im_MattDamon.png', 'Im_DanielCraig.png', 'Im_RobertDowneyJr.png', 'Im_GeorgeClooney.png', 'Im_PatrickDempsey.png', 'Im_RyanGosling.png'],diff,1,0.7667591000000584,6,85.71428571428571,
ELHE1110,train,pos,fs,posfs_id20_im30.bmp_posfs_id20_im3.bmp,['Im_JustinTimberlake.png', 'Im_ElijahWood.png', 'Im_HughJackman.png', 'Im_OrlandoBloom.png', 'Im_MattDamon.png', 'Im_DanielCraig.png', 'Im_RobertDowneyJr.png', 'Im_GeorgeClooney.png', 'Im_PatrickDempsey.png', 'Im_RyanGosling.png'],same,1,0.41676749999999174,7,85.71428571428571,
ELHE1110,train,pos,0,pos0_id16_im3.bmp_pos0_id16_im2.bmp,['Im_JustinTimberlake.png', 'Im_ElijahWood.png', 'Im_HughJackman.png', 'Im_OrlandoBloom.png', 'Im_MattDamon.png', 'Im_DanielCraig.png', 'Im_RobertDowneyJr.png', 'Im_GeorgeClooney.png', 'Im_PatrickDempsey.png', 'Im_RyanGosling.png'],same,1,0.5333646000000272,8,85.71428571428571,
ELHE1110,train,pos,60,pos60_id14_im24.bmp_pos60_id4_im15.bmp,['Im_JustinTimberlake.png', 'Im_ElijahWood.png', 'Im_HughJackman.png', 'Im_OrlandoBloom.png', 'Im_MattDamon.png', 'Im_DanielCraig.png', 'Im_RobertDowneyJr.png', 'Im_GeorgeClooney.png', 'Im_PatrickDempsey.png', 'Im_RyanGosling.png'],diff,1,0.4167152999999644,9,85.71428571428571,
ELHE1110,train,pos,60,pos60_id17_im8.bmp_pos60_id17_im9.bmp,['Im_JustinTimberlake.png', 'Im_ElijahWood.png', 'Im_HughJackman.png', 'Im_OrlandoBloom.png', 'Im_MattDamon.png', 'Im_DanielCraig.png', 'Im_RobertDowneyJr.png', 'Im_GeorgeClooney.png', 'Im_PatrickDempsey.png', 'Im_RyanGosling.png'],same,1,0.4084399000000758,10,85.71428571428571,
ELHE1110,train,pos,30,pos30_id16_im19.bmp_pos30_id20_im12.bmp,['Im_JustinTimberlake.png', 'Im_ElijahWood.png', 'Im_HughJackman.png', 'Im_OrlandoBloom.png', 'Im_MattDamon.png', 'Im_DanielCraig.png', 'Im_RobertDowneyJr.png', 'Im_GeorgeClooney.png', 'Im_PatrickDempsey.png', 'Im_RyanGosling.png'],diff,1,0.4668737000000647,11,85.71428571428571,
ELHE1110,train,pos,fs,posfs_id18_im18.bmp_posfs_id18_im11.bmp,['Im_JustinTimberlake.png', 'Im_ElijahWood.png', 'Im_HughJackman.png', 'Im_OrlandoBloom.png', 'Im_MattDamon.png', 'Im_DanielCraig.png', 'Im_RobertDowneyJr.png', 'Im_GeorgeClooney.png', 'Im_PatrickDempsey.png', 'Im_RyanGosling.png'],same,1,0.416790600000013,12,85.71428571428571,
ELHE1110,train,pos,30,pos30_id16_im2.bmp_pos30_id14_im16.bmp,['Im_JustinTimberlake.png', 'Im_ElijahWood.png', 'Im_HughJackman.png', 'Im_OrlandoBloom.png', 'Im_MattDamon.png', 'Im_DanielCraig.png', 'Im_RobertDowneyJr.png', 'Im_GeorgeClooney.png', 'Im_PatrickDempsey.png', 'Im_RyanGosling.png'],diff,1,0.4084382999999434,13,85.71428571428571,
ELHE1110,train,neg,90,neg90_id10_im1.bmp_neg90_id7_im14.bmp,['Im_JustinTimberlake.png', 'Im_ElijahWood.png', 'Im_HughJackman.png', 'Im_OrlandoBloom.png', 'Im_MattDamon.png', 'Im_DanielCraig.png', 'Im_RobertDowneyJr.png', 'Im_GeorgeClooney.png', 'Im_PatrickDempsey.png', 'Im_RyanGosling.png'],diff,1,1.1835261999999602,14,85.71428571428571,
ELHE1110,train,neg,90,neg90_id18_im19.bmp_neg90_id14_im16.bmp,['Im_JustinTimberlake.png', 'Im_ElijahWood.png', 'Im_HughJackman.png', 'Im_OrlandoBloom.png', 'Im_MattDamon.png', 'Im_DanielCraig.png', 'Im_RobertDowneyJr.png', 'Im_GeorgeClooney.png', 'Im_PatrickDempsey.png', 'Im_RyanGosling.png'],diff,1,0.4168917000000647,15,85.71428571428571,
ELHE1110,train,neg,fs,negfs_id20_im30.bmp_negfs_id20_im3.bmp,['Im_JustinTimberlake.png', 'Im_ElijahWood.png', 'Im_HughJackman.png', 'Im_OrlandoBloom.png', 'Im_MattDamon.png', 'Im_DanielCraig.png', 'Im_RobertDowneyJr.png', 'Im_GeorgeClooney.png', 'Im_PatrickDempsey.png', 'Im_RyanGosling.png'],same,1,0.4166523999999754,16,85.71428571428571,
ELHE1110,train,neg,150,neg150_id20_im12.bmp_neg150_id20_im3.bmp,['Im_JustinTimberlake.png', 'Im_ElijahWood.png', 'Im_HughJackman.png', 'Im_OrlandoBloom.png', 'Im_MattDamon.png', 'Im_DanielCraig.png', 'Im_RobertDowneyJr.png', 'Im_GeorgeClooney.png', 'Im_PatrickDempsey.png', 'Im_RyanGosling.png'],same,1,0.4167426000000205,17,85.71428571428571,
ELHE1110,train,neg,150,neg150_id17_im14.bmp_neg150_id17_im8.bmp,['Im_JustinTimberlake.png', 'Im_ElijahWood.png', 'Im_HughJackman.png', 'Im_OrlandoBloom.png', 'Im_MattDamon.png', 'Im_DanielCraig.png', 'Im_RobertDowneyJr.png', 'Im_GeorgeClooney.png', 'Im_PatrickDempsey.png', 'Im_RyanGosling.png'],same,1,0.6417238000000225,18,85.71428571428571,
ELHE1110,train,neg,120,neg120_id10_im1.bmp_neg120_id7_im14.bmp,['Im_JustinTimberlake.png', 'Im_ElijahWood.png', 'Im_HughJackman.png', 'Im_OrlandoBloom.png', 'Im_MattDamon.png', 'Im_DanielCraig.png', 'Im_RobertDowneyJr.png', 'Im_GeorgeClooney.png', 'Im_PatrickDempsey.png', 'Im_RyanGosling.png'],diff,1,0.4668200999999499,19,85.71428571428571,
ELHE1110,train,neg,30,neg30_id20_im30.bmp_neg30_id20_im12.bmp,['Im_JustinTimberlake.png', 'Im_ElijahWood.png', 'Im_HughJackman.png', 'Im_OrlandoBloom.png', 'Im_MattDamon.png', 'Im_DanielCraig.png', 'Im_RobertDowneyJr.png', 'Im_GeorgeClooney.png', 'Im_PatrickDempsey.png', 'Im_RyanGosling.png'],same,1,0.3996210999999903,20,85.71428571428571,
ELHE1110,train,neg,fs,negfs_id4_im20.bmp_negfs_id10_im17.bmp,['Im_JustinTimberlake.png', 'Im_ElijahWood.png', 'Im_HughJackman.png', 'Im_OrlandoBloom.png', 'Im_MattDamon.png', 'Im_DanielCraig.png', 'Im_RobertDowneyJr.png', 'Im_GeorgeClooney.png', 'Im_PatrickDempsey.png', 'Im_RyanGosling.png'],diff,1,0.41686059999994995,21,85.71428571428571,
ELHE1110,train,neg,0,neg0_id14_im24.bmp_neg0_id10_im18.bmp,['Im_JustinTimberlake.png', 'Im_ElijahWood.png', 'Im_HughJackman.png', 'Im_OrlandoBloom.png', 'Im_MattDamon.png', 'Im_DanielCraig.png', 'Im_RobertDowneyJr.png', 'Im_GeorgeClooney.png', 'Im_PatrickDempsey.png', 'Im_RyanGosling.png'],diff,1,0.55865510000001,22,85.71428571428571,
ELHE1110,train,neg,0,neg0_id7_im14.bmp_neg0_id10_im1.bmp,['Im_JustinTimberlake.png', 'Im_ElijahWood.png', 'Im_HughJackman.png', 'Im_OrlandoBloom.png', 'Im_MattDamon.png', 'Im_DanielCraig.png', 'Im_RobertDowneyJr.png', 'Im_GeorgeClooney.png', 'Im_PatrickDempsey.png', 'Im_RyanGosling.png'],same,0,1.1500065000000177,22,85.71428571428571,
ELHE1110,train,neg,60,neg60_id10_im18.bmp_neg60_id10_im17.bmp,['Im_JustinTimberlake.png', 'Im_ElijahWood.png', 'Im_HughJackman.png', 'Im_OrlandoBloom.png', 'Im_MattDamon.png', 'Im_DanielCraig.png', 'Im_RobertDowneyJr.png', 'Im_GeorgeClooney.png', 'Im_PatrickDempsey.png', 'Im_RyanGosling.png'],same,1,0.4166520999999648,23,85.71428571428571,
ELHE1110,train,neg,60,neg60_id7_im14.bmp_neg60_id6_im12.bmp,['Im_JustinTimberlake.png', 'Im_ElijahWood.png', 'Im_HughJackman.png', 'Im_OrlandoBloom.png', 'Im_MattDamon.png', 'Im_DanielCraig.png', 'Im_RobertDowneyJr.png', 'Im_GeorgeClooney.png', 'Im_PatrickDempsey.png', 'Im_RyanGosling.png'],diff,1,0.4333816000000752,24,85.71428571428571,
ELHE1110,train,neg,120,neg120_id20_im30.bmp_neg120_id20_im3.bmp,['Im_JustinTimberlake.png', 'Im_ElijahWood.png', 'Im_HughJackman.png', 'Im_OrlandoBloom.png', 'Im_MattDamon.png', 'Im_DanielCraig.png', 'Im_RobertDowneyJr.png', 'Im_GeorgeClooney.png', 'Im_PatrickDempsey.png', 'Im_RyanGosling.png'],same,1,0.4166853000000401,25,85.71428571428571,
ELHE1110,train,neg,30,neg30_id4_im20.bmp_neg30_id4_im7.bmp,['Im_JustinTimberlake.png', 'Im_ElijahWood.png', 'Im_HughJackman.png', 'Im_OrlandoBloom.png', 'Im_MattDamon.png', 'Im_DanielCraig.png', 'Im_RobertDowneyJr.png', 'Im_GeorgeClooney.png', 'Im_PatrickDempsey.png', 'Im_RyanGosling.png'],same,1,0.40840000000002874,26,85.71428571428571,
ELHE1110,train,inv,120,pos120_id7_im14.bmp_pos120_id7_im26.bmp,['Im_JustinTimberlake.png', 'Im_ElijahWood.png', 'Im_HughJackman.png', 'Im_OrlandoBloom.png', 'Im_MattDamon.png', 'Im_DanielCraig.png', 'Im_RobertDowneyJr.png', 'Im_GeorgeClooney.png', 'Im_PatrickDempsey.png', 'Im_RyanGosling.png'],diff,0,0.41654640000001564,26,85.71428571428571,
ELHE1110,train,inv,90,pos90_id20_im12.bmp_pos90_id8_im20.bmp,['Im_JustinTimberlake.png', 'Im_ElijahWood.png', 'Im_HughJackman.png', 'Im_OrlandoBloom.png', 'Im_MattDamon.png', 'Im_DanielCraig.png', 'Im_RobertDowneyJr.png', 'Im_GeorgeClooney.png', 'Im_PatrickDempsey.png', 'Im_RyanGosling.png'],diff,1,0.4167480999999498,27,85.71428571428571,
ELHE1110,train,inv,30,pos30_id10_im18.bmp_pos30_id20_im30.bmp,['Im_JustinTimberlake.png', 'Im_ElijahWood.png', 'Im_HughJackman.png', 'Im_OrlandoBloom.png', 'Im_MattDamon.png', 'Im_DanielCraig.png', 'Im_RobertDowneyJr.png', 'Im_GeorgeClooney.png', 'Im_PatrickDempsey.png', 'Im_RyanGosling.png'],diff,1,0.7248568000001114,28,85.71428571428571,
ELHE1110,train,inv,0,pos0_id14_im24.bmp_pos0_id14_im16.bmp,['Im_JustinTimberlake.png', 'Im_ElijahWood.png', 'Im_HughJackman.png', 'Im_OrlandoBloom.png', 'Im_MattDamon.png', 'Im_DanielCraig.png', 'Im_RobertDowneyJr.png', 'Im_GeorgeClooney.png', 'Im_PatrickDempsey.png', 'Im_RyanGosling.png'],same,1,0.7668376000000308,29,85.71428571428571,
ELHE1110,train,inv,0,pos0_id17_im9.bmp_pos0_id17_im14.bmp,['Im_JustinTimberlake.png', 'Im_ElijahWood.png', 'Im_HughJackman.png', 'Im_OrlandoBloom.png', 'Im_MattDamon.png', 'Im_DanielCraig.png', 'Im_RobertDowneyJr.png', 'Im_GeorgeClooney.png', 'Im_PatrickDempsey.png', 'Im_RyanGosling.png'],same,1,0.641614900000036,30,85.71428571428571,
ELHE1110,train,inv,60,pos60_id18_im18.bmp_pos60_id18_im19.bmp,['Im_JustinTimberlake.png', 'Im_ElijahWood.png', 'Im_HughJackman.png', 'Im_OrlandoBloom.png', 'Im_MattDamon.png', 'Im_DanielCraig.png', 'Im_RobertDowneyJr.png', 'Im_GeorgeClooney.png', 'Im_PatrickDempsey.png', 'Im_RyanGosling.png'],diff,0,1.200117099999943,30,85.71428571428571,
ELHE1110,train,inv,120,pos120_id10_im18.bmp_pos120_id14_im24.bmp,['Im_JustinTimberlake.png', 'Im_ElijahWood.png', 'Im_HughJackman.png', 'Im_OrlandoBloom.png', 'Im_MattDamon.png', 'Im_DanielCraig.png', 'Im_RobertDowneyJr.png', 'Im_GeorgeClooney.png', 'Im_PatrickDempsey.png', 'Im_RyanGosling.png'],diff,1,0.682951600000024,31,85.71428571428571,
ELHE1110,train,inv,90,pos90_id7_im15.bmp_pos90_id20_im3.bmp,['Im_JustinTimberlake.png', 'Im_ElijahWood.png', 'Im_HughJackman.png', 'Im_OrlandoBloom.png', 'Im_MattDamon.png', 'Im_DanielCraig.png', 'Im_RobertDowneyJr.png', 'Im_GeorgeClooney.png', 'Im_PatrickDempsey.png', 'Im_RyanGosling.png'],diff,1,0.5920161999999891,32,85.71428571428571,
ELHE1110,train,inv,150,pos150_id8_im21.bmp_pos150_id8_im20.bmp,['Im_JustinTimberlake.png', 'Im_ElijahWood.png', 'Im_HughJackman.png', 'Im_OrlandoBloom.png', 'Im_MattDamon.png', 'Im_DanielCraig.png', 'Im_RobertDowneyJr.png', 'Im_GeorgeClooney.png', 'Im_PatrickDempsey.png', 'Im_RyanGosling.png'],same,1,0.4084136999999828,33,85.71428571428571,
ELHE1110,train,inv,150,pos150_id17_im8.bmp_pos150_id10_im17.bmp,['Im_JustinTimberlake.png', 'Im_ElijahWood.png', 'Im_HughJackman.png', 'Im_OrlandoBloom.png', 'Im_MattDamon.png', 'Im_DanielCraig.png', 'Im_RobertDowneyJr.png', 'Im_GeorgeClooney.png', 'Im_PatrickDempsey.png', 'Im_RyanGosling.png'],diff,1,0.4168336000000181,34,85.71428571428571,
ELHE1110,train,inv,60,pos60_id20_im30.bmp_pos60_id20_im3.bmp,['Im_JustinTimberlake.png', 'Im_ElijahWood.png', 'Im_HughJackman.png', 'Im_OrlandoBloom.png', 'Im_MattDamon.png', 'Im_DanielCraig.png', 'Im_RobertDowneyJr.png', 'Im_GeorgeClooney.png', 'Im_PatrickDempsey.png', 'Im_RyanGosling.png'],same,1,0.41700670000000173,35,85.71428571428571,
ELHE1110,train,inv,fs,posfs_id18_im18.bmp_posfs_id8_im21.bmp,['Im_JustinTimberlake.png', 'Im_ElijahWood.png', 'Im_HughJackman.png', 'Im_OrlandoBloom.png', 'Im_MattDamon.png', 'Im_DanielCraig.png', 'Im_RobertDowneyJr.png', 'Im_GeorgeClooney.png', 'Im_PatrickDempsey.png', 'Im_RyanGosling.png'],diff,1,0.43333720000009635,36,85.71428571428571,
ELHE1110,train,inv,fs,posfs_id4_im7.bmp_posfs_id17_im14.bmp,['Im_JustinTimberlake.png', 'Im_ElijahWood.png', 'Im_HughJackman.png', 'Im_OrlandoBloom.png', 'Im_MattDamon.png', 'Im_DanielCraig.png', 'Im_RobertDowneyJr.png', 'Im_GeorgeClooney.png', 'Im_PatrickDempsey.png', 'Im_RyanGosling.png'],same,0,1.6164532999999892,36,85.71428571428571,
ELHE1110,train,inv,30,pos30_id17_im9.bmp_pos30_id17_im14.bmp,['Im_JustinTimberlake.png', 'Im_ElijahWood.png', 'Im_HughJackman.png', 'Im_OrlandoBloom.png', 'Im_MattDamon.png', 'Im_DanielCraig.png', 'Im_RobertDowneyJr.png', 'Im_GeorgeClooney.png', 'Im_PatrickDempsey.png', 'Im_RyanGosling.png'],same,1,0.6916515000000345,37,85.71428571428571,
ELHE1110,0,inv,120,pos120_id7_im26.bmp_pos120_id20_im3.bmp,['Im_JustinTimberlake.png', 'Im_ElijahWood.png', 'Im_HughJackman.png', 'Im_OrlandoBloom.png', 'Im_MattDamon.png', 'Im_DanielCraig.png', 'Im_RobertDowneyJr.png', 'Im_GeorgeClooney.png', 'Im_PatrickDempsey.png', 'Im_RyanGosling.png'],diff,1,0.46674800000005234,1,0,
ELHE1110,0,inv,90,pos90_id16_im19.bmp_pos90_id16_im2.bmp,['Im_JustinTimberlake.png', 'Im_ElijahWood.png', 'Im_HughJackman.png', 'Im_OrlandoBloom.png', 'Im_MattDamon.png', 'Im_DanielCraig.png', 'Im_RobertDowneyJr.png', 'Im_GeorgeClooney.png', 'Im_PatrickDempsey.png', 'Im_RyanGosling.png'],same,1,0.9251452999999401,2,0,
ELHE1110,0,inv,150,pos150_id10_im18.bmp_pos150_id20_im30.bmp,['Im_JustinTimberlake.png', 'Im_ElijahWood.png', 'Im_HughJackman.png', 'Im_OrlandoBloom.png', 'Im_MattDamon.png', 'Im_DanielCraig.png', 'Im_RobertDowneyJr.png', 'Im_GeorgeClooney.png', 'Im_PatrickDempsey.png', 'Im_RyanGosling.png'],diff,1,0.40857339999990927,3,0,
ELHE1110,0,inv,fs,posfs_id16_im2.bmp_posfs_id7_im15.bmp,['Im_JustinTimberlake.png', 'Im_ElijahWood.png', 'Im_HughJackman.png', 'Im_OrlandoBloom.png', 'Im_MattDamon.png', 'Im_DanielCraig.png', 'Im_RobertDowneyJr.png', 'Im_GeorgeClooney.png', 'Im_PatrickDempsey.png', 'Im_RyanGosling.png'],diff,1,0.4085996000000023,4,0,
ELHE1110,0,inv,90,pos90_id17_im9.bmp_pos90_id17_im14.bmp,['Im_JustinTimberlake.png', 'Im_ElijahWood.png', 'Im_HughJackman.png', 'Im_OrlandoBloom.png', 'Im_MattDamon.png', 'Im_DanielCraig.png', 'Im_RobertDowneyJr.png', 'Im_GeorgeClooney.png', 'Im_PatrickDempsey.png', 'Im_RyanGosling.png'],diff,0,1.2257656000000452,4,0,
ELHE1110,0,inv,60,pos60_id20_im3.bmp_pos60_id7_im15.bmp,['Im_JustinTimberlake.png', 'Im_ElijahWood.png', 'Im_HughJackman.png', 'Im_OrlandoBloom.png', 'Im_MattDamon.png', 'Im_DanielCraig.png', 'Im_RobertDowneyJr.png', 'Im_GeorgeClooney.png', 'Im_PatrickDempsey.png', 'Im_RyanGosling.png'],diff,1,0.4082036000000926,5,0,
ELHE1110,0,inv,120,pos120_id10_im17.bmp_pos120_id10_im1.bmp,['Im_JustinTimberlake.png', 'Im_ElijahWood.png', 'Im_HughJackman.png', 'Im_OrlandoBloom.png', 'Im_MattDamon.png', 'Im_DanielCraig.png', 'Im_RobertDowneyJr.png', 'Im_GeorgeClooney.png', 'Im_PatrickDempsey.png', 'Im_RyanGosling.png'],same,1,0.7418044999999438,6,0,
ELHE1110,0,inv,150,pos150_id4_im20.bmp_pos150_id4_im7.bmp,['Im_JustinTimberlake.png', 'Im_ElijahWood.png', 'Im_HughJackman.png', 'Im_OrlandoBloom.png', 'Im_MattDamon.png', 'Im_DanielCraig.png', 'Im_RobertDowneyJr.png', 'Im_GeorgeClooney.png', 'Im_PatrickDempsey.png', 'Im_RyanGosling.png'],same,1,0.8583814999999504,7,0,
ELHE1110,0,inv,fs,posfs_id7_im26.bmp_posfs_id7_im15.bmp,['Im_JustinTimberlake.png', 'Im_ElijahWood.png', 'Im_HughJackman.png', 'Im_OrlandoBloom.png', 'Im_MattDamon.png', 'Im_DanielCraig.png', 'Im_RobertDowneyJr.png', 'Im_GeorgeClooney.png', 'Im_PatrickDempsey.png', 'Im_RyanGosling.png'],same,1,0.6334302000000207,8,0,
ELHE1110,0,inv,0,pos0_id8_im13.bmp_pos0_id8_im21.bmp,['Im_JustinTimberlake.png', 'Im_ElijahWood.png', 'Im_HughJackman.png', 'Im_OrlandoBloom.png', 'Im_MattDamon.png', 'Im_DanielCraig.png', 'Im_RobertDowneyJr.png', 'Im_GeorgeClooney.png', 'Im_PatrickDempsey.png', 'Im_RyanGosling.png'],same,1,0.4001066000000719,9,0,
ELHE1110,0,inv,30,pos30_id7_im15.bmp_pos30_id16_im2.bmp,['Im_JustinTimberlake.png', 'Im_ElijahWood.png', 'Im_HughJackman.png', 'Im_OrlandoBloom.png', 'Im_MattDamon.png', 'Im_DanielCraig.png', 'Im_RobertDowneyJr.png', 'Im_GeorgeClooney.png', 'Im_PatrickDempsey.png', 'Im_RyanGosling.png'],diff,1,0.6752014999999574,10,0,
ELHE1110,0,inv,0,pos0_id17_im8.bmp_pos0_id17_im14.bmp,['Im_JustinTimberlake.png', 'Im_ElijahWood.png', 'Im_HughJackman.png', 'Im_OrlandoBloom.png', 'Im_MattDamon.png', 'Im_DanielCraig.png', 'Im_RobertDowneyJr.png', 'Im_GeorgeClooney.png', 'Im_PatrickDempsey.png', 'Im_RyanGosling.png'],same,1,0.48362299999996594,11,0,
ELHE1110,0,inv,30,pos30_id10_im1.bmp_pos30_id7_im14.bmp,['Im_JustinTimberlake.png', 'Im_ElijahWood.png', 'Im_HughJackman.png', 'Im_OrlandoBloom.png', 'Im_MattDamon.png', 'Im_DanielCraig.png', 'Im_RobertDowneyJr.png', 'Im_GeorgeClooney.png', 'Im_PatrickDempsey.png', 'Im_RyanGosling.png'],diff,1,0.4083993000000419,12,0,
ELHE1110,0,inv,60,pos60_id4_im7.bmp_pos60_id4_im15.bmp,['Im_JustinTimberlake.png', 'Im_ElijahWood.png', 'Im_HughJackman.png', 'Im_OrlandoBloom.png', 'Im_MattDamon.png', 'Im_DanielCraig.png', 'Im_RobertDowneyJr.png', 'Im_GeorgeClooney.png', 'Im_PatrickDempsey.png', 'Im_RyanGosling.png'],same,1,0.40855420000002596,13,0,
ELHE1110,1,neg,30,neg30_id16_im3.bmp_neg30_id8_im13.bmp,['Im_JustinTimberlake.png', 'Im_ElijahWood.png', 'Im_HughJackman.png', 'Im_OrlandoBloom.png', 'Im_MattDamon.png', 'Im_DanielCraig.png', 'Im_RobertDowneyJr.png', 'Im_GeorgeClooney.png', 'Im_PatrickDempsey.png', 'Im_RyanGosling.png'],diff,1,0.4168787000000975,14,0,
ELHE1110,1,neg,fs,negfs_id20_im3.bmp_negfs_id7_im15.bmp,['Im_JustinTimberlake.png', 'Im_ElijahWood.png', 'Im_HughJackman.png', 'Im_OrlandoBloom.png', 'Im_MattDamon.png', 'Im_DanielCraig.png', 'Im_RobertDowneyJr.png', 'Im_GeorgeClooney.png', 'Im_PatrickDempsey.png', 'Im_RyanGosling.png'],diff,1,0.41674990000001344,15,0,
ELHE1110,1,neg,fs,negfs_id8_im21.bmp_negfs_id4_im7.bmp,['Im_JustinTimberlake.png', 'Im_ElijahWood.png', 'Im_HughJackman.png', 'Im_OrlandoBloom.png', 'Im_MattDamon.png', 'Im_DanielCraig.png', 'Im_RobertDowneyJr.png', 'Im_GeorgeClooney.png', 'Im_PatrickDempsey.png', 'Im_RyanGosling.png'],diff,1,0.4167393999999831,16,0,
ELHE1110,1,neg,60,neg60_id8_im21.bmp_neg60_id18_im18.bmp,['Im_JustinTimberlake.png', 'Im_ElijahWood.png', 'Im_HughJackman.png', 'Im_OrlandoBloom.png', 'Im_MattDamon.png', 'Im_DanielCraig.png', 'Im_RobertDowneyJr.png', 'Im_GeorgeClooney.png', 'Im_PatrickDempsey.png', 'Im_RyanGosling.png'],diff,1,0.41673679999996693,17,0,
ELHE1110,1,neg,0,neg0_id20_im30.bmp_neg0_id20_im12.bmp,['Im_JustinTimberlake.png', 'Im_ElijahWood.png', 'Im_HughJackman.png', 'Im_OrlandoBloom.png', 'Im_MattDamon.png', 'Im_DanielCraig.png', 'Im_RobertDowneyJr.png', 'Im_GeorgeClooney.png', 'Im_PatrickDempsey.png', 'Im_RyanGosling.png'],same,1,0.41668909999998505,18,0,
ELHE1110,1,neg,150,neg150_id4_im15.bmp_neg150_id4_im7.bmp,['Im_JustinTimberlake.png', 'Im_ElijahWood.png', 'Im_HughJackman.png', 'Im_OrlandoBloom.png', 'Im_MattDamon.png', 'Im_DanielCraig.png', 'Im_RobertDowneyJr.png', 'Im_GeorgeClooney.png', 'Im_PatrickDempsey.png', 'Im_RyanGosling.png'],same,1,0.5086105999999972,19,0,
ELHE1110,1,neg,30,neg30_id17_im8.bmp_neg30_id10_im17.bmp,['Im_JustinTimberlake.png', 'Im_ElijahWood.png', 'Im_HughJackman.png', 'Im_OrlandoBloom.png', 'Im_MattDamon.png', 'Im_DanielCraig.png', 'Im_RobertDowneyJr.png', 'Im_GeorgeClooney.png', 'Im_PatrickDempsey.png', 'Im_RyanGosling.png'],diff,1,0.458408400000053,20,0,
ELHE1110,1,neg,150,neg150_id10_im1.bmp_neg150_id7_im14.bmp,['Im_JustinTimberlake.png', 'Im_ElijahWood.png', 'Im_HughJackman.png', 'Im_OrlandoBloom.png', 'Im_MattDamon.png', 'Im_DanielCraig.png', 'Im_RobertDowneyJr.png', 'Im_GeorgeClooney.png', 'Im_PatrickDempsey.png', 'Im_RyanGosling.png'],diff,1,0.700068999999985,21,0,
ELHE1110,1,neg,60,neg60_id14_im18.bmp_neg60_id17_im14.bmp,['Im_JustinTimberlake.png', 'Im_ElijahWood.png', 'Im_HughJackman.png', 'Im_OrlandoBloom.png', 'Im_MattDamon.png', 'Im_DanielCraig.png', 'Im_RobertDowneyJr.png', 'Im_GeorgeClooney.png', 'Im_PatrickDempsey.png', 'Im_RyanGosling.png'],diff,1,0.5424423999999135,22,0,
ELHE1110,1,neg,120,neg120_id16_im19.bmp_neg120_id16_im3.bmp,['Im_JustinTimberlake.png', 'Im_ElijahWood.png', 'Im_HughJackman.png', 'Im_OrlandoBloom.png', 'Im_MattDamon.png', 'Im_DanielCraig.png', 'Im_RobertDowneyJr.png', 'Im_GeorgeClooney.png', 'Im_PatrickDempsey.png', 'Im_RyanGosling.png'],same,1,1.3582433000000265,23,0,
ELHE1110,1,neg,120,neg120_id18_im11.bmp_neg120_id18_im18.bmp,['Im_JustinTimberlake.png', 'Im_ElijahWood.png', 'Im_HughJackman.png', 'Im_OrlandoBloom.png', 'Im_MattDamon.png', 'Im_DanielCraig.png', 'Im_RobertDowneyJr.png', 'Im_GeorgeClooney.png', 'Im_PatrickDempsey.png', 'Im_RyanGosling.png'],same,1,0.41672270000003664,24,0,
ELHE1110,1,neg,90,neg90_id20_im30.bmp_neg90_id20_im12.bmp,['Im_JustinTimberlake.png', 'Im_ElijahWood.png', 'Im_HughJackman.png', 'Im_OrlandoBloom.png', 'Im_MattDamon.png', 'Im_DanielCraig.png', 'Im_RobertDowneyJr.png', 'Im_GeorgeClooney.png', 'Im_PatrickDempsey.png', 'Im_RyanGosling.png'],same,1,0.40841710000006515,25,0,
ELHE1110,1,neg,90,neg90_id16_im3.bmp_neg90_id16_im19.bmp,['Im_JustinTimberlake.png', 'Im_ElijahWood.png', 'Im_HughJackman.png', 'Im_OrlandoBloom.png', 'Im_MattDamon.png', 'Im_DanielCraig.png', 'Im_RobertDowneyJr.png', 'Im_GeorgeClooney.png', 'Im_PatrickDempsey.png', 'Im_RyanGosling.png'],same,1,0.5169186000000536,26,0,
ELHE1110,1,neg,0,neg0_id7_im26.bmp_neg0_id20_im3.bmp,['Im_JustinTimberlake.png', 'Im_ElijahWood.png', 'Im_HughJackman.png', 'Im_OrlandoBloom.png', 'Im_MattDamon.png', 'Im_DanielCraig.png', 'Im_RobertDowneyJr.png', 'Im_GeorgeClooney.png', 'Im_PatrickDempsey.png', 'Im_RyanGosling.png'],diff,1,0.4919214000000238,27,0,
ELHE1110,2,inv,60,pos60_id14_im24.bmp_pos60_id10_im18.bmp,['Im_JustinTimberlake.png', 'Im_ElijahWood.png', 'Im_HughJackman.png', 'Im_OrlandoBloom.png', 'Im_MattDamon.png', 'Im_DanielCraig.png', 'Im_RobertDowneyJr.png', 'Im_GeorgeClooney.png', 'Im_PatrickDempsey.png', 'Im_RyanGosling.png'],diff,1,0.5416907000000037,28,0,
ELHE1110,2,inv,0,pos0_id4_im7.bmp_pos0_id4_im15.bmp,['Im_JustinTimberlake.png', 'Im_ElijahWood.png', 'Im_HughJackman.png', 'Im_OrlandoBloom.png', 'Im_MattDamon.png', 'Im_DanielCraig.png', 'Im_RobertDowneyJr.png', 'Im_GeorgeClooney.png', 'Im_PatrickDempsey.png', 'Im_RyanGosling.png'],same,1,0.44172009999999773,29,0,
ELHE1110,2,inv,fs,posfs_id4_im15.bmp_posfs_id4_im20.bmp,['Im_JustinTimberlake.png', 'Im_ElijahWood.png', 'Im_HughJackman.png', 'Im_OrlandoBloom.png', 'Im_MattDamon.png', 'Im_DanielCraig.png', 'Im_RobertDowneyJr.png', 'Im_GeorgeClooney.png', 'Im_PatrickDempsey.png', 'Im_RyanGosling.png'],same,1,0.4250058000000081,30,0,
ELHE1110,2,inv,150,pos150_id4_im15.bmp_pos150_id4_im7.bmp,['Im_JustinTimberlake.png', 'Im_ElijahWood.png', 'Im_HughJackman.png', 'Im_OrlandoBloom.png', 'Im_MattDamon.png', 'Im_DanielCraig.png', 'Im_RobertDowneyJr.png', 'Im_GeorgeClooney.png', 'Im_PatrickDempsey.png', 'Im_RyanGosling.png'],same,1,0.42511099999990165,31,0,
ELHE1110,2,inv,60,pos60_id17_im9.bmp_pos60_id4_im20.bmp,['Im_JustinTimberlake.png', 'Im_ElijahWood.png', 'Im_HughJackman.png', 'Im_OrlandoBloom.png', 'Im_MattDamon.png', 'Im_DanielCraig.png', 'Im_RobertDowneyJr.png', 'Im_GeorgeClooney.png', 'Im_PatrickDempsey.png', 'Im_RyanGosling.png'],diff,1,0.4338017000000036,32,0,
ELHE1110,2,inv,fs,posfs_id14_im24.bmp_posfs_id10_im18.bmp,['Im_JustinTimberlake.png', 'Im_ElijahWood.png', 'Im_HughJackman.png', 'Im_OrlandoBloom.png', 'Im_MattDamon.png', 'Im_DanielCraig.png', 'Im_RobertDowneyJr.png', 'Im_GeorgeClooney.png', 'Im_PatrickDempsey.png', 'Im_RyanGosling.png'],diff,1,0.5833776000000626,33,0,
ELHE1110,2,inv,0,pos0_id10_im1.bmp_pos0_id4_im15.bmp,['Im_JustinTimberlake.png', 'Im_ElijahWood.png', 'Im_HughJackman.png', 'Im_OrlandoBloom.png', 'Im_MattDamon.png', 'Im_DanielCraig.png', 'Im_RobertDowneyJr.png', 'Im_GeorgeClooney.png', 'Im_PatrickDempsey.png', 'Im_RyanGosling.png'],diff,1,0.48361079999995127,34,0,
ELHE1110,2,inv,90,pos90_id18_im11.bmp_pos90_id18_im19.bmp,['Im_JustinTimberlake.png', 'Im_ElijahWood.png', 'Im_HughJackman.png', 'Im_OrlandoBloom.png', 'Im_MattDamon.png', 'Im_DanielCraig.png', 'Im_RobertDowneyJr.png', 'Im_GeorgeClooney.png', 'Im_PatrickDempsey.png', 'Im_RyanGosling.png'],same,1,0.49151900000003934,35,0,
ELHE1110,2,inv,90,pos90_id16_im3.bmp_pos90_id18_im19.bmp,['Im_JustinTimberlake.png', 'Im_ElijahWood.png', 'Im_HughJackman.png', 'Im_OrlandoBloom.png', 'Im_MattDamon.png', 'Im_DanielCraig.png', 'Im_RobertDowneyJr.png', 'Im_GeorgeClooney.png', 'Im_PatrickDempsey.png', 'Im_RyanGosling.png'],diff,1,0.5752595999999812,36,0,
ELHE1110,2,inv,30,pos30_id8_im13.bmp_pos30_id8_im20.bmp,['Im_JustinTimberlake.png', 'Im_ElijahWood.png', 'Im_HughJackman.png', 'Im_OrlandoBloom.png', 'Im_MattDamon.png', 'Im_DanielCraig.png', 'Im_RobertDowneyJr.png', 'Im_GeorgeClooney.png', 'Im_PatrickDempsey.png', 'Im_RyanGosling.png'],same,1,0.4083643999999822,37,0,
ELHE1110,2,inv,150,pos150_id20_im30.bmp_pos150_id6_im18.bmp,['Im_JustinTimberlake.png', 'Im_ElijahWood.png', 'Im_HughJackman.png', 'Im_OrlandoBloom.png', 'Im_MattDamon.png', 'Im_DanielCraig.png', 'Im_RobertDowneyJr.png', 'Im_GeorgeClooney.png', 'Im_PatrickDempsey.png', 'Im_RyanGosling.png'],diff,1,0.4167500999999447,38,0,
ELHE1110,2,inv,30,pos30_id20_im3.bmp_pos30_id7_im26.bmp,['Im_JustinTimberlake.png', 'Im_ElijahWood.png', 'Im_HughJackman.png', 'Im_OrlandoBloom.png', 'Im_MattDamon.png', 'Im_DanielCraig.png', 'Im_RobertDowneyJr.png', 'Im_GeorgeClooney.png', 'Im_PatrickDempsey.png', 'Im_RyanGosling.png'],diff,1,0.4250839000000042,39,0,
ELHE1110,2,inv,120,pos120_id10_im17.bmp_pos120_id17_im8.bmp,['Im_JustinTimberlake.png', 'Im_ElijahWood.png', 'Im_HughJackman.png', 'Im_OrlandoBloom.png', 'Im_MattDamon.png', 'Im_DanielCraig.png', 'Im_RobertDowneyJr.png', 'Im_GeorgeClooney.png', 'Im_PatrickDempsey.png', 'Im_RyanGosling.png'],same,0,0.408972800000015,39,0,
ELHE1110,2,inv,120,pos120_id18_im19.bmp_pos120_id18_im18.bmp,['Im_JustinTimberlake.png', 'Im_ElijahWood.png', 'Im_HughJackman.png', 'Im_OrlandoBloom.png', 'Im_MattDamon.png', 'Im_DanielCraig.png', 'Im_RobertDowneyJr.png', 'Im_GeorgeClooney.png', 'Im_PatrickDempsey.png', 'Im_RyanGosling.png'],diff,0,0.42506679999996777,39,0,
ELHE1110,3,pos,90,pos90_id6_im12.bmp_pos90_id18_im11.bmp,['Im_JustinTimberlake.png', 'Im_ElijahWood.png', 'Im_HughJackman.png', 'Im_OrlandoBloom.png', 'Im_MattDamon.png', 'Im_DanielCraig.png', 'Im_RobertDowneyJr.png', 'Im_GeorgeClooney.png', 'Im_PatrickDempsey.png', 'Im_RyanGosling.png'],diff,1,0.4165007000000287,1,92.85714285714286,
ELHE1110,3,pos,fs,posfs_id14_im24.bmp_posfs_id4_im15.bmp,['Im_JustinTimberlake.png', 'Im_ElijahWood.png', 'Im_HughJackman.png', 'Im_OrlandoBloom.png', 'Im_MattDamon.png', 'Im_DanielCraig.png', 'Im_RobertDowneyJr.png', 'Im_GeorgeClooney.png', 'Im_PatrickDempsey.png', 'Im_RyanGosling.png'],diff,1,0.424995899999999,2,92.85714285714286,
ELHE1110,3,pos,150,pos150_id10_im1.bmp_pos150_id10_im17.bmp,['Im_JustinTimberlake.png', 'Im_ElijahWood.png', 'Im_HughJackman.png', 'Im_OrlandoBloom.png', 'Im_MattDamon.png', 'Im_DanielCraig.png', 'Im_RobertDowneyJr.png', 'Im_GeorgeClooney.png', 'Im_PatrickDempsey.png', 'Im_RyanGosling.png'],same,1,0.4250465999999733,3,92.85714285714286,
ELHE1110,3,pos,fs,posfs_id8_im13.bmp_posfs_id8_im21.bmp,['Im_JustinTimberlake.png', 'Im_ElijahWood.png', 'Im_HughJackman.png', 'Im_OrlandoBloom.png', 'Im_MattDamon.png', 'Im_DanielCraig.png', 'Im_RobertDowneyJr.png', 'Im_GeorgeClooney.png', 'Im_PatrickDempsey.png', 'Im_RyanGosling.png'],same,1,0.42498760000000857,4,92.85714285714286,
ELHE1110,3,pos,30,pos30_id4_im7.bmp_pos30_id17_im14.bmp,['Im_JustinTimberlake.png', 'Im_ElijahWood.png', 'Im_HughJackman.png', 'Im_OrlandoBloom.png', 'Im_MattDamon.png', 'Im_DanielCraig.png', 'Im_RobertDowneyJr.png', 'Im_GeorgeClooney.png', 'Im_PatrickDempsey.png', 'Im_RyanGosling.png'],diff,1,0.41669309999997495,5,92.85714285714286,
ELHE1110,3,pos,120,pos120_id14_im16.bmp_pos120_id14_im18.bmp,['Im_JustinTimberlake.png', 'Im_ElijahWood.png', 'Im_HughJackman.png', 'Im_OrlandoBloom.png', 'Im_MattDamon.png', 'Im_DanielCraig.png', 'Im_RobertDowneyJr.png', 'Im_GeorgeClooney.png', 'Im_PatrickDempsey.png', 'Im_RyanGosling.png'],same,1,0.42508810000003905,6,92.85714285714286,
ELHE1110,3,pos,0,pos0_id17_im9.bmp_pos0_id17_im8.bmp,['Im_JustinTimberlake.png', 'Im_ElijahWood.png', 'Im_HughJackman.png', 'Im_OrlandoBloom.png', 'Im_MattDamon.png', 'Im_DanielCraig.png', 'Im_RobertDowneyJr.png', 'Im_GeorgeClooney.png', 'Im_PatrickDempsey.png', 'Im_RyanGosling.png'],same,1,0.43334709999999177,7,92.85714285714286,
ELHE1110,3,pos,30,pos30_id17_im14.bmp_pos30_id17_im9.bmp,['Im_JustinTimberlake.png', 'Im_ElijahWood.png', 'Im_HughJackman.png', 'Im_OrlandoBloom.png', 'Im_MattDamon.png', 'Im_DanielCraig.png', 'Im_RobertDowneyJr.png', 'Im_GeorgeClooney.png', 'Im_PatrickDempsey.png', 'Im_RyanGosling.png'],same,1,0.42513880000001336,8,92.85714285714286,
ELHE1110,3,pos,60,pos60_id20_im3.bmp_pos60_id7_im26.bmp,['Im_JustinTimberlake.png', 'Im_ElijahWood.png', 'Im_HughJackman.png', 'Im_OrlandoBloom.png', 'Im_MattDamon.png', 'Im_DanielCraig.png', 'Im_RobertDowneyJr.png', 'Im_GeorgeClooney.png', 'Im_PatrickDempsey.png', 'Im_RyanGosling.png'],diff,1,0.42500170000016624,9,92.85714285714286,
ELHE1110,3,pos,0,pos0_id16_im19.bmp_pos0_id7_im26.bmp,['Im_JustinTimberlake.png', 'Im_ElijahWood.png', 'Im_HughJackman.png', 'Im_OrlandoBloom.png', 'Im_MattDamon.png', 'Im_DanielCraig.png', 'Im_RobertDowneyJr.png', 'Im_GeorgeClooney.png', 'Im_PatrickDempsey.png', 'Im_RyanGosling.png'],diff,1,0.42504630000007637,10,92.85714285714286,
ELHE1110,3,pos,90,pos90_id17_im14.bmp_pos90_id17_im9.bmp,['Im_JustinTimberlake.png', 'Im_ElijahWood.png', 'Im_HughJackman.png', 'Im_OrlandoBloom.png', 'Im_MattDamon.png', 'Im_DanielCraig.png', 'Im_RobertDowneyJr.png', 'Im_GeorgeClooney.png', 'Im_PatrickDempsey.png', 'Im_RyanGosling.png'],same,1,0.41664700000001176,11,92.85714285714286,
ELHE1110,3,pos,60,pos60_id6_im12.bmp_pos60_id6_im18.bmp,['Im_JustinTimberlake.png', 'Im_ElijahWood.png', 'Im_HughJackman.png', 'Im_OrlandoBloom.png', 'Im_MattDamon.png', 'Im_DanielCraig.png', 'Im_RobertDowneyJr.png', 'Im_GeorgeClooney.png', 'Im_PatrickDempsey.png', 'Im_RyanGosling.png'],same,1,0.41676940000002105,12,92.85714285714286,
ELHE1110,3,pos,120,pos120_id8_im13.bmp_pos120_id16_im3.bmp,['Im_JustinTimberlake.png', 'Im_ElijahWood.png', 'Im_HughJackman.png', 'Im_OrlandoBloom.png', 'Im_MattDamon.png', 'Im_DanielCraig.png', 'Im_RobertDowneyJr.png', 'Im_GeorgeClooney.png', 'Im_PatrickDempsey.png', 'Im_RyanGosling.png'],diff,1,0.41670429999999214,13,92.85714285714286,
ELHE1110,3,pos,150,pos150_id20_im3.bmp_pos150_id7_im15.bmp,['Im_JustinTimberlake.png', 'Im_ElijahWood.png', 'Im_HughJackman.png', 'Im_OrlandoBloom.png', 'Im_MattDamon.png', 'Im_DanielCraig.png', 'Im_RobertDowneyJr.png', 'Im_GeorgeClooney.png', 'Im_PatrickDempsey.png', 'Im_RyanGosling.png'],diff,1,0.41682970000010755,14,92.85714285714286,
ELHE1110,4,inv,fs,posfs_id14_im18.bmp_posfs_id14_im16.bmp,['Im_JustinTimberlake.png', 'Im_ElijahWood.png', 'Im_HughJackman.png', 'Im_OrlandoBloom.png', 'Im_MattDamon.png', 'Im_DanielCraig.png', 'Im_RobertDowneyJr.png', 'Im_GeorgeClooney.png', 'Im_PatrickDempsey.png', 'Im_RyanGosling.png'],same,1,0.4333721999998943,15,92.85714285714286,
ELHE1110,4,inv,fs,posfs_id20_im30.bmp_posfs_id10_im18.bmp,['Im_JustinTimberlake.png', 'Im_ElijahWood.png', 'Im_HughJackman.png', 'Im_OrlandoBloom.png', 'Im_MattDamon.png', 'Im_DanielCraig.png', 'Im_RobertDowneyJr.png', 'Im_GeorgeClooney.png', 'Im_PatrickDempsey.png', 'Im_RyanGosling.png'],diff,1,0.4168038999998771,16,92.85714285714286,
ELHE1110,4,inv,90,pos90_id4_im15.bmp_pos90_id4_im20.bmp,['Im_JustinTimberlake.png', 'Im_ElijahWood.png', 'Im_HughJackman.png', 'Im_OrlandoBloom.png', 'Im_MattDamon.png', 'Im_DanielCraig.png', 'Im_RobertDowneyJr.png', 'Im_GeorgeClooney.png', 'Im_PatrickDempsey.png', 'Im_RyanGosling.png'],same,1,0.4250167000000147,17,92.85714285714286,
ELHE1110,4,inv,120,pos120_id8_im13.bmp_pos120_id8_im21.bmp,['Im_JustinTimberlake.png', 'Im_ElijahWood.png', 'Im_HughJackman.png', 'Im_OrlandoBloom.png', 'Im_MattDamon.png', 'Im_DanielCraig.png', 'Im_RobertDowneyJr.png', 'Im_GeorgeClooney.png', 'Im_PatrickDempsey.png', 'Im_RyanGosling.png'],same,1,0.5000585000000228,18,92.85714285714286,
ELHE1110,4,inv,60,pos60_id7_im26.bmp_pos60_id7_im14.bmp,['Im_JustinTimberlake.png', 'Im_ElijahWood.png', 'Im_HughJackman.png', 'Im_OrlandoBloom.png', 'Im_MattDamon.png', 'Im_DanielCraig.png', 'Im_RobertDowneyJr.png', 'Im_GeorgeClooney.png', 'Im_PatrickDempsey.png', 'Im_RyanGosling.png'],diff,0,0.7337242999999489,18,92.85714285714286,
ELHE1110,4,inv,60,pos60_id6_im18.bmp_pos60_id8_im13.bmp,['Im_JustinTimberlake.png', 'Im_ElijahWood.png', 'Im_HughJackman.png', 'Im_OrlandoBloom.png', 'Im_MattDamon.png', 'Im_DanielCraig.png', 'Im_RobertDowneyJr.png', 'Im_GeorgeClooney.png', 'Im_PatrickDempsey.png', 'Im_RyanGosling.png'],diff,1,0.5665885999999318,19,92.85714285714286,
ELHE1110,4,inv,0,pos0_id16_im2.bmp_pos0_id7_im15.bmp,['Im_JustinTimberlake.png', 'Im_ElijahWood.png', 'Im_HughJackman.png', 'Im_OrlandoBloom.png', 'Im_MattDamon.png', 'Im_DanielCraig.png', 'Im_RobertDowneyJr.png', 'Im_GeorgeClooney.png', 'Im_PatrickDempsey.png', 'Im_RyanGosling.png'],diff,1,0.42495710000002873,20,92.85714285714286,
ELHE1110,4,inv,0,pos0_id18_im18.bmp_pos0_id18_im19.bmp,['Im_JustinTimberlake.png', 'Im_ElijahWood.png', 'Im_HughJackman.png', 'Im_OrlandoBloom.png', 'Im_MattDamon.png', 'Im_DanielCraig.png', 'Im_RobertDowneyJr.png', 'Im_GeorgeClooney.png', 'Im_PatrickDempsey.png', 'Im_RyanGosling.png'],same,1,0.5417388000000756,21,92.85714285714286,
ELHE1110,4,inv,90,pos90_id4_im15.bmp_pos90_id10_im1.bmp,['Im_JustinTimberlake.png', 'Im_ElijahWood.png', 'Im_HughJackman.png', 'Im_OrlandoBloom.png', 'Im_MattDamon.png', 'Im_DanielCraig.png', 'Im_RobertDowneyJr.png', 'Im_GeorgeClooney.png', 'Im_PatrickDempsey.png', 'Im_RyanGosling.png'],diff,1,0.5253176999999596,22,92.85714285714286,
ELHE1110,4,inv,30,pos30_id10_im17.bmp_pos30_id17_im8.bmp,['Im_JustinTimberlake.png', 'Im_ElijahWood.png', 'Im_HughJackman.png', 'Im_OrlandoBloom.png', 'Im_MattDamon.png', 'Im_DanielCraig.png', 'Im_RobertDowneyJr.png', 'Im_GeorgeClooney.png', 'Im_PatrickDempsey.png', 'Im_RyanGosling.png'],diff,1,0.4500444000000243,23,92.85714285714286,
ELHE1110,4,inv,30,pos30_id20_im30.bmp_pos30_id6_im18.bmp,['Im_JustinTimberlake.png', 'Im_ElijahWood.png', 'Im_HughJackman.png', 'Im_OrlandoBloom.png', 'Im_MattDamon.png', 'Im_DanielCraig.png', 'Im_RobertDowneyJr.png', 'Im_GeorgeClooney.png', 'Im_PatrickDempsey.png', 'Im_RyanGosling.png'],diff,1,0.4166984999999386,24,92.85714285714286,
ELHE1110,4,inv,120,pos120_id7_im14.bmp_pos120_id6_im12.bmp,['Im_JustinTimberlake.png', 'Im_ElijahWood.png', 'Im_HughJackman.png', 'Im_OrlandoBloom.png', 'Im_MattDamon.png', 'Im_DanielCraig.png', 'Im_RobertDowneyJr.png', 'Im_GeorgeClooney.png', 'Im_PatrickDempsey.png', 'Im_RyanGosling.png'],diff,1,0.41674009999996997,25,92.85714285714286,
ELHE1110,4,inv,150,pos150_id17_im9.bmp_pos150_id17_im8.bmp,['Im_JustinTimberlake.png', 'Im_ElijahWood.png', 'Im_HughJackman.png', 'Im_OrlandoBloom.png', 'Im_MattDamon.png', 'Im_DanielCraig.png', 'Im_RobertDowneyJr.png', 'Im_GeorgeClooney.png', 'Im_PatrickDempsey.png', 'Im_RyanGosling.png'],same,1,0.4252410999999938,26,92.85714285714286,
ELHE1110,4,inv,150,pos150_id20_im3.bmp_pos150_id7_im15.bmp,['Im_JustinTimberlake.png', 'Im_ElijahWood.png', 'Im_HughJackman.png', 'Im_OrlandoBloom.png', 'Im_MattDamon.png', 'Im_DanielCraig.png', 'Im_RobertDowneyJr.png', 'Im_GeorgeClooney.png', 'Im_PatrickDempsey.png', 'Im_RyanGosling.png'],diff,1,0.4250836999999592,27,92.85714285714286,
ELHE1110,5,neg,60,neg60_id10_im1.bmp_neg60_id4_im15.bmp,['Im_JustinTimberlake.png', 'Im_ElijahWood.png', 'Im_HughJackman.png', 'Im_OrlandoBloom.png', 'Im_MattDamon.png', 'Im_DanielCraig.png', 'Im_RobertDowneyJr.png', 'Im_GeorgeClooney.png', 'Im_PatrickDempsey.png', 'Im_RyanGosling.png'],diff,1,0.4168065999999726,28,92.85714285714286,
ELHE1110,5,neg,30,neg30_id16_im3.bmp_neg30_id16_im2.bmp,['Im_JustinTimberlake.png', 'Im_ElijahWood.png', 'Im_HughJackman.png', 'Im_OrlandoBloom.png', 'Im_MattDamon.png', 'Im_DanielCraig.png', 'Im_RobertDowneyJr.png', 'Im_GeorgeClooney.png', 'Im_PatrickDempsey.png', 'Im_RyanGosling.png'],same,1,0.42506399999979294,29,92.85714285714286,
ELHE1110,5,neg,90,neg90_id17_im9.bmp_neg90_id17_im8.bmp,['Im_JustinTimberlake.png', 'Im_ElijahWood.png', 'Im_HughJackman.png', 'Im_OrlandoBloom.png', 'Im_MattDamon.png', 'Im_DanielCraig.png', 'Im_RobertDowneyJr.png', 'Im_GeorgeClooney.png', 'Im_PatrickDempsey.png', 'Im_RyanGosling.png'],same,1,0.4168667000001278,30,92.85714285714286,
ELHE1110,5,neg,30,neg30_id14_im24.bmp_neg30_id14_im18.bmp,['Im_JustinTimberlake.png', 'Im_ElijahWood.png', 'Im_HughJackman.png', 'Im_OrlandoBloom.png', 'Im_MattDamon.png', 'Im_DanielCraig.png', 'Im_RobertDowneyJr.png', 'Im_GeorgeClooney.png', 'Im_PatrickDempsey.png', 'Im_RyanGosling.png'],diff,0,0.5582835999998679,30,92.85714285714286,
ELHE1110,5,neg,60,neg60_id4_im15.bmp_neg60_id4_im7.bmp,['Im_JustinTimberlake.png', 'Im_ElijahWood.png', 'Im_HughJackman.png', 'Im_OrlandoBloom.png', 'Im_MattDamon.png', 'Im_DanielCraig.png', 'Im_RobertDowneyJr.png', 'Im_GeorgeClooney.png', 'Im_PatrickDempsey.png', 'Im_RyanGosling.png'],same,1,0.43332729999997355,31,92.85714285714286,
ELHE1110,5,neg,0,neg0_id17_im8.bmp_neg0_id6_im19.bmp,['Im_JustinTimberlake.png', 'Im_ElijahWood.png', 'Im_HughJackman.png', 'Im_OrlandoBloom.png', 'Im_MattDamon.png', 'Im_DanielCraig.png', 'Im_RobertDowneyJr.png', 'Im_GeorgeClooney.png', 'Im_PatrickDempsey.png', 'Im_RyanGosling.png'],diff,1,0.4250455999999758,32,92.85714285714286,
ELHE1110,5,neg,150,neg150_id8_im13.bmp_neg150_id16_im3.bmp,['Im_JustinTimberlake.png', 'Im_ElijahWood.png', 'Im_HughJackman.png', 'Im_OrlandoBloom.png', 'Im_MattDamon.png', 'Im_DanielCraig.png', 'Im_RobertDowneyJr.png', 'Im_GeorgeClooney.png', 'Im_PatrickDempsey.png', 'Im_RyanGosling.png'],diff,1,0.6000930000000153,33,92.85714285714286,
ELHE1110,5,neg,fs,negfs_id18_im18.bmp_negfs_id8_im20.bmp,['Im_JustinTimberlake.png', 'Im_ElijahWood.png', 'Im_HughJackman.png', 'Im_OrlandoBloom.png', 'Im_MattDamon.png', 'Im_DanielCraig.png', 'Im_RobertDowneyJr.png', 'Im_GeorgeClooney.png', 'Im_PatrickDempsey.png', 'Im_RyanGosling.png'],diff,1,0.41680040000005647,34,92.85714285714286,
ELHE1110,5,neg,fs,negfs_id20_im12.bmp_negfs_id8_im20.bmp,['Im_JustinTimberlake.png', 'Im_ElijahWood.png', 'Im_HughJackman.png', 'Im_OrlandoBloom.png', 'Im_MattDamon.png', 'Im_DanielCraig.png', 'Im_RobertDowneyJr.png', 'Im_GeorgeClooney.png', 'Im_PatrickDempsey.png', 'Im_RyanGosling.png'],diff,1,0.41671359999986635,35,92.85714285714286,
ELHE1110,5,neg,150,neg150_id7_im14.bmp_neg150_id6_im12.bmp,['Im_JustinTimberlake.png', 'Im_ElijahWood.png', 'Im_HughJackman.png', 'Im_OrlandoBloom.png', 'Im_MattDamon.png', 'Im_DanielCraig.png', 'Im_RobertDowneyJr.png', 'Im_GeorgeClooney.png', 'Im_PatrickDempsey.png', 'Im_RyanGosling.png'],diff,1,0.4167680999998993,36,92.85714285714286,
ELHE1110,5,neg,0,neg0_id20_im30.bmp_neg0_id20_im3.bmp,['Im_JustinTimberlake.png', 'Im_ElijahWood.png', 'Im_HughJackman.png', 'Im_OrlandoBloom.png', 'Im_MattDamon.png', 'Im_DanielCraig.png', 'Im_RobertDowneyJr.png', 'Im_GeorgeClooney.png', 'Im_PatrickDempsey.png', 'Im_RyanGosling.png'],same,1,0.4252010000000155,37,92.85714285714286,
ELHE1110,5,neg,90,neg90_id20_im3.bmp_neg90_id20_im30.bmp,['Im_JustinTimberlake.png', 'Im_ElijahWood.png', 'Im_HughJackman.png', 'Im_OrlandoBloom.png', 'Im_MattDamon.png', 'Im_DanielCraig.png', 'Im_RobertDowneyJr.png', 'Im_GeorgeClooney.png', 'Im_PatrickDempsey.png', 'Im_RyanGosling.png'],same,1,0.41673020000007455,38,92.85714285714286,
ELHE1110,5,neg,120,neg120_id8_im21.bmp_neg120_id8_im20.bmp,['Im_JustinTimberlake.png', 'Im_ElijahWood.png', 'Im_HughJackman.png', 'Im_OrlandoBloom.png', 'Im_MattDamon.png', 'Im_DanielCraig.png', 'Im_RobertDowneyJr.png', 'Im_GeorgeClooney.png', 'Im_PatrickDempsey.png', 'Im_RyanGosling.png'],diff,0,0.4250528000000031,38,92.85714285714286,
ELHE1110,5,neg,120,neg120_id4_im20.bmp_neg120_id10_im17.bmp,['Im_JustinTimberlake.png', 'Im_ElijahWood.png', 'Im_HughJackman.png', 'Im_OrlandoBloom.png', 'Im_MattDamon.png', 'Im_DanielCraig.png', 'Im_RobertDowneyJr.png', 'Im_GeorgeClooney.png', 'Im_PatrickDempsey.png', 'Im_RyanGosling.png'],diff,1,0.41676959999995233,39,92.85714285714286,
ELHE1110,6,pos,150,pos150_id4_im7.bmp_pos150_id17_im14.bmp,['Im_JustinTimberlake.png', 'Im_ElijahWood.png', 'Im_HughJackman.png', 'Im_OrlandoBloom.png', 'Im_MattDamon.png', 'Im_DanielCraig.png', 'Im_RobertDowneyJr.png', 'Im_GeorgeClooney.png', 'Im_PatrickDempsey.png', 'Im_RyanGosling.png'],diff,1,0.42505310000001373,1,92.85714285714286,
ELHE1110,6,pos,30,pos30_id17_im8.bmp_pos30_id6_im19.bmp,['Im_JustinTimberlake.png', 'Im_ElijahWood.png', 'Im_HughJackman.png', 'Im_OrlandoBloom.png', 'Im_MattDamon.png', 'Im_DanielCraig.png', 'Im_RobertDowneyJr.png', 'Im_GeorgeClooney.png', 'Im_PatrickDempsey.png', 'Im_RyanGosling.png'],diff,1,0.4248854999998457,2,92.85714285714286,
ELHE1110,6,pos,fs,posfs_id17_im14.bmp_posfs_id17_im8.bmp,['Im_JustinTimberlake.png', 'Im_ElijahWood.png', 'Im_HughJackman.png', 'Im_OrlandoBloom.png', 'Im_MattDamon.png', 'Im_DanielCraig.png', 'Im_RobertDowneyJr.png', 'Im_GeorgeClooney.png', 'Im_PatrickDempsey.png', 'Im_RyanGosling.png'],same,1,0.41668040000013207,3,92.85714285714286,
ELHE1110,6,pos,90,pos90_id10_im18.bmp_pos90_id10_im17.bmp,['Im_JustinTimberlake.png', 'Im_ElijahWood.png', 'Im_HughJackman.png', 'Im_OrlandoBloom.png', 'Im_MattDamon.png', 'Im_DanielCraig.png', 'Im_RobertDowneyJr.png', 'Im_GeorgeClooney.png', 'Im_PatrickDempsey.png', 'Im_RyanGosling.png'],same,1,0.41702040000018314,4,92.85714285714286,
ELHE1110,6,pos,fs,posfs_id17_im9.bmp_posfs_id17_im8.bmp,['Im_JustinTimberlake.png', 'Im_ElijahWood.png', 'Im_HughJackman.png', 'Im_OrlandoBloom.png', 'Im_MattDamon.png', 'Im_DanielCraig.png', 'Im_RobertDowneyJr.png', 'Im_GeorgeClooney.png', 'Im_PatrickDempsey.png', 'Im_RyanGosling.png'],same,1,0.42507079999995767,5,92.85714285714286,
ELHE1110,6,pos,90,pos90_id14_im18.bmp_pos90_id14_im24.bmp,['Im_JustinTimberlake.png', 'Im_ElijahWood.png', 'Im_HughJackman.png', 'Im_OrlandoBloom.png', 'Im_MattDamon.png', 'Im_DanielCraig.png', 'Im_RobertDowneyJr.png', 'Im_GeorgeClooney.png', 'Im_PatrickDempsey.png', 'Im_RyanGosling.png'],same,1,0.43341899999995803,6,92.85714285714286,
ELHE1110,6,pos,60,pos60_id7_im14.bmp_pos60_id7_im26.bmp,['Im_JustinTimberlake.png', 'Im_ElijahWood.png', 'Im_HughJackman.png', 'Im_OrlandoBloom.png', 'Im_MattDamon.png', 'Im_DanielCraig.png', 'Im_RobertDowneyJr.png', 'Im_GeorgeClooney.png', 'Im_PatrickDempsey.png', 'Im_RyanGosling.png'],same,1,0.41693559999998797,7,92.85714285714286,
ELHE1110,6,pos,0,pos0_id7_im15.bmp_pos0_id7_im26.bmp,['Im_JustinTimberlake.png', 'Im_ElijahWood.png', 'Im_HughJackman.png', 'Im_OrlandoBloom.png', 'Im_MattDamon.png', 'Im_DanielCraig.png', 'Im_RobertDowneyJr.png', 'Im_GeorgeClooney.png', 'Im_PatrickDempsey.png', 'Im_RyanGosling.png'],same,1,0.41673480000008567,8,92.85714285714286,
ELHE1110,6,pos,0,pos0_id8_im20.bmp_pos0_id8_im21.bmp,['Im_JustinTimberlake.png', 'Im_ElijahWood.png', 'Im_HughJackman.png', 'Im_OrlandoBloom.png', 'Im_MattDamon.png', 'Im_DanielCraig.png', 'Im_RobertDowneyJr.png', 'Im_GeorgeClooney.png', 'Im_PatrickDempsey.png', 'Im_RyanGosling.png'],same,1,0.4166837000000214,9,92.85714285714286,
ELHE1110,6,pos,60,pos60_id20_im30.bmp_pos60_id6_im18.bmp,['Im_JustinTimberlake.png', 'Im_ElijahWood.png', 'Im_HughJackman.png', 'Im_OrlandoBloom.png', 'Im_MattDamon.png', 'Im_DanielCraig.png', 'Im_RobertDowneyJr.png', 'Im_GeorgeClooney.png', 'Im_PatrickDempsey.png', 'Im_RyanGosling.png'],diff,1,0.42511910000007447,10,92.85714285714286,
ELHE1110,6,pos,120,pos120_id8_im13.bmp_pos120_id8_im20.bmp,['Im_JustinTimberlake.png', 'Im_ElijahWood.png', 'Im_HughJackman.png', 'Im_OrlandoBloom.png', 'Im_MattDamon.png', 'Im_DanielCraig.png', 'Im_RobertDowneyJr.png', 'Im_GeorgeClooney.png', 'Im_PatrickDempsey.png', 'Im_RyanGosling.png'],same,1,0.4250882000001184,11,92.85714285714286,
ELHE1110,6,pos,120,pos120_id20_im12.bmp_pos120_id20_im3.bmp,['Im_JustinTimberlake.png', 'Im_ElijahWood.png', 'Im_HughJackman.png', 'Im_OrlandoBloom.png', 'Im_MattDamon.png', 'Im_DanielCraig.png', 'Im_RobertDowneyJr.png', 'Im_GeorgeClooney.png', 'Im_PatrickDempsey.png', 'Im_RyanGosling.png'],diff,0,0.42498719999980494,11,92.85714285714286,
ELHE1110,6,pos,150,pos150_id18_im11.bmp_pos150_id14_im18.bmp,['Im_JustinTimberlake.png', 'Im_ElijahWood.png', 'Im_HughJackman.png', 'Im_OrlandoBloom.png', 'Im_MattDamon.png', 'Im_DanielCraig.png', 'Im_RobertDowneyJr.png', 'Im_GeorgeClooney.png', 'Im_PatrickDempsey.png', 'Im_RyanGosling.png'],diff,1,0.41672749999997905,12,92.85714285714286,
ELHE1110,6,pos,30,pos30_id14_im16.bmp_pos30_id14_im24.bmp,['Im_JustinTimberlake.png', 'Im_ElijahWood.png', 'Im_HughJackman.png', 'Im_OrlandoBloom.png', 'Im_MattDamon.png', 'Im_DanielCraig.png', 'Im_RobertDowneyJr.png', 'Im_GeorgeClooney.png', 'Im_PatrickDempsey.png', 'Im_RyanGosling.png'],same,1,0.4167024000000765,13,92.85714285714286,
ELHE1110,7,pos,0,pos0_id7_im15.bmp_pos0_id20_im3.bmp,['Im_JustinTimberlake.png', 'Im_ElijahWood.png', 'Im_HughJackman.png', 'Im_OrlandoBloom.png', 'Im_MattDamon.png', 'Im_DanielCraig.png', 'Im_RobertDowneyJr.png', 'Im_GeorgeClooney.png', 'Im_PatrickDempsey.png', 'Im_RyanGosling.png'],diff,1,0.43339689999993425,14,92.85714285714286,
ELHE1110,7,pos,120,pos120_id17_im14.bmp_pos120_id17_im8.bmp,['Im_JustinTimberlake.png', 'Im_ElijahWood.png', 'Im_HughJackman.png', 'Im_OrlandoBloom.png', 'Im_MattDamon.png', 'Im_DanielCraig.png', 'Im_RobertDowneyJr.png', 'Im_GeorgeClooney.png', 'Im_PatrickDempsey.png', 'Im_RyanGosling.png'],same,1,0.4167468999999073,15,92.85714285714286,
ELHE1110,7,pos,fs,posfs_id16_im2.bmp_posfs_id7_im15.bmp,['Im_JustinTimberlake.png', 'Im_ElijahWood.png', 'Im_HughJackman.png', 'Im_OrlandoBloom.png', 'Im_MattDamon.png', 'Im_DanielCraig.png', 'Im_RobertDowneyJr.png', 'Im_GeorgeClooney.png', 'Im_PatrickDempsey.png', 'Im_RyanGosling.png'],diff,1,0.4251836999999341,16,92.85714285714286,
ELHE1110,7,pos,60,pos60_id17_im14.bmp_pos60_id17_im8.bmp,['Im_JustinTimberlake.png', 'Im_ElijahWood.png', 'Im_HughJackman.png', 'Im_OrlandoBloom.png', 'Im_MattDamon.png', 'Im_DanielCraig.png', 'Im_RobertDowneyJr.png', 'Im_GeorgeClooney.png', 'Im_PatrickDempsey.png', 'Im_RyanGosling.png'],same,1,0.4166987999999492,17,92.85714285714286,
ELHE1110,7,pos,60,pos60_id7_im15.bmp_pos60_id20_im3.bmp,['Im_JustinTimberlake.png', 'Im_ElijahWood.png', 'Im_HughJackman.png', 'Im_OrlandoBloom.png', 'Im_MattDamon.png', 'Im_DanielCraig.png', 'Im_RobertDowneyJr.png', 'Im_GeorgeClooney.png', 'Im_PatrickDempsey.png', 'Im_RyanGosling.png'],diff,1,0.4250825999999961,18,92.85714285714286,
ELHE1110,7,pos,150,pos150_id6_im12.bmp_pos150_id18_im11.bmp,['Im_JustinTimberlake.png', 'Im_ElijahWood.png', 'Im_HughJackman.png', 'Im_OrlandoBloom.png', 'Im_MattDamon.png', 'Im_DanielCraig.png', 'Im_RobertDowneyJr.png', 'Im_GeorgeClooney.png', 'Im_PatrickDempsey.png', 'Im_RyanGosling.png'],diff,1,0.4334602999999788,19,92.85714285714286,
ELHE1110,7,pos,90,pos90_id8_im21.bmp_pos90_id8_im13.bmp,['Im_JustinTimberlake.png', 'Im_ElijahWood.png', 'Im_HughJackman.png', 'Im_OrlandoBloom.png', 'Im_MattDamon.png', 'Im_DanielCraig.png', 'Im_RobertDowneyJr.png', 'Im_GeorgeClooney.png', 'Im_PatrickDempsey.png', 'Im_RyanGosling.png'],same,1,0.43339450000007673,20,92.85714285714286,
ELHE1110,7,pos,150,pos150_id10_im17.bmp_pos150_id10_im18.bmp,['Im_JustinTimberlake.png', 'Im_ElijahWood.png', 'Im_HughJackman.png', 'Im_OrlandoBloom.png', 'Im_MattDamon.png', 'Im_DanielCraig.png', 'Im_RobertDowneyJr.png', 'Im_GeorgeClooney.png', 'Im_PatrickDempsey.png', 'Im_RyanGosling.png'],same,1,0.41667290000009416,21,92.85714285714286,
ELHE1110,7,pos,90,pos90_id4_im7.bmp_pos90_id8_im21.bmp,['Im_JustinTimberlake.png', 'Im_ElijahWood.png', 'Im_HughJackman.png', 'Im_OrlandoBloom.png', 'Im_MattDamon.png', 'Im_DanielCraig.png', 'Im_RobertDowneyJr.png', 'Im_GeorgeClooney.png', 'Im_PatrickDempsey.png', 'Im_RyanGosling.png'],diff,1,0.4251094999999623,22,92.85714285714286,
ELHE1110,7,pos,30,pos30_id16_im3.bmp_pos30_id18_im19.bmp,['Im_JustinTimberlake.png', 'Im_ElijahWood.png', 'Im_HughJackman.png', 'Im_OrlandoBloom.png', 'Im_MattDamon.png', 'Im_DanielCraig.png', 'Im_RobertDowneyJr.png', 'Im_GeorgeClooney.png', 'Im_PatrickDempsey.png', 'Im_RyanGosling.png'],diff,1,0.4332974999999806,23,92.85714285714286,
ELHE1110,7,pos,fs,posfs_id7_im26.bmp_posfs_id7_im14.bmp,['Im_JustinTimberlake.png', 'Im_ElijahWood.png', 'Im_HughJackman.png', 'Im_OrlandoBloom.png', 'Im_MattDamon.png', 'Im_DanielCraig.png', 'Im_RobertDowneyJr.png', 'Im_GeorgeClooney.png', 'Im_PatrickDempsey.png', 'Im_RyanGosling.png'],diff,0,0.4166250000000673,23,92.85714285714286,
ELHE1110,7,pos,30,pos30_id16_im3.bmp_pos30_id16_im2.bmp,['Im_JustinTimberlake.png', 'Im_ElijahWood.png', 'Im_HughJackman.png', 'Im_OrlandoBloom.png', 'Im_MattDamon.png', 'Im_DanielCraig.png', 'Im_RobertDowneyJr.png', 'Im_GeorgeClooney.png', 'Im_PatrickDempsey.png', 'Im_RyanGosling.png'],same,1,0.7918850999999449,24,92.85714285714286,
ELHE1110,7,pos,0,pos0_id20_im30.bmp_pos0_id6_im18.bmp,['Im_JustinTimberlake.png', 'Im_ElijahWood.png', 'Im_HughJackman.png', 'Im_OrlandoBloom.png', 'Im_MattDamon.png', 'Im_DanielCraig.png', 'Im_RobertDowneyJr.png', 'Im_GeorgeClooney.png', 'Im_PatrickDempsey.png', 'Im_RyanGosling.png'],diff,1,0.41673040000000583,25,92.85714285714286,
ELHE1110,7,pos,120,pos120_id6_im18.bmp_pos120_id6_im19.bmp,['Im_JustinTimberlake.png', 'Im_ElijahWood.png', 'Im_HughJackman.png', 'Im_OrlandoBloom.png', 'Im_MattDamon.png', 'Im_DanielCraig.png', 'Im_RobertDowneyJr.png', 'Im_GeorgeClooney.png', 'Im_PatrickDempsey.png', 'Im_RyanGosling.png'],same,1,0.41679340000018783,26,92.85714285714286,
ELHE1110,8,neg,150,neg150_id8_im20.bmp_neg150_id8_im21.bmp,['Im_JustinTimberlake.png', 'Im_ElijahWood.png', 'Im_HughJackman.png', 'Im_OrlandoBloom.png', 'Im_MattDamon.png', 'Im_DanielCraig.png', 'Im_RobertDowneyJr.png', 'Im_GeorgeClooney.png', 'Im_PatrickDempsey.png', 'Im_RyanGosling.png'],same,1,0.4168064999998933,27,92.85714285714286,
ELHE1110,8,neg,30,neg30_id8_im21.bmp_neg30_id4_im7.bmp,['Im_JustinTimberlake.png', 'Im_ElijahWood.png', 'Im_HughJackman.png', 'Im_OrlandoBloom.png', 'Im_MattDamon.png', 'Im_DanielCraig.png', 'Im_RobertDowneyJr.png', 'Im_GeorgeClooney.png', 'Im_PatrickDempsey.png', 'Im_RyanGosling.png'],diff,1,0.41651149999984227,28,92.85714285714286,
ELHE1110,8,neg,30,neg30_id4_im20.bmp_neg30_id4_im15.bmp,['Im_JustinTimberlake.png', 'Im_ElijahWood.png', 'Im_HughJackman.png', 'Im_OrlandoBloom.png', 'Im_MattDamon.png', 'Im_DanielCraig.png', 'Im_RobertDowneyJr.png', 'Im_GeorgeClooney.png', 'Im_PatrickDempsey.png', 'Im_RyanGosling.png'],same,1,0.4251572999999098,29,92.85714285714286,
ELHE1110,8,neg,60,neg60_id8_im20.bmp_neg60_id18_im18.bmp,['Im_JustinTimberlake.png', 'Im_ElijahWood.png', 'Im_HughJackman.png', 'Im_OrlandoBloom.png', 'Im_MattDamon.png', 'Im_DanielCraig.png', 'Im_RobertDowneyJr.png', 'Im_GeorgeClooney.png', 'Im_PatrickDempsey.png', 'Im_RyanGosling.png'],diff,1,0.4836776000001919,30,92.85714285714286,
ELHE1110,8,neg,150,neg150_id17_im8.bmp_neg150_id17_im9.bmp,['Im_JustinTimberlake.png', 'Im_ElijahWood.png', 'Im_HughJackman.png', 'Im_OrlandoBloom.png', 'Im_MattDamon.png', 'Im_DanielCraig.png', 'Im_RobertDowneyJr.png', 'Im_GeorgeClooney.png', 'Im_PatrickDempsey.png', 'Im_RyanGosling.png'],same,1,0.4167070999999396,31,92.85714285714286,
ELHE1110,8,neg,60,neg60_id14_im18.bmp_neg60_id14_im16.bmp,['Im_JustinTimberlake.png', 'Im_ElijahWood.png', 'Im_HughJackman.png', 'Im_OrlandoBloom.png', 'Im_MattDamon.png', 'Im_DanielCraig.png', 'Im_RobertDowneyJr.png', 'Im_GeorgeClooney.png', 'Im_PatrickDempsey.png', 'Im_RyanGosling.png'],diff,0,0.44174850000013066,31,92.85714285714286,
ELHE1110,8,neg,0,neg0_id20_im12.bmp_neg0_id8_im20.bmp,['Im_JustinTimberlake.png', 'Im_ElijahWood.png', 'Im_HughJackman.png', 'Im_OrlandoBloom.png', 'Im_MattDamon.png', 'Im_DanielCraig.png', 'Im_RobertDowneyJr.png', 'Im_GeorgeClooney.png', 'Im_PatrickDempsey.png', 'Im_RyanGosling.png'],diff,1,0.41671560000008867,32,92.85714285714286,
ELHE1110,8,neg,90,neg90_id10_im17.bmp_neg90_id10_im18.bmp,['Im_JustinTimberlake.png', 'Im_ElijahWood.png', 'Im_HughJackman.png', 'Im_OrlandoBloom.png', 'Im_MattDamon.png', 'Im_DanielCraig.png', 'Im_RobertDowneyJr.png', 'Im_GeorgeClooney.png', 'Im_PatrickDempsey.png', 'Im_RyanGosling.png'],same,1,0.41677610000010645,33,92.85714285714286,
ELHE1110,8,neg,90,neg90_id8_im21.bmp_neg90_id8_im20.bmp,['Im_JustinTimberlake.png', 'Im_ElijahWood.png', 'Im_HughJackman.png', 'Im_OrlandoBloom.png', 'Im_MattDamon.png', 'Im_DanielCraig.png', 'Im_RobertDowneyJr.png', 'Im_GeorgeClooney.png', 'Im_PatrickDempsey.png', 'Im_RyanGosling.png'],same,1,0.42506920000005266,34,92.85714285714286,
ELHE1110,8,neg,fs,negfs_id4_im20.bmp_negfs_id17_im9.bmp,['Im_JustinTimberlake.png', 'Im_ElijahWood.png', 'Im_HughJackman.png', 'Im_OrlandoBloom.png', 'Im_MattDamon.png', 'Im_DanielCraig.png', 'Im_RobertDowneyJr.png', 'Im_GeorgeClooney.png', 'Im_PatrickDempsey.png', 'Im_RyanGosling.png'],diff,1,0.43345739999995203,35,92.85714285714286,
ELHE1110,8,neg,120,neg120_id17_im8.bmp_neg120_id17_im9.bmp,['Im_JustinTimberlake.png', 'Im_ElijahWood.png', 'Im_HughJackman.png', 'Im_OrlandoBloom.png', 'Im_MattDamon.png', 'Im_DanielCraig.png', 'Im_RobertDowneyJr.png', 'Im_GeorgeClooney.png', 'Im_PatrickDempsey.png', 'Im_RyanGosling.png'],same,1,0.4167622999998457,36,92.85714285714286,
ELHE1110,8,neg,0,neg0_id7_im15.bmp_neg0_id20_im3.bmp,['Im_JustinTimberlake.png', 'Im_ElijahWood.png', 'Im_HughJackman.png', 'Im_OrlandoBloom.png', 'Im_MattDamon.png', 'Im_DanielCraig.png', 'Im_RobertDowneyJr.png', 'Im_GeorgeClooney.png', 'Im_PatrickDempsey.png', 'Im_RyanGosling.png'],diff,1,0.5002620000000206,37,92.85714285714286,
ELHE1110,8,neg,120,neg120_id14_im18.bmp_neg120_id17_im14.bmp,['Im_JustinTimberlake.png', 'Im_ElijahWood.png', 'Im_HughJackman.png', 'Im_OrlandoBloom.png', 'Im_MattDamon.png', 'Im_DanielCraig.png', 'Im_RobertDowneyJr.png', 'Im_GeorgeClooney.png', 'Im_PatrickDempsey.png', 'Im_RyanGosling.png'],diff,1,0.41673869999999624,38,92.85714285714286,
ELHE1110,8,neg,fs,negfs_id6_im12.bmp_negfs_id6_im18.bmp,['Im_JustinTimberlake.png', 'Im_ElijahWood.png', 'Im_HughJackman.png', 'Im_OrlandoBloom.png', 'Im_MattDamon.png', 'Im_DanielCraig.png', 'Im_RobertDowneyJr.png', 'Im_GeorgeClooney.png', 'Im_PatrickDempsey.png', 'Im_RyanGosling.png'],same,1,0.4167668000000049,39,92.85714285714286,
ELHE1110,9,inv,0,pos0_id8_im20.bmp_pos0_id8_im13.bmp,['Im_JustinTimberlake.png', 'Im_ElijahWood.png', 'Im_HughJackman.png', 'Im_OrlandoBloom.png', 'Im_MattDamon.png', 'Im_DanielCraig.png', 'Im_RobertDowneyJr.png', 'Im_GeorgeClooney.png', 'Im_PatrickDempsey.png', 'Im_RyanGosling.png'],same,1,0.9251639999999952,1,92.85714285714286,
ELHE1110,9,inv,60,pos60_id20_im30.bmp_pos60_id20_im12.bmp,['Im_JustinTimberlake.png', 'Im_ElijahWood.png', 'Im_HughJackman.png', 'Im_OrlandoBloom.png', 'Im_MattDamon.png', 'Im_DanielCraig.png', 'Im_RobertDowneyJr.png', 'Im_GeorgeClooney.png', 'Im_PatrickDempsey.png', 'Im_RyanGosling.png'],same,1,0.4165711000000556,2,92.85714285714286,
ELHE1110,9,inv,fs,posfs_id18_im19.bmp_posfs_id18_im11.bmp,['Im_JustinTimberlake.png', 'Im_ElijahWood.png', 'Im_HughJackman.png', 'Im_OrlandoBloom.png', 'Im_MattDamon.png', 'Im_DanielCraig.png', 'Im_RobertDowneyJr.png', 'Im_GeorgeClooney.png', 'Im_PatrickDempsey.png', 'Im_RyanGosling.png'],same,1,0.42508199999997487,3,92.85714285714286,
ELHE1110,9,inv,60,pos60_id8_im20.bmp_pos60_id8_im21.bmp,['Im_JustinTimberlake.png', 'Im_ElijahWood.png', 'Im_HughJackman.png', 'Im_OrlandoBloom.png', 'Im_MattDamon.png', 'Im_DanielCraig.png', 'Im_RobertDowneyJr.png', 'Im_GeorgeClooney.png', 'Im_PatrickDempsey.png', 'Im_RyanGosling.png'],same,1,0.4168368000000555,4,92.85714285714286,
ELHE1110,9,inv,150,pos150_id10_im1.bmp_pos150_id10_im17.bmp,['Im_JustinTimberlake.png', 'Im_ElijahWood.png', 'Im_HughJackman.png', 'Im_OrlandoBloom.png', 'Im_MattDamon.png', 'Im_DanielCraig.png', 'Im_RobertDowneyJr.png', 'Im_GeorgeClooney.png', 'Im_PatrickDempsey.png', 'Im_RyanGosling.png'],same,1,0.44172709999998006,5,92.85714285714286,
ELHE1110,9,inv,fs,posfs_id20_im30.bmp_posfs_id20_im12.bmp,['Im_JustinTimberlake.png', 'Im_ElijahWood.png', 'Im_HughJackman.png', 'Im_OrlandoBloom.png', 'Im_MattDamon.png', 'Im_DanielCraig.png', 'Im_RobertDowneyJr.png', 'Im_GeorgeClooney.png', 'Im_PatrickDempsey.png', 'Im_RyanGosling.png'],same,1,0.416686000000027,6,92.85714285714286,
ELHE1110,9,inv,120,pos120_id17_im9.bmp_pos120_id6_im19.bmp,['Im_JustinTimberlake.png', 'Im_ElijahWood.png', 'Im_HughJackman.png', 'Im_OrlandoBloom.png', 'Im_MattDamon.png', 'Im_DanielCraig.png', 'Im_RobertDowneyJr.png', 'Im_GeorgeClooney.png', 'Im_PatrickDempsey.png', 'Im_RyanGosling.png'],diff,1,0.9167959999999766,7,92.85714285714286,
ELHE1110,9,inv,30,pos30_id14_im24.bmp_pos30_id14_im16.bmp,['Im_JustinTimberlake.png', 'Im_ElijahWood.png', 'Im_HughJackman.png', 'Im_OrlandoBloom.png', 'Im_MattDamon.png', 'Im_DanielCraig.png', 'Im_RobertDowneyJr.png', 'Im_GeorgeClooney.png', 'Im_PatrickDempsey.png', 'Im_RyanGosling.png'],same,1,0.5168340999998691,8,92.85714285714286,
ELHE1110,9,inv,120,pos120_id16_im3.bmp_pos120_id16_im2.bmp,['Im_JustinTimberlake.png', 'Im_ElijahWood.png', 'Im_HughJackman.png', 'Im_OrlandoBloom.png', 'Im_MattDamon.png', 'Im_DanielCraig.png', 'Im_RobertDowneyJr.png', 'Im_GeorgeClooney.png', 'Im_PatrickDempsey.png', 'Im_RyanGosling.png'],same,1,0.45880350000015824,9,92.85714285714286,
ELHE1110,9,inv,90,pos90_id14_im18.bmp_pos90_id17_im14.bmp,['Im_JustinTimberlake.png', 'Im_ElijahWood.png', 'Im_HughJackman.png', 'Im_OrlandoBloom.png', 'Im_MattDamon.png', 'Im_DanielCraig.png', 'Im_RobertDowneyJr.png', 'Im_GeorgeClooney.png', 'Im_PatrickDempsey.png', 'Im_RyanGosling.png'],diff,1,0.4167544999997972,10,92.85714285714286,
ELHE1110,9,inv,30,pos30_id4_im20.bmp_pos30_id10_im17.bmp,['Im_JustinTimberlake.png', 'Im_ElijahWood.png', 'Im_HughJackman.png', 'Im_OrlandoBloom.png', 'Im_MattDamon.png', 'Im_DanielCraig.png', 'Im_RobertDowneyJr.png', 'Im_GeorgeClooney.png', 'Im_PatrickDempsey.png', 'Im_RyanGosling.png'],diff,1,0.42522969999981797,11,92.85714285714286,
ELHE1110,9,inv,90,pos90_id6_im12.bmp_pos90_id6_im19.bmp,['Im_JustinTimberlake.png', 'Im_ElijahWood.png', 'Im_HughJackman.png', 'Im_OrlandoBloom.png', 'Im_MattDamon.png', 'Im_DanielCraig.png', 'Im_RobertDowneyJr.png', 'Im_GeorgeClooney.png', 'Im_PatrickDempsey.png', 'Im_RyanGosling.png'],same,1,0.4166139999999814,12,92.85714285714286,
ELHE1110,9,inv,0,pos0_id10_im18.bmp_pos0_id20_im30.bmp,['Im_JustinTimberlake.png', 'Im_ElijahWood.png', 'Im_HughJackman.png', 'Im_OrlandoBloom.png', 'Im_MattDamon.png', 'Im_DanielCraig.png', 'Im_RobertDowneyJr.png', 'Im_GeorgeClooney.png', 'Im_PatrickDempsey.png', 'Im_RyanGosling.png'],diff,1,0.4167640999999094,13,92.85714285714286,
ELHE1110,9,inv,150,pos150_id7_im14.bmp_pos150_id6_im12.bmp,['Im_JustinTimberlake.png', 'Im_ElijahWood.png', 'Im_HughJackman.png', 'Im_OrlandoBloom.png', 'Im_MattDamon.png', 'Im_DanielCraig.png', 'Im_RobertDowneyJr.png', 'Im_GeorgeClooney.png', 'Im_PatrickDempsey.png', 'Im_RyanGosling.png'],diff,1,0.41696569999999156,14,92.85714285714286,
ELHE1110,10,pos,30,pos30_id17_im9.bmp_pos30_id4_im20.bmp,['Im_JustinTimberlake.png', 'Im_ElijahWood.png', 'Im_HughJackman.png', 'Im_OrlandoBloom.png', 'Im_MattDamon.png', 'Im_DanielCraig.png', 'Im_RobertDowneyJr.png', 'Im_GeorgeClooney.png', 'Im_PatrickDempsey.png', 'Im_RyanGosling.png'],diff,1,0.4334150999998201,15,92.85714285714286,
ELHE1110,10,pos,fs,posfs_id10_im18.bmp_posfs_id10_im17.bmp,['Im_JustinTimberlake.png', 'Im_ElijahWood.png', 'Im_HughJackman.png', 'Im_OrlandoBloom.png', 'Im_MattDamon.png', 'Im_DanielCraig.png', 'Im_RobertDowneyJr.png', 'Im_GeorgeClooney.png', 'Im_PatrickDempsey.png', 'Im_RyanGosling.png'],same,1,0.41656650000004447,16,92.85714285714286,
ELHE1110,10,pos,150,pos150_id7_im14.bmp_pos150_id7_im26.bmp,['Im_JustinTimberlake.png', 'Im_ElijahWood.png', 'Im_HughJackman.png', 'Im_OrlandoBloom.png', 'Im_MattDamon.png', 'Im_DanielCraig.png', 'Im_RobertDowneyJr.png', 'Im_GeorgeClooney.png', 'Im_PatrickDempsey.png', 'Im_RyanGosling.png'],same,1,0.450311499999998,17,92.85714285714286,
ELHE1110,10,pos,90,pos90_id8_im21.bmp_pos90_id8_im20.bmp,['Im_JustinTimberlake.png', 'Im_ElijahWood.png', 'Im_HughJackman.png', 'Im_OrlandoBloom.png', 'Im_MattDamon.png', 'Im_DanielCraig.png', 'Im_RobertDowneyJr.png', 'Im_GeorgeClooney.png', 'Im_PatrickDempsey.png', 'Im_RyanGosling.png'],same,1,0.4164846999999554,18,92.85714285714286,
ELHE1110,10,pos,60,pos60_id18_im19.bmp_pos60_id14_im16.bmp,['Im_JustinTimberlake.png', 'Im_ElijahWood.png', 'Im_HughJackman.png', 'Im_OrlandoBloom.png', 'Im_MattDamon.png', 'Im_DanielCraig.png', 'Im_RobertDowneyJr.png', 'Im_GeorgeClooney.png', 'Im_PatrickDempsey.png', 'Im_RyanGosling.png'],diff,1,0.40836960000001454,19,92.85714285714286,
ELHE1110,10,pos,90,pos90_id6_im19.bmp_pos90_id6_im18.bmp,['Im_JustinTimberlake.png', 'Im_ElijahWood.png', 'Im_HughJackman.png', 'Im_OrlandoBloom.png', 'Im_MattDamon.png', 'Im_DanielCraig.png', 'Im_RobertDowneyJr.png', 'Im_GeorgeClooney.png', 'Im_PatrickDempsey.png', 'Im_RyanGosling.png'],same,1,0.41670349999981227,20,92.85714285714286,
ELHE1110,10,pos,0,pos0_id18_im19.bmp_pos0_id18_im11.bmp,['Im_JustinTimberlake.png', 'Im_ElijahWood.png', 'Im_HughJackman.png', 'Im_OrlandoBloom.png', 'Im_MattDamon.png', 'Im_DanielCraig.png', 'Im_RobertDowneyJr.png', 'Im_GeorgeClooney.png', 'Im_PatrickDempsey.png', 'Im_RyanGosling.png'],same,1,0.4085688999998638,21,92.85714285714286,
ELHE1110,10,pos,150,pos150_id18_im19.bmp_pos150_id16_im3.bmp,['Im_JustinTimberlake.png', 'Im_ElijahWood.png', 'Im_HughJackman.png', 'Im_OrlandoBloom.png', 'Im_MattDamon.png', 'Im_DanielCraig.png', 'Im_RobertDowneyJr.png', 'Im_GeorgeClooney.png', 'Im_PatrickDempsey.png', 'Im_RyanGosling.png'],diff,1,0.4166987999999492,22,92.85714285714286,
ELHE1110,10,pos,120,pos120_id18_im18.bmp_pos120_id8_im20.bmp,['Im_JustinTimberlake.png', 'Im_ElijahWood.png', 'Im_HughJackman.png', 'Im_OrlandoBloom.png', 'Im_MattDamon.png', 'Im_DanielCraig.png', 'Im_RobertDowneyJr.png', 'Im_GeorgeClooney.png', 'Im_PatrickDempsey.png', 'Im_RyanGosling.png'],diff,1,0.41676619999998366,23,92.85714285714286,
ELHE1110,10,pos,0,pos0_id8_im21.bmp_pos0_id4_im7.bmp,['Im_JustinTimberlake.png', 'Im_ElijahWood.png', 'Im_HughJackman.png', 'Im_OrlandoBloom.png', 'Im_MattDamon.png', 'Im_DanielCraig.png', 'Im_RobertDowneyJr.png', 'Im_GeorgeClooney.png', 'Im_PatrickDempsey.png', 'Im_RyanGosling.png'],diff,1,0.4083808999998837,24,92.85714285714286,
ELHE1110,10,pos,30,pos30_id14_im18.bmp_pos30_id14_im24.bmp,['Im_JustinTimberlake.png', 'Im_ElijahWood.png', 'Im_HughJackman.png', 'Im_OrlandoBloom.png', 'Im_MattDamon.png', 'Im_DanielCraig.png', 'Im_RobertDowneyJr.png', 'Im_GeorgeClooney.png', 'Im_PatrickDempsey.png', 'Im_RyanGosling.png'],same,1,0.4167798999999377,25,92.85714285714286,
ELHE1110,10,pos,fs,posfs_id7_im15.bmp_posfs_id7_im26.bmp,['Im_JustinTimberlake.png', 'Im_ElijahWood.png', 'Im_HughJackman.png', 'Im_OrlandoBloom.png', 'Im_MattDamon.png', 'Im_DanielCraig.png', 'Im_RobertDowneyJr.png', 'Im_GeorgeClooney.png', 'Im_PatrickDempsey.png', 'Im_RyanGosling.png'],same,1,0.4167840999998589,26,92.85714285714286,
ELHE1110,10,pos,120,pos120_id16_im2.bmp_pos120_id16_im19.bmp,['Im_JustinTimberlake.png', 'Im_ElijahWood.png', 'Im_HughJackman.png', 'Im_OrlandoBloom.png', 'Im_MattDamon.png', 'Im_DanielCraig.png', 'Im_RobertDowneyJr.png', 'Im_GeorgeClooney.png', 'Im_PatrickDempsey.png', 'Im_RyanGosling.png'],same,1,0.41667710000001534,27,92.85714285714286,
ELHE1110,10,pos,60,pos60_id18_im19.bmp_pos60_id18_im11.bmp,['Im_JustinTimberlake.png', 'Im_ElijahWood.png', 'Im_HughJackman.png', 'Im_OrlandoBloom.png', 'Im_MattDamon.png', 'Im_DanielCraig.png', 'Im_RobertDowneyJr.png', 'Im_GeorgeClooney.png', 'Im_PatrickDempsey.png', 'Im_RyanGosling.png'],same,1,0.43333099999995284,28,92.85714285714286,
ELHE1110,11,inv,0,pos0_id14_im24.bmp_pos0_id14_im18.bmp,['Im_JustinTimberlake.png', 'Im_ElijahWood.png', 'Im_HughJackman.png', 'Im_OrlandoBloom.png', 'Im_MattDamon.png', 'Im_DanielCraig.png', 'Im_RobertDowneyJr.png', 'Im_GeorgeClooney.png', 'Im_PatrickDempsey.png', 'Im_RyanGosling.png'],same,1,0.5165052999998352,29,92.85714285714286,
ELHE1110,11,inv,150,pos150_id6_im19.bmp_pos150_id17_im9.bmp,['Im_JustinTimberlake.png', 'Im_ElijahWood.png', 'Im_HughJackman.png', 'Im_OrlandoBloom.png', 'Im_MattDamon.png', 'Im_DanielCraig.png', 'Im_RobertDowneyJr.png', 'Im_GeorgeClooney.png', 'Im_PatrickDempsey.png', 'Im_RyanGosling.png'],diff,1,1.166991699999926,30,92.85714285714286,
ELHE1110,11,inv,fs,posfs_id20_im12.bmp_posfs_id8_im20.bmp,['Im_JustinTimberlake.png', 'Im_ElijahWood.png', 'Im_HughJackman.png', 'Im_OrlandoBloom.png', 'Im_MattDamon.png', 'Im_DanielCraig.png', 'Im_RobertDowneyJr.png', 'Im_GeorgeClooney.png', 'Im_PatrickDempsey.png', 'Im_RyanGosling.png'],diff,1,0.4250081999998656,31,92.85714285714286,
ELHE1110,11,inv,90,pos90_id14_im24.bmp_pos90_id4_im15.bmp,['Im_JustinTimberlake.png', 'Im_ElijahWood.png', 'Im_HughJackman.png', 'Im_OrlandoBloom.png', 'Im_MattDamon.png', 'Im_DanielCraig.png', 'Im_RobertDowneyJr.png', 'Im_GeorgeClooney.png', 'Im_PatrickDempsey.png', 'Im_RyanGosling.png'],diff,1,0.42499659999998585,32,92.85714285714286,
ELHE1110,11,inv,120,pos120_id10_im1.bmp_pos120_id7_im14.bmp,['Im_JustinTimberlake.png', 'Im_ElijahWood.png', 'Im_HughJackman.png', 'Im_OrlandoBloom.png', 'Im_MattDamon.png', 'Im_DanielCraig.png', 'Im_RobertDowneyJr.png', 'Im_GeorgeClooney.png', 'Im_PatrickDempsey.png', 'Im_RyanGosling.png'],diff,1,0.42526859999998123,33,92.85714285714286,
ELHE1110,11,inv,60,pos60_id6_im19.bmp_pos60_id17_im8.bmp,['Im_JustinTimberlake.png', 'Im_ElijahWood.png', 'Im_HughJackman.png', 'Im_OrlandoBloom.png', 'Im_MattDamon.png', 'Im_DanielCraig.png', 'Im_RobertDowneyJr.png', 'Im_GeorgeClooney.png', 'Im_PatrickDempsey.png', 'Im_RyanGosling.png'],diff,1,0.4250028999999813,34,92.85714285714286,
ELHE1110,11,inv,30,pos30_id4_im7.bmp_pos30_id4_im15.bmp,['Im_JustinTimberlake.png', 'Im_ElijahWood.png', 'Im_HughJackman.png', 'Im_OrlandoBloom.png', 'Im_MattDamon.png', 'Im_DanielCraig.png', 'Im_RobertDowneyJr.png', 'Im_GeorgeClooney.png', 'Im_PatrickDempsey.png', 'Im_RyanGosling.png'],diff,0,1.43329360000007,34,92.85714285714286,
ELHE1110,11,inv,0,pos0_id20_im30.bmp_pos0_id20_im3.bmp,['Im_JustinTimberlake.png', 'Im_ElijahWood.png', 'Im_HughJackman.png', 'Im_OrlandoBloom.png', 'Im_MattDamon.png', 'Im_DanielCraig.png', 'Im_RobertDowneyJr.png', 'Im_GeorgeClooney.png', 'Im_PatrickDempsey.png', 'Im_RyanGosling.png'],diff,0,1.033506700000089,34,92.85714285714286,
ELHE1110,11,inv,90,pos90_id17_im9.bmp_pos90_id17_im8.bmp,['Im_JustinTimberlake.png', 'Im_ElijahWood.png', 'Im_HughJackman.png', 'Im_OrlandoBloom.png', 'Im_MattDamon.png', 'Im_DanielCraig.png', 'Im_RobertDowneyJr.png', 'Im_GeorgeClooney.png', 'Im_PatrickDempsey.png', 'Im_RyanGosling.png'],diff,0,0.41673599999990074,34,92.85714285714286,
ELHE1110,11,inv,fs,posfs_id6_im18.bmp_posfs_id6_im19.bmp,['Im_JustinTimberlake.png', 'Im_ElijahWood.png', 'Im_HughJackman.png', 'Im_OrlandoBloom.png', 'Im_MattDamon.png', 'Im_DanielCraig.png', 'Im_RobertDowneyJr.png', 'Im_GeorgeClooney.png', 'Im_PatrickDempsey.png', 'Im_RyanGosling.png'],same,1,0.4249646999999186,35,92.85714285714286,
ELHE1110,11,inv,150,pos150_id4_im15.bmp_pos150_id10_im1.bmp,['Im_JustinTimberlake.png', 'Im_ElijahWood.png', 'Im_HughJackman.png', 'Im_OrlandoBloom.png', 'Im_MattDamon.png', 'Im_DanielCraig.png', 'Im_RobertDowneyJr.png', 'Im_GeorgeClooney.png', 'Im_PatrickDempsey.png', 'Im_RyanGosling.png'],diff,1,0.41676159999997253,36,92.85714285714286,
ELHE1110,11,inv,30,pos30_id7_im15.bmp_pos30_id7_im26.bmp,['Im_JustinTimberlake.png', 'Im_ElijahWood.png', 'Im_HughJackman.png', 'Im_OrlandoBloom.png', 'Im_MattDamon.png', 'Im_DanielCraig.png', 'Im_RobertDowneyJr.png', 'Im_GeorgeClooney.png', 'Im_PatrickDempsey.png', 'Im_RyanGosling.png'],same,1,0.858598099999881,37,92.85714285714286,
ELHE1110,11,inv,120,pos120_id14_im16.bmp_pos120_id16_im2.bmp,['Im_JustinTimberlake.png', 'Im_ElijahWood.png', 'Im_HughJackman.png', 'Im_OrlandoBloom.png', 'Im_MattDamon.png', 'Im_DanielCraig.png', 'Im_RobertDowneyJr.png', 'Im_GeorgeClooney.png', 'Im_PatrickDempsey.png', 'Im_RyanGosling.png'],same,0,0.8914483999999447,37,92.85714285714286,
ELHE1110,11,inv,60,pos60_id17_im14.bmp_pos60_id17_im8.bmp,['Im_JustinTimberlake.png', 'Im_ElijahWood.png', 'Im_HughJackman.png', 'Im_OrlandoBloom.png', 'Im_MattDamon.png', 'Im_DanielCraig.png', 'Im_RobertDowneyJr.png', 'Im_GeorgeClooney.png', 'Im_PatrickDempsey.png', 'Im_RyanGosling.png'],same,1,0.908625400000119,38,92.85714285714286,
ELHE1110,12,neg,120,neg120_id6_im12.bmp_neg120_id6_im18.bmp,['Im_JustinTimberlake.png', 'Im_ElijahWood.png', 'Im_HughJackman.png', 'Im_OrlandoBloom.png', 'Im_MattDamon.png', 'Im_DanielCraig.png', 'Im_RobertDowneyJr.png', 'Im_GeorgeClooney.png', 'Im_PatrickDempsey.png', 'Im_RyanGosling.png'],same,1,0.4838312000001679,1,90.47619047619048,
ELHE1110,12,neg,0,neg0_id20_im12.bmp_neg0_id16_im19.bmp,['Im_JustinTimberlake.png', 'Im_ElijahWood.png', 'Im_HughJackman.png', 'Im_OrlandoBloom.png', 'Im_MattDamon.png', 'Im_DanielCraig.png', 'Im_RobertDowneyJr.png', 'Im_GeorgeClooney.png', 'Im_PatrickDempsey.png', 'Im_RyanGosling.png'],diff,1,0.43318969999995716,2,90.47619047619048,
ELHE1110,12,neg,150,neg150_id20_im30.bmp_neg150_id6_im18.bmp,['Im_JustinTimberlake.png', 'Im_ElijahWood.png', 'Im_HughJackman.png', 'Im_OrlandoBloom.png', 'Im_MattDamon.png', 'Im_DanielCraig.png', 'Im_RobertDowneyJr.png', 'Im_GeorgeClooney.png', 'Im_PatrickDempsey.png', 'Im_RyanGosling.png'],diff,1,0.5419870999999148,3,90.47619047619048,
ELHE1110,12,neg,120,neg120_id8_im13.bmp_neg120_id16_im3.bmp,['Im_JustinTimberlake.png', 'Im_ElijahWood.png', 'Im_HughJackman.png', 'Im_OrlandoBloom.png', 'Im_MattDamon.png', 'Im_DanielCraig.png', 'Im_RobertDowneyJr.png', 'Im_GeorgeClooney.png', 'Im_PatrickDempsey.png', 'Im_RyanGosling.png'],diff,1,0.4167760000000271,4,90.47619047619048,
ELHE1110,12,neg,90,neg90_id4_im20.bmp_neg90_id17_im9.bmp,['Im_JustinTimberlake.png', 'Im_ElijahWood.png', 'Im_HughJackman.png', 'Im_OrlandoBloom.png', 'Im_MattDamon.png', 'Im_DanielCraig.png', 'Im_RobertDowneyJr.png', 'Im_GeorgeClooney.png', 'Im_PatrickDempsey.png', 'Im_RyanGosling.png'],diff,1,0.41675740000005135,5,90.47619047619048,
ELHE1110,12,neg,fs,negfs_id8_im13.bmp_negfs_id6_im18.bmp,['Im_JustinTimberlake.png', 'Im_ElijahWood.png', 'Im_HughJackman.png', 'Im_OrlandoBloom.png', 'Im_MattDamon.png', 'Im_DanielCraig.png', 'Im_RobertDowneyJr.png', 'Im_GeorgeClooney.png', 'Im_PatrickDempsey.png', 'Im_RyanGosling.png'],diff,1,0.4171830999998747,6,90.47619047619048,
ELHE1110,12,neg,60,neg60_id4_im15.bmp_neg60_id4_im20.bmp,['Im_JustinTimberlake.png', 'Im_ElijahWood.png', 'Im_HughJackman.png', 'Im_OrlandoBloom.png', 'Im_MattDamon.png', 'Im_DanielCraig.png', 'Im_RobertDowneyJr.png', 'Im_GeorgeClooney.png', 'Im_PatrickDempsey.png', 'Im_RyanGosling.png'],same,1,0.4252165000000332,7,90.47619047619048,
ELHE1110,12,neg,150,neg150_id18_im19.bmp_neg150_id18_im11.bmp,['Im_JustinTimberlake.png', 'Im_ElijahWood.png', 'Im_HughJackman.png', 'Im_OrlandoBloom.png', 'Im_MattDamon.png', 'Im_DanielCraig.png', 'Im_RobertDowneyJr.png', 'Im_GeorgeClooney.png', 'Im_PatrickDempsey.png', 'Im_RyanGosling.png'],same,1,0.44187829999987116,8,90.47619047619048,
ELHE1110,12,neg,fs,negfs_id6_im18.bmp_negfs_id20_im30.bmp,['Im_JustinTimberlake.png', 'Im_ElijahWood.png', 'Im_HughJackman.png', 'Im_OrlandoBloom.png', 'Im_MattDamon.png', 'Im_DanielCraig.png', 'Im_RobertDowneyJr.png', 'Im_GeorgeClooney.png', 'Im_PatrickDempsey.png', 'Im_RyanGosling.png'],diff,1,0.4084012000000712,9,90.47619047619048,
ELHE1110,12,neg,0,neg0_id4_im7.bmp_neg0_id17_im14.bmp,['Im_JustinTimberlake.png', 'Im_ElijahWood.png', 'Im_HughJackman.png', 'Im_OrlandoBloom.png', 'Im_MattDamon.png', 'Im_DanielCraig.png', 'Im_RobertDowneyJr.png', 'Im_GeorgeClooney.png', 'Im_PatrickDempsey.png', 'Im_RyanGosling.png'],diff,1,0.6500960999999279,10,90.47619047619048,
ELHE1110,12,neg,60,neg60_id18_im11.bmp_neg60_id18_im18.bmp,['Im_JustinTimberlake.png', 'Im_ElijahWood.png', 'Im_HughJackman.png', 'Im_OrlandoBloom.png', 'Im_MattDamon.png', 'Im_DanielCraig.png', 'Im_RobertDowneyJr.png', 'Im_GeorgeClooney.png', 'Im_PatrickDempsey.png', 'Im_RyanGosling.png'],same,1,0.4083728999999039,11,90.47619047619048,
ELHE1110,12,neg,30,neg30_id20_im12.bmp_neg30_id16_im19.bmp,['Im_JustinTimberlake.png', 'Im_ElijahWood.png', 'Im_HughJackman.png', 'Im_OrlandoBloom.png', 'Im_MattDamon.png', 'Im_DanielCraig.png', 'Im_RobertDowneyJr.png', 'Im_GeorgeClooney.png', 'Im_PatrickDempsey.png', 'Im_RyanGosling.png'],diff,1,0.4083987999999863,12,90.47619047619048,
ELHE1110,12,neg,90,neg90_id18_im18.bmp_neg90_id18_im11.bmp,['Im_JustinTimberlake.png', 'Im_ElijahWood.png', 'Im_HughJackman.png', 'Im_OrlandoBloom.png', 'Im_MattDamon.png', 'Im_DanielCraig.png', 'Im_RobertDowneyJr.png', 'Im_GeorgeClooney.png', 'Im_PatrickDempsey.png', 'Im_RyanGosling.png'],same,1,0.6168013999999857,13,90.47619047619048,
ELHE1110,12,neg,30,neg30_id20_im3.bmp_neg30_id7_im26.bmp,['Im_JustinTimberlake.png', 'Im_ElijahWood.png', 'Im_HughJackman.png', 'Im_OrlandoBloom.png', 'Im_MattDamon.png', 'Im_DanielCraig.png', 'Im_RobertDowneyJr.png', 'Im_GeorgeClooney.png', 'Im_PatrickDempsey.png', 'Im_RyanGosling.png'],diff,1,0.4252294999998867,14,90.47619047619048,
ELHE1110,13,inv,0,pos0_id4_im7.bmp_pos0_id4_im20.bmp,['Im_JustinTimberlake.png', 'Im_ElijahWood.png', 'Im_HughJackman.png', 'Im_OrlandoBloom.png', 'Im_MattDamon.png', 'Im_DanielCraig.png', 'Im_RobertDowneyJr.png', 'Im_GeorgeClooney.png', 'Im_PatrickDempsey.png', 'Im_RyanGosling.png'],same,1,0.458471199999849,15,90.47619047619048,
ELHE1110,13,inv,60,pos60_id18_im19.bmp_pos60_id14_im16.bmp,['Im_JustinTimberlake.png', 'Im_ElijahWood.png', 'Im_HughJackman.png', 'Im_OrlandoBloom.png', 'Im_MattDamon.png', 'Im_DanielCraig.png', 'Im_RobertDowneyJr.png', 'Im_GeorgeClooney.png', 'Im_PatrickDempsey.png', 'Im_RyanGosling.png'],diff,1,0.9084882999998172,16,90.47619047619048,
ELHE1110,13,inv,150,pos150_id17_im8.bmp_pos150_id17_im14.bmp,['Im_JustinTimberlake.png', 'Im_ElijahWood.png', 'Im_HughJackman.png', 'Im_OrlandoBloom.png', 'Im_MattDamon.png', 'Im_DanielCraig.png', 'Im_RobertDowneyJr.png', 'Im_GeorgeClooney.png', 'Im_PatrickDempsey.png', 'Im_RyanGosling.png'],diff,0,0.42531699999995,16,90.47619047619048,
ELHE1110,13,inv,0,pos0_id7_im26.bmp_pos0_id7_im15.bmp,['Im_JustinTimberlake.png', 'Im_ElijahWood.png', 'Im_HughJackman.png', 'Im_OrlandoBloom.png', 'Im_MattDamon.png', 'Im_DanielCraig.png', 'Im_RobertDowneyJr.png', 'Im_GeorgeClooney.png', 'Im_PatrickDempsey.png', 'Im_RyanGosling.png'],diff,0,0.5914635999999973,16,90.47619047619048,
ELHE1110,13,inv,30,pos30_id4_im20.bmp_pos30_id4_im15.bmp,['Im_JustinTimberlake.png', 'Im_ElijahWood.png', 'Im_HughJackman.png', 'Im_OrlandoBloom.png', 'Im_MattDamon.png', 'Im_DanielCraig.png', 'Im_RobertDowneyJr.png', 'Im_GeorgeClooney.png', 'Im_PatrickDempsey.png', 'Im_RyanGosling.png'],same,1,0.874825699999974,17,90.47619047619048,
ELHE1110,13,inv,30,pos30_id8_im13.bmp_pos30_id6_im18.bmp,['Im_JustinTimberlake.png', 'Im_ElijahWood.png', 'Im_HughJackman.png', 'Im_OrlandoBloom.png', 'Im_MattDamon.png', 'Im_DanielCraig.png', 'Im_RobertDowneyJr.png', 'Im_GeorgeClooney.png', 'Im_PatrickDempsey.png', 'Im_RyanGosling.png'],diff,1,0.44175749999999425,18,90.47619047619048,
ELHE1110,13,inv,90,pos90_id10_im17.bmp_pos90_id10_im18.bmp,['Im_JustinTimberlake.png', 'Im_ElijahWood.png', 'Im_HughJackman.png', 'Im_OrlandoBloom.png', 'Im_MattDamon.png', 'Im_DanielCraig.png', 'Im_RobertDowneyJr.png', 'Im_GeorgeClooney.png', 'Im_PatrickDempsey.png', 'Im_RyanGosling.png'],diff,0,0.5583489000000554,18,90.47619047619048,
ELHE1110,13,inv,60,pos60_id16_im2.bmp_pos60_id16_im19.bmp,['Im_JustinTimberlake.png', 'Im_ElijahWood.png', 'Im_HughJackman.png', 'Im_OrlandoBloom.png', 'Im_MattDamon.png', 'Im_DanielCraig.png', 'Im_RobertDowneyJr.png', 'Im_GeorgeClooney.png', 'Im_PatrickDempsey.png', 'Im_RyanGosling.png'],diff,0,1.7916838999999527,18,90.47619047619048,
ELHE1110,13,inv,150,pos150_id10_im1.bmp_pos150_id7_im14.bmp,['Im_JustinTimberlake.png', 'Im_ElijahWood.png', 'Im_HughJackman.png', 'Im_OrlandoBloom.png', 'Im_MattDamon.png', 'Im_DanielCraig.png', 'Im_RobertDowneyJr.png', 'Im_GeorgeClooney.png', 'Im_PatrickDempsey.png', 'Im_RyanGosling.png'],diff,1,0.5586223000000246,19,90.47619047619048,
ELHE1110,13,inv,fs,posfs_id17_im8.bmp_posfs_id10_im17.bmp,['Im_JustinTimberlake.png', 'Im_ElijahWood.png', 'Im_HughJackman.png', 'Im_OrlandoBloom.png', 'Im_MattDamon.png', 'Im_DanielCraig.png', 'Im_RobertDowneyJr.png', 'Im_GeorgeClooney.png', 'Im_PatrickDempsey.png', 'Im_RyanGosling.png'],diff,1,0.41656609999995453,20,90.47619047619048,
ELHE1110,13,inv,fs,posfs_id17_im8.bmp_posfs_id6_im19.bmp,['Im_JustinTimberlake.png', 'Im_ElijahWood.png', 'Im_HughJackman.png', 'Im_OrlandoBloom.png', 'Im_MattDamon.png', 'Im_DanielCraig.png', 'Im_RobertDowneyJr.png', 'Im_GeorgeClooney.png', 'Im_PatrickDempsey.png', 'Im_RyanGosling.png'],diff,1,0.41674590000002354,21,90.47619047619048,
ELHE1110,13,inv,120,pos120_id6_im18.bmp_pos120_id20_im30.bmp,['Im_JustinTimberlake.png', 'Im_ElijahWood.png', 'Im_HughJackman.png', 'Im_OrlandoBloom.png', 'Im_MattDamon.png', 'Im_DanielCraig.png', 'Im_RobertDowneyJr.png', 'Im_GeorgeClooney.png', 'Im_PatrickDempsey.png', 'Im_RyanGosling.png'],diff,1,0.41691179999997985,22,90.47619047619048,
ELHE1110,13,inv,120,pos120_id7_im15.bmp_pos120_id16_im2.bmp,['Im_JustinTimberlake.png', 'Im_ElijahWood.png', 'Im_HughJackman.png', 'Im_OrlandoBloom.png', 'Im_MattDamon.png', 'Im_DanielCraig.png', 'Im_RobertDowneyJr.png', 'Im_GeorgeClooney.png', 'Im_PatrickDempsey.png', 'Im_RyanGosling.png'],diff,1,0.6002519999999549,23,90.47619047619048,
ELHE1110,13,inv,90,pos90_id17_im8.bmp_pos90_id17_im14.bmp,['Im_JustinTimberlake.png', 'Im_ElijahWood.png', 'Im_HughJackman.png', 'Im_OrlandoBloom.png', 'Im_MattDamon.png', 'Im_DanielCraig.png', 'Im_RobertDowneyJr.png', 'Im_GeorgeClooney.png', 'Im_PatrickDempsey.png', 'Im_RyanGosling.png'],same,1,0.5170517000001382,24,90.47619047619048,
ELHE1110,14,neg,fs,negfs_id14_im18.bmp_negfs_id17_im14.bmp,['Im_JustinTimberlake.png', 'Im_ElijahWood.png', 'Im_HughJackman.png', 'Im_OrlandoBloom.png', 'Im_MattDamon.png', 'Im_DanielCraig.png', 'Im_RobertDowneyJr.png', 'Im_GeorgeClooney.png', 'Im_PatrickDempsey.png', 'Im_RyanGosling.png'],diff,1,0.433480500000087,25,90.47619047619048,
ELHE1110,14,neg,60,neg60_id20_im12.bmp_neg60_id20_im30.bmp,['Im_JustinTimberlake.png', 'Im_ElijahWood.png', 'Im_HughJackman.png', 'Im_OrlandoBloom.png', 'Im_MattDamon.png', 'Im_DanielCraig.png', 'Im_RobertDowneyJr.png', 'Im_GeorgeClooney.png', 'Im_PatrickDempsey.png', 'Im_RyanGosling.png'],same,1,0.41669630000001234,26,90.47619047619048,
ELHE1110,14,neg,150,neg150_id4_im20.bmp_neg150_id4_im7.bmp,['Im_JustinTimberlake.png', 'Im_ElijahWood.png', 'Im_HughJackman.png', 'Im_OrlandoBloom.png', 'Im_MattDamon.png', 'Im_DanielCraig.png', 'Im_RobertDowneyJr.png', 'Im_GeorgeClooney.png', 'Im_PatrickDempsey.png', 'Im_RyanGosling.png'],same,1,0.4250626000000466,27,90.47619047619048,
ELHE1110,14,neg,120,neg120_id16_im2.bmp_neg120_id16_im3.bmp,['Im_JustinTimberlake.png', 'Im_ElijahWood.png', 'Im_HughJackman.png', 'Im_OrlandoBloom.png', 'Im_MattDamon.png', 'Im_DanielCraig.png', 'Im_RobertDowneyJr.png', 'Im_GeorgeClooney.png', 'Im_PatrickDempsey.png', 'Im_RyanGosling.png'],same,1,0.4167491999999129,28,90.47619047619048,
ELHE1110,14,neg,120,neg120_id10_im18.bmp_neg120_id10_im17.bmp,['Im_JustinTimberlake.png', 'Im_ElijahWood.png', 'Im_HughJackman.png', 'Im_OrlandoBloom.png', 'Im_MattDamon.png', 'Im_DanielCraig.png', 'Im_RobertDowneyJr.png', 'Im_GeorgeClooney.png', 'Im_PatrickDempsey.png', 'Im_RyanGosling.png'],same,1,0.4167408999999225,29,90.47619047619048,
ELHE1110,14,neg,30,neg30_id17_im8.bmp_neg30_id17_im9.bmp,['Im_JustinTimberlake.png', 'Im_ElijahWood.png', 'Im_HughJackman.png', 'Im_OrlandoBloom.png', 'Im_MattDamon.png', 'Im_DanielCraig.png', 'Im_RobertDowneyJr.png', 'Im_GeorgeClooney.png', 'Im_PatrickDempsey.png', 'Im_RyanGosling.png'],same,1,0.4167325000000801,30,90.47619047619048,
ELHE1110,14,neg,fs,negfs_id6_im19.bmp_negfs_id17_im8.bmp,['Im_JustinTimberlake.png', 'Im_ElijahWood.png', 'Im_HughJackman.png', 'Im_OrlandoBloom.png', 'Im_MattDamon.png', 'Im_DanielCraig.png', 'Im_RobertDowneyJr.png', 'Im_GeorgeClooney.png', 'Im_PatrickDempsey.png', 'Im_RyanGosling.png'],diff,1,0.41661770000018805,31,90.47619047619048,
ELHE1110,14,neg,0,neg0_id4_im7.bmp_neg0_id8_im21.bmp,['Im_JustinTimberlake.png', 'Im_ElijahWood.png', 'Im_HughJackman.png', 'Im_OrlandoBloom.png', 'Im_MattDamon.png', 'Im_DanielCraig.png', 'Im_RobertDowneyJr.png', 'Im_GeorgeClooney.png', 'Im_PatrickDempsey.png', 'Im_RyanGosling.png'],diff,1,0.4165715999999975,32,90.47619047619048,
ELHE1110,14,neg,90,neg90_id20_im3.bmp_neg90_id7_im26.bmp,['Im_JustinTimberlake.png', 'Im_ElijahWood.png', 'Im_HughJackman.png', 'Im_OrlandoBloom.png', 'Im_MattDamon.png', 'Im_DanielCraig.png', 'Im_RobertDowneyJr.png', 'Im_GeorgeClooney.png', 'Im_PatrickDempsey.png', 'Im_RyanGosling.png'],diff,1,0.41675039999995533,33,90.47619047619048,
ELHE1110,14,neg,30,neg30_id7_im14.bmp_neg30_id7_im15.bmp,['Im_JustinTimberlake.png', 'Im_ElijahWood.png', 'Im_HughJackman.png', 'Im_OrlandoBloom.png', 'Im_MattDamon.png', 'Im_DanielCraig.png', 'Im_RobertDowneyJr.png', 'Im_GeorgeClooney.png', 'Im_PatrickDempsey.png', 'Im_RyanGosling.png'],same,1,1.4085460999999668,34,90.47619047619048,
ELHE1110,14,neg,150,neg150_id16_im19.bmp_neg150_id16_im2.bmp,['Im_JustinTimberlake.png', 'Im_ElijahWood.png', 'Im_HughJackman.png', 'Im_OrlandoBloom.png', 'Im_MattDamon.png', 'Im_DanielCraig.png', 'Im_RobertDowneyJr.png', 'Im_GeorgeClooney.png', 'Im_PatrickDempsey.png', 'Im_RyanGosling.png'],same,1,0.41686649999996916,35,90.47619047619048,
ELHE1110,14,neg,60,neg60_id14_im16.bmp_neg60_id16_im2.bmp,['Im_JustinTimberlake.png', 'Im_ElijahWood.png', 'Im_HughJackman.png', 'Im_OrlandoBloom.png', 'Im_MattDamon.png', 'Im_DanielCraig.png', 'Im_RobertDowneyJr.png', 'Im_GeorgeClooney.png', 'Im_PatrickDempsey.png', 'Im_RyanGosling.png'],diff,1,0.4250773000001118,36,90.47619047619048,
ELHE1110,14,neg,0,neg0_id16_im3.bmp_neg0_id16_im19.bmp,['Im_JustinTimberlake.png', 'Im_ElijahWood.png', 'Im_HughJackman.png', 'Im_OrlandoBloom.png', 'Im_MattDamon.png', 'Im_DanielCraig.png', 'Im_RobertDowneyJr.png', 'Im_GeorgeClooney.png', 'Im_PatrickDempsey.png', 'Im_RyanGosling.png'],same,1,0.41649489999986145,37,90.47619047619048,
ELHE1110,14,neg,90,neg90_id10_im17.bmp_neg90_id17_im8.bmp,['Im_JustinTimberlake.png', 'Im_ElijahWood.png', 'Im_HughJackman.png', 'Im_OrlandoBloom.png', 'Im_MattDamon.png', 'Im_DanielCraig.png', 'Im_RobertDowneyJr.png', 'Im_GeorgeClooney.png', 'Im_PatrickDempsey.png', 'Im_RyanGosling.png'],diff,1,1.6169789999999011,38,90.47619047619048,
ELHE1110,15,pos,60,pos60_id4_im20.bmp_pos60_id4_im7.bmp,['Im_JustinTimberlake.png', 'Im_ElijahWood.png', 'Im_HughJackman.png', 'Im_OrlandoBloom.png', 'Im_MattDamon.png', 'Im_DanielCraig.png', 'Im_RobertDowneyJr.png', 'Im_GeorgeClooney.png', 'Im_PatrickDempsey.png', 'Im_RyanGosling.png'],same,1,0.41675310000005084,1,90.47619047619048,
ELHE1110,15,pos,0,pos0_id17_im14.bmp_pos0_id4_im7.bmp,['Im_JustinTimberlake.png', 'Im_ElijahWood.png', 'Im_HughJackman.png', 'Im_OrlandoBloom.png', 'Im_MattDamon.png', 'Im_DanielCraig.png', 'Im_RobertDowneyJr.png', 'Im_GeorgeClooney.png', 'Im_PatrickDempsey.png', 'Im_RyanGosling.png'],diff,1,0.4167462999998861,2,90.47619047619048,
ELHE1110,15,pos,30,pos30_id17_im14.bmp_pos30_id17_im8.bmp,['Im_JustinTimberlake.png', 'Im_ElijahWood.png', 'Im_HughJackman.png', 'Im_OrlandoBloom.png', 'Im_MattDamon.png', 'Im_DanielCraig.png', 'Im_RobertDowneyJr.png', 'Im_GeorgeClooney.png', 'Im_PatrickDempsey.png', 'Im_RyanGosling.png'],same,1,0.416766300000063,3,90.47619047619048,
ELHE1110,15,pos,150,pos150_id16_im2.bmp_pos150_id16_im3.bmp,['Im_JustinTimberlake.png', 'Im_ElijahWood.png', 'Im_HughJackman.png', 'Im_OrlandoBloom.png', 'Im_MattDamon.png', 'Im_DanielCraig.png', 'Im_RobertDowneyJr.png', 'Im_GeorgeClooney.png', 'Im_PatrickDempsey.png', 'Im_RyanGosling.png'],same,1,0.41672010000002047,4,90.47619047619048,
