Sujet,Trial,Condition,Filter,Imname,Actor0,Actor1,Actor2,Actor3,Actor4,Actor5,Actor6,Actor7,Actor8,Actor9,Answer,Accu,RT,Score,Scoreperc, 
ELHE1110,_,posfs_BradPitt_im8.bmp,BradPitt,BenStiller,BenStiller,BenAffleck,OrlandoBloom,RobertPattinson,,,,,posfs_BradPitt_im8.bmp,4.8798131000003195,
ELHE1110,_,posfs_OrlandoBloom_im3.bmp,OrlandoBloom,RobertPattinson,RobertPattinson,RyanReynolds,RyanGosling,RobertDowneyJr,,,,,posfs_OrlandoBloom_im3.bmp,14.73826249999911,
ELHE1110,_,posfs_JustinTimberlake_im4.bmp,JustinTimberlake,BenStiller,BenStiller,RobertDowneyJr,OrlandoBloom,PatrickDempsey,,,,,posfs_JustinTimberlake_im4.bmp,1.6504756000013003,
ELHE1110,_,posfs_RobertDowneyJr_im4.bmp,RobertDowneyJr,RyanGosling,RyanGosling,BradPitt,HughJackman,ElijahWood,,,,,posfs_RobertDowneyJr_im4.bmp,1.701947100000325,
ELHE1110,_,posfs_DanielCraig_im20.bmp,DanielCraig,BenStiller,BenStiller,BradPitt,LeonardoDiCaprio,OrlandoBloom,,,,,posfs_DanielCraig_im20.bmp,15.967997800000376,
ELHE1110,_,posfs_BenAffleck_im4.bmp,BenAffleck,BenStiller,BenStiller,KeanuReeves,ElijahWood,PatrickDempsey,,,,,posfs_BenAffleck_im4.bmp,3.4634212000000844,
ELHE1110,_,posfs_HughJackman_im21.bmp,HughJackman,OrlandoBloom,OrlandoBloom,GeorgeClooney,RyanGosling,BradPitt,,,,,posfs_HughJackman_im21.bmp,2.874573099999907,
ELHE1110,_,posfs_RobertPattinson_im8.bmp,RobertPattinson,DanielRadcliffe,DanielRadcliffe,OrlandoBloom,MattDamon,RyanGosling,,,,,posfs_RobertPattinson_im8.bmp,2.348266399998465,
ELHE1110,_,posfs_RyanReynolds_im22.bmp,RyanReynolds,JustinTimberlake,JustinTimberlake,BradPitt,KeanuReeves,LeonardoDiCaprio,,,,,posfs_RyanReynolds_im22.bmp,4.459130799999912,
ELHE1110,_,posfs_RobertPattinson_im4.bmp,RobertPattinson,DanielRadcliffe,DanielRadcliffe,RyanGosling,MattDamon,ElijahWood,,,,,posfs_RobertPattinson_im4.bmp,1.96663880000051,
ELHE1110,_,posfs_RobertDowneyJr_im18.bmp,RobertDowneyJr,MattDamon,MattDamon,BradPitt,GeorgeClooney,JustinTimberlake,,,,,posfs_RobertDowneyJr_im18.bmp,1.525028399999428,
ELHE1110,_,posfs_ElijahWood_im18.bmp,ElijahWood,PatrickDempsey,PatrickDempsey,JustinTimberlake,RobertPattinson,RobertDowneyJr,,,,,posfs_ElijahWood_im18.bmp,13.12507480000022,
ELHE1110,_,posfs_OrlandoBloom_im19.bmp,OrlandoBloom,ElijahWood,ElijahWood,DanielCraig,PatrickDempsey,LeonardoDiCaprio,,,,,posfs_OrlandoBloom_im19.bmp,9.053189099999145,
ELHE1110,_,posfs_LeonardoDiCaprio_im10.bmp,LeonardoDiCaprio,BenStiller,BenStiller,RyanGosling,PatrickDempsey,RobertPattinson,,,,,posfs_LeonardoDiCaprio_im10.bmp,4.600662299999385,
ELHE1110,_,posfs_BradPitt_im6.bmp,BradPitt,RyanGosling,RyanGosling,RobertDowneyJr,OrlandoBloom,HughJackman,,,,,posfs_BradPitt_im6.bmp,1.5821347999990394,
ELHE1110,_,posfs_MattDamon_im9.bmp,MattDamon,BradPitt,BradPitt,HughJackman,DanielCraig,LeonardoDiCaprio,,,,,posfs_MattDamon_im9.bmp,5.580072000000655,
ELHE1110,_,posfs_JustinTimberlake_im18.bmp,JustinTimberlake,ElijahWood,ElijahWood,RyanGosling,DanielRadcliffe,LeonardoDiCaprio,,,,,posfs_JustinTimberlake_im18.bmp,1.5314393999997264,
ELHE1110,_,posfs_MattDamon_im24.bmp,MattDamon,RobertDowneyJr,RobertDowneyJr,BradPitt,HughJackman,RobertPattinson,,,,,posfs_MattDamon_im24.bmp,3.4204449000008026,
ELHE1110,_,posfs_RobertDowneyJr_im19.bmp,RobertDowneyJr,DanielRadcliffe,DanielRadcliffe,DanielCraig,PatrickDempsey,BenStiller,,,,,posfs_RobertDowneyJr_im19.bmp,1.3534849000006943,
ELHE1110,_,posfs_DanielCraig_im7.bmp,DanielCraig,BenAffleck,BenAffleck,KeanuReeves,PatrickDempsey,DanielRadcliffe,,,,,posfs_DanielCraig_im7.bmp,1.5449172999997245,
ELHE1110,_,posfs_LeonardoDiCaprio_im24.bmp,LeonardoDiCaprio,DanielCraig,DanielCraig,BradPitt,PatrickDempsey,RyanGosling,,,,,1,1.743788499999937,
ELHE1110,_,posfs_HughJackman_im18.bmp,HughJackman,LeonardoDiCaprio,LeonardoDiCaprio,BradPitt,RyanGosling,DanielRadcliffe,,,,,posfs_HughJackman_im18.bmp,1.2483315999998013,
ELHE1110,_,posfs_JustinTimberlake_im1.bmp,JustinTimberlake,BenAffleck,BenAffleck,ElijahWood,PatrickDempsey,HughJackman,,,,,posfs_JustinTimberlake_im1.bmp,0.956488800000443,
ELHE1110,_,posfs_OrlandoBloom_im30.bmp,OrlandoBloom,JustinTimberlake,JustinTimberlake,BradPitt,KeanuReeves,RyanGosling,,,,,posfs_OrlandoBloom_im30.bmp,2.41166659999908,
ELHE1110,_,posfs_BenStiller_im16.bmp,BenStiller,KeanuReeves,KeanuReeves,MattDamon,JustinTimberlake,BenAffleck,,,,,posfs_BenStiller_im16.bmp,4.24820069999987,
ELHE1110,_,posfs_MattDamon_im16.bmp,MattDamon,LeonardoDiCaprio,LeonardoDiCaprio,RyanGosling,KeanuReeves,BenStiller,,,,,posfs_MattDamon_im16.bmp,1.8526782999997522,
ELHE1110,_,posfs_BenStiller_im7.bmp,BenStiller,LeonardoDiCaprio,LeonardoDiCaprio,RyanGosling,DanielCraig,PatrickDempsey,,,,,posfs_BenStiller_im7.bmp,2.1208067999996274,
ELHE1110,_,posfs_DanielRadcliffe_im1.bmp,DanielRadcliffe,BradPitt,BradPitt,LeonardoDiCaprio,BenStiller,RobertPattinson,,,,,posfs_DanielRadcliffe_im1.bmp,4.129424900000231,
ELHE1110,_,posfs_RyanReynolds_im17.bmp,RyanReynolds,PatrickDempsey,PatrickDempsey,ElijahWood,BenStiller,BradPitt,,,,,posfs_RyanReynolds_im17.bmp,2.434496699999727,
ELHE1110,_,posfs_ElijahWood_im19.bmp,ElijahWood,PatrickDempsey,PatrickDempsey,RyanReynolds,BenAffleck,OrlandoBloom,,,,,posfs_ElijahWood_im19.bmp,3.286741500000062,
ELHE1110,_,posfs_DanielCraig_im8.bmp,DanielCraig,RobertPattinson,RobertPattinson,BenAffleck,BenStiller,LeonardoDiCaprio,,,,,posfs_DanielCraig_im8.bmp,1.2317145999986678,
ELHE1110,_,posfs_DanielCraig_im15.bmp,DanielCraig,BenAffleck,BenAffleck,MattDamon,BenStiller,HughJackman,,,,,posfs_DanielCraig_im15.bmp,1.8138572000007116,
ELHE1110,_,posfs_GeorgeClooney_im15.bmp,GeorgeClooney,JustinTimberlake,JustinTimberlake,DanielRadcliffe,DanielCraig,BenAffleck,,,,,posfs_GeorgeClooney_im15.bmp,9.26657829999931,
ELHE1110,_,posfs_ElijahWood_im23.bmp,ElijahWood,BenAffleck,BenAffleck,RyanGosling,BenStiller,RobertDowneyJr,,,,,posfs_ElijahWood_im23.bmp,2.5093436000006477,
ELHE1110,_,posfs_BradPitt_im17.bmp,BradPitt,PatrickDempsey,PatrickDempsey,LeonardoDiCaprio,JustinTimberlake,HughJackman,,,,,posfs_BradPitt_im17.bmp,3.142383999998856,
ELHE1110,_,posfs_MattDamon_im18.bmp,MattDamon,DanielCraig,DanielCraig,PatrickDempsey,DanielRadcliffe,ElijahWood,,,,,posfs_MattDamon_im18.bmp,2.26224750000074,
ELHE1110,_,posfs_PatrickDempsey_im14.bmp,PatrickDempsey,KeanuReeves,KeanuReeves,RobertDowneyJr,HughJackman,RyanReynolds,,,,,posfs_PatrickDempsey_im14.bmp,5.8333631999994395,
ELHE1110,_,posfs_KeanuReeves_im2.bmp,KeanuReeves,HughJackman,HughJackman,GeorgeClooney,RobertPattinson,BenStiller,,,,,posfs_KeanuReeves_im2.bmp,4.34146039999905,
ELHE1110,_,posfs_RyanReynolds_im3.bmp,RyanReynolds,BenAffleck,BenAffleck,DanielCraig,MattDamon,OrlandoBloom,,,,,posfs_RyanReynolds_im3.bmp,2.0864579000008234,
ELHE1110,_,posfs_BradPitt_im14.bmp,BradPitt,MattDamon,MattDamon,DanielCraig,OrlandoBloom,LeonardoDiCaprio,,,,,posfs_BradPitt_im14.bmp,1.0086360000004788,
ELHE1110,_,posfs_KeanuReeves_im1.bmp,KeanuReeves,LeonardoDiCaprio,LeonardoDiCaprio,BradPitt,JustinTimberlake,RobertPattinson,,,,,posfs_KeanuReeves_im1.bmp,1.6550405000016326,
ELHE1110,_,posfs_LeonardoDiCaprio_im29.bmp,LeonardoDiCaprio,RobertDowneyJr,RobertDowneyJr,PatrickDempsey,OrlandoBloom,DanielCraig,,,,,posfs_LeonardoDiCaprio_im29.bmp,4.130298500000208,
ELHE1110,_,posfs_PatrickDempsey_im8.bmp,PatrickDempsey,BenStiller,BenStiller,MattDamon,BradPitt,RyanGosling,,,,,posfs_PatrickDempsey_im8.bmp,21.442245099999127,
ELHE1110,_,posfs_BenStiller_im3.bmp,BenStiller,ElijahWood,ElijahWood,JustinTimberlake,BradPitt,RobertDowneyJr,,,,,posfs_BenStiller_im3.bmp,3.4540305999998964,
ELHE1110,_,posfs_ElijahWood_im12.bmp,ElijahWood,DanielRadcliffe,DanielRadcliffe,RobertDowneyJr,GeorgeClooney,BenStiller,,,,,posfs_ElijahWood_im12.bmp,1.122517699999662,
ELHE1110,_,posfs_BenAffleck_im21.bmp,BenAffleck,RyanGosling,RyanGosling,GeorgeClooney,ElijahWood,BradPitt,,,,,posfs_BenAffleck_im21.bmp,3.1231895000000804,
ELHE1110,_,posfs_DanielRadcliffe_im20.bmp,DanielRadcliffe,GeorgeClooney,GeorgeClooney,ElijahWood,RobertPattinson,KeanuReeves,,,,,posfs_DanielRadcliffe_im20.bmp,1.7484586000009585,
ELHE1110,_,posfs_RobertDowneyJr_im11.bmp,RobertDowneyJr,HughJackman,HughJackman,RyanGosling,JustinTimberlake,BenStiller,,,,,posfs_RobertDowneyJr_im11.bmp,0.9166440999997576,
ELHE1110,_,posfs_DanielRadcliffe_im10.bmp,DanielRadcliffe,LeonardoDiCaprio,LeonardoDiCaprio,KeanuReeves,ElijahWood,MattDamon,,,,,posfs_DanielRadcliffe_im10.bmp,1.509558300000208,
ELHE1110,_,posfs_GeorgeClooney_im14.bmp,GeorgeClooney,KeanuReeves,KeanuReeves,LeonardoDiCaprio,PatrickDempsey,RobertPattinson,,,,,posfs_GeorgeClooney_im14.bmp,4.223249900000155,
ELHE1110,_,posfs_GeorgeClooney_im23.bmp,GeorgeClooney,BenAffleck,BenAffleck,MattDamon,OrlandoBloom,KeanuReeves,,,,,posfs_GeorgeClooney_im23.bmp,5.5495811000000685,
ELHE1110,_,posfs_DanielRadcliffe_im8.bmp,DanielRadcliffe,MattDamon,MattDamon,PatrickDempsey,RyanReynolds,RobertDowneyJr,,,,,posfs_DanielRadcliffe_im8.bmp,3.653426599999875,
ELHE1110,_,posfs_HughJackman_im13.bmp,HughJackman,BradPitt,BradPitt,PatrickDempsey,MattDamon,RobertPattinson,,,,,posfs_HughJackman_im13.bmp,1.1510737000007794,
ELHE1110,_,posfs_RyanGosling_im30.bmp,RyanGosling,RyanReynolds,RyanReynolds,DanielCraig,PatrickDempsey,RobertPattinson,,,,,posfs_RyanGosling_im30.bmp,6.303494599998885,
ELHE1110,_,posfs_BenStiller_im2.bmp,BenStiller,RobertDowneyJr,RobertDowneyJr,GeorgeClooney,DanielCraig,RyanReynolds,,,,,posfs_BenStiller_im2.bmp,3.2082822999982454,
ELHE1110,_,posfs_JustinTimberlake_im17.bmp,JustinTimberlake,MattDamon,MattDamon,LeonardoDiCaprio,ElijahWood,GeorgeClooney,,,,,posfs_JustinTimberlake_im17.bmp,0.7822600999988936,
ELHE1110,_,posfs_RyanGosling_im25.bmp,RyanGosling,DanielCraig,DanielCraig,KeanuReeves,BradPitt,MattDamon,,,,,posfs_RyanGosling_im25.bmp,4.6285886999994545,
ELHE1110,_,posfs_OrlandoBloom_im2.bmp,OrlandoBloom,BenAffleck,BenAffleck,RyanGosling,MattDamon,RobertDowneyJr,,,,,posfs_OrlandoBloom_im2.bmp,3.073029500001212,
ELHE1110,_,posfs_KeanuReeves_im10.bmp,KeanuReeves,MattDamon,MattDamon,OrlandoBloom,PatrickDempsey,LeonardoDiCaprio,,,,,posfs_KeanuReeves_im10.bmp,2.172425500000827,
ELHE1110,_,posfs_RobertPattinson_im30.bmp,RobertPattinson,DanielRadcliffe,DanielRadcliffe,DanielCraig,BenAffleck,JustinTimberlake,,,,,posfs_RobertPattinson_im30.bmp,1.380033600000388,
ELHE1110,_,posfs_HughJackman_im20.bmp,HughJackman,JustinTimberlake,JustinTimberlake,RyanReynolds,DanielCraig,OrlandoBloom,,,,,posfs_HughJackman_im20.bmp,1.5477033000006486,
ELHE1110,_,posfs_BenAffleck_im8.bmp,BenAffleck,OrlandoBloom,OrlandoBloom,RobertPattinson,RyanReynolds,MattDamon,,,,,posfs_BenAffleck_im8.bmp,1.3395304000005126,
ELHE1110,_,posfs_RyanGosling_im12.bmp,RyanGosling,PatrickDempsey,PatrickDempsey,RyanReynolds,BradPitt,DanielCraig,,,,,posfs_RyanGosling_im12.bmp,9.748515000001134,
ELHE1110,_,posfs_KeanuReeves_im8.bmp,KeanuReeves,BenAffleck,BenAffleck,LeonardoDiCaprio,RyanGosling,GeorgeClooney,,,,,posfs_KeanuReeves_im8.bmp,0.7883796000005532,
ELHE1110,_,posfs_RobertPattinson_im27.bmp,RobertPattinson,RyanReynolds,RyanReynolds,OrlandoBloom,MattDamon,KeanuReeves,,,,,posfs_RobertPattinson_im27.bmp,1.810356399999364,
ELHE1110,_,posfs_LeonardoDiCaprio_im15.bmp,LeonardoDiCaprio,RobertPattinson,RobertPattinson,DanielCraig,BradPitt,DanielRadcliffe,,,,,posfs_LeonardoDiCaprio_im15.bmp,1.5350123999996867,
ELHE1110,_,posfs_RyanReynolds_im16.bmp,RyanReynolds,OrlandoBloom,OrlandoBloom,RobertPattinson,RyanGosling,LeonardoDiCaprio,,,,,posfs_RyanReynolds_im16.bmp,2.823123399999531,
ELHE1110,_,posfs_BenAffleck_im24.bmp,BenAffleck,OrlandoBloom,OrlandoBloom,DanielRadcliffe,MattDamon,GeorgeClooney,,,,,posfs_BenAffleck_im24.bmp,1.5801093000009132,
ELHE1110,_,posfs_PatrickDempsey_im16.bmp,PatrickDempsey,BradPitt,BradPitt,DanielCraig,DanielRadcliffe,LeonardoDiCaprio,,,,,posfs_PatrickDempsey_im16.bmp,2.083269200000359,
ELHE1110,_,posfs_RyanGosling_im3.bmp,RyanGosling,RobertPattinson,RobertPattinson,PatrickDempsey,DanielCraig,JustinTimberlake,,,,,posfs_RyanGosling_im3.bmp,4.100801300000967,
ELHE1110,_,posfs_PatrickDempsey_im9.bmp,PatrickDempsey,HughJackman,HughJackman,RobertDowneyJr,KeanuReeves,BenAffleck,,,,,posfs_PatrickDempsey_im9.bmp,1.967266199999358,
ELHE1110,_,posfs_GeorgeClooney_im26.bmp,GeorgeClooney,LeonardoDiCaprio,LeonardoDiCaprio,RobertPattinson,BenAffleck,ElijahWood,,,,,posfs_GeorgeClooney_im26.bmp,4.462986700000329,
ELHE1110,train,pos,fs,posfs_id6_im18.bmp_posfs_id6_im19.bmp,['Im_RobertDowneyJr.png', 'Im_RyanGosling.png', 'Im_PatrickDempsey.png', 'Im_DanielCraig.png', 'Im_GeorgeClooney.png', 'Im_HughJackman.png', 'Im_MattDamon.png', 'Im_JustinTimberlake.png', 'Im_ElijahWood.png', 'Im_OrlandoBloom.png'],same,1,2.3916509000009682,1,0,
ELHE1110,train,pos,fs,posfs_id14_im18.bmp_posfs_id14_im16.bmp,['Im_RobertDowneyJr.png', 'Im_RyanGosling.png', 'Im_PatrickDempsey.png', 'Im_DanielCraig.png', 'Im_GeorgeClooney.png', 'Im_HughJackman.png', 'Im_MattDamon.png', 'Im_JustinTimberlake.png', 'Im_ElijahWood.png', 'Im_OrlandoBloom.png'],diff,0,0.8501601000007213,1,0,
ELHE1110,train,pos,fs,posfs_id8_im21.bmp_posfs_id8_im20.bmp,['Im_RobertDowneyJr.png', 'Im_RyanGosling.png', 'Im_PatrickDempsey.png', 'Im_DanielCraig.png', 'Im_GeorgeClooney.png', 'Im_HughJackman.png', 'Im_MattDamon.png', 'Im_JustinTimberlake.png', 'Im_ElijahWood.png', 'Im_OrlandoBloom.png'],none,0,4.399979100000564,1,0,
ELHE1110,train,pos,fs,posfs_id6_im12.bmp_posfs_id6_im18.bmp,['Im_RobertDowneyJr.png', 'Im_RyanGosling.png', 'Im_PatrickDempsey.png', 'Im_DanielCraig.png', 'Im_GeorgeClooney.png', 'Im_HughJackman.png', 'Im_MattDamon.png', 'Im_JustinTimberlake.png', 'Im_ElijahWood.png', 'Im_OrlandoBloom.png'],same,1,0.8923707000012655,2,0,
ELHE1110,train,pos,fs,posfs_id14_im16.bmp_posfs_id16_im2.bmp,['Im_RobertDowneyJr.png', 'Im_RyanGosling.png', 'Im_PatrickDempsey.png', 'Im_DanielCraig.png', 'Im_GeorgeClooney.png', 'Im_HughJackman.png', 'Im_MattDamon.png', 'Im_JustinTimberlake.png', 'Im_ElijahWood.png', 'Im_OrlandoBloom.png'],diff,1,0.974975799999811,3,0,
ELHE1110,train,pos,fs,posfs_id16_im3.bmp_posfs_id18_im19.bmp,['Im_RobertDowneyJr.png', 'Im_RyanGosling.png', 'Im_PatrickDempsey.png', 'Im_DanielCraig.png', 'Im_GeorgeClooney.png', 'Im_HughJackman.png', 'Im_MattDamon.png', 'Im_JustinTimberlake.png', 'Im_ElijahWood.png', 'Im_OrlandoBloom.png'],diff,1,1.2167440000011993,4,0,
ELHE1110,train,pos,fs,posfs_id14_im16.bmp_posfs_id14_im24.bmp,['Im_RobertDowneyJr.png', 'Im_RyanGosling.png', 'Im_PatrickDempsey.png', 'Im_DanielCraig.png', 'Im_GeorgeClooney.png', 'Im_HughJackman.png', 'Im_MattDamon.png', 'Im_JustinTimberlake.png', 'Im_ElijahWood.png', 'Im_OrlandoBloom.png'],same,1,0.7583871999995608,5,0,
ELHE1110,train,pos,fs,posfs_id6_im12.bmp_posfs_id6_im19.bmp,['Im_RobertDowneyJr.png', 'Im_RyanGosling.png', 'Im_PatrickDempsey.png', 'Im_DanielCraig.png', 'Im_GeorgeClooney.png', 'Im_HughJackman.png', 'Im_MattDamon.png', 'Im_JustinTimberlake.png', 'Im_ElijahWood.png', 'Im_OrlandoBloom.png'],same,1,0.7001696999996057,6,0,
ELHE1110,train,pos,fs,posfs_id6_im18.bmp_posfs_id8_im13.bmp,['Im_RobertDowneyJr.png', 'Im_RyanGosling.png', 'Im_PatrickDempsey.png', 'Im_DanielCraig.png', 'Im_GeorgeClooney.png', 'Im_HughJackman.png', 'Im_MattDamon.png', 'Im_JustinTimberlake.png', 'Im_ElijahWood.png', 'Im_OrlandoBloom.png'],diff,1,0.7251943999999639,7,0,
ELHE1110,train,pos,fs,posfs_id10_im1.bmp_posfs_id4_im15.bmp,['Im_RobertDowneyJr.png', 'Im_RyanGosling.png', 'Im_PatrickDempsey.png', 'Im_DanielCraig.png', 'Im_GeorgeClooney.png', 'Im_HughJackman.png', 'Im_MattDamon.png', 'Im_JustinTimberlake.png', 'Im_ElijahWood.png', 'Im_OrlandoBloom.png'],diff,1,0.6836275999994541,8,0,
ELHE1110,train,pos,fs,posfs_id6_im12.bmp_posfs_id18_im11.bmp,['Im_RobertDowneyJr.png', 'Im_RyanGosling.png', 'Im_PatrickDempsey.png', 'Im_DanielCraig.png', 'Im_GeorgeClooney.png', 'Im_HughJackman.png', 'Im_MattDamon.png', 'Im_JustinTimberlake.png', 'Im_ElijahWood.png', 'Im_OrlandoBloom.png'],diff,1,0.6499296000001777,9,0,
ELHE1110,train,pos,fs,posfs_id10_im17.bmp_posfs_id17_im8.bmp,['Im_RobertDowneyJr.png', 'Im_RyanGosling.png', 'Im_PatrickDempsey.png', 'Im_DanielCraig.png', 'Im_GeorgeClooney.png', 'Im_HughJackman.png', 'Im_MattDamon.png', 'Im_JustinTimberlake.png', 'Im_ElijahWood.png', 'Im_OrlandoBloom.png'],diff,1,0.6415763000004517,10,0,
ELHE1110,train,pos,fs,posfs_id6_im19.bmp_posfs_id17_im9.bmp,['Im_RobertDowneyJr.png', 'Im_RyanGosling.png', 'Im_PatrickDempsey.png', 'Im_DanielCraig.png', 'Im_GeorgeClooney.png', 'Im_HughJackman.png', 'Im_MattDamon.png', 'Im_JustinTimberlake.png', 'Im_ElijahWood.png', 'Im_OrlandoBloom.png'],diff,1,0.5842109000004712,11,0,
ELHE1110,train,pos,fs,posfs_id14_im24.bmp_posfs_id10_im18.bmp,['Im_RobertDowneyJr.png', 'Im_RyanGosling.png', 'Im_PatrickDempsey.png', 'Im_DanielCraig.png', 'Im_GeorgeClooney.png', 'Im_HughJackman.png', 'Im_MattDamon.png', 'Im_JustinTimberlake.png', 'Im_ElijahWood.png', 'Im_OrlandoBloom.png'],diff,1,0.5164428999996744,12,0,
ELHE1110,train,pos,fs,posfs_id14_im24.bmp_posfs_id4_im15.bmp,['Im_RobertDowneyJr.png', 'Im_RyanGosling.png', 'Im_PatrickDempsey.png', 'Im_DanielCraig.png', 'Im_GeorgeClooney.png', 'Im_HughJackman.png', 'Im_MattDamon.png', 'Im_JustinTimberlake.png', 'Im_ElijahWood.png', 'Im_OrlandoBloom.png'],diff,1,0.6332076999988203,13,0,
ELHE1110,train,pos,fs,posfs_id8_im13.bmp_posfs_id8_im21.bmp,['Im_RobertDowneyJr.png', 'Im_RyanGosling.png', 'Im_PatrickDempsey.png', 'Im_DanielCraig.png', 'Im_GeorgeClooney.png', 'Im_HughJackman.png', 'Im_MattDamon.png', 'Im_JustinTimberlake.png', 'Im_ElijahWood.png', 'Im_OrlandoBloom.png'],same,1,0.7418285999992804,14,0,
ELHE1110,train,pos,fs,posfs_id17_im9.bmp_posfs_id17_im8.bmp,['Im_RobertDowneyJr.png', 'Im_RyanGosling.png', 'Im_PatrickDempsey.png', 'Im_DanielCraig.png', 'Im_GeorgeClooney.png', 'Im_HughJackman.png', 'Im_MattDamon.png', 'Im_JustinTimberlake.png', 'Im_ElijahWood.png', 'Im_OrlandoBloom.png'],same,1,0.8501737999995385,15,0,
ELHE1110,train,pos,fs,posfs_id17_im14.bmp_posfs_id17_im8.bmp,['Im_RobertDowneyJr.png', 'Im_RyanGosling.png', 'Im_PatrickDempsey.png', 'Im_DanielCraig.png', 'Im_GeorgeClooney.png', 'Im_HughJackman.png', 'Im_MattDamon.png', 'Im_JustinTimberlake.png', 'Im_ElijahWood.png', 'Im_OrlandoBloom.png'],same,1,0.9417061000003741,16,0,
ELHE1110,train,pos,fs,posfs_id16_im2.bmp_posfs_id7_im15.bmp,['Im_RobertDowneyJr.png', 'Im_RyanGosling.png', 'Im_PatrickDempsey.png', 'Im_DanielCraig.png', 'Im_GeorgeClooney.png', 'Im_HughJackman.png', 'Im_MattDamon.png', 'Im_JustinTimberlake.png', 'Im_ElijahWood.png', 'Im_OrlandoBloom.png'],diff,1,0.908505100000184,17,0,
ELHE1110,train,pos,fs,posfs_id7_im14.bmp_posfs_id7_im26.bmp,['Im_RobertDowneyJr.png', 'Im_RyanGosling.png', 'Im_PatrickDempsey.png', 'Im_DanielCraig.png', 'Im_GeorgeClooney.png', 'Im_HughJackman.png', 'Im_MattDamon.png', 'Im_JustinTimberlake.png', 'Im_ElijahWood.png', 'Im_OrlandoBloom.png'],diff,0,0.7914213000003656,17,0,
ELHE1110,train,pos,fs,posfs_id14_im24.bmp_posfs_id14_im16.bmp,['Im_RobertDowneyJr.png', 'Im_RyanGosling.png', 'Im_PatrickDempsey.png', 'Im_DanielCraig.png', 'Im_GeorgeClooney.png', 'Im_HughJackman.png', 'Im_MattDamon.png', 'Im_JustinTimberlake.png', 'Im_ElijahWood.png', 'Im_OrlandoBloom.png'],same,1,1.3419647999999142,1,0,
ELHE1110,train,pos,fs,posfs_id4_im20.bmp_posfs_id4_im7.bmp,['Im_RobertDowneyJr.png', 'Im_RyanGosling.png', 'Im_PatrickDempsey.png', 'Im_DanielCraig.png', 'Im_GeorgeClooney.png', 'Im_HughJackman.png', 'Im_MattDamon.png', 'Im_JustinTimberlake.png', 'Im_ElijahWood.png', 'Im_OrlandoBloom.png'],same,1,1.5334051999998337,2,0,
ELHE1110,train,pos,fs,posfs_id4_im15.bmp_posfs_id14_im24.bmp,['Im_RobertDowneyJr.png', 'Im_RyanGosling.png', 'Im_PatrickDempsey.png', 'Im_DanielCraig.png', 'Im_GeorgeClooney.png', 'Im_HughJackman.png', 'Im_MattDamon.png', 'Im_JustinTimberlake.png', 'Im_ElijahWood.png', 'Im_OrlandoBloom.png'],diff,1,0.6667380999988382,3,0,
ELHE1110,train,inv,fs,posfs_id14_im24.bmp_posfs_id14_im18.bmp,['Im_RobertDowneyJr.png', 'Im_RyanGosling.png', 'Im_PatrickDempsey.png', 'Im_DanielCraig.png', 'Im_GeorgeClooney.png', 'Im_HughJackman.png', 'Im_MattDamon.png', 'Im_JustinTimberlake.png', 'Im_ElijahWood.png', 'Im_OrlandoBloom.png'],diff,0,1.6669029999993654,3,0,
ELHE1110,train,neg,fs,negfs_id4_im20.bmp_negfs_id10_im17.bmp,['Im_RobertDowneyJr.png', 'Im_RyanGosling.png', 'Im_PatrickDempsey.png', 'Im_DanielCraig.png', 'Im_GeorgeClooney.png', 'Im_HughJackman.png', 'Im_MattDamon.png', 'Im_JustinTimberlake.png', 'Im_ElijahWood.png', 'Im_OrlandoBloom.png'],diff,1,1.3085756999989826,4,0,
ELHE1110,train,pos,fs,posfs_id20_im3.bmp_posfs_id7_im15.bmp,['Im_RobertDowneyJr.png', 'Im_RyanGosling.png', 'Im_PatrickDempsey.png', 'Im_DanielCraig.png', 'Im_GeorgeClooney.png', 'Im_HughJackman.png', 'Im_MattDamon.png', 'Im_JustinTimberlake.png', 'Im_ElijahWood.png', 'Im_OrlandoBloom.png'],diff,1,0.6834755999989284,5,0,
ELHE1110,train,pos,fs,posfs_id16_im19.bmp_posfs_id7_im26.bmp,['Im_RobertDowneyJr.png', 'Im_RyanGosling.png', 'Im_PatrickDempsey.png', 'Im_DanielCraig.png', 'Im_GeorgeClooney.png', 'Im_HughJackman.png', 'Im_MattDamon.png', 'Im_JustinTimberlake.png', 'Im_ElijahWood.png', 'Im_OrlandoBloom.png'],diff,1,0.4169585999989067,6,0,
ELHE1110,train,inv,fs,posfs_id20_im3.bmp_posfs_id20_im12.bmp,['Im_RobertDowneyJr.png', 'Im_RyanGosling.png', 'Im_PatrickDempsey.png', 'Im_DanielCraig.png', 'Im_GeorgeClooney.png', 'Im_HughJackman.png', 'Im_MattDamon.png', 'Im_JustinTimberlake.png', 'Im_ElijahWood.png', 'Im_OrlandoBloom.png'],same,1,0.9834504999998899,7,0,
ELHE1110,train,neg,fs,negfs_id16_im19.bmp_negfs_id16_im3.bmp,['Im_RobertDowneyJr.png', 'Im_RyanGosling.png', 'Im_PatrickDempsey.png', 'Im_DanielCraig.png', 'Im_GeorgeClooney.png', 'Im_HughJackman.png', 'Im_MattDamon.png', 'Im_JustinTimberlake.png', 'Im_ElijahWood.png', 'Im_OrlandoBloom.png'],same,1,0.7421441000005871,8,0,
ELHE1110,train,pos,fs,posfs_id8_im21.bmp_posfs_id8_im20.bmp,['Im_RobertDowneyJr.png', 'Im_RyanGosling.png', 'Im_PatrickDempsey.png', 'Im_DanielCraig.png', 'Im_GeorgeClooney.png', 'Im_HughJackman.png', 'Im_MattDamon.png', 'Im_JustinTimberlake.png', 'Im_ElijahWood.png', 'Im_OrlandoBloom.png'],same,1,0.43347699999867473,9,0,
ELHE1110,train,pos,fs,posfs_id4_im7.bmp_posfs_id4_im15.bmp,['Im_RobertDowneyJr.png', 'Im_RyanGosling.png', 'Im_PatrickDempsey.png', 'Im_DanielCraig.png', 'Im_GeorgeClooney.png', 'Im_HughJackman.png', 'Im_MattDamon.png', 'Im_JustinTimberlake.png', 'Im_ElijahWood.png', 'Im_OrlandoBloom.png'],same,1,0.4167511999985436,10,0,
ELHE1110,train,inv,fs,posfs_id6_im12.bmp_posfs_id7_im14.bmp,['Im_RobertDowneyJr.png', 'Im_RyanGosling.png', 'Im_PatrickDempsey.png', 'Im_DanielCraig.png', 'Im_GeorgeClooney.png', 'Im_HughJackman.png', 'Im_MattDamon.png', 'Im_JustinTimberlake.png', 'Im_ElijahWood.png', 'Im_OrlandoBloom.png'],diff,1,0.8502681999998458,11,0,
ELHE1110,train,pos,fs,posfs_id18_im18.bmp_posfs_id8_im20.bmp,['Im_RobertDowneyJr.png', 'Im_RyanGosling.png', 'Im_PatrickDempsey.png', 'Im_DanielCraig.png', 'Im_GeorgeClooney.png', 'Im_HughJackman.png', 'Im_MattDamon.png', 'Im_JustinTimberlake.png', 'Im_ElijahWood.png', 'Im_OrlandoBloom.png'],diff,1,0.4500074000006862,12,0,
ELHE1110,train,inv,fs,posfs_id14_im16.bmp_posfs_id14_im18.bmp,['Im_RobertDowneyJr.png', 'Im_RyanGosling.png', 'Im_PatrickDempsey.png', 'Im_DanielCraig.png', 'Im_GeorgeClooney.png', 'Im_HughJackman.png', 'Im_MattDamon.png', 'Im_JustinTimberlake.png', 'Im_ElijahWood.png', 'Im_OrlandoBloom.png'],same,1,2.8999167999991187,13,0,
ELHE1110,train,inv,fs,posfs_id17_im9.bmp_posfs_id17_im14.bmp,['Im_RobertDowneyJr.png', 'Im_RyanGosling.png', 'Im_PatrickDempsey.png', 'Im_DanielCraig.png', 'Im_GeorgeClooney.png', 'Im_HughJackman.png', 'Im_MattDamon.png', 'Im_JustinTimberlake.png', 'Im_ElijahWood.png', 'Im_OrlandoBloom.png'],same,1,2.175204200000735,14,0,
ELHE1110,train,neg,fs,negfs_id6_im12.bmp_negfs_id18_im11.bmp,['Im_RobertDowneyJr.png', 'Im_RyanGosling.png', 'Im_PatrickDempsey.png', 'Im_DanielCraig.png', 'Im_GeorgeClooney.png', 'Im_HughJackman.png', 'Im_MattDamon.png', 'Im_JustinTimberlake.png', 'Im_ElijahWood.png', 'Im_OrlandoBloom.png'],diff,1,0.45849009999983537,15,0,
ELHE1110,train,inv,fs,posfs_id10_im18.bmp_posfs_id10_im17.bmp,['Im_RobertDowneyJr.png', 'Im_RyanGosling.png', 'Im_PatrickDempsey.png', 'Im_DanielCraig.png', 'Im_GeorgeClooney.png', 'Im_HughJackman.png', 'Im_MattDamon.png', 'Im_JustinTimberlake.png', 'Im_ElijahWood.png', 'Im_OrlandoBloom.png'],diff,0,2.391770700000052,15,0,
ELHE1110,train,inv,fs,posfs_id20_im3.bmp_posfs_id7_im26.bmp,['Im_RobertDowneyJr.png', 'Im_RyanGosling.png', 'Im_PatrickDempsey.png', 'Im_DanielCraig.png', 'Im_GeorgeClooney.png', 'Im_HughJackman.png', 'Im_MattDamon.png', 'Im_JustinTimberlake.png', 'Im_ElijahWood.png', 'Im_OrlandoBloom.png'],diff,1,0.5500836000010167,16,0,
ELHE1110,train,inv,fs,posfs_id16_im3.bmp_posfs_id8_im13.bmp,['Im_RobertDowneyJr.png', 'Im_RyanGosling.png', 'Im_PatrickDempsey.png', 'Im_DanielCraig.png', 'Im_GeorgeClooney.png', 'Im_HughJackman.png', 'Im_MattDamon.png', 'Im_JustinTimberlake.png', 'Im_ElijahWood.png', 'Im_OrlandoBloom.png'],same,0,0.5084213000009186,16,0,
ELHE1110,train,inv,fs,posfs_id20_im3.bmp_posfs_id20_im30.bmp,['Im_RobertDowneyJr.png', 'Im_RyanGosling.png', 'Im_PatrickDempsey.png', 'Im_DanielCraig.png', 'Im_GeorgeClooney.png', 'Im_HughJackman.png', 'Im_MattDamon.png', 'Im_JustinTimberlake.png', 'Im_ElijahWood.png', 'Im_OrlandoBloom.png'],same,1,2.216670499999964,17,0,
ELHE1110,train,inv,fs,posfs_id14_im18.bmp_posfs_id14_im16.bmp,['Im_RobertDowneyJr.png', 'Im_RyanGosling.png', 'Im_PatrickDempsey.png', 'Im_DanielCraig.png', 'Im_GeorgeClooney.png', 'Im_HughJackman.png', 'Im_MattDamon.png', 'Im_JustinTimberlake.png', 'Im_ElijahWood.png', 'Im_OrlandoBloom.png'],same,1,2.949928699999873,1,0,
ELHE1110,train,inv,fs,posfs_id20_im30.bmp_posfs_id10_im18.bmp,['Im_RobertDowneyJr.png', 'Im_RyanGosling.png', 'Im_PatrickDempsey.png', 'Im_DanielCraig.png', 'Im_GeorgeClooney.png', 'Im_HughJackman.png', 'Im_MattDamon.png', 'Im_JustinTimberlake.png', 'Im_ElijahWood.png', 'Im_OrlandoBloom.png'],diff,1,0.4917554999992717,2,0,
ELHE1110,train,inv,90,pos90_id4_im20.bmp_pos90_id4_im15.bmp,['Im_RobertDowneyJr.png', 'Im_RyanGosling.png', 'Im_PatrickDempsey.png', 'Im_DanielCraig.png', 'Im_GeorgeClooney.png', 'Im_HughJackman.png', 'Im_MattDamon.png', 'Im_JustinTimberlake.png', 'Im_ElijahWood.png', 'Im_OrlandoBloom.png'],same,1,1.2586116999991646,3,0,
ELHE1110,train,inv,120,pos120_id8_im21.bmp_pos120_id8_im13.bmp,['Im_RobertDowneyJr.png', 'Im_RyanGosling.png', 'Im_PatrickDempsey.png', 'Im_DanielCraig.png', 'Im_GeorgeClooney.png', 'Im_HughJackman.png', 'Im_MattDamon.png', 'Im_JustinTimberlake.png', 'Im_ElijahWood.png', 'Im_OrlandoBloom.png'],diff,0,1.7170012000005954,3,0,
ELHE1110,train,inv,60,pos60_id7_im14.bmp_pos60_id7_im26.bmp,['Im_RobertDowneyJr.png', 'Im_RyanGosling.png', 'Im_PatrickDempsey.png', 'Im_DanielCraig.png', 'Im_GeorgeClooney.png', 'Im_HughJackman.png', 'Im_MattDamon.png', 'Im_JustinTimberlake.png', 'Im_ElijahWood.png', 'Im_OrlandoBloom.png'],same,1,0.9417098000012629,4,0,
ELHE1110,train,inv,60,pos60_id8_im13.bmp_pos60_id6_im18.bmp,['Im_RobertDowneyJr.png', 'Im_RyanGosling.png', 'Im_PatrickDempsey.png', 'Im_DanielCraig.png', 'Im_GeorgeClooney.png', 'Im_HughJackman.png', 'Im_MattDamon.png', 'Im_JustinTimberlake.png', 'Im_ElijahWood.png', 'Im_OrlandoBloom.png'],same,0,1.2585019999987708,4,0,
ELHE1110,train,inv,0,pos0_id7_im15.bmp_pos0_id16_im2.bmp,['Im_RobertDowneyJr.png', 'Im_RyanGosling.png', 'Im_PatrickDempsey.png', 'Im_DanielCraig.png', 'Im_GeorgeClooney.png', 'Im_HughJackman.png', 'Im_MattDamon.png', 'Im_JustinTimberlake.png', 'Im_ElijahWood.png', 'Im_OrlandoBloom.png'],diff,1,1.0333757999997033,5,0,
ELHE1110,train,inv,0,pos0_id18_im19.bmp_pos0_id18_im18.bmp,['Im_RobertDowneyJr.png', 'Im_RyanGosling.png', 'Im_PatrickDempsey.png', 'Im_DanielCraig.png', 'Im_GeorgeClooney.png', 'Im_HughJackman.png', 'Im_MattDamon.png', 'Im_JustinTimberlake.png', 'Im_ElijahWood.png', 'Im_OrlandoBloom.png'],same,1,1.4332499999982247,6,0,
ELHE1110,train,inv,90,pos90_id4_im15.bmp_pos90_id10_im1.bmp,['Im_RobertDowneyJr.png', 'Im_RyanGosling.png', 'Im_PatrickDempsey.png', 'Im_DanielCraig.png', 'Im_GeorgeClooney.png', 'Im_HughJackman.png', 'Im_MattDamon.png', 'Im_JustinTimberlake.png', 'Im_ElijahWood.png', 'Im_OrlandoBloom.png'],diff,1,0.7919325000002573,7,0,
ELHE1110,train,inv,30,pos30_id17_im8.bmp_pos30_id10_im17.bmp,['Im_RobertDowneyJr.png', 'Im_RyanGosling.png', 'Im_PatrickDempsey.png', 'Im_DanielCraig.png', 'Im_GeorgeClooney.png', 'Im_HughJackman.png', 'Im_MattDamon.png', 'Im_JustinTimberlake.png', 'Im_ElijahWood.png', 'Im_OrlandoBloom.png'],diff,1,0.5418085999990581,8,0,
ELHE1110,train,inv,30,pos30_id20_im30.bmp_pos30_id6_im18.bmp,['Im_RobertDowneyJr.png', 'Im_RyanGosling.png', 'Im_PatrickDempsey.png', 'Im_DanielCraig.png', 'Im_GeorgeClooney.png', 'Im_HughJackman.png', 'Im_MattDamon.png', 'Im_JustinTimberlake.png', 'Im_ElijahWood.png', 'Im_OrlandoBloom.png'],diff,1,0.42527699999845936,9,0,
ELHE1110,train,inv,120,pos120_id7_im14.bmp_pos120_id6_im12.bmp,['Im_RobertDowneyJr.png', 'Im_RyanGosling.png', 'Im_PatrickDempsey.png', 'Im_DanielCraig.png', 'Im_GeorgeClooney.png', 'Im_HughJackman.png', 'Im_MattDamon.png', 'Im_JustinTimberlake.png', 'Im_ElijahWood.png', 'Im_OrlandoBloom.png'],diff,1,0.4167152000009082,10,0,
ELHE1110,train,inv,150,pos150_id17_im9.bmp_pos150_id17_im8.bmp,['Im_RobertDowneyJr.png', 'Im_RyanGosling.png', 'Im_PatrickDempsey.png', 'Im_DanielCraig.png', 'Im_GeorgeClooney.png', 'Im_HughJackman.png', 'Im_MattDamon.png', 'Im_JustinTimberlake.png', 'Im_ElijahWood.png', 'Im_OrlandoBloom.png'],diff,0,0.48346940000010363,10,0,
ELHE1110,train,inv,150,pos150_id7_im15.bmp_pos150_id20_im3.bmp,['Im_RobertDowneyJr.png', 'Im_RyanGosling.png', 'Im_PatrickDempsey.png', 'Im_DanielCraig.png', 'Im_GeorgeClooney.png', 'Im_HughJackman.png', 'Im_MattDamon.png', 'Im_JustinTimberlake.png', 'Im_ElijahWood.png', 'Im_OrlandoBloom.png'],diff,1,0.9250044999989768,11,0,
ELHE1110,train,neg,60,neg60_id10_im1.bmp_neg60_id4_im15.bmp,['Im_RobertDowneyJr.png', 'Im_RyanGosling.png', 'Im_PatrickDempsey.png', 'Im_DanielCraig.png', 'Im_GeorgeClooney.png', 'Im_HughJackman.png', 'Im_MattDamon.png', 'Im_JustinTimberlake.png', 'Im_ElijahWood.png', 'Im_OrlandoBloom.png'],same,0,0.4751785000007658,11,0,
ELHE1110,train,neg,30,neg30_id16_im3.bmp_neg30_id16_im2.bmp,['Im_RobertDowneyJr.png', 'Im_RyanGosling.png', 'Im_PatrickDempsey.png', 'Im_DanielCraig.png', 'Im_GeorgeClooney.png', 'Im_HughJackman.png', 'Im_MattDamon.png', 'Im_JustinTimberlake.png', 'Im_ElijahWood.png', 'Im_OrlandoBloom.png'],same,1,2.1333924999999,12,0,
ELHE1110,train,neg,90,neg90_id17_im9.bmp_neg90_id17_im8.bmp,['Im_RobertDowneyJr.png', 'Im_RyanGosling.png', 'Im_PatrickDempsey.png', 'Im_DanielCraig.png', 'Im_GeorgeClooney.png', 'Im_HughJackman.png', 'Im_MattDamon.png', 'Im_JustinTimberlake.png', 'Im_ElijahWood.png', 'Im_OrlandoBloom.png'],diff,0,3.8002073999996355,12,0,
ELHE1110,train,neg,30,neg30_id14_im18.bmp_neg30_id14_im24.bmp,['Im_RobertDowneyJr.png', 'Im_RyanGosling.png', 'Im_PatrickDempsey.png', 'Im_DanielCraig.png', 'Im_GeorgeClooney.png', 'Im_HughJackman.png', 'Im_MattDamon.png', 'Im_JustinTimberlake.png', 'Im_ElijahWood.png', 'Im_OrlandoBloom.png'],same,1,1.0665315000005648,13,0,
ELHE1110,train,neg,60,neg60_id4_im7.bmp_neg60_id4_im15.bmp,['Im_RobertDowneyJr.png', 'Im_RyanGosling.png', 'Im_PatrickDempsey.png', 'Im_DanielCraig.png', 'Im_GeorgeClooney.png', 'Im_HughJackman.png', 'Im_MattDamon.png', 'Im_JustinTimberlake.png', 'Im_ElijahWood.png', 'Im_OrlandoBloom.png'],same,1,0.40844490000017686,14,0,
ELHE1110,train,neg,0,neg0_id6_im19.bmp_neg0_id17_im8.bmp,['Im_RobertDowneyJr.png', 'Im_RyanGosling.png', 'Im_PatrickDempsey.png', 'Im_DanielCraig.png', 'Im_GeorgeClooney.png', 'Im_HughJackman.png', 'Im_MattDamon.png', 'Im_JustinTimberlake.png', 'Im_ElijahWood.png', 'Im_OrlandoBloom.png'],diff,1,0.6335576999990735,15,0,
ELHE1110,train,neg,150,neg150_id16_im3.bmp_neg150_id8_im13.bmp,['Im_RobertDowneyJr.png', 'Im_RyanGosling.png', 'Im_PatrickDempsey.png', 'Im_DanielCraig.png', 'Im_GeorgeClooney.png', 'Im_HughJackman.png', 'Im_MattDamon.png', 'Im_JustinTimberlake.png', 'Im_ElijahWood.png', 'Im_OrlandoBloom.png'],diff,1,0.8167205999998259,16,0,
ELHE1110,train,neg,fs,negfs_id18_im18.bmp_negfs_id8_im20.bmp,['Im_RobertDowneyJr.png', 'Im_RyanGosling.png', 'Im_PatrickDempsey.png', 'Im_DanielCraig.png', 'Im_GeorgeClooney.png', 'Im_HughJackman.png', 'Im_MattDamon.png', 'Im_JustinTimberlake.png', 'Im_ElijahWood.png', 'Im_OrlandoBloom.png'],diff,1,0.5416926999987481,17,0,
ELHE1110,train,neg,fs,negfs_id20_im12.bmp_negfs_id8_im20.bmp,['Im_RobertDowneyJr.png', 'Im_RyanGosling.png', 'Im_PatrickDempsey.png', 'Im_DanielCraig.png', 'Im_GeorgeClooney.png', 'Im_HughJackman.png', 'Im_MattDamon.png', 'Im_JustinTimberlake.png', 'Im_ElijahWood.png', 'Im_OrlandoBloom.png'],diff,1,0.49173220000011497,18,0,
ELHE1110,train,neg,150,neg150_id7_im14.bmp_neg150_id6_im12.bmp,['Im_RobertDowneyJr.png', 'Im_RyanGosling.png', 'Im_PatrickDempsey.png', 'Im_DanielCraig.png', 'Im_GeorgeClooney.png', 'Im_HughJackman.png', 'Im_MattDamon.png', 'Im_JustinTimberlake.png', 'Im_ElijahWood.png', 'Im_OrlandoBloom.png'],diff,1,1.4419533000000229,19,0,
ELHE1110,train,neg,0,neg0_id20_im3.bmp_neg0_id20_im30.bmp,['Im_RobertDowneyJr.png', 'Im_RyanGosling.png', 'Im_PatrickDempsey.png', 'Im_DanielCraig.png', 'Im_GeorgeClooney.png', 'Im_HughJackman.png', 'Im_MattDamon.png', 'Im_JustinTimberlake.png', 'Im_ElijahWood.png', 'Im_OrlandoBloom.png'],none,1,4.416876499999489,19,0,
ELHE1110,train,neg,90,neg90_id20_im3.bmp_neg90_id20_im30.bmp,['Im_RobertDowneyJr.png', 'Im_RyanGosling.png', 'Im_PatrickDempsey.png', 'Im_DanielCraig.png', 'Im_GeorgeClooney.png', 'Im_HughJackman.png', 'Im_MattDamon.png', 'Im_JustinTimberlake.png', 'Im_ElijahWood.png', 'Im_OrlandoBloom.png'],same,1,1.0919114999996964,20,0,
ELHE1110,train,neg,120,neg120_id8_im20.bmp_neg120_id8_im21.bmp,['Im_RobertDowneyJr.png', 'Im_RyanGosling.png', 'Im_PatrickDempsey.png', 'Im_DanielCraig.png', 'Im_GeorgeClooney.png', 'Im_HughJackman.png', 'Im_MattDamon.png', 'Im_JustinTimberlake.png', 'Im_ElijahWood.png', 'Im_OrlandoBloom.png'],same,1,0.6000671000001603,21,0,
ELHE1110,train,neg,120,neg120_id10_im17.bmp_neg120_id4_im20.bmp,['Im_RobertDowneyJr.png', 'Im_RyanGosling.png', 'Im_PatrickDempsey.png', 'Im_DanielCraig.png', 'Im_GeorgeClooney.png', 'Im_HughJackman.png', 'Im_MattDamon.png', 'Im_JustinTimberlake.png', 'Im_ElijahWood.png', 'Im_OrlandoBloom.png'],diff,1,0.43339930000001914,22,0,
ELHE1110,train,pos,150,pos150_id4_im7.bmp_pos150_id17_im14.bmp,['Im_RobertDowneyJr.png', 'Im_RyanGosling.png', 'Im_PatrickDempsey.png', 'Im_DanielCraig.png', 'Im_GeorgeClooney.png', 'Im_HughJackman.png', 'Im_MattDamon.png', 'Im_JustinTimberlake.png', 'Im_ElijahWood.png', 'Im_OrlandoBloom.png'],diff,1,0.8418899999996938,23,0,
ELHE1110,train,pos,30,pos30_id6_im19.bmp_pos30_id17_im8.bmp,['Im_RobertDowneyJr.png', 'Im_RyanGosling.png', 'Im_PatrickDempsey.png', 'Im_DanielCraig.png', 'Im_GeorgeClooney.png', 'Im_HughJackman.png', 'Im_MattDamon.png', 'Im_JustinTimberlake.png', 'Im_ElijahWood.png', 'Im_OrlandoBloom.png'],diff,1,0.4333071999990352,24,0,
ELHE1110,train,pos,fs,posfs_id17_im14.bmp_posfs_id17_im8.bmp,['Im_RobertDowneyJr.png', 'Im_RyanGosling.png', 'Im_PatrickDempsey.png', 'Im_DanielCraig.png', 'Im_GeorgeClooney.png', 'Im_HughJackman.png', 'Im_MattDamon.png', 'Im_JustinTimberlake.png', 'Im_ElijahWood.png', 'Im_OrlandoBloom.png'],same,1,0.43318149999868183,25,0,
ELHE1110,train,pos,90,pos90_id10_im18.bmp_pos90_id10_im17.bmp,['Im_RobertDowneyJr.png', 'Im_RyanGosling.png', 'Im_PatrickDempsey.png', 'Im_DanielCraig.png', 'Im_GeorgeClooney.png', 'Im_HughJackman.png', 'Im_MattDamon.png', 'Im_JustinTimberlake.png', 'Im_ElijahWood.png', 'Im_OrlandoBloom.png'],same,1,0.8499171000003116,26,0,
ELHE1110,train,pos,fs,posfs_id17_im9.bmp_posfs_id17_im8.bmp,['Im_RobertDowneyJr.png', 'Im_RyanGosling.png', 'Im_PatrickDempsey.png', 'Im_DanielCraig.png', 'Im_GeorgeClooney.png', 'Im_HughJackman.png', 'Im_MattDamon.png', 'Im_JustinTimberlake.png', 'Im_ElijahWood.png', 'Im_OrlandoBloom.png'],same,1,0.4083812000008038,27,0,
ELHE1110,train,pos,90,pos90_id14_im18.bmp_pos90_id14_im24.bmp,['Im_RobertDowneyJr.png', 'Im_RyanGosling.png', 'Im_PatrickDempsey.png', 'Im_DanielCraig.png', 'Im_GeorgeClooney.png', 'Im_HughJackman.png', 'Im_MattDamon.png', 'Im_JustinTimberlake.png', 'Im_ElijahWood.png', 'Im_OrlandoBloom.png'],same,1,0.408440299999711,28,0,
ELHE1110,train,pos,60,pos60_id7_im14.bmp_pos60_id7_im26.bmp,['Im_RobertDowneyJr.png', 'Im_RyanGosling.png', 'Im_PatrickDempsey.png', 'Im_DanielCraig.png', 'Im_GeorgeClooney.png', 'Im_HughJackman.png', 'Im_MattDamon.png', 'Im_JustinTimberlake.png', 'Im_ElijahWood.png', 'Im_OrlandoBloom.png'],same,1,0.4167596000006597,29,0,
ELHE1110,train,pos,0,pos0_id7_im15.bmp_pos0_id7_im26.bmp,['Im_RobertDowneyJr.png', 'Im_RyanGosling.png', 'Im_PatrickDempsey.png', 'Im_DanielCraig.png', 'Im_GeorgeClooney.png', 'Im_HughJackman.png', 'Im_MattDamon.png', 'Im_JustinTimberlake.png', 'Im_ElijahWood.png', 'Im_OrlandoBloom.png'],same,1,1.3586381000004621,30,0,
ELHE1110,train,pos,0,pos0_id8_im20.bmp_pos0_id8_im21.bmp,['Im_RobertDowneyJr.png', 'Im_RyanGosling.png', 'Im_PatrickDempsey.png', 'Im_DanielCraig.png', 'Im_GeorgeClooney.png', 'Im_HughJackman.png', 'Im_MattDamon.png', 'Im_JustinTimberlake.png', 'Im_ElijahWood.png', 'Im_OrlandoBloom.png'],same,1,0.4250439000006736,31,0,
ELHE1110,train,pos,60,pos60_id20_im30.bmp_pos60_id6_im18.bmp,['Im_RobertDowneyJr.png', 'Im_RyanGosling.png', 'Im_PatrickDempsey.png', 'Im_DanielCraig.png', 'Im_GeorgeClooney.png', 'Im_HughJackman.png', 'Im_MattDamon.png', 'Im_JustinTimberlake.png', 'Im_ElijahWood.png', 'Im_OrlandoBloom.png'],diff,1,0.4250523999999132,32,0,
ELHE1110,train,pos,120,pos120_id8_im20.bmp_pos120_id8_im13.bmp,['Im_RobertDowneyJr.png', 'Im_RyanGosling.png', 'Im_PatrickDempsey.png', 'Im_DanielCraig.png', 'Im_GeorgeClooney.png', 'Im_HughJackman.png', 'Im_MattDamon.png', 'Im_JustinTimberlake.png', 'Im_ElijahWood.png', 'Im_OrlandoBloom.png'],same,1,0.5834164999996574,33,0,
ELHE1110,train,pos,120,pos120_id20_im12.bmp_pos120_id20_im3.bmp,['Im_RobertDowneyJr.png', 'Im_RyanGosling.png', 'Im_PatrickDempsey.png', 'Im_DanielCraig.png', 'Im_GeorgeClooney.png', 'Im_HughJackman.png', 'Im_MattDamon.png', 'Im_JustinTimberlake.png', 'Im_ElijahWood.png', 'Im_OrlandoBloom.png'],same,1,0.6087016000001313,34,0,
ELHE1110,train,pos,150,pos150_id14_im18.bmp_pos150_id18_im11.bmp,['Im_RobertDowneyJr.png', 'Im_RyanGosling.png', 'Im_PatrickDempsey.png', 'Im_DanielCraig.png', 'Im_GeorgeClooney.png', 'Im_HughJackman.png', 'Im_MattDamon.png', 'Im_JustinTimberlake.png', 'Im_ElijahWood.png', 'Im_OrlandoBloom.png'],diff,1,0.4167827000001125,35,0,
ELHE1110,train,pos,30,pos30_id14_im24.bmp_pos30_id14_im16.bmp,['Im_RobertDowneyJr.png', 'Im_RyanGosling.png', 'Im_PatrickDempsey.png', 'Im_DanielCraig.png', 'Im_GeorgeClooney.png', 'Im_HughJackman.png', 'Im_MattDamon.png', 'Im_JustinTimberlake.png', 'Im_ElijahWood.png', 'Im_OrlandoBloom.png'],same,1,0.7835469999990892,36,0,
ELHE1110,train,pos,0,pos0_id20_im3.bmp_pos0_id7_im15.bmp,['Im_RobertDowneyJr.png', 'Im_RyanGosling.png', 'Im_PatrickDempsey.png', 'Im_DanielCraig.png', 'Im_GeorgeClooney.png', 'Im_HughJackman.png', 'Im_MattDamon.png', 'Im_JustinTimberlake.png', 'Im_ElijahWood.png', 'Im_OrlandoBloom.png'],diff,1,0.6501195000000735,1,85.71428571428571,
ELHE1110,train,pos,120,pos120_id17_im8.bmp_pos120_id17_im14.bmp,['Im_RobertDowneyJr.png', 'Im_RyanGosling.png', 'Im_PatrickDempsey.png', 'Im_DanielCraig.png', 'Im_GeorgeClooney.png', 'Im_HughJackman.png', 'Im_MattDamon.png', 'Im_JustinTimberlake.png', 'Im_ElijahWood.png', 'Im_OrlandoBloom.png'],same,1,0.41665260000081616,2,85.71428571428571,
ELHE1110,train,pos,fs,posfs_id16_im2.bmp_posfs_id7_im15.bmp,['Im_RobertDowneyJr.png', 'Im_RyanGosling.png', 'Im_PatrickDempsey.png', 'Im_DanielCraig.png', 'Im_GeorgeClooney.png', 'Im_HughJackman.png', 'Im_MattDamon.png', 'Im_JustinTimberlake.png', 'Im_ElijahWood.png', 'Im_OrlandoBloom.png'],diff,1,0.44186269999954675,3,85.71428571428571,
ELHE1110,train,pos,60,pos60_id17_im14.bmp_pos60_id17_im8.bmp,['Im_RobertDowneyJr.png', 'Im_RyanGosling.png', 'Im_PatrickDempsey.png', 'Im_DanielCraig.png', 'Im_GeorgeClooney.png', 'Im_HughJackman.png', 'Im_MattDamon.png', 'Im_JustinTimberlake.png', 'Im_ElijahWood.png', 'Im_OrlandoBloom.png'],same,1,0.6584533999994164,4,85.71428571428571,
ELHE1110,train,pos,60,pos60_id7_im15.bmp_pos60_id20_im3.bmp,['Im_RobertDowneyJr.png', 'Im_RyanGosling.png', 'Im_PatrickDempsey.png', 'Im_DanielCraig.png', 'Im_GeorgeClooney.png', 'Im_HughJackman.png', 'Im_MattDamon.png', 'Im_JustinTimberlake.png', 'Im_ElijahWood.png', 'Im_OrlandoBloom.png'],diff,1,1.325279299999238,5,85.71428571428571,
ELHE1110,train,pos,150,pos150_id18_im11.bmp_pos150_id6_im12.bmp,['Im_RobertDowneyJr.png', 'Im_RyanGosling.png', 'Im_PatrickDempsey.png', 'Im_DanielCraig.png', 'Im_GeorgeClooney.png', 'Im_HughJackman.png', 'Im_MattDamon.png', 'Im_JustinTimberlake.png', 'Im_ElijahWood.png', 'Im_OrlandoBloom.png'],diff,1,0.40840940000089176,6,85.71428571428571,
ELHE1110,train,pos,90,pos90_id8_im13.bmp_pos90_id8_im21.bmp,['Im_RobertDowneyJr.png', 'Im_RyanGosling.png', 'Im_PatrickDempsey.png', 'Im_DanielCraig.png', 'Im_GeorgeClooney.png', 'Im_HughJackman.png', 'Im_MattDamon.png', 'Im_JustinTimberlake.png', 'Im_ElijahWood.png', 'Im_OrlandoBloom.png'],same,1,0.8252494999996998,7,85.71428571428571,
ELHE1110,train,pos,150,pos150_id10_im18.bmp_pos150_id10_im17.bmp,['Im_RobertDowneyJr.png', 'Im_RyanGosling.png', 'Im_PatrickDempsey.png', 'Im_DanielCraig.png', 'Im_GeorgeClooney.png', 'Im_HughJackman.png', 'Im_MattDamon.png', 'Im_JustinTimberlake.png', 'Im_ElijahWood.png', 'Im_OrlandoBloom.png'],same,1,0.4250621000010142,8,85.71428571428571,
ELHE1110,train,pos,90,pos90_id8_im21.bmp_pos90_id4_im7.bmp,['Im_RobertDowneyJr.png', 'Im_RyanGosling.png', 'Im_PatrickDempsey.png', 'Im_DanielCraig.png', 'Im_GeorgeClooney.png', 'Im_HughJackman.png', 'Im_MattDamon.png', 'Im_JustinTimberlake.png', 'Im_ElijahWood.png', 'Im_OrlandoBloom.png'],diff,1,0.4250817000011011,9,85.71428571428571,
ELHE1110,train,pos,30,pos30_id16_im3.bmp_pos30_id18_im19.bmp,['Im_RobertDowneyJr.png', 'Im_RyanGosling.png', 'Im_PatrickDempsey.png', 'Im_DanielCraig.png', 'Im_GeorgeClooney.png', 'Im_HughJackman.png', 'Im_MattDamon.png', 'Im_JustinTimberlake.png', 'Im_ElijahWood.png', 'Im_OrlandoBloom.png'],diff,1,0.40836550000130956,10,85.71428571428571,
ELHE1110,train,pos,fs,posfs_id7_im14.bmp_posfs_id7_im26.bmp,['Im_RobertDowneyJr.png', 'Im_RyanGosling.png', 'Im_PatrickDempsey.png', 'Im_DanielCraig.png', 'Im_GeorgeClooney.png', 'Im_HughJackman.png', 'Im_MattDamon.png', 'Im_JustinTimberlake.png', 'Im_ElijahWood.png', 'Im_OrlandoBloom.png'],same,1,0.4251616000001377,11,85.71428571428571,
ELHE1110,train,pos,30,pos30_id16_im3.bmp_pos30_id16_im2.bmp,['Im_RobertDowneyJr.png', 'Im_RyanGosling.png', 'Im_PatrickDempsey.png', 'Im_DanielCraig.png', 'Im_GeorgeClooney.png', 'Im_HughJackman.png', 'Im_MattDamon.png', 'Im_JustinTimberlake.png', 'Im_ElijahWood.png', 'Im_OrlandoBloom.png'],same,1,0.6666385000007722,12,85.71428571428571,
ELHE1110,train,pos,0,pos0_id6_im18.bmp_pos0_id20_im30.bmp,['Im_RobertDowneyJr.png', 'Im_RyanGosling.png', 'Im_PatrickDempsey.png', 'Im_DanielCraig.png', 'Im_GeorgeClooney.png', 'Im_HughJackman.png', 'Im_MattDamon.png', 'Im_JustinTimberlake.png', 'Im_ElijahWood.png', 'Im_OrlandoBloom.png'],diff,1,0.4083869999994931,13,85.71428571428571,
ELHE1110,train,pos,120,pos120_id6_im18.bmp_pos120_id6_im19.bmp,['Im_RobertDowneyJr.png', 'Im_RyanGosling.png', 'Im_PatrickDempsey.png', 'Im_DanielCraig.png', 'Im_GeorgeClooney.png', 'Im_HughJackman.png', 'Im_MattDamon.png', 'Im_JustinTimberlake.png', 'Im_ElijahWood.png', 'Im_OrlandoBloom.png'],same,1,0.4250467000001663,14,85.71428571428571,
ELHE1110,train,neg,150,neg150_id8_im21.bmp_neg150_id8_im20.bmp,['Im_RobertDowneyJr.png', 'Im_RyanGosling.png', 'Im_PatrickDempsey.png', 'Im_DanielCraig.png', 'Im_GeorgeClooney.png', 'Im_HughJackman.png', 'Im_MattDamon.png', 'Im_JustinTimberlake.png', 'Im_ElijahWood.png', 'Im_OrlandoBloom.png'],same,1,0.41673809999883815,15,85.71428571428571,
ELHE1110,train,neg,30,neg30_id8_im21.bmp_neg30_id4_im7.bmp,['Im_RobertDowneyJr.png', 'Im_RyanGosling.png', 'Im_PatrickDempsey.png', 'Im_DanielCraig.png', 'Im_GeorgeClooney.png', 'Im_HughJackman.png', 'Im_MattDamon.png', 'Im_JustinTimberlake.png', 'Im_ElijahWood.png', 'Im_OrlandoBloom.png'],diff,1,0.40834799999902316,16,85.71428571428571,
ELHE1110,train,neg,30,neg30_id4_im20.bmp_neg30_id4_im15.bmp,['Im_RobertDowneyJr.png', 'Im_RyanGosling.png', 'Im_PatrickDempsey.png', 'Im_DanielCraig.png', 'Im_GeorgeClooney.png', 'Im_HughJackman.png', 'Im_MattDamon.png', 'Im_JustinTimberlake.png', 'Im_ElijahWood.png', 'Im_OrlandoBloom.png'],same,1,0.4920246000001498,17,85.71428571428571,
ELHE1110,train,neg,60,neg60_id8_im20.bmp_neg60_id18_im18.bmp,['Im_RobertDowneyJr.png', 'Im_RyanGosling.png', 'Im_PatrickDempsey.png', 'Im_DanielCraig.png', 'Im_GeorgeClooney.png', 'Im_HughJackman.png', 'Im_MattDamon.png', 'Im_JustinTimberlake.png', 'Im_ElijahWood.png', 'Im_OrlandoBloom.png'],diff,1,0.4166205000001355,18,85.71428571428571,
ELHE1110,train,neg,150,neg150_id17_im8.bmp_neg150_id17_im9.bmp,['Im_RobertDowneyJr.png', 'Im_RyanGosling.png', 'Im_PatrickDempsey.png', 'Im_DanielCraig.png', 'Im_GeorgeClooney.png', 'Im_HughJackman.png', 'Im_MattDamon.png', 'Im_JustinTimberlake.png', 'Im_ElijahWood.png', 'Im_OrlandoBloom.png'],same,1,1.9753132999994705,19,85.71428571428571,
ELHE1110,train,neg,60,neg60_id14_im16.bmp_neg60_id14_im18.bmp,['Im_RobertDowneyJr.png', 'Im_RyanGosling.png', 'Im_PatrickDempsey.png', 'Im_DanielCraig.png', 'Im_GeorgeClooney.png', 'Im_HughJackman.png', 'Im_MattDamon.png', 'Im_JustinTimberlake.png', 'Im_ElijahWood.png', 'Im_OrlandoBloom.png'],same,1,0.6917226999994455,20,85.71428571428571,
ELHE1110,train,neg,0,neg0_id8_im20.bmp_neg0_id20_im12.bmp,['Im_RobertDowneyJr.png', 'Im_RyanGosling.png', 'Im_PatrickDempsey.png', 'Im_DanielCraig.png', 'Im_GeorgeClooney.png', 'Im_HughJackman.png', 'Im_MattDamon.png', 'Im_JustinTimberlake.png', 'Im_ElijahWood.png', 'Im_OrlandoBloom.png'],diff,1,0.43344640000032086,21,85.71428571428571,
ELHE1110,train,neg,90,neg90_id10_im18.bmp_neg90_id10_im17.bmp,['Im_RobertDowneyJr.png', 'Im_RyanGosling.png', 'Im_PatrickDempsey.png', 'Im_DanielCraig.png', 'Im_GeorgeClooney.png', 'Im_HughJackman.png', 'Im_MattDamon.png', 'Im_JustinTimberlake.png', 'Im_ElijahWood.png', 'Im_OrlandoBloom.png'],diff,0,2.275457499999902,21,85.71428571428571,
ELHE1110,train,neg,90,neg90_id8_im20.bmp_neg90_id8_im21.bmp,['Im_RobertDowneyJr.png', 'Im_RyanGosling.png', 'Im_PatrickDempsey.png', 'Im_DanielCraig.png', 'Im_GeorgeClooney.png', 'Im_HughJackman.png', 'Im_MattDamon.png', 'Im_JustinTimberlake.png', 'Im_ElijahWood.png', 'Im_OrlandoBloom.png'],same,1,0.4667324000001827,22,85.71428571428571,
ELHE1110,train,neg,fs,negfs_id17_im9.bmp_negfs_id4_im20.bmp,['Im_RobertDowneyJr.png', 'Im_RyanGosling.png', 'Im_PatrickDempsey.png', 'Im_DanielCraig.png', 'Im_GeorgeClooney.png', 'Im_HughJackman.png', 'Im_MattDamon.png', 'Im_JustinTimberlake.png', 'Im_ElijahWood.png', 'Im_OrlandoBloom.png'],diff,1,0.425242099998286,23,85.71428571428571,
ELHE1110,train,neg,120,neg120_id17_im8.bmp_neg120_id17_im9.bmp,['Im_RobertDowneyJr.png', 'Im_RyanGosling.png', 'Im_PatrickDempsey.png', 'Im_DanielCraig.png', 'Im_GeorgeClooney.png', 'Im_HughJackman.png', 'Im_MattDamon.png', 'Im_JustinTimberlake.png', 'Im_ElijahWood.png', 'Im_OrlandoBloom.png'],same,1,0.6255450999997265,24,85.71428571428571,
ELHE1110,train,neg,0,neg0_id20_im3.bmp_neg0_id7_im15.bmp,['Im_RobertDowneyJr.png', 'Im_RyanGosling.png', 'Im_PatrickDempsey.png', 'Im_DanielCraig.png', 'Im_GeorgeClooney.png', 'Im_HughJackman.png', 'Im_MattDamon.png', 'Im_JustinTimberlake.png', 'Im_ElijahWood.png', 'Im_OrlandoBloom.png'],diff,1,0.8918517999991309,25,85.71428571428571,
ELHE1110,train,neg,120,neg120_id14_im18.bmp_neg120_id17_im14.bmp,['Im_RobertDowneyJr.png', 'Im_RyanGosling.png', 'Im_PatrickDempsey.png', 'Im_DanielCraig.png', 'Im_GeorgeClooney.png', 'Im_HughJackman.png', 'Im_MattDamon.png', 'Im_JustinTimberlake.png', 'Im_ElijahWood.png', 'Im_OrlandoBloom.png'],diff,1,0.791778400000112,26,85.71428571428571,
ELHE1110,train,neg,fs,negfs_id6_im12.bmp_negfs_id6_im18.bmp,['Im_RobertDowneyJr.png', 'Im_RyanGosling.png', 'Im_PatrickDempsey.png', 'Im_DanielCraig.png', 'Im_GeorgeClooney.png', 'Im_HughJackman.png', 'Im_MattDamon.png', 'Im_JustinTimberlake.png', 'Im_ElijahWood.png', 'Im_OrlandoBloom.png'],same,1,1.2083801999997377,27,85.71428571428571,
ELHE1110,train,inv,0,pos0_id8_im20.bmp_pos0_id8_im13.bmp,['Im_RobertDowneyJr.png', 'Im_RyanGosling.png', 'Im_PatrickDempsey.png', 'Im_DanielCraig.png', 'Im_GeorgeClooney.png', 'Im_HughJackman.png', 'Im_MattDamon.png', 'Im_JustinTimberlake.png', 'Im_ElijahWood.png', 'Im_OrlandoBloom.png'],same,1,0.8586020000002463,28,85.71428571428571,
ELHE1110,train,inv,60,pos60_id20_im12.bmp_pos60_id20_im30.bmp,['Im_RobertDowneyJr.png', 'Im_RyanGosling.png', 'Im_PatrickDempsey.png', 'Im_DanielCraig.png', 'Im_GeorgeClooney.png', 'Im_HughJackman.png', 'Im_MattDamon.png', 'Im_JustinTimberlake.png', 'Im_ElijahWood.png', 'Im_OrlandoBloom.png'],same,1,0.4252534999995987,29,85.71428571428571,
ELHE1110,train,inv,fs,posfs_id18_im11.bmp_posfs_id18_im19.bmp,['Im_RobertDowneyJr.png', 'Im_RyanGosling.png', 'Im_PatrickDempsey.png', 'Im_DanielCraig.png', 'Im_GeorgeClooney.png', 'Im_HughJackman.png', 'Im_MattDamon.png', 'Im_JustinTimberlake.png', 'Im_ElijahWood.png', 'Im_OrlandoBloom.png'],diff,0,0.500061699998696,29,85.71428571428571,
ELHE1110,train,inv,60,pos60_id8_im20.bmp_pos60_id8_im21.bmp,['Im_RobertDowneyJr.png', 'Im_RyanGosling.png', 'Im_PatrickDempsey.png', 'Im_DanielCraig.png', 'Im_GeorgeClooney.png', 'Im_HughJackman.png', 'Im_MattDamon.png', 'Im_JustinTimberlake.png', 'Im_ElijahWood.png', 'Im_OrlandoBloom.png'],same,1,0.6249647999993613,30,85.71428571428571,
ELHE1110,train,inv,150,pos150_id10_im1.bmp_pos150_id10_im17.bmp,['Im_RobertDowneyJr.png', 'Im_RyanGosling.png', 'Im_PatrickDempsey.png', 'Im_DanielCraig.png', 'Im_GeorgeClooney.png', 'Im_HughJackman.png', 'Im_MattDamon.png', 'Im_JustinTimberlake.png', 'Im_ElijahWood.png', 'Im_OrlandoBloom.png'],diff,0,0.8582855000004201,30,85.71428571428571,
ELHE1110,train,inv,fs,posfs_id20_im12.bmp_posfs_id20_im30.bmp,['Im_RobertDowneyJr.png', 'Im_RyanGosling.png', 'Im_PatrickDempsey.png', 'Im_DanielCraig.png', 'Im_GeorgeClooney.png', 'Im_HughJackman.png', 'Im_MattDamon.png', 'Im_JustinTimberlake.png', 'Im_ElijahWood.png', 'Im_OrlandoBloom.png'],same,1,0.5173938000007183,31,85.71428571428571,
ELHE1110,train,inv,120,pos120_id17_im9.bmp_pos120_id6_im19.bmp,['Im_RobertDowneyJr.png', 'Im_RyanGosling.png', 'Im_PatrickDempsey.png', 'Im_DanielCraig.png', 'Im_GeorgeClooney.png', 'Im_HughJackman.png', 'Im_MattDamon.png', 'Im_JustinTimberlake.png', 'Im_ElijahWood.png', 'Im_OrlandoBloom.png'],diff,1,1.5999457999987499,32,85.71428571428571,
ELHE1110,train,inv,30,pos30_id14_im16.bmp_pos30_id14_im24.bmp,['Im_RobertDowneyJr.png', 'Im_RyanGosling.png', 'Im_PatrickDempsey.png', 'Im_DanielCraig.png', 'Im_GeorgeClooney.png', 'Im_HughJackman.png', 'Im_MattDamon.png', 'Im_JustinTimberlake.png', 'Im_ElijahWood.png', 'Im_OrlandoBloom.png'],same,1,0.43332510000072944,33,85.71428571428571,
ELHE1110,train,inv,120,pos120_id16_im3.bmp_pos120_id16_im2.bmp,['Im_RobertDowneyJr.png', 'Im_RyanGosling.png', 'Im_PatrickDempsey.png', 'Im_DanielCraig.png', 'Im_GeorgeClooney.png', 'Im_HughJackman.png', 'Im_MattDamon.png', 'Im_JustinTimberlake.png', 'Im_ElijahWood.png', 'Im_OrlandoBloom.png'],diff,0,2.9417912999997498,33,85.71428571428571,
ELHE1110,train,inv,90,pos90_id17_im14.bmp_pos90_id14_im18.bmp,['Im_RobertDowneyJr.png', 'Im_RyanGosling.png', 'Im_PatrickDempsey.png', 'Im_DanielCraig.png', 'Im_GeorgeClooney.png', 'Im_HughJackman.png', 'Im_MattDamon.png', 'Im_JustinTimberlake.png', 'Im_ElijahWood.png', 'Im_OrlandoBloom.png'],same,0,1.9337314000003971,33,85.71428571428571,
ELHE1110,train,inv,30,pos30_id4_im20.bmp_pos30_id10_im17.bmp,['Im_RobertDowneyJr.png', 'Im_RyanGosling.png', 'Im_PatrickDempsey.png', 'Im_DanielCraig.png', 'Im_GeorgeClooney.png', 'Im_HughJackman.png', 'Im_MattDamon.png', 'Im_JustinTimberlake.png', 'Im_ElijahWood.png', 'Im_OrlandoBloom.png'],diff,1,2.5502672999991773,34,85.71428571428571,
ELHE1110,train,inv,90,pos90_id6_im12.bmp_pos90_id6_im19.bmp,['Im_RobertDowneyJr.png', 'Im_RyanGosling.png', 'Im_PatrickDempsey.png', 'Im_DanielCraig.png', 'Im_GeorgeClooney.png', 'Im_HughJackman.png', 'Im_MattDamon.png', 'Im_JustinTimberlake.png', 'Im_ElijahWood.png', 'Im_OrlandoBloom.png'],diff,0,1.0752243999995699,34,85.71428571428571,
ELHE1110,train,inv,0,pos0_id10_im18.bmp_pos0_id20_im30.bmp,['Im_RobertDowneyJr.png', 'Im_RyanGosling.png', 'Im_PatrickDempsey.png', 'Im_DanielCraig.png', 'Im_GeorgeClooney.png', 'Im_HughJackman.png', 'Im_MattDamon.png', 'Im_JustinTimberlake.png', 'Im_ElijahWood.png', 'Im_OrlandoBloom.png'],diff,1,0.6168462999994517,35,85.71428571428571,
ELHE1110,train,inv,150,pos150_id7_im14.bmp_pos150_id6_im12.bmp,['Im_RobertDowneyJr.png', 'Im_RyanGosling.png', 'Im_PatrickDempsey.png', 'Im_DanielCraig.png', 'Im_GeorgeClooney.png', 'Im_HughJackman.png', 'Im_MattDamon.png', 'Im_JustinTimberlake.png', 'Im_ElijahWood.png', 'Im_OrlandoBloom.png'],diff,1,0.8836033000006864,36,85.71428571428571,
ELHE1110,0,inv,fs,posfs_id14_im16.bmp_posfs_id14_im24.bmp,['Im_RobertDowneyJr.png', 'Im_RyanGosling.png', 'Im_PatrickDempsey.png', 'Im_DanielCraig.png', 'Im_GeorgeClooney.png', 'Im_HughJackman.png', 'Im_MattDamon.png', 'Im_JustinTimberlake.png', 'Im_ElijahWood.png', 'Im_OrlandoBloom.png'],diff,0,2.1750897000001714,0,0,
ELHE1110,0,inv,60,pos60_id7_im15.bmp_pos60_id7_im26.bmp,['Im_RobertDowneyJr.png', 'Im_RyanGosling.png', 'Im_PatrickDempsey.png', 'Im_DanielCraig.png', 'Im_GeorgeClooney.png', 'Im_HughJackman.png', 'Im_MattDamon.png', 'Im_JustinTimberlake.png', 'Im_ElijahWood.png', 'Im_OrlandoBloom.png'],diff,0,1.5917365000004793,0,0,
ELHE1110,0,inv,150,pos150_id10_im1.bmp_pos150_id10_im18.bmp,['Im_RobertDowneyJr.png', 'Im_RyanGosling.png', 'Im_PatrickDempsey.png', 'Im_DanielCraig.png', 'Im_GeorgeClooney.png', 'Im_HughJackman.png', 'Im_MattDamon.png', 'Im_JustinTimberlake.png', 'Im_ElijahWood.png', 'Im_OrlandoBloom.png'],same,1,1.31684690000111,1,0,
ELHE1110,0,inv,120,pos120_id10_im18.bmp_pos120_id10_im17.bmp,['Im_RobertDowneyJr.png', 'Im_RyanGosling.png', 'Im_PatrickDempsey.png', 'Im_DanielCraig.png', 'Im_GeorgeClooney.png', 'Im_HughJackman.png', 'Im_MattDamon.png', 'Im_JustinTimberlake.png', 'Im_ElijahWood.png', 'Im_OrlandoBloom.png'],same,1,0.42516969999996945,2,0,
ELHE1110,0,inv,0,pos0_id8_im21.bmp_pos0_id8_im20.bmp,['Im_RobertDowneyJr.png', 'Im_RyanGosling.png', 'Im_PatrickDempsey.png', 'Im_DanielCraig.png', 'Im_GeorgeClooney.png', 'Im_HughJackman.png', 'Im_MattDamon.png', 'Im_JustinTimberlake.png', 'Im_ElijahWood.png', 'Im_OrlandoBloom.png'],same,1,0.8753971000005549,3,0,
ELHE1110,0,inv,90,pos90_id17_im14.bmp_pos90_id4_im7.bmp,['Im_RobertDowneyJr.png', 'Im_RyanGosling.png', 'Im_PatrickDempsey.png', 'Im_DanielCraig.png', 'Im_GeorgeClooney.png', 'Im_HughJackman.png', 'Im_MattDamon.png', 'Im_JustinTimberlake.png', 'Im_ElijahWood.png', 'Im_OrlandoBloom.png'],same,0,0.916757900000448,3,0,
ELHE1110,0,inv,30,pos30_id7_im14.bmp_pos30_id7_im26.bmp,['Im_RobertDowneyJr.png', 'Im_RyanGosling.png', 'Im_PatrickDempsey.png', 'Im_DanielCraig.png', 'Im_GeorgeClooney.png', 'Im_HughJackman.png', 'Im_MattDamon.png', 'Im_JustinTimberlake.png', 'Im_ElijahWood.png', 'Im_OrlandoBloom.png'],same,1,1.95006309999917,4,0,
ELHE1110,0,inv,fs,posfs_id17_im14.bmp_posfs_id17_im9.bmp,['Im_RobertDowneyJr.png', 'Im_RyanGosling.png', 'Im_PatrickDempsey.png', 'Im_DanielCraig.png', 'Im_GeorgeClooney.png', 'Im_HughJackman.png', 'Im_MattDamon.png', 'Im_JustinTimberlake.png', 'Im_ElijahWood.png', 'Im_OrlandoBloom.png'],same,1,0.42502730000160227,5,0,
ELHE1110,0,inv,120,pos120_id20_im12.bmp_pos120_id16_im19.bmp,['Im_RobertDowneyJr.png', 'Im_RyanGosling.png', 'Im_PatrickDempsey.png', 'Im_DanielCraig.png', 'Im_GeorgeClooney.png', 'Im_HughJackman.png', 'Im_MattDamon.png', 'Im_JustinTimberlake.png', 'Im_ElijahWood.png', 'Im_OrlandoBloom.png'],diff,1,0.46709589999954915,6,0,
ELHE1110,0,inv,60,pos60_id17_im9.bmp_pos60_id17_im8.bmp,['Im_RobertDowneyJr.png', 'Im_RyanGosling.png', 'Im_PatrickDempsey.png', 'Im_DanielCraig.png', 'Im_GeorgeClooney.png', 'Im_HughJackman.png', 'Im_MattDamon.png', 'Im_JustinTimberlake.png', 'Im_ElijahWood.png', 'Im_OrlandoBloom.png'],diff,0,2.608738800001447,6,0,
ELHE1110,0,inv,90,pos90_id16_im2.bmp_pos90_id7_im15.bmp,['Im_RobertDowneyJr.png', 'Im_RyanGosling.png', 'Im_PatrickDempsey.png', 'Im_DanielCraig.png', 'Im_GeorgeClooney.png', 'Im_HughJackman.png', 'Im_MattDamon.png', 'Im_JustinTimberlake.png', 'Im_ElijahWood.png', 'Im_OrlandoBloom.png'],diff,1,0.6337262999986706,7,0,
ELHE1110,0,inv,150,pos150_id16_im2.bmp_pos150_id7_im15.bmp,['Im_RobertDowneyJr.png', 'Im_RyanGosling.png', 'Im_PatrickDempsey.png', 'Im_DanielCraig.png', 'Im_GeorgeClooney.png', 'Im_HughJackman.png', 'Im_MattDamon.png', 'Im_JustinTimberlake.png', 'Im_ElijahWood.png', 'Im_OrlandoBloom.png'],same,0,0.4669367999995302,7,0,
ELHE1110,0,inv,0,pos0_id6_im19.bmp_pos0_id17_im8.bmp,['Im_RobertDowneyJr.png', 'Im_RyanGosling.png', 'Im_PatrickDempsey.png', 'Im_DanielCraig.png', 'Im_GeorgeClooney.png', 'Im_HughJackman.png', 'Im_MattDamon.png', 'Im_JustinTimberlake.png', 'Im_ElijahWood.png', 'Im_OrlandoBloom.png'],diff,1,1.3849597999997059,8,0,
ELHE1110,0,inv,30,pos30_id8_im20.bmp_pos30_id8_im21.bmp,['Im_RobertDowneyJr.png', 'Im_RyanGosling.png', 'Im_PatrickDempsey.png', 'Im_DanielCraig.png', 'Im_GeorgeClooney.png', 'Im_HughJackman.png', 'Im_MattDamon.png', 'Im_JustinTimberlake.png', 'Im_ElijahWood.png', 'Im_OrlandoBloom.png'],same,1,1.141924100000324,9,0,
ELHE1110,1,neg,150,neg150_id6_im19.bmp_neg150_id17_im8.bmp,['Im_RobertDowneyJr.png', 'Im_RyanGosling.png', 'Im_PatrickDempsey.png', 'Im_DanielCraig.png', 'Im_GeorgeClooney.png', 'Im_HughJackman.png', 'Im_MattDamon.png', 'Im_JustinTimberlake.png', 'Im_ElijahWood.png', 'Im_OrlandoBloom.png'],diff,1,1.4673519999996643,10,0,
ELHE1110,1,neg,0,neg0_id10_im18.bmp_neg0_id10_im17.bmp,['Im_RobertDowneyJr.png', 'Im_RyanGosling.png', 'Im_PatrickDempsey.png', 'Im_DanielCraig.png', 'Im_GeorgeClooney.png', 'Im_HughJackman.png', 'Im_MattDamon.png', 'Im_JustinTimberlake.png', 'Im_ElijahWood.png', 'Im_OrlandoBloom.png'],same,1,0.8003530999994837,11,0,
ELHE1110,1,neg,120,neg120_id20_im12.bmp_neg120_id20_im30.bmp,['Im_RobertDowneyJr.png', 'Im_RyanGosling.png', 'Im_PatrickDempsey.png', 'Im_DanielCraig.png', 'Im_GeorgeClooney.png', 'Im_HughJackman.png', 'Im_MattDamon.png', 'Im_JustinTimberlake.png', 'Im_ElijahWood.png', 'Im_OrlandoBloom.png'],same,1,0.42507649999970454,12,0,
ELHE1110,1,neg,120,neg120_id18_im19.bmp_neg120_id18_im18.bmp,['Im_RobertDowneyJr.png', 'Im_RyanGosling.png', 'Im_PatrickDempsey.png', 'Im_DanielCraig.png', 'Im_GeorgeClooney.png', 'Im_HughJackman.png', 'Im_MattDamon.png', 'Im_JustinTimberlake.png', 'Im_ElijahWood.png', 'Im_OrlandoBloom.png'],diff,0,1.4167702000013378,12,0,
ELHE1110,1,neg,fs,negfs_id14_im24.bmp_negfs_id10_im18.bmp,['Im_RobertDowneyJr.png', 'Im_RyanGosling.png', 'Im_PatrickDempsey.png', 'Im_DanielCraig.png', 'Im_GeorgeClooney.png', 'Im_HughJackman.png', 'Im_MattDamon.png', 'Im_JustinTimberlake.png', 'Im_ElijahWood.png', 'Im_OrlandoBloom.png'],diff,1,0.5504047000013088,13,0,
ELHE1110,1,neg,0,neg0_id18_im11.bmp_neg0_id18_im18.bmp,['Im_RobertDowneyJr.png', 'Im_RyanGosling.png', 'Im_PatrickDempsey.png', 'Im_DanielCraig.png', 'Im_GeorgeClooney.png', 'Im_HughJackman.png', 'Im_MattDamon.png', 'Im_JustinTimberlake.png', 'Im_ElijahWood.png', 'Im_OrlandoBloom.png'],same,1,0.8501126000010117,14,0,
ELHE1110,1,neg,90,neg90_id14_im16.bmp_neg90_id16_im2.bmp,['Im_RobertDowneyJr.png', 'Im_RyanGosling.png', 'Im_PatrickDempsey.png', 'Im_DanielCraig.png', 'Im_GeorgeClooney.png', 'Im_HughJackman.png', 'Im_MattDamon.png', 'Im_JustinTimberlake.png', 'Im_ElijahWood.png', 'Im_OrlandoBloom.png'],diff,1,0.6753144999984215,15,0,
ELHE1110,1,neg,150,neg150_id18_im19.bmp_neg150_id16_im3.bmp,['Im_RobertDowneyJr.png', 'Im_RyanGosling.png', 'Im_PatrickDempsey.png', 'Im_DanielCraig.png', 'Im_GeorgeClooney.png', 'Im_HughJackman.png', 'Im_MattDamon.png', 'Im_JustinTimberlake.png', 'Im_ElijahWood.png', 'Im_OrlandoBloom.png'],diff,1,2.0586064999988594,16,0,
ELHE1110,1,neg,60,neg60_id10_im1.bmp_neg60_id10_im17.bmp,['Im_RobertDowneyJr.png', 'Im_RyanGosling.png', 'Im_PatrickDempsey.png', 'Im_DanielCraig.png', 'Im_GeorgeClooney.png', 'Im_HughJackman.png', 'Im_MattDamon.png', 'Im_JustinTimberlake.png', 'Im_ElijahWood.png', 'Im_OrlandoBloom.png'],same,1,1.233688099999199,17,0,
ELHE1110,1,neg,fs,negfs_id8_im13.bmp_negfs_id16_im3.bmp,['Im_RobertDowneyJr.png', 'Im_RyanGosling.png', 'Im_PatrickDempsey.png', 'Im_DanielCraig.png', 'Im_GeorgeClooney.png', 'Im_HughJackman.png', 'Im_MattDamon.png', 'Im_JustinTimberlake.png', 'Im_ElijahWood.png', 'Im_OrlandoBloom.png'],diff,1,0.4167492000015045,18,0,
ELHE1110,1,neg,90,neg90_id16_im3.bmp_neg90_id16_im2.bmp,['Im_RobertDowneyJr.png', 'Im_RyanGosling.png', 'Im_PatrickDempsey.png', 'Im_DanielCraig.png', 'Im_GeorgeClooney.png', 'Im_HughJackman.png', 'Im_MattDamon.png', 'Im_JustinTimberlake.png', 'Im_ElijahWood.png', 'Im_OrlandoBloom.png'],diff,0,0.48386740000023565,18,0,
ELHE1110,1,neg,60,neg60_id10_im17.bmp_neg60_id4_im20.bmp,['Im_RobertDowneyJr.png', 'Im_RyanGosling.png', 'Im_PatrickDempsey.png', 'Im_DanielCraig.png', 'Im_GeorgeClooney.png', 'Im_HughJackman.png', 'Im_MattDamon.png', 'Im_JustinTimberlake.png', 'Im_ElijahWood.png', 'Im_OrlandoBloom.png'],diff,1,0.4166642000000138,19,0,
ELHE1110,1,neg,30,neg30_id8_im21.bmp_neg30_id8_im13.bmp,['Im_RobertDowneyJr.png', 'Im_RyanGosling.png', 'Im_PatrickDempsey.png', 'Im_DanielCraig.png', 'Im_GeorgeClooney.png', 'Im_HughJackman.png', 'Im_MattDamon.png', 'Im_JustinTimberlake.png', 'Im_ElijahWood.png', 'Im_OrlandoBloom.png'],same,1,0.6250820999994176,20,0,
ELHE1110,1,neg,30,neg30_id17_im9.bmp_neg30_id4_im20.bmp,['Im_RobertDowneyJr.png', 'Im_RyanGosling.png', 'Im_PatrickDempsey.png', 'Im_DanielCraig.png', 'Im_GeorgeClooney.png', 'Im_HughJackman.png', 'Im_MattDamon.png', 'Im_JustinTimberlake.png', 'Im_ElijahWood.png', 'Im_OrlandoBloom.png'],diff,1,0.6503167000009853,21,0,
ELHE1110,2,pos,90,pos90_id16_im2.bmp_pos90_id7_im15.bmp,['Im_RobertDowneyJr.png', 'Im_RyanGosling.png', 'Im_PatrickDempsey.png', 'Im_DanielCraig.png', 'Im_GeorgeClooney.png', 'Im_HughJackman.png', 'Im_MattDamon.png', 'Im_JustinTimberlake.png', 'Im_ElijahWood.png', 'Im_OrlandoBloom.png'],diff,1,0.4501290999996854,22,0,
ELHE1110,2,pos,0,pos0_id10_im17.bmp_pos0_id10_im18.bmp,['Im_RobertDowneyJr.png', 'Im_RyanGosling.png', 'Im_PatrickDempsey.png', 'Im_DanielCraig.png', 'Im_GeorgeClooney.png', 'Im_HughJackman.png', 'Im_MattDamon.png', 'Im_JustinTimberlake.png', 'Im_ElijahWood.png', 'Im_OrlandoBloom.png'],same,1,0.5000743000000512,23,0,
ELHE1110,2,pos,120,pos120_id14_im18.bmp_pos120_id17_im14.bmp,['Im_RobertDowneyJr.png', 'Im_RyanGosling.png', 'Im_PatrickDempsey.png', 'Im_DanielCraig.png', 'Im_GeorgeClooney.png', 'Im_HughJackman.png', 'Im_MattDamon.png', 'Im_JustinTimberlake.png', 'Im_ElijahWood.png', 'Im_OrlandoBloom.png'],diff,1,0.4335422000003746,24,0,
ELHE1110,2,pos,fs,posfs_id14_im16.bmp_posfs_id14_im18.bmp,['Im_RobertDowneyJr.png', 'Im_RyanGosling.png', 'Im_PatrickDempsey.png', 'Im_DanielCraig.png', 'Im_GeorgeClooney.png', 'Im_HughJackman.png', 'Im_MattDamon.png', 'Im_JustinTimberlake.png', 'Im_ElijahWood.png', 'Im_OrlandoBloom.png'],same,1,0.8337135000001581,25,0,
ELHE1110,2,pos,0,pos0_id16_im3.bmp_pos0_id8_im13.bmp,['Im_RobertDowneyJr.png', 'Im_RyanGosling.png', 'Im_PatrickDempsey.png', 'Im_DanielCraig.png', 'Im_GeorgeClooney.png', 'Im_HughJackman.png', 'Im_MattDamon.png', 'Im_JustinTimberlake.png', 'Im_ElijahWood.png', 'Im_OrlandoBloom.png'],diff,1,0.4586472999999387,26,0,
ELHE1110,2,pos,60,pos60_id10_im1.bmp_pos60_id4_im15.bmp,['Im_RobertDowneyJr.png', 'Im_RyanGosling.png', 'Im_PatrickDempsey.png', 'Im_DanielCraig.png', 'Im_GeorgeClooney.png', 'Im_HughJackman.png', 'Im_MattDamon.png', 'Im_JustinTimberlake.png', 'Im_ElijahWood.png', 'Im_OrlandoBloom.png'],diff,1,0.42508639999869047,27,0,
ELHE1110,2,pos,90,pos90_id18_im11.bmp_pos90_id18_im18.bmp,['Im_RobertDowneyJr.png', 'Im_RyanGosling.png', 'Im_PatrickDempsey.png', 'Im_DanielCraig.png', 'Im_GeorgeClooney.png', 'Im_HughJackman.png', 'Im_MattDamon.png', 'Im_JustinTimberlake.png', 'Im_ElijahWood.png', 'Im_OrlandoBloom.png'],same,1,0.5917140000001382,28,0,
ELHE1110,2,pos,fs,posfs_id6_im18.bmp_posfs_id6_im19.bmp,['Im_RobertDowneyJr.png', 'Im_RyanGosling.png', 'Im_PatrickDempsey.png', 'Im_DanielCraig.png', 'Im_GeorgeClooney.png', 'Im_HughJackman.png', 'Im_MattDamon.png', 'Im_JustinTimberlake.png', 'Im_ElijahWood.png', 'Im_OrlandoBloom.png'],same,1,0.42504530000041996,29,0,
ELHE1110,2,pos,30,pos30_id7_im26.bmp_pos30_id7_im14.bmp,['Im_RobertDowneyJr.png', 'Im_RyanGosling.png', 'Im_PatrickDempsey.png', 'Im_DanielCraig.png', 'Im_GeorgeClooney.png', 'Im_HughJackman.png', 'Im_MattDamon.png', 'Im_JustinTimberlake.png', 'Im_ElijahWood.png', 'Im_OrlandoBloom.png'],diff,0,0.5168879999982892,29,0,
ELHE1110,2,pos,150,pos150_id17_im8.bmp_pos150_id6_im19.bmp,['Im_RobertDowneyJr.png', 'Im_RyanGosling.png', 'Im_PatrickDempsey.png', 'Im_DanielCraig.png', 'Im_GeorgeClooney.png', 'Im_HughJackman.png', 'Im_MattDamon.png', 'Im_JustinTimberlake.png', 'Im_ElijahWood.png', 'Im_OrlandoBloom.png'],diff,1,0.416612900000473,30,0,
ELHE1110,2,pos,120,pos120_id10_im17.bmp_pos120_id10_im18.bmp,['Im_RobertDowneyJr.png', 'Im_RyanGosling.png', 'Im_PatrickDempsey.png', 'Im_DanielCraig.png', 'Im_GeorgeClooney.png', 'Im_HughJackman.png', 'Im_MattDamon.png', 'Im_JustinTimberlake.png', 'Im_ElijahWood.png', 'Im_OrlandoBloom.png'],same,1,0.4167802000010852,31,0,
ELHE1110,2,pos,150,pos150_id8_im20.bmp_pos150_id20_im12.bmp,['Im_RobertDowneyJr.png', 'Im_RyanGosling.png', 'Im_PatrickDempsey.png', 'Im_DanielCraig.png', 'Im_GeorgeClooney.png', 'Im_HughJackman.png', 'Im_MattDamon.png', 'Im_JustinTimberlake.png', 'Im_ElijahWood.png', 'Im_OrlandoBloom.png'],diff,1,0.4168128000001161,32,0,
ELHE1110,2,pos,60,pos60_id20_im30.bmp_pos60_id10_im18.bmp,['Im_RobertDowneyJr.png', 'Im_RyanGosling.png', 'Im_PatrickDempsey.png', 'Im_DanielCraig.png', 'Im_GeorgeClooney.png', 'Im_HughJackman.png', 'Im_MattDamon.png', 'Im_JustinTimberlake.png', 'Im_ElijahWood.png', 'Im_OrlandoBloom.png'],diff,1,0.41695269999945594,33,0,
ELHE1110,2,pos,30,pos30_id20_im3.bmp_pos30_id20_im12.bmp,['Im_RobertDowneyJr.png', 'Im_RyanGosling.png', 'Im_PatrickDempsey.png', 'Im_DanielCraig.png', 'Im_GeorgeClooney.png', 'Im_HughJackman.png', 'Im_MattDamon.png', 'Im_JustinTimberlake.png', 'Im_ElijahWood.png', 'Im_OrlandoBloom.png'],same,1,0.4164858000003733,34,0,
ELHE1110,3,inv,0,pos0_id16_im3.bmp_pos0_id16_im2.bmp,['Im_RobertDowneyJr.png', 'Im_RyanGosling.png', 'Im_PatrickDempsey.png', 'Im_DanielCraig.png', 'Im_GeorgeClooney.png', 'Im_HughJackman.png', 'Im_MattDamon.png', 'Im_JustinTimberlake.png', 'Im_ElijahWood.png', 'Im_OrlandoBloom.png'],diff,0,1.5750287999999273,0,80.95238095238095,
ELHE1110,3,inv,30,pos30_id17_im14.bmp_pos30_id14_im18.bmp,['Im_RobertDowneyJr.png', 'Im_RyanGosling.png', 'Im_PatrickDempsey.png', 'Im_DanielCraig.png', 'Im_GeorgeClooney.png', 'Im_HughJackman.png', 'Im_MattDamon.png', 'Im_JustinTimberlake.png', 'Im_ElijahWood.png', 'Im_OrlandoBloom.png'],same,0,0.6083770000004733,0,80.95238095238095,
ELHE1110,3,inv,150,pos150_id14_im18.bmp_pos150_id17_im14.bmp,['Im_RobertDowneyJr.png', 'Im_RyanGosling.png', 'Im_PatrickDempsey.png', 'Im_DanielCraig.png', 'Im_GeorgeClooney.png', 'Im_HughJackman.png', 'Im_MattDamon.png', 'Im_JustinTimberlake.png', 'Im_ElijahWood.png', 'Im_OrlandoBloom.png'],diff,1,0.9003010999986145,1,80.95238095238095,
ELHE1110,3,inv,fs,posfs_id16_im3.bmp_posfs_id16_im2.bmp,['Im_RobertDowneyJr.png', 'Im_RyanGosling.png', 'Im_PatrickDempsey.png', 'Im_DanielCraig.png', 'Im_GeorgeClooney.png', 'Im_HughJackman.png', 'Im_MattDamon.png', 'Im_JustinTimberlake.png', 'Im_ElijahWood.png', 'Im_OrlandoBloom.png'],same,1,0.5333014999996522,2,80.95238095238095,
ELHE1110,3,inv,60,pos60_id16_im19.bmp_pos60_id20_im12.bmp,['Im_RobertDowneyJr.png', 'Im_RyanGosling.png', 'Im_PatrickDempsey.png', 'Im_DanielCraig.png', 'Im_GeorgeClooney.png', 'Im_HughJackman.png', 'Im_MattDamon.png', 'Im_JustinTimberlake.png', 'Im_ElijahWood.png', 'Im_OrlandoBloom.png'],diff,1,0.5422847999998339,3,80.95238095238095,
ELHE1110,3,inv,0,pos0_id18_im18.bmp_pos0_id8_im21.bmp,['Im_RobertDowneyJr.png', 'Im_RyanGosling.png', 'Im_PatrickDempsey.png', 'Im_DanielCraig.png', 'Im_GeorgeClooney.png', 'Im_HughJackman.png', 'Im_MattDamon.png', 'Im_JustinTimberlake.png', 'Im_ElijahWood.png', 'Im_OrlandoBloom.png'],same,0,0.766996399999698,3,80.95238095238095,
ELHE1110,3,inv,30,pos30_id16_im3.bmp_pos30_id8_im13.bmp,['Im_RobertDowneyJr.png', 'Im_RyanGosling.png', 'Im_PatrickDempsey.png', 'Im_DanielCraig.png', 'Im_GeorgeClooney.png', 'Im_HughJackman.png', 'Im_MattDamon.png', 'Im_JustinTimberlake.png', 'Im_ElijahWood.png', 'Im_OrlandoBloom.png'],diff,1,0.6004537000007986,4,80.95238095238095,
ELHE1110,3,inv,150,pos150_id20_im12.bmp_pos150_id16_im19.bmp,['Im_RobertDowneyJr.png', 'Im_RyanGosling.png', 'Im_PatrickDempsey.png', 'Im_DanielCraig.png', 'Im_GeorgeClooney.png', 'Im_HughJackman.png', 'Im_MattDamon.png', 'Im_JustinTimberlake.png', 'Im_ElijahWood.png', 'Im_OrlandoBloom.png'],diff,1,0.416848700000628,5,80.95238095238095,
ELHE1110,3,inv,60,pos60_id14_im16.bmp_pos60_id14_im24.bmp,['Im_RobertDowneyJr.png', 'Im_RyanGosling.png', 'Im_PatrickDempsey.png', 'Im_DanielCraig.png', 'Im_GeorgeClooney.png', 'Im_HughJackman.png', 'Im_MattDamon.png', 'Im_JustinTimberlake.png', 'Im_ElijahWood.png', 'Im_OrlandoBloom.png'],diff,0,1.0166358999995282,5,80.95238095238095,
ELHE1110,3,inv,120,pos120_id16_im19.bmp_pos120_id7_im26.bmp,['Im_RobertDowneyJr.png', 'Im_RyanGosling.png', 'Im_PatrickDempsey.png', 'Im_DanielCraig.png', 'Im_GeorgeClooney.png', 'Im_HughJackman.png', 'Im_MattDamon.png', 'Im_JustinTimberlake.png', 'Im_ElijahWood.png', 'Im_OrlandoBloom.png'],diff,1,0.5006820000016887,6,80.95238095238095,
ELHE1110,3,inv,90,pos90_id16_im19.bmp_pos90_id16_im3.bmp,['Im_RobertDowneyJr.png', 'Im_RyanGosling.png', 'Im_PatrickDempsey.png', 'Im_DanielCraig.png', 'Im_GeorgeClooney.png', 'Im_HughJackman.png', 'Im_MattDamon.png', 'Im_JustinTimberlake.png', 'Im_ElijahWood.png', 'Im_OrlandoBloom.png'],same,1,0.8833634000002348,7,80.95238095238095,
ELHE1110,3,inv,90,pos90_id14_im24.bmp_pos90_id10_im18.bmp,['Im_RobertDowneyJr.png', 'Im_RyanGosling.png', 'Im_PatrickDempsey.png', 'Im_DanielCraig.png', 'Im_GeorgeClooney.png', 'Im_HughJackman.png', 'Im_MattDamon.png', 'Im_JustinTimberlake.png', 'Im_ElijahWood.png', 'Im_OrlandoBloom.png'],diff,1,0.8253500000009808,8,80.95238095238095,
ELHE1110,3,inv,120,pos120_id4_im20.bmp_pos120_id4_im15.bmp,['Im_RobertDowneyJr.png', 'Im_RyanGosling.png', 'Im_PatrickDempsey.png', 'Im_DanielCraig.png', 'Im_GeorgeClooney.png', 'Im_HughJackman.png', 'Im_MattDamon.png', 'Im_JustinTimberlake.png', 'Im_ElijahWood.png', 'Im_OrlandoBloom.png'],same,1,1.091687299998739,9,80.95238095238095,
ELHE1110,3,inv,fs,posfs_id8_im20.bmp_posfs_id8_im13.bmp,['Im_RobertDowneyJr.png', 'Im_RyanGosling.png', 'Im_PatrickDempsey.png', 'Im_DanielCraig.png', 'Im_GeorgeClooney.png', 'Im_HughJackman.png', 'Im_MattDamon.png', 'Im_JustinTimberlake.png', 'Im_ElijahWood.png', 'Im_OrlandoBloom.png'],same,1,0.41669939999883354,10,80.95238095238095,
ELHE1110,4,neg,120,neg120_id18_im11.bmp_neg120_id18_im19.bmp,['Im_RobertDowneyJr.png', 'Im_RyanGosling.png', 'Im_PatrickDempsey.png', 'Im_DanielCraig.png', 'Im_GeorgeClooney.png', 'Im_HughJackman.png', 'Im_MattDamon.png', 'Im_JustinTimberlake.png', 'Im_ElijahWood.png', 'Im_OrlandoBloom.png'],same,1,1.3416262999999162,11,80.95238095238095,
ELHE1110,4,neg,fs,negfs_id8_im21.bmp_negfs_id8_im20.bmp,['Im_RobertDowneyJr.png', 'Im_RyanGosling.png', 'Im_PatrickDempsey.png', 'Im_DanielCraig.png', 'Im_GeorgeClooney.png', 'Im_HughJackman.png', 'Im_MattDamon.png', 'Im_JustinTimberlake.png', 'Im_ElijahWood.png', 'Im_OrlandoBloom.png'],same,1,0.4250305000005028,12,80.95238095238095,
ELHE1110,4,neg,fs,negfs_id7_im15.bmp_negfs_id7_im14.bmp,['Im_RobertDowneyJr.png', 'Im_RyanGosling.png', 'Im_PatrickDempsey.png', 'Im_DanielCraig.png', 'Im_GeorgeClooney.png', 'Im_HughJackman.png', 'Im_MattDamon.png', 'Im_JustinTimberlake.png', 'Im_ElijahWood.png', 'Im_OrlandoBloom.png'],same,1,0.6178290999996534,13,80.95238095238095,
ELHE1110,4,neg,90,neg90_id6_im18.bmp_neg90_id6_im19.bmp,['Im_RobertDowneyJr.png', 'Im_RyanGosling.png', 'Im_PatrickDempsey.png', 'Im_DanielCraig.png', 'Im_GeorgeClooney.png', 'Im_HughJackman.png', 'Im_MattDamon.png', 'Im_JustinTimberlake.png', 'Im_ElijahWood.png', 'Im_OrlandoBloom.png'],same,1,0.4251347000008536,14,80.95238095238095,
ELHE1110,4,neg,150,neg150_id10_im18.bmp_neg150_id14_im24.bmp,['Im_RobertDowneyJr.png', 'Im_RyanGosling.png', 'Im_PatrickDempsey.png', 'Im_DanielCraig.png', 'Im_GeorgeClooney.png', 'Im_HughJackman.png', 'Im_MattDamon.png', 'Im_JustinTimberlake.png', 'Im_ElijahWood.png', 'Im_OrlandoBloom.png'],diff,1,0.4417890000004263,15,80.95238095238095,
ELHE1110,4,neg,60,neg60_id10_im18.bmp_neg60_id20_im30.bmp,['Im_RobertDowneyJr.png', 'Im_RyanGosling.png', 'Im_PatrickDempsey.png', 'Im_DanielCraig.png', 'Im_GeorgeClooney.png', 'Im_HughJackman.png', 'Im_MattDamon.png', 'Im_JustinTimberlake.png', 'Im_ElijahWood.png', 'Im_OrlandoBloom.png'],diff,1,0.4172751000005519,16,80.95238095238095,
ELHE1110,4,neg,120,neg120_id14_im16.bmp_neg120_id18_im19.bmp,['Im_RobertDowneyJr.png', 'Im_RyanGosling.png', 'Im_PatrickDempsey.png', 'Im_DanielCraig.png', 'Im_GeorgeClooney.png', 'Im_HughJackman.png', 'Im_MattDamon.png', 'Im_JustinTimberlake.png', 'Im_ElijahWood.png', 'Im_OrlandoBloom.png'],same,0,1.6082698999998684,16,80.95238095238095,
ELHE1110,4,neg,90,neg90_id17_im8.bmp_neg90_id17_im14.bmp,['Im_RobertDowneyJr.png', 'Im_RyanGosling.png', 'Im_PatrickDempsey.png', 'Im_DanielCraig.png', 'Im_GeorgeClooney.png', 'Im_HughJackman.png', 'Im_MattDamon.png', 'Im_JustinTimberlake.png', 'Im_ElijahWood.png', 'Im_OrlandoBloom.png'],same,1,1.4168446000003314,17,80.95238095238095,
ELHE1110,4,neg,0,neg0_id18_im11.bmp_neg0_id6_im12.bmp,['Im_RobertDowneyJr.png', 'Im_RyanGosling.png', 'Im_PatrickDempsey.png', 'Im_DanielCraig.png', 'Im_GeorgeClooney.png', 'Im_HughJackman.png', 'Im_MattDamon.png', 'Im_JustinTimberlake.png', 'Im_ElijahWood.png', 'Im_OrlandoBloom.png'],diff,1,0.4167918999992253,18,80.95238095238095,
ELHE1110,4,neg,30,neg30_id20_im12.bmp_neg30_id8_im20.bmp,['Im_RobertDowneyJr.png', 'Im_RyanGosling.png', 'Im_PatrickDempsey.png', 'Im_DanielCraig.png', 'Im_GeorgeClooney.png', 'Im_HughJackman.png', 'Im_MattDamon.png', 'Im_JustinTimberlake.png', 'Im_ElijahWood.png', 'Im_OrlandoBloom.png'],diff,1,0.42506239999966056,19,80.95238095238095,
ELHE1110,4,neg,30,neg30_id4_im7.bmp_neg30_id4_im15.bmp,['Im_RobertDowneyJr.png', 'Im_RyanGosling.png', 'Im_PatrickDempsey.png', 'Im_DanielCraig.png', 'Im_GeorgeClooney.png', 'Im_HughJackman.png', 'Im_MattDamon.png', 'Im_JustinTimberlake.png', 'Im_ElijahWood.png', 'Im_OrlandoBloom.png'],same,1,0.4999982000008458,20,80.95238095238095,
ELHE1110,4,neg,60,neg60_id7_im15.bmp_neg60_id7_im26.bmp,['Im_RobertDowneyJr.png', 'Im_RyanGosling.png', 'Im_PatrickDempsey.png', 'Im_DanielCraig.png', 'Im_GeorgeClooney.png', 'Im_HughJackman.png', 'Im_MattDamon.png', 'Im_JustinTimberlake.png', 'Im_ElijahWood.png', 'Im_OrlandoBloom.png'],same,1,0.4837788000004366,21,80.95238095238095,
ELHE1110,4,neg,150,neg150_id18_im18.bmp_neg150_id8_im21.bmp,['Im_RobertDowneyJr.png', 'Im_RyanGosling.png', 'Im_PatrickDempsey.png', 'Im_DanielCraig.png', 'Im_GeorgeClooney.png', 'Im_HughJackman.png', 'Im_MattDamon.png', 'Im_JustinTimberlake.png', 'Im_ElijahWood.png', 'Im_OrlandoBloom.png'],diff,1,0.4334409000002779,22,80.95238095238095,
ELHE1110,4,neg,0,neg0_id17_im8.bmp_neg0_id17_im14.bmp,['Im_RobertDowneyJr.png', 'Im_RyanGosling.png', 'Im_PatrickDempsey.png', 'Im_DanielCraig.png', 'Im_GeorgeClooney.png', 'Im_HughJackman.png', 'Im_MattDamon.png', 'Im_JustinTimberlake.png', 'Im_ElijahWood.png', 'Im_OrlandoBloom.png'],diff,0,1.0335480000012467,22,80.95238095238095,
ELHE1110,5,pos,150,pos150_id14_im16.bmp_pos150_id14_im24.bmp,['Im_RobertDowneyJr.png', 'Im_RyanGosling.png', 'Im_PatrickDempsey.png', 'Im_DanielCraig.png', 'Im_GeorgeClooney.png', 'Im_HughJackman.png', 'Im_MattDamon.png', 'Im_JustinTimberlake.png', 'Im_ElijahWood.png', 'Im_OrlandoBloom.png'],same,1,0.4167280999990908,23,80.95238095238095,
ELHE1110,5,pos,120,pos120_id6_im12.bmp_pos120_id7_im14.bmp,['Im_RobertDowneyJr.png', 'Im_RyanGosling.png', 'Im_PatrickDempsey.png', 'Im_DanielCraig.png', 'Im_GeorgeClooney.png', 'Im_HughJackman.png', 'Im_MattDamon.png', 'Im_JustinTimberlake.png', 'Im_ElijahWood.png', 'Im_OrlandoBloom.png'],same,0,0.41672749999997905,23,80.95238095238095,
ELHE1110,5,pos,30,pos30_id10_im1.bmp_pos30_id10_im17.bmp,['Im_RobertDowneyJr.png', 'Im_RyanGosling.png', 'Im_PatrickDempsey.png', 'Im_DanielCraig.png', 'Im_GeorgeClooney.png', 'Im_HughJackman.png', 'Im_MattDamon.png', 'Im_JustinTimberlake.png', 'Im_ElijahWood.png', 'Im_OrlandoBloom.png'],diff,0,1.491906299999755,23,80.95238095238095,
ELHE1110,5,pos,0,pos0_id14_im18.bmp_pos0_id14_im24.bmp,['Im_RobertDowneyJr.png', 'Im_RyanGosling.png', 'Im_PatrickDempsey.png', 'Im_DanielCraig.png', 'Im_GeorgeClooney.png', 'Im_HughJackman.png', 'Im_MattDamon.png', 'Im_JustinTimberlake.png', 'Im_ElijahWood.png', 'Im_OrlandoBloom.png'],same,1,0.42516149999937625,24,80.95238095238095,
ELHE1110,5,pos,fs,posfs_id8_im21.bmp_posfs_id8_im20.bmp,['Im_RobertDowneyJr.png', 'Im_RyanGosling.png', 'Im_PatrickDempsey.png', 'Im_DanielCraig.png', 'Im_GeorgeClooney.png', 'Im_HughJackman.png', 'Im_MattDamon.png', 'Im_JustinTimberlake.png', 'Im_ElijahWood.png', 'Im_OrlandoBloom.png'],same,1,0.42506180000054883,25,80.95238095238095,
ELHE1110,5,pos,120,pos120_id10_im1.bmp_pos120_id10_im17.bmp,['Im_RobertDowneyJr.png', 'Im_RyanGosling.png', 'Im_PatrickDempsey.png', 'Im_DanielCraig.png', 'Im_GeorgeClooney.png', 'Im_HughJackman.png', 'Im_MattDamon.png', 'Im_JustinTimberlake.png', 'Im_ElijahWood.png', 'Im_OrlandoBloom.png'],same,1,0.41666080000140937,26,80.95238095238095,
ELHE1110,5,pos,150,pos150_id6_im18.bmp_pos150_id20_im30.bmp,['Im_RobertDowneyJr.png', 'Im_RyanGosling.png', 'Im_PatrickDempsey.png', 'Im_DanielCraig.png', 'Im_GeorgeClooney.png', 'Im_HughJackman.png', 'Im_MattDamon.png', 'Im_JustinTimberlake.png', 'Im_ElijahWood.png', 'Im_OrlandoBloom.png'],diff,1,0.41673160000027565,27,80.95238095238095,
ELHE1110,5,pos,60,pos60_id6_im19.bmp_pos60_id17_im9.bmp,['Im_RobertDowneyJr.png', 'Im_RyanGosling.png', 'Im_PatrickDempsey.png', 'Im_DanielCraig.png', 'Im_GeorgeClooney.png', 'Im_HughJackman.png', 'Im_MattDamon.png', 'Im_JustinTimberlake.png', 'Im_ElijahWood.png', 'Im_OrlandoBloom.png'],diff,1,0.4167029999989609,28,80.95238095238095,
ELHE1110,5,pos,90,pos90_id6_im12.bmp_pos90_id6_im19.bmp,['Im_RobertDowneyJr.png', 'Im_RyanGosling.png', 'Im_PatrickDempsey.png', 'Im_DanielCraig.png', 'Im_GeorgeClooney.png', 'Im_HughJackman.png', 'Im_MattDamon.png', 'Im_JustinTimberlake.png', 'Im_ElijahWood.png', 'Im_OrlandoBloom.png'],same,1,0.41680300000007264,29,80.95238095238095,
ELHE1110,5,pos,60,pos60_id10_im1.bmp_pos60_id7_im14.bmp,['Im_RobertDowneyJr.png', 'Im_RyanGosling.png', 'Im_PatrickDempsey.png', 'Im_DanielCraig.png', 'Im_GeorgeClooney.png', 'Im_HughJackman.png', 'Im_MattDamon.png', 'Im_JustinTimberlake.png', 'Im_ElijahWood.png', 'Im_OrlandoBloom.png'],diff,1,0.6169348999992508,30,80.95238095238095,
ELHE1110,5,pos,0,pos0_id10_im1.bmp_pos0_id10_im18.bmp,['Im_RobertDowneyJr.png', 'Im_RyanGosling.png', 'Im_PatrickDempsey.png', 'Im_DanielCraig.png', 'Im_GeorgeClooney.png', 'Im_HughJackman.png', 'Im_MattDamon.png', 'Im_JustinTimberlake.png', 'Im_ElijahWood.png', 'Im_OrlandoBloom.png'],same,1,0.4251549000000523,31,80.95238095238095,
ELHE1110,5,pos,30,pos30_id18_im18.bmp_pos30_id8_im20.bmp,['Im_RobertDowneyJr.png', 'Im_RyanGosling.png', 'Im_PatrickDempsey.png', 'Im_DanielCraig.png', 'Im_GeorgeClooney.png', 'Im_HughJackman.png', 'Im_MattDamon.png', 'Im_JustinTimberlake.png', 'Im_ElijahWood.png', 'Im_OrlandoBloom.png'],diff,1,0.4167399999987538,32,80.95238095238095,
ELHE1110,5,pos,90,pos90_id10_im18.bmp_pos90_id20_im30.bmp,['Im_RobertDowneyJr.png', 'Im_RyanGosling.png', 'Im_PatrickDempsey.png', 'Im_DanielCraig.png', 'Im_GeorgeClooney.png', 'Im_HughJackman.png', 'Im_MattDamon.png', 'Im_JustinTimberlake.png', 'Im_ElijahWood.png', 'Im_OrlandoBloom.png'],diff,1,0.4501117999989219,33,80.95238095238095,
ELHE1110,5,pos,fs,posfs_id6_im12.bmp_posfs_id6_im18.bmp,['Im_RobertDowneyJr.png', 'Im_RyanGosling.png', 'Im_PatrickDempsey.png', 'Im_DanielCraig.png', 'Im_GeorgeClooney.png', 'Im_HughJackman.png', 'Im_MattDamon.png', 'Im_JustinTimberlake.png', 'Im_ElijahWood.png', 'Im_OrlandoBloom.png'],same,1,0.42504120000012335,34,80.95238095238095,
ELHE1110,6,pos,0,pos0_id20_im3.bmp_pos0_id20_im30.bmp,['Im_RobertDowneyJr.png', 'Im_RyanGosling.png', 'Im_PatrickDempsey.png', 'Im_DanielCraig.png', 'Im_GeorgeClooney.png', 'Im_HughJackman.png', 'Im_MattDamon.png', 'Im_JustinTimberlake.png', 'Im_ElijahWood.png', 'Im_OrlandoBloom.png'],same,1,0.6835551000003761,1,80.95238095238095,
ELHE1110,6,pos,30,pos30_id10_im18.bmp_pos30_id10_im17.bmp,['Im_RobertDowneyJr.png', 'Im_RyanGosling.png', 'Im_PatrickDempsey.png', 'Im_DanielCraig.png', 'Im_GeorgeClooney.png', 'Im_HughJackman.png', 'Im_MattDamon.png', 'Im_JustinTimberlake.png', 'Im_ElijahWood.png', 'Im_OrlandoBloom.png'],same,1,0.41667340000094555,2,80.95238095238095,
ELHE1110,6,pos,fs,posfs_id16_im2.bmp_posfs_id14_im16.bmp,['Im_RobertDowneyJr.png', 'Im_RyanGosling.png', 'Im_PatrickDempsey.png', 'Im_DanielCraig.png', 'Im_GeorgeClooney.png', 'Im_HughJackman.png', 'Im_MattDamon.png', 'Im_JustinTimberlake.png', 'Im_ElijahWood.png', 'Im_OrlandoBloom.png'],diff,1,0.6749246000017592,3,80.95238095238095,
ELHE1110,6,pos,120,pos120_id14_im18.bmp_pos120_id14_im24.bmp,['Im_RobertDowneyJr.png', 'Im_RyanGosling.png', 'Im_PatrickDempsey.png', 'Im_DanielCraig.png', 'Im_GeorgeClooney.png', 'Im_HughJackman.png', 'Im_MattDamon.png', 'Im_JustinTimberlake.png', 'Im_ElijahWood.png', 'Im_OrlandoBloom.png'],same,1,0.40848209999967366,4,80.95238095238095,
ELHE1110,6,pos,120,pos120_id8_im21.bmp_pos120_id8_im20.bmp,['Im_RobertDowneyJr.png', 'Im_RyanGosling.png', 'Im_PatrickDempsey.png', 'Im_DanielCraig.png', 'Im_GeorgeClooney.png', 'Im_HughJackman.png', 'Im_MattDamon.png', 'Im_JustinTimberlake.png', 'Im_ElijahWood.png', 'Im_OrlandoBloom.png'],same,1,0.4167373000000225,5,80.95238095238095,
ELHE1110,6,pos,150,pos150_id4_im15.bmp_pos150_id4_im20.bmp,['Im_RobertDowneyJr.png', 'Im_RyanGosling.png', 'Im_PatrickDempsey.png', 'Im_DanielCraig.png', 'Im_GeorgeClooney.png', 'Im_HughJackman.png', 'Im_MattDamon.png', 'Im_JustinTimberlake.png', 'Im_ElijahWood.png', 'Im_OrlandoBloom.png'],same,1,0.4250434999994468,6,80.95238095238095,
ELHE1110,6,pos,fs,posfs_id16_im3.bmp_posfs_id18_im19.bmp,['Im_RobertDowneyJr.png', 'Im_RyanGosling.png', 'Im_PatrickDempsey.png', 'Im_DanielCraig.png', 'Im_GeorgeClooney.png', 'Im_HughJackman.png', 'Im_MattDamon.png', 'Im_JustinTimberlake.png', 'Im_ElijahWood.png', 'Im_OrlandoBloom.png'],diff,1,0.4088152000003902,7,80.95238095238095,
ELHE1110,6,pos,0,pos0_id4_im15.bmp_pos0_id4_im20.bmp,['Im_RobertDowneyJr.png', 'Im_RyanGosling.png', 'Im_PatrickDempsey.png', 'Im_DanielCraig.png', 'Im_GeorgeClooney.png', 'Im_HughJackman.png', 'Im_MattDamon.png', 'Im_JustinTimberlake.png', 'Im_ElijahWood.png', 'Im_OrlandoBloom.png'],same,1,0.41674049999892304,8,80.95238095238095,
ELHE1110,6,pos,60,pos60_id8_im21.bmp_pos60_id4_im7.bmp,['Im_RobertDowneyJr.png', 'Im_RyanGosling.png', 'Im_PatrickDempsey.png', 'Im_DanielCraig.png', 'Im_GeorgeClooney.png', 'Im_HughJackman.png', 'Im_MattDamon.png', 'Im_JustinTimberlake.png', 'Im_ElijahWood.png', 'Im_OrlandoBloom.png'],diff,1,0.5587548000003153,9,80.95238095238095,
ELHE1110,6,pos,60,pos60_id20_im12.bmp_pos60_id20_im3.bmp,['Im_RobertDowneyJr.png', 'Im_RyanGosling.png', 'Im_PatrickDempsey.png', 'Im_DanielCraig.png', 'Im_GeorgeClooney.png', 'Im_HughJackman.png', 'Im_MattDamon.png', 'Im_JustinTimberlake.png', 'Im_ElijahWood.png', 'Im_OrlandoBloom.png'],same,1,0.4250608000002103,10,80.95238095238095,
ELHE1110,6,pos,30,pos30_id18_im11.bmp_pos30_id14_im18.bmp,['Im_RobertDowneyJr.png', 'Im_RyanGosling.png', 'Im_PatrickDempsey.png', 'Im_DanielCraig.png', 'Im_GeorgeClooney.png', 'Im_HughJackman.png', 'Im_MattDamon.png', 'Im_JustinTimberlake.png', 'Im_ElijahWood.png', 'Im_OrlandoBloom.png'],diff,1,0.4082562000003236,11,80.95238095238095,
ELHE1110,6,pos,150,pos150_id10_im18.bmp_pos150_id20_im30.bmp,['Im_RobertDowneyJr.png', 'Im_RyanGosling.png', 'Im_PatrickDempsey.png', 'Im_DanielCraig.png', 'Im_GeorgeClooney.png', 'Im_HughJackman.png', 'Im_MattDamon.png', 'Im_JustinTimberlake.png', 'Im_ElijahWood.png', 'Im_OrlandoBloom.png'],diff,1,0.4502800999998726,12,80.95238095238095,
ELHE1110,6,pos,90,pos90_id20_im3.bmp_pos90_id20_im30.bmp,['Im_RobertDowneyJr.png', 'Im_RyanGosling.png', 'Im_PatrickDempsey.png', 'Im_DanielCraig.png', 'Im_GeorgeClooney.png', 'Im_HughJackman.png', 'Im_MattDamon.png', 'Im_JustinTimberlake.png', 'Im_ElijahWood.png', 'Im_OrlandoBloom.png'],same,1,0.4253147999988869,13,80.95238095238095,
ELHE1110,6,pos,90,pos90_id16_im3.bmp_pos90_id16_im2.bmp,['Im_RobertDowneyJr.png', 'Im_RyanGosling.png', 'Im_PatrickDempsey.png', 'Im_DanielCraig.png', 'Im_GeorgeClooney.png', 'Im_HughJackman.png', 'Im_MattDamon.png', 'Im_JustinTimberlake.png', 'Im_ElijahWood.png', 'Im_OrlandoBloom.png'],same,1,0.7585742999999638,14,80.95238095238095,
ELHE1110,7,inv,0,pos0_id20_im12.bmp_pos0_id8_im20.bmp,['Im_RobertDowneyJr.png', 'Im_RyanGosling.png', 'Im_PatrickDempsey.png', 'Im_DanielCraig.png', 'Im_GeorgeClooney.png', 'Im_HughJackman.png', 'Im_MattDamon.png', 'Im_JustinTimberlake.png', 'Im_ElijahWood.png', 'Im_OrlandoBloom.png'],diff,1,0.8333020000009128,15,80.95238095238095,
ELHE1110,7,inv,90,pos90_id14_im18.bmp_pos90_id14_im16.bmp,['Im_RobertDowneyJr.png', 'Im_RyanGosling.png', 'Im_PatrickDempsey.png', 'Im_DanielCraig.png', 'Im_GeorgeClooney.png', 'Im_HughJackman.png', 'Im_MattDamon.png', 'Im_JustinTimberlake.png', 'Im_ElijahWood.png', 'Im_OrlandoBloom.png'],same,1,0.8751046999987011,16,80.95238095238095,
ELHE1110,7,inv,120,pos120_id8_im20.bmp_pos120_id8_im13.bmp,['Im_RobertDowneyJr.png', 'Im_RyanGosling.png', 'Im_PatrickDempsey.png', 'Im_DanielCraig.png', 'Im_GeorgeClooney.png', 'Im_HughJackman.png', 'Im_MattDamon.png', 'Im_JustinTimberlake.png', 'Im_ElijahWood.png', 'Im_OrlandoBloom.png'],same,1,1.6417069999988598,17,80.95238095238095,
ELHE1110,7,inv,60,pos60_id18_im18.bmp_pos60_id8_im20.bmp,['Im_RobertDowneyJr.png', 'Im_RyanGosling.png', 'Im_PatrickDempsey.png', 'Im_DanielCraig.png', 'Im_GeorgeClooney.png', 'Im_HughJackman.png', 'Im_MattDamon.png', 'Im_JustinTimberlake.png', 'Im_ElijahWood.png', 'Im_OrlandoBloom.png'],diff,1,0.5419046000006347,18,80.95238095238095,
ELHE1110,7,inv,90,pos90_id4_im7.bmp_pos90_id4_im15.bmp,['Im_RobertDowneyJr.png', 'Im_RyanGosling.png', 'Im_PatrickDempsey.png', 'Im_DanielCraig.png', 'Im_GeorgeClooney.png', 'Im_HughJackman.png', 'Im_MattDamon.png', 'Im_JustinTimberlake.png', 'Im_ElijahWood.png', 'Im_OrlandoBloom.png'],same,1,0.45835729999998875,19,80.95238095238095,
ELHE1110,7,inv,0,pos0_id18_im18.bmp_pos0_id18_im11.bmp,['Im_RobertDowneyJr.png', 'Im_RyanGosling.png', 'Im_PatrickDempsey.png', 'Im_DanielCraig.png', 'Im_GeorgeClooney.png', 'Im_HughJackman.png', 'Im_MattDamon.png', 'Im_JustinTimberlake.png', 'Im_ElijahWood.png', 'Im_OrlandoBloom.png'],same,1,0.858280399999785,20,80.95238095238095,
ELHE1110,7,inv,150,pos150_id7_im26.bmp_pos150_id7_im14.bmp,['Im_RobertDowneyJr.png', 'Im_RyanGosling.png', 'Im_PatrickDempsey.png', 'Im_DanielCraig.png', 'Im_GeorgeClooney.png', 'Im_HughJackman.png', 'Im_MattDamon.png', 'Im_JustinTimberlake.png', 'Im_ElijahWood.png', 'Im_OrlandoBloom.png'],diff,0,0.4833991999985301,20,80.95238095238095,
ELHE1110,7,inv,60,pos60_id17_im9.bmp_pos60_id17_im14.bmp,['Im_RobertDowneyJr.png', 'Im_RyanGosling.png', 'Im_PatrickDempsey.png', 'Im_DanielCraig.png', 'Im_GeorgeClooney.png', 'Im_HughJackman.png', 'Im_MattDamon.png', 'Im_JustinTimberlake.png', 'Im_ElijahWood.png', 'Im_OrlandoBloom.png'],same,1,0.42516950000026554,21,80.95238095238095,
ELHE1110,7,inv,30,pos30_id8_im20.bmp_pos30_id20_im12.bmp,['Im_RobertDowneyJr.png', 'Im_RyanGosling.png', 'Im_PatrickDempsey.png', 'Im_DanielCraig.png', 'Im_GeorgeClooney.png', 'Im_HughJackman.png', 'Im_MattDamon.png', 'Im_JustinTimberlake.png', 'Im_ElijahWood.png', 'Im_OrlandoBloom.png'],diff,1,0.42516149999937625,22,80.95238095238095,
ELHE1110,7,inv,150,pos150_id8_im13.bmp_pos150_id8_im21.bmp,['Im_RobertDowneyJr.png', 'Im_RyanGosling.png', 'Im_PatrickDempsey.png', 'Im_DanielCraig.png', 'Im_GeorgeClooney.png', 'Im_HughJackman.png', 'Im_MattDamon.png', 'Im_JustinTimberlake.png', 'Im_ElijahWood.png', 'Im_OrlandoBloom.png'],same,1,0.5085373999991134,23,80.95238095238095,
ELHE1110,7,inv,120,pos120_id6_im12.bmp_pos120_id6_im19.bmp,['Im_RobertDowneyJr.png', 'Im_RyanGosling.png', 'Im_PatrickDempsey.png', 'Im_DanielCraig.png', 'Im_GeorgeClooney.png', 'Im_HughJackman.png', 'Im_MattDamon.png', 'Im_JustinTimberlake.png', 'Im_ElijahWood.png', 'Im_OrlandoBloom.png'],same,1,0.41671449999921606,24,80.95238095238095,
ELHE1110,7,inv,fs,posfs_id6_im19.bmp_posfs_id6_im12.bmp,['Im_RobertDowneyJr.png', 'Im_RyanGosling.png', 'Im_PatrickDempsey.png', 'Im_DanielCraig.png', 'Im_GeorgeClooney.png', 'Im_HughJackman.png', 'Im_MattDamon.png', 'Im_JustinTimberlake.png', 'Im_ElijahWood.png', 'Im_OrlandoBloom.png'],same,1,0.41664070000115316,25,80.95238095238095,
ELHE1110,7,inv,fs,posfs_id7_im14.bmp_posfs_id7_im15.bmp,['Im_RobertDowneyJr.png', 'Im_RyanGosling.png', 'Im_PatrickDempsey.png', 'Im_DanielCraig.png', 'Im_GeorgeClooney.png', 'Im_HughJackman.png', 'Im_MattDamon.png', 'Im_JustinTimberlake.png', 'Im_ElijahWood.png', 'Im_OrlandoBloom.png'],same,1,0.6752517000004445,26,80.95238095238095,
ELHE1110,7,inv,30,pos30_id16_im2.bmp_pos30_id14_im16.bmp,['Im_RobertDowneyJr.png', 'Im_RyanGosling.png', 'Im_PatrickDempsey.png', 'Im_DanielCraig.png', 'Im_GeorgeClooney.png', 'Im_HughJackman.png', 'Im_MattDamon.png', 'Im_JustinTimberlake.png', 'Im_ElijahWood.png', 'Im_OrlandoBloom.png'],diff,1,0.40847869999925024,27,80.95238095238095,
ELHE1110,8,neg,60,neg60_id18_im11.bmp_neg60_id6_im12.bmp,['Im_RobertDowneyJr.png', 'Im_RyanGosling.png', 'Im_PatrickDempsey.png', 'Im_DanielCraig.png', 'Im_GeorgeClooney.png', 'Im_HughJackman.png', 'Im_MattDamon.png', 'Im_JustinTimberlake.png', 'Im_ElijahWood.png', 'Im_OrlandoBloom.png'],diff,1,0.4584620999994513,28,80.95238095238095,
ELHE1110,8,neg,30,neg30_id14_im16.bmp_neg30_id18_im19.bmp,['Im_RobertDowneyJr.png', 'Im_RyanGosling.png', 'Im_PatrickDempsey.png', 'Im_DanielCraig.png', 'Im_GeorgeClooney.png', 'Im_HughJackman.png', 'Im_MattDamon.png', 'Im_JustinTimberlake.png', 'Im_ElijahWood.png', 'Im_OrlandoBloom.png'],diff,1,0.4167137999993429,29,80.95238095238095,
ELHE1110,8,neg,0,neg0_id16_im3.bmp_neg0_id8_im13.bmp,['Im_RobertDowneyJr.png', 'Im_RyanGosling.png', 'Im_PatrickDempsey.png', 'Im_DanielCraig.png', 'Im_GeorgeClooney.png', 'Im_HughJackman.png', 'Im_MattDamon.png', 'Im_JustinTimberlake.png', 'Im_ElijahWood.png', 'Im_OrlandoBloom.png'],diff,1,0.4083372999994026,30,80.95238095238095,
ELHE1110,8,neg,30,neg30_id14_im24.bmp_neg30_id4_im15.bmp,['Im_RobertDowneyJr.png', 'Im_RyanGosling.png', 'Im_PatrickDempsey.png', 'Im_DanielCraig.png', 'Im_GeorgeClooney.png', 'Im_HughJackman.png', 'Im_MattDamon.png', 'Im_JustinTimberlake.png', 'Im_ElijahWood.png', 'Im_OrlandoBloom.png'],diff,1,0.44190789999993285,31,80.95238095238095,
ELHE1110,8,neg,150,neg150_id7_im14.bmp_neg150_id7_im15.bmp,['Im_RobertDowneyJr.png', 'Im_RyanGosling.png', 'Im_PatrickDempsey.png', 'Im_DanielCraig.png', 'Im_GeorgeClooney.png', 'Im_HughJackman.png', 'Im_MattDamon.png', 'Im_JustinTimberlake.png', 'Im_ElijahWood.png', 'Im_OrlandoBloom.png'],diff,0,0.4166943000000174,31,80.95238095238095,
ELHE1110,8,neg,fs,negfs_id8_im20.bmp_negfs_id8_im13.bmp,['Im_RobertDowneyJr.png', 'Im_RyanGosling.png', 'Im_PatrickDempsey.png', 'Im_DanielCraig.png', 'Im_GeorgeClooney.png', 'Im_HughJackman.png', 'Im_MattDamon.png', 'Im_JustinTimberlake.png', 'Im_ElijahWood.png', 'Im_OrlandoBloom.png'],same,1,0.4249827000003279,32,80.95238095238095,
ELHE1110,8,neg,120,neg120_id14_im16.bmp_neg120_id14_im18.bmp,['Im_RobertDowneyJr.png', 'Im_RyanGosling.png', 'Im_PatrickDempsey.png', 'Im_DanielCraig.png', 'Im_GeorgeClooney.png', 'Im_HughJackman.png', 'Im_MattDamon.png', 'Im_JustinTimberlake.png', 'Im_ElijahWood.png', 'Im_OrlandoBloom.png'],same,1,0.4167381999995996,33,80.95238095238095,
ELHE1110,8,neg,150,neg150_id17_im9.bmp_neg150_id6_im19.bmp,['Im_RobertDowneyJr.png', 'Im_RyanGosling.png', 'Im_PatrickDempsey.png', 'Im_DanielCraig.png', 'Im_GeorgeClooney.png', 'Im_HughJackman.png', 'Im_MattDamon.png', 'Im_JustinTimberlake.png', 'Im_ElijahWood.png', 'Im_OrlandoBloom.png'],diff,1,0.42502760000024864,34,80.95238095238095,
ELHE1110,8,neg,120,neg120_id17_im14.bmp_neg120_id17_im8.bmp,['Im_RobertDowneyJr.png', 'Im_RyanGosling.png', 'Im_PatrickDempsey.png', 'Im_DanielCraig.png', 'Im_GeorgeClooney.png', 'Im_HughJackman.png', 'Im_MattDamon.png', 'Im_JustinTimberlake.png', 'Im_ElijahWood.png', 'Im_OrlandoBloom.png'],same,1,0.41672140000082436,35,80.95238095238095,
ELHE1110,8,neg,fs,negfs_id18_im11.bmp_negfs_id14_im18.bmp,['Im_RobertDowneyJr.png', 'Im_RyanGosling.png', 'Im_PatrickDempsey.png', 'Im_DanielCraig.png', 'Im_GeorgeClooney.png', 'Im_HughJackman.png', 'Im_MattDamon.png', 'Im_JustinTimberlake.png', 'Im_ElijahWood.png', 'Im_OrlandoBloom.png'],diff,1,0.41647120000016,36,80.95238095238095,
ELHE1110,8,neg,60,neg60_id17_im9.bmp_neg60_id17_im8.bmp,['Im_RobertDowneyJr.png', 'Im_RyanGosling.png', 'Im_PatrickDempsey.png', 'Im_DanielCraig.png', 'Im_GeorgeClooney.png', 'Im_HughJackman.png', 'Im_MattDamon.png', 'Im_JustinTimberlake.png', 'Im_ElijahWood.png', 'Im_OrlandoBloom.png'],diff,0,0.42500599999948463,36,80.95238095238095,
ELHE1110,8,neg,90,neg90_id20_im30.bmp_neg90_id10_im18.bmp,['Im_RobertDowneyJr.png', 'Im_RyanGosling.png', 'Im_PatrickDempsey.png', 'Im_DanielCraig.png', 'Im_GeorgeClooney.png', 'Im_HughJackman.png', 'Im_MattDamon.png', 'Im_JustinTimberlake.png', 'Im_ElijahWood.png', 'Im_OrlandoBloom.png'],diff,1,0.6174195000003238,37,80.95238095238095,
ELHE1110,8,neg,90,neg90_id10_im18.bmp_neg90_id10_im1.bmp,['Im_RobertDowneyJr.png', 'Im_RyanGosling.png', 'Im_PatrickDempsey.png', 'Im_DanielCraig.png', 'Im_GeorgeClooney.png', 'Im_HughJackman.png', 'Im_MattDamon.png', 'Im_JustinTimberlake.png', 'Im_ElijahWood.png', 'Im_OrlandoBloom.png'],same,1,1.1583860000009736,38,80.95238095238095,
ELHE1110,8,neg,0,neg0_id17_im9.bmp_neg0_id17_im14.bmp,['Im_RobertDowneyJr.png', 'Im_RyanGosling.png', 'Im_PatrickDempsey.png', 'Im_DanielCraig.png', 'Im_GeorgeClooney.png', 'Im_HughJackman.png', 'Im_MattDamon.png', 'Im_JustinTimberlake.png', 'Im_ElijahWood.png', 'Im_OrlandoBloom.png'],diff,0,1.1750945000003412,38,80.95238095238095,
ELHE1110,9,pos,120,pos120_id7_im15.bmp_pos120_id7_im26.bmp,['Im_RobertDowneyJr.png', 'Im_RyanGosling.png', 'Im_PatrickDempsey.png', 'Im_DanielCraig.png', 'Im_GeorgeClooney.png', 'Im_HughJackman.png', 'Im_MattDamon.png', 'Im_JustinTimberlake.png', 'Im_ElijahWood.png', 'Im_OrlandoBloom.png'],same,1,0.8835497000000032,1,90.47619047619048,
ELHE1110,9,pos,fs,posfs_id6_im12.bmp_posfs_id6_im19.bmp,['Im_RobertDowneyJr.png', 'Im_RyanGosling.png', 'Im_PatrickDempsey.png', 'Im_DanielCraig.png', 'Im_GeorgeClooney.png', 'Im_HughJackman.png', 'Im_MattDamon.png', 'Im_JustinTimberlake.png', 'Im_ElijahWood.png', 'Im_OrlandoBloom.png'],same,1,0.4166991000001872,2,90.47619047619048,
ELHE1110,9,pos,90,pos90_id17_im14.bmp_pos90_id14_im18.bmp,['Im_RobertDowneyJr.png', 'Im_RyanGosling.png', 'Im_PatrickDempsey.png', 'Im_DanielCraig.png', 'Im_GeorgeClooney.png', 'Im_HughJackman.png', 'Im_MattDamon.png', 'Im_JustinTimberlake.png', 'Im_ElijahWood.png', 'Im_OrlandoBloom.png'],diff,1,0.4166743999994651,3,90.47619047619048,
ELHE1110,9,pos,60,pos60_id20_im3.bmp_pos60_id20_im30.bmp,['Im_RobertDowneyJr.png', 'Im_RyanGosling.png', 'Im_PatrickDempsey.png', 'Im_DanielCraig.png', 'Im_GeorgeClooney.png', 'Im_HughJackman.png', 'Im_MattDamon.png', 'Im_JustinTimberlake.png', 'Im_ElijahWood.png', 'Im_OrlandoBloom.png'],same,1,0.41666090000035183,4,90.47619047619048,
ELHE1110,9,pos,150,pos150_id4_im15.bmp_pos150_id4_im7.bmp,['Im_RobertDowneyJr.png', 'Im_RyanGosling.png', 'Im_PatrickDempsey.png', 'Im_DanielCraig.png', 'Im_GeorgeClooney.png', 'Im_HughJackman.png', 'Im_MattDamon.png', 'Im_JustinTimberlake.png', 'Im_ElijahWood.png', 'Im_OrlandoBloom.png'],same,1,0.4168026000006648,5,90.47619047619048,
ELHE1110,9,pos,0,pos0_id7_im14.bmp_pos0_id6_im12.bmp,['Im_RobertDowneyJr.png', 'Im_RyanGosling.png', 'Im_PatrickDempsey.png', 'Im_DanielCraig.png', 'Im_GeorgeClooney.png', 'Im_HughJackman.png', 'Im_MattDamon.png', 'Im_JustinTimberlake.png', 'Im_ElijahWood.png', 'Im_OrlandoBloom.png'],same,0,0.41676770000049146,5,90.47619047619048,
ELHE1110,9,pos,fs,posfs_id14_im24.bmp_posfs_id14_im16.bmp,['Im_RobertDowneyJr.png', 'Im_RyanGosling.png', 'Im_PatrickDempsey.png', 'Im_DanielCraig.png', 'Im_GeorgeClooney.png', 'Im_HughJackman.png', 'Im_MattDamon.png', 'Im_JustinTimberlake.png', 'Im_ElijahWood.png', 'Im_OrlandoBloom.png'],same,1,0.42498780000096303,6,90.47619047619048,
ELHE1110,9,pos,0,pos0_id14_im18.bmp_pos0_id17_im14.bmp,['Im_RobertDowneyJr.png', 'Im_RyanGosling.png', 'Im_PatrickDempsey.png', 'Im_DanielCraig.png', 'Im_GeorgeClooney.png', 'Im_HughJackman.png', 'Im_MattDamon.png', 'Im_JustinTimberlake.png', 'Im_ElijahWood.png', 'Im_OrlandoBloom.png'],diff,1,0.7167005999999674,7,90.47619047619048,
ELHE1110,9,pos,150,pos150_id6_im19.bmp_pos150_id17_im9.bmp,['Im_RobertDowneyJr.png', 'Im_RyanGosling.png', 'Im_PatrickDempsey.png', 'Im_DanielCraig.png', 'Im_GeorgeClooney.png', 'Im_HughJackman.png', 'Im_MattDamon.png', 'Im_JustinTimberlake.png', 'Im_ElijahWood.png', 'Im_OrlandoBloom.png'],diff,1,0.42495939999935217,8,90.47619047619048,
ELHE1110,9,pos,30,pos30_id8_im21.bmp_pos30_id4_im7.bmp,['Im_RobertDowneyJr.png', 'Im_RyanGosling.png', 'Im_PatrickDempsey.png', 'Im_DanielCraig.png', 'Im_GeorgeClooney.png', 'Im_HughJackman.png', 'Im_MattDamon.png', 'Im_JustinTimberlake.png', 'Im_ElijahWood.png', 'Im_OrlandoBloom.png'],diff,1,0.44181399999979476,9,90.47619047619048,
ELHE1110,9,pos,120,pos120_id10_im1.bmp_pos120_id7_im14.bmp,['Im_RobertDowneyJr.png', 'Im_RyanGosling.png', 'Im_PatrickDempsey.png', 'Im_DanielCraig.png', 'Im_GeorgeClooney.png', 'Im_HughJackman.png', 'Im_MattDamon.png', 'Im_JustinTimberlake.png', 'Im_ElijahWood.png', 'Im_OrlandoBloom.png'],diff,1,0.4168184000009205,10,90.47619047619048,
ELHE1110,9,pos,60,pos60_id14_im18.bmp_pos60_id18_im11.bmp,['Im_RobertDowneyJr.png', 'Im_RyanGosling.png', 'Im_PatrickDempsey.png', 'Im_DanielCraig.png', 'Im_GeorgeClooney.png', 'Im_HughJackman.png', 'Im_MattDamon.png', 'Im_JustinTimberlake.png', 'Im_ElijahWood.png', 'Im_OrlandoBloom.png'],diff,1,0.4168150000004971,11,90.47619047619048,
ELHE1110,9,pos,90,pos90_id20_im30.bmp_pos90_id6_im18.bmp,['Im_RobertDowneyJr.png', 'Im_RyanGosling.png', 'Im_PatrickDempsey.png', 'Im_DanielCraig.png', 'Im_GeorgeClooney.png', 'Im_HughJackman.png', 'Im_MattDamon.png', 'Im_JustinTimberlake.png', 'Im_ElijahWood.png', 'Im_OrlandoBloom.png'],diff,1,0.4250738000009733,12,90.47619047619048,
