Sujet,Trial,Condition,Filter,Imname,Actor0,Actor1,Actor2,Actor3,Actor4,Actor5,Actor6,Actor7,Actor8,Actor9,Answer,Accu,RT,Score,Scoreperc, 
ELHE1110,train,inv,90,pos90_id7_im15.bmp_pos90_id7_im26.bmp,['Im_HughJackman.png', 'Im_RobertDowneyJr.png', 'Im_GeorgeClooney.png', 'Im_MattDamon.png', 'Im_DanielCraig.png', 'Im_ElijahWood.png', 'Im_OrlandoBloom.png', 'Im_JustinTimberlake.png', 'Im_RyanGosling.png', 'Im_PatrickDempsey.png'],same,1,1.1251591999999846,1,0,
ELHE1110,train,inv,90,pos90_id14_im24.bmp_pos90_id14_im16.bmp,['Im_HughJackman.png', 'Im_RobertDowneyJr.png', 'Im_GeorgeClooney.png', 'Im_MattDamon.png', 'Im_DanielCraig.png', 'Im_ElijahWood.png', 'Im_OrlandoBloom.png', 'Im_JustinTimberlake.png', 'Im_RyanGosling.png', 'Im_PatrickDempsey.png'],diff,0,0.483552799999984,1,0,
ELHE1110,train,inv,0,pos0_id16_im2.bmp_pos0_id16_im19.bmp,['Im_HughJackman.png', 'Im_RobertDowneyJr.png', 'Im_GeorgeClooney.png', 'Im_MattDamon.png', 'Im_DanielCraig.png', 'Im_ElijahWood.png', 'Im_OrlandoBloom.png', 'Im_JustinTimberlake.png', 'Im_RyanGosling.png', 'Im_PatrickDempsey.png'],same,1,0.4167822000000001,2,0,
ELHE1110,train,inv,150,pos150_id17_im9.bmp_pos150_id4_im20.bmp,['Im_HughJackman.png', 'Im_RobertDowneyJr.png', 'Im_GeorgeClooney.png', 'Im_MattDamon.png', 'Im_DanielCraig.png', 'Im_ElijahWood.png', 'Im_OrlandoBloom.png', 'Im_JustinTimberlake.png', 'Im_RyanGosling.png', 'Im_PatrickDempsey.png'],same,0,0.45004979999998795,2,0,
ELHE1110,train,inv,fs,posfs_id4_im7.bmp_posfs_id8_im21.bmp,['Im_HughJackman.png', 'Im_RobertDowneyJr.png', 'Im_GeorgeClooney.png', 'Im_MattDamon.png', 'Im_DanielCraig.png', 'Im_ElijahWood.png', 'Im_OrlandoBloom.png', 'Im_JustinTimberlake.png', 'Im_RyanGosling.png', 'Im_PatrickDempsey.png'],diff,1,0.41669129999999655,3,0,
ELHE1110,train,inv,30,pos30_id6_im18.bmp_pos30_id6_im12.bmp,['Im_HughJackman.png', 'Im_RobertDowneyJr.png', 'Im_GeorgeClooney.png', 'Im_MattDamon.png', 'Im_DanielCraig.png', 'Im_ElijahWood.png', 'Im_OrlandoBloom.png', 'Im_JustinTimberlake.png', 'Im_RyanGosling.png', 'Im_PatrickDempsey.png'],same,1,0.40832029999998554,4,0,
ELHE1110,train,inv,60,pos60_id17_im9.bmp_pos60_id6_im19.bmp,['Im_HughJackman.png', 'Im_RobertDowneyJr.png', 'Im_GeorgeClooney.png', 'Im_MattDamon.png', 'Im_DanielCraig.png', 'Im_ElijahWood.png', 'Im_OrlandoBloom.png', 'Im_JustinTimberlake.png', 'Im_RyanGosling.png', 'Im_PatrickDempsey.png'],same,0,0.5836505000000045,4,0,
ELHE1110,train,inv,120,pos120_id10_im18.bmp_pos120_id20_im30.bmp,['Im_HughJackman.png', 'Im_RobertDowneyJr.png', 'Im_GeorgeClooney.png', 'Im_MattDamon.png', 'Im_DanielCraig.png', 'Im_ElijahWood.png', 'Im_OrlandoBloom.png', 'Im_JustinTimberlake.png', 'Im_RyanGosling.png', 'Im_PatrickDempsey.png'],diff,1,0.817009000000013,5,0,
ELHE1110,train,inv,0,pos0_id17_im14.bmp_pos0_id4_im7.bmp,['Im_HughJackman.png', 'Im_RobertDowneyJr.png', 'Im_GeorgeClooney.png', 'Im_MattDamon.png', 'Im_DanielCraig.png', 'Im_ElijahWood.png', 'Im_OrlandoBloom.png', 'Im_JustinTimberlake.png', 'Im_RyanGosling.png', 'Im_PatrickDempsey.png'],same,0,0.6918985000000077,5,0,
ELHE1110,train,inv,120,pos120_id20_im12.bmp_pos120_id8_im20.bmp,['Im_HughJackman.png', 'Im_RobertDowneyJr.png', 'Im_GeorgeClooney.png', 'Im_MattDamon.png', 'Im_DanielCraig.png', 'Im_ElijahWood.png', 'Im_OrlandoBloom.png', 'Im_JustinTimberlake.png', 'Im_RyanGosling.png', 'Im_PatrickDempsey.png'],diff,1,0.3998613999999918,6,0,
ELHE1110,train,inv,fs,posfs_id8_im20.bmp_posfs_id8_im21.bmp,['Im_HughJackman.png', 'Im_RobertDowneyJr.png', 'Im_GeorgeClooney.png', 'Im_MattDamon.png', 'Im_DanielCraig.png', 'Im_ElijahWood.png', 'Im_OrlandoBloom.png', 'Im_JustinTimberlake.png', 'Im_RyanGosling.png', 'Im_PatrickDempsey.png'],same,1,0.43382520000000113,7,0,
ELHE1110,train,inv,60,pos60_id20_im3.bmp_pos60_id20_im12.bmp,['Im_HughJackman.png', 'Im_RobertDowneyJr.png', 'Im_GeorgeClooney.png', 'Im_MattDamon.png', 'Im_DanielCraig.png', 'Im_ElijahWood.png', 'Im_OrlandoBloom.png', 'Im_JustinTimberlake.png', 'Im_RyanGosling.png', 'Im_PatrickDempsey.png'],same,1,0.4167645999999934,8,0,
ELHE1110,train,inv,150,pos150_id18_im11.bmp_pos150_id18_im19.bmp,['Im_HughJackman.png', 'Im_RobertDowneyJr.png', 'Im_GeorgeClooney.png', 'Im_MattDamon.png', 'Im_DanielCraig.png', 'Im_ElijahWood.png', 'Im_OrlandoBloom.png', 'Im_JustinTimberlake.png', 'Im_RyanGosling.png', 'Im_PatrickDempsey.png'],same,1,0.41664950000000545,9,0,
ELHE1110,train,inv,30,pos30_id16_im2.bmp_pos30_id16_im3.bmp,['Im_HughJackman.png', 'Im_RobertDowneyJr.png', 'Im_GeorgeClooney.png', 'Im_MattDamon.png', 'Im_DanielCraig.png', 'Im_ElijahWood.png', 'Im_OrlandoBloom.png', 'Im_JustinTimberlake.png', 'Im_RyanGosling.png', 'Im_PatrickDempsey.png'],same,1,0.40835570000001553,10,0,
ELHE1110,train,inv,120,pos120_id8_im21.bmp_pos120_id18_im18.bmp,['Im_HughJackman.png', 'Im_RobertDowneyJr.png', 'Im_GeorgeClooney.png', 'Im_MattDamon.png', 'Im_DanielCraig.png', 'Im_ElijahWood.png', 'Im_OrlandoBloom.png', 'Im_JustinTimberlake.png', 'Im_RyanGosling.png', 'Im_PatrickDempsey.png'],diff,1,0.43378310000002784,11,0,
ELHE1110,train,inv,120,pos120_id14_im18.bmp_pos120_id14_im16.bmp,['Im_HughJackman.png', 'Im_RobertDowneyJr.png', 'Im_GeorgeClooney.png', 'Im_MattDamon.png', 'Im_DanielCraig.png', 'Im_ElijahWood.png', 'Im_OrlandoBloom.png', 'Im_JustinTimberlake.png', 'Im_RyanGosling.png', 'Im_PatrickDempsey.png'],same,1,0.5669943999999987,12,0,
ELHE1110,train,inv,60,pos60_id6_im12.bmp_pos60_id6_im19.bmp,['Im_HughJackman.png', 'Im_RobertDowneyJr.png', 'Im_GeorgeClooney.png', 'Im_MattDamon.png', 'Im_DanielCraig.png', 'Im_ElijahWood.png', 'Im_OrlandoBloom.png', 'Im_JustinTimberlake.png', 'Im_RyanGosling.png', 'Im_PatrickDempsey.png'],same,1,0.41683290000003126,13,0,
ELHE1110,train,inv,0,pos0_id10_im18.bmp_pos0_id10_im17.bmp,['Im_HughJackman.png', 'Im_RobertDowneyJr.png', 'Im_GeorgeClooney.png', 'Im_MattDamon.png', 'Im_DanielCraig.png', 'Im_ElijahWood.png', 'Im_OrlandoBloom.png', 'Im_JustinTimberlake.png', 'Im_RyanGosling.png', 'Im_PatrickDempsey.png'],same,1,0.39982109999999693,14,0,
ELHE1110,train,inv,0,pos0_id14_im18.bmp_pos0_id17_im14.bmp,['Im_HughJackman.png', 'Im_RobertDowneyJr.png', 'Im_GeorgeClooney.png', 'Im_MattDamon.png', 'Im_DanielCraig.png', 'Im_ElijahWood.png', 'Im_OrlandoBloom.png', 'Im_JustinTimberlake.png', 'Im_RyanGosling.png', 'Im_PatrickDempsey.png'],diff,1,0.6334943999999609,15,0,
ELHE1110,train,inv,150,pos150_id14_im24.bmp_pos150_id4_im15.bmp,['Im_HughJackman.png', 'Im_RobertDowneyJr.png', 'Im_GeorgeClooney.png', 'Im_MattDamon.png', 'Im_DanielCraig.png', 'Im_ElijahWood.png', 'Im_OrlandoBloom.png', 'Im_JustinTimberlake.png', 'Im_RyanGosling.png', 'Im_PatrickDempsey.png'],same,0,0.40832710000000816,15,0,
ELHE1110,train,inv,90,pos90_id6_im19.bmp_pos90_id17_im8.bmp,['Im_HughJackman.png', 'Im_RobertDowneyJr.png', 'Im_GeorgeClooney.png', 'Im_MattDamon.png', 'Im_DanielCraig.png', 'Im_ElijahWood.png', 'Im_OrlandoBloom.png', 'Im_JustinTimberlake.png', 'Im_RyanGosling.png', 'Im_PatrickDempsey.png'],diff,1,0.47808749999995825,16,0,
ELHE1110,train,inv,60,pos60_id18_im11.bmp_pos60_id14_im18.bmp,['Im_HughJackman.png', 'Im_RobertDowneyJr.png', 'Im_GeorgeClooney.png', 'Im_MattDamon.png', 'Im_DanielCraig.png', 'Im_ElijahWood.png', 'Im_OrlandoBloom.png', 'Im_JustinTimberlake.png', 'Im_RyanGosling.png', 'Im_PatrickDempsey.png'],same,0,0.7364499000000251,16,0,
ELHE1110,train,inv,150,pos150_id6_im19.bmp_pos150_id6_im18.bmp,['Im_HughJackman.png', 'Im_RobertDowneyJr.png', 'Im_GeorgeClooney.png', 'Im_MattDamon.png', 'Im_DanielCraig.png', 'Im_ElijahWood.png', 'Im_OrlandoBloom.png', 'Im_JustinTimberlake.png', 'Im_RyanGosling.png', 'Im_PatrickDempsey.png'],same,1,0.4374419999999759,17,0,
ELHE1110,train,inv,30,pos30_id18_im18.bmp_pos30_id18_im11.bmp,['Im_HughJackman.png', 'Im_RobertDowneyJr.png', 'Im_GeorgeClooney.png', 'Im_MattDamon.png', 'Im_DanielCraig.png', 'Im_ElijahWood.png', 'Im_OrlandoBloom.png', 'Im_JustinTimberlake.png', 'Im_RyanGosling.png', 'Im_PatrickDempsey.png'],same,1,0.5503929000000198,18,0,
ELHE1110,train,inv,fs,posfs_id7_im26.bmp_posfs_id16_im19.bmp,['Im_HughJackman.png', 'Im_RobertDowneyJr.png', 'Im_GeorgeClooney.png', 'Im_MattDamon.png', 'Im_DanielCraig.png', 'Im_ElijahWood.png', 'Im_OrlandoBloom.png', 'Im_JustinTimberlake.png', 'Im_RyanGosling.png', 'Im_PatrickDempsey.png'],diff,1,0.3997135000000185,19,0,
ELHE1110,train,inv,30,pos30_id18_im18.bmp_pos30_id8_im21.bmp,['Im_HughJackman.png', 'Im_RobertDowneyJr.png', 'Im_GeorgeClooney.png', 'Im_MattDamon.png', 'Im_DanielCraig.png', 'Im_ElijahWood.png', 'Im_OrlandoBloom.png', 'Im_JustinTimberlake.png', 'Im_RyanGosling.png', 'Im_PatrickDempsey.png'],diff,1,0.41684780000002775,20,0,
ELHE1110,train,inv,90,pos90_id17_im9.bmp_pos90_id4_im20.bmp,['Im_HughJackman.png', 'Im_RobertDowneyJr.png', 'Im_GeorgeClooney.png', 'Im_MattDamon.png', 'Im_DanielCraig.png', 'Im_ElijahWood.png', 'Im_OrlandoBloom.png', 'Im_JustinTimberlake.png', 'Im_RyanGosling.png', 'Im_PatrickDempsey.png'],diff,1,0.4165846000000215,21,0,
ELHE1110,train,inv,fs,posfs_id16_im3.bmp_posfs_id18_im19.bmp,['Im_HughJackman.png', 'Im_RobertDowneyJr.png', 'Im_GeorgeClooney.png', 'Im_MattDamon.png', 'Im_DanielCraig.png', 'Im_ElijahWood.png', 'Im_OrlandoBloom.png', 'Im_JustinTimberlake.png', 'Im_RyanGosling.png', 'Im_PatrickDempsey.png'],same,0,0.4083524000000125,21,0,
ELHE1110,train,neg,fs,negfs_id6_im19.bmp_negfs_id17_im9.bmp,['Im_HughJackman.png', 'Im_RobertDowneyJr.png', 'Im_GeorgeClooney.png', 'Im_MattDamon.png', 'Im_DanielCraig.png', 'Im_ElijahWood.png', 'Im_OrlandoBloom.png', 'Im_JustinTimberlake.png', 'Im_RyanGosling.png', 'Im_PatrickDempsey.png'],diff,1,0.5833434000000466,22,0,
ELHE1110,train,neg,150,neg150_id8_im13.bmp_neg150_id8_im21.bmp,['Im_HughJackman.png', 'Im_RobertDowneyJr.png', 'Im_GeorgeClooney.png', 'Im_MattDamon.png', 'Im_DanielCraig.png', 'Im_ElijahWood.png', 'Im_OrlandoBloom.png', 'Im_JustinTimberlake.png', 'Im_RyanGosling.png', 'Im_PatrickDempsey.png'],same,1,0.4167704000000185,23,0,
ELHE1110,train,neg,60,neg60_id16_im19.bmp_neg60_id7_im26.bmp,['Im_HughJackman.png', 'Im_RobertDowneyJr.png', 'Im_GeorgeClooney.png', 'Im_MattDamon.png', 'Im_DanielCraig.png', 'Im_ElijahWood.png', 'Im_OrlandoBloom.png', 'Im_JustinTimberlake.png', 'Im_RyanGosling.png', 'Im_PatrickDempsey.png'],diff,1,0.416656200000034,24,0,
ELHE1110,train,neg,120,neg120_id6_im12.bmp_neg120_id6_im19.bmp,['Im_HughJackman.png', 'Im_RobertDowneyJr.png', 'Im_GeorgeClooney.png', 'Im_MattDamon.png', 'Im_DanielCraig.png', 'Im_ElijahWood.png', 'Im_OrlandoBloom.png', 'Im_JustinTimberlake.png', 'Im_RyanGosling.png', 'Im_PatrickDempsey.png'],same,1,1.4500000999999543,25,0,
ELHE1110,train,neg,fs,negfs_id16_im2.bmp_negfs_id14_im16.bmp,['Im_HughJackman.png', 'Im_RobertDowneyJr.png', 'Im_GeorgeClooney.png', 'Im_MattDamon.png', 'Im_DanielCraig.png', 'Im_ElijahWood.png', 'Im_OrlandoBloom.png', 'Im_JustinTimberlake.png', 'Im_RyanGosling.png', 'Im_PatrickDempsey.png'],diff,1,0.4084474,26,0,
ELHE1110,train,neg,150,neg150_id18_im18.bmp_neg150_id18_im11.bmp,['Im_HughJackman.png', 'Im_RobertDowneyJr.png', 'Im_GeorgeClooney.png', 'Im_MattDamon.png', 'Im_DanielCraig.png', 'Im_ElijahWood.png', 'Im_OrlandoBloom.png', 'Im_JustinTimberlake.png', 'Im_RyanGosling.png', 'Im_PatrickDempsey.png'],same,1,0.40835500000002867,27,0,
ELHE1110,train,neg,90,neg90_id17_im14.bmp_neg90_id4_im7.bmp,['Im_HughJackman.png', 'Im_RobertDowneyJr.png', 'Im_GeorgeClooney.png', 'Im_MattDamon.png', 'Im_DanielCraig.png', 'Im_ElijahWood.png', 'Im_OrlandoBloom.png', 'Im_JustinTimberlake.png', 'Im_RyanGosling.png', 'Im_PatrickDempsey.png'],diff,1,0.733248500000002,28,0,
ELHE1110,train,neg,120,neg120_id6_im12.bmp_neg120_id18_im11.bmp,['Im_HughJackman.png', 'Im_RobertDowneyJr.png', 'Im_GeorgeClooney.png', 'Im_MattDamon.png', 'Im_DanielCraig.png', 'Im_ElijahWood.png', 'Im_OrlandoBloom.png', 'Im_JustinTimberlake.png', 'Im_RyanGosling.png', 'Im_PatrickDempsey.png'],diff,1,0.40838350000001356,29,0,
ELHE1110,train,neg,60,neg60_id8_im20.bmp_neg60_id8_im13.bmp,['Im_HughJackman.png', 'Im_RobertDowneyJr.png', 'Im_GeorgeClooney.png', 'Im_MattDamon.png', 'Im_DanielCraig.png', 'Im_ElijahWood.png', 'Im_OrlandoBloom.png', 'Im_JustinTimberlake.png', 'Im_RyanGosling.png', 'Im_PatrickDempsey.png'],same,1,0.8334745999999882,30,0,
ELHE1110,train,neg,30,neg30_id10_im1.bmp_neg30_id7_im14.bmp,['Im_HughJackman.png', 'Im_RobertDowneyJr.png', 'Im_GeorgeClooney.png', 'Im_MattDamon.png', 'Im_DanielCraig.png', 'Im_ElijahWood.png', 'Im_OrlandoBloom.png', 'Im_JustinTimberlake.png', 'Im_RyanGosling.png', 'Im_PatrickDempsey.png'],diff,1,0.40827409999997144,31,0,
ELHE1110,train,neg,90,neg90_id14_im18.bmp_neg90_id17_im14.bmp,['Im_HughJackman.png', 'Im_RobertDowneyJr.png', 'Im_GeorgeClooney.png', 'Im_MattDamon.png', 'Im_DanielCraig.png', 'Im_ElijahWood.png', 'Im_OrlandoBloom.png', 'Im_JustinTimberlake.png', 'Im_RyanGosling.png', 'Im_PatrickDempsey.png'],diff,1,0.416839600000003,32,0,
ELHE1110,train,neg,0,neg0_id10_im1.bmp_neg0_id10_im18.bmp,['Im_HughJackman.png', 'Im_RobertDowneyJr.png', 'Im_GeorgeClooney.png', 'Im_MattDamon.png', 'Im_DanielCraig.png', 'Im_ElijahWood.png', 'Im_OrlandoBloom.png', 'Im_JustinTimberlake.png', 'Im_RyanGosling.png', 'Im_PatrickDempsey.png'],same,1,0.6087013999999726,33,0,
ELHE1110,train,neg,0,neg0_id20_im30.bmp_neg0_id10_im18.bmp,['Im_HughJackman.png', 'Im_RobertDowneyJr.png', 'Im_GeorgeClooney.png', 'Im_MattDamon.png', 'Im_DanielCraig.png', 'Im_ElijahWood.png', 'Im_OrlandoBloom.png', 'Im_JustinTimberlake.png', 'Im_RyanGosling.png', 'Im_PatrickDempsey.png'],diff,1,0.40039100000001326,34,0,
ELHE1110,train,neg,30,neg30_id16_im2.bmp_neg30_id14_im16.bmp,['Im_HughJackman.png', 'Im_RobertDowneyJr.png', 'Im_GeorgeClooney.png', 'Im_MattDamon.png', 'Im_DanielCraig.png', 'Im_ElijahWood.png', 'Im_OrlandoBloom.png', 'Im_JustinTimberlake.png', 'Im_RyanGosling.png', 'Im_PatrickDempsey.png'],diff,1,0.4332023000000049,35,0,
ELHE1110,train,pos,90,pos90_id10_im1.bmp_pos90_id7_im14.bmp,['Im_HughJackman.png', 'Im_RobertDowneyJr.png', 'Im_GeorgeClooney.png', 'Im_MattDamon.png', 'Im_DanielCraig.png', 'Im_ElijahWood.png', 'Im_OrlandoBloom.png', 'Im_JustinTimberlake.png', 'Im_RyanGosling.png', 'Im_PatrickDempsey.png'],diff,1,0.4167666999999824,1,83.33333333333333,
ELHE1110,train,pos,30,pos30_id18_im18.bmp_pos30_id18_im11.bmp,['Im_HughJackman.png', 'Im_RobertDowneyJr.png', 'Im_GeorgeClooney.png', 'Im_MattDamon.png', 'Im_DanielCraig.png', 'Im_ElijahWood.png', 'Im_OrlandoBloom.png', 'Im_JustinTimberlake.png', 'Im_RyanGosling.png', 'Im_PatrickDempsey.png'],same,1,0.4084029999999643,2,83.33333333333333,
ELHE1110,train,pos,120,pos120_id7_im15.bmp_pos120_id20_im3.bmp,['Im_HughJackman.png', 'Im_RobertDowneyJr.png', 'Im_GeorgeClooney.png', 'Im_MattDamon.png', 'Im_DanielCraig.png', 'Im_ElijahWood.png', 'Im_OrlandoBloom.png', 'Im_JustinTimberlake.png', 'Im_RyanGosling.png', 'Im_PatrickDempsey.png'],diff,1,0.5004660999999828,3,83.33333333333333,
ELHE1110,train,pos,fs,posfs_id18_im19.bmp_posfs_id18_im11.bmp,['Im_HughJackman.png', 'Im_RobertDowneyJr.png', 'Im_GeorgeClooney.png', 'Im_MattDamon.png', 'Im_DanielCraig.png', 'Im_ElijahWood.png', 'Im_OrlandoBloom.png', 'Im_JustinTimberlake.png', 'Im_RyanGosling.png', 'Im_PatrickDempsey.png'],same,1,0.41659740000000056,4,83.33333333333333,
ELHE1110,train,pos,30,pos30_id20_im12.bmp_pos30_id8_im20.bmp,['Im_HughJackman.png', 'Im_RobertDowneyJr.png', 'Im_GeorgeClooney.png', 'Im_MattDamon.png', 'Im_DanielCraig.png', 'Im_ElijahWood.png', 'Im_OrlandoBloom.png', 'Im_JustinTimberlake.png', 'Im_RyanGosling.png', 'Im_PatrickDempsey.png'],diff,1,0.40839119999998275,5,83.33333333333333,
ELHE1110,train,pos,150,pos150_id17_im9.bmp_pos150_id4_im20.bmp,['Im_HughJackman.png', 'Im_RobertDowneyJr.png', 'Im_GeorgeClooney.png', 'Im_MattDamon.png', 'Im_DanielCraig.png', 'Im_ElijahWood.png', 'Im_OrlandoBloom.png', 'Im_JustinTimberlake.png', 'Im_RyanGosling.png', 'Im_PatrickDempsey.png'],diff,1,0.4002581000000305,6,83.33333333333333,
ELHE1110,train,pos,60,pos60_id18_im18.bmp_pos60_id8_im21.bmp,['Im_HughJackman.png', 'Im_RobertDowneyJr.png', 'Im_GeorgeClooney.png', 'Im_MattDamon.png', 'Im_DanielCraig.png', 'Im_ElijahWood.png', 'Im_OrlandoBloom.png', 'Im_JustinTimberlake.png', 'Im_RyanGosling.png', 'Im_PatrickDempsey.png'],diff,1,0.41644320000000334,7,83.33333333333333,
ELHE1110,train,pos,0,pos0_id4_im20.bmp_pos0_id10_im17.bmp,['Im_HughJackman.png', 'Im_RobertDowneyJr.png', 'Im_GeorgeClooney.png', 'Im_MattDamon.png', 'Im_DanielCraig.png', 'Im_ElijahWood.png', 'Im_OrlandoBloom.png', 'Im_JustinTimberlake.png', 'Im_RyanGosling.png', 'Im_PatrickDempsey.png'],diff,1,0.41663160000001653,8,83.33333333333333,
ELHE1110,train,pos,90,pos90_id16_im3.bmp_pos90_id18_im19.bmp,['Im_HughJackman.png', 'Im_RobertDowneyJr.png', 'Im_GeorgeClooney.png', 'Im_MattDamon.png', 'Im_DanielCraig.png', 'Im_ElijahWood.png', 'Im_OrlandoBloom.png', 'Im_JustinTimberlake.png', 'Im_RyanGosling.png', 'Im_PatrickDempsey.png'],diff,1,0.4168152999999961,9,83.33333333333333,
ELHE1110,train,pos,120,pos120_id18_im11.bmp_pos120_id18_im18.bmp,['Im_HughJackman.png', 'Im_RobertDowneyJr.png', 'Im_GeorgeClooney.png', 'Im_MattDamon.png', 'Im_DanielCraig.png', 'Im_ElijahWood.png', 'Im_OrlandoBloom.png', 'Im_JustinTimberlake.png', 'Im_RyanGosling.png', 'Im_PatrickDempsey.png'],same,1,0.4165896999999745,10,83.33333333333333,
ELHE1110,train,pos,0,pos0_id20_im12.bmp_pos0_id16_im19.bmp,['Im_HughJackman.png', 'Im_RobertDowneyJr.png', 'Im_GeorgeClooney.png', 'Im_MattDamon.png', 'Im_DanielCraig.png', 'Im_ElijahWood.png', 'Im_OrlandoBloom.png', 'Im_JustinTimberlake.png', 'Im_RyanGosling.png', 'Im_PatrickDempsey.png'],diff,1,0.4166556000000128,11,83.33333333333333,
ELHE1110,train,pos,150,pos150_id6_im12.bmp_pos150_id6_im19.bmp,['Im_HughJackman.png', 'Im_RobertDowneyJr.png', 'Im_GeorgeClooney.png', 'Im_MattDamon.png', 'Im_DanielCraig.png', 'Im_ElijahWood.png', 'Im_OrlandoBloom.png', 'Im_JustinTimberlake.png', 'Im_RyanGosling.png', 'Im_PatrickDempsey.png'],same,1,0.5833202000000028,12,83.33333333333333,
ELHE1110,train,pos,fs,posfs_id7_im15.bmp_posfs_id7_im14.bmp,['Im_HughJackman.png', 'Im_RobertDowneyJr.png', 'Im_GeorgeClooney.png', 'Im_MattDamon.png', 'Im_DanielCraig.png', 'Im_ElijahWood.png', 'Im_OrlandoBloom.png', 'Im_JustinTimberlake.png', 'Im_RyanGosling.png', 'Im_PatrickDempsey.png'],diff,0,0.4166604999999777,12,83.33333333333333,
ELHE1110,train,pos,60,pos60_id14_im18.bmp_pos60_id14_im16.bmp,['Im_HughJackman.png', 'Im_RobertDowneyJr.png', 'Im_GeorgeClooney.png', 'Im_MattDamon.png', 'Im_DanielCraig.png', 'Im_ElijahWood.png', 'Im_OrlandoBloom.png', 'Im_JustinTimberlake.png', 'Im_RyanGosling.png', 'Im_PatrickDempsey.png'],same,1,0.41680959999996503,13,83.33333333333333,
ELHE1110,train,pos,0,pos0_id20_im12.bmp_pos0_id8_im20.bmp,['Im_HughJackman.png', 'Im_RobertDowneyJr.png', 'Im_GeorgeClooney.png', 'Im_MattDamon.png', 'Im_DanielCraig.png', 'Im_ElijahWood.png', 'Im_OrlandoBloom.png', 'Im_JustinTimberlake.png', 'Im_RyanGosling.png', 'Im_PatrickDempsey.png'],diff,1,0.4084861000000046,14,83.33333333333333,
ELHE1110,train,pos,30,pos30_id8_im13.bmp_pos30_id8_im21.bmp,['Im_HughJackman.png', 'Im_RobertDowneyJr.png', 'Im_GeorgeClooney.png', 'Im_MattDamon.png', 'Im_DanielCraig.png', 'Im_ElijahWood.png', 'Im_OrlandoBloom.png', 'Im_JustinTimberlake.png', 'Im_RyanGosling.png', 'Im_PatrickDempsey.png'],same,1,0.40820039999999835,15,83.33333333333333,
ELHE1110,train,pos,60,pos60_id16_im19.bmp_pos60_id20_im12.bmp,['Im_HughJackman.png', 'Im_RobertDowneyJr.png', 'Im_GeorgeClooney.png', 'Im_MattDamon.png', 'Im_DanielCraig.png', 'Im_ElijahWood.png', 'Im_OrlandoBloom.png', 'Im_JustinTimberlake.png', 'Im_RyanGosling.png', 'Im_PatrickDempsey.png'],diff,1,0.41687130000002526,16,83.33333333333333,
ELHE1110,train,pos,60,pos60_id10_im17.bmp_pos60_id10_im18.bmp,['Im_HughJackman.png', 'Im_RobertDowneyJr.png', 'Im_GeorgeClooney.png', 'Im_MattDamon.png', 'Im_DanielCraig.png', 'Im_ElijahWood.png', 'Im_OrlandoBloom.png', 'Im_JustinTimberlake.png', 'Im_RyanGosling.png', 'Im_PatrickDempsey.png'],same,1,0.4164764999999875,17,83.33333333333333,
ELHE1110,train,pos,90,pos90_id8_im20.bmp_pos90_id20_im12.bmp,['Im_HughJackman.png', 'Im_RobertDowneyJr.png', 'Im_GeorgeClooney.png', 'Im_MattDamon.png', 'Im_DanielCraig.png', 'Im_ElijahWood.png', 'Im_OrlandoBloom.png', 'Im_JustinTimberlake.png', 'Im_RyanGosling.png', 'Im_PatrickDempsey.png'],diff,1,0.41674590000002354,18,83.33333333333333,
ELHE1110,train,pos,150,pos150_id18_im18.bmp_pos150_id8_im21.bmp,['Im_HughJackman.png', 'Im_RobertDowneyJr.png', 'Im_GeorgeClooney.png', 'Im_MattDamon.png', 'Im_DanielCraig.png', 'Im_ElijahWood.png', 'Im_OrlandoBloom.png', 'Im_JustinTimberlake.png', 'Im_RyanGosling.png', 'Im_PatrickDempsey.png'],diff,1,0.4168321000000219,19,83.33333333333333,
ELHE1110,train,pos,fs,posfs_id7_im26.bmp_posfs_id20_im3.bmp,['Im_HughJackman.png', 'Im_RobertDowneyJr.png', 'Im_GeorgeClooney.png', 'Im_MattDamon.png', 'Im_DanielCraig.png', 'Im_ElijahWood.png', 'Im_OrlandoBloom.png', 'Im_JustinTimberlake.png', 'Im_RyanGosling.png', 'Im_PatrickDempsey.png'],diff,1,0.40838510000003225,20,83.33333333333333,
ELHE1110,train,pos,90,pos90_id10_im17.bmp_pos90_id4_im20.bmp,['Im_HughJackman.png', 'Im_RobertDowneyJr.png', 'Im_GeorgeClooney.png', 'Im_MattDamon.png', 'Im_DanielCraig.png', 'Im_ElijahWood.png', 'Im_OrlandoBloom.png', 'Im_JustinTimberlake.png', 'Im_RyanGosling.png', 'Im_PatrickDempsey.png'],diff,1,0.416733000000022,21,83.33333333333333,
ELHE1110,train,pos,0,pos0_id4_im15.bmp_pos0_id10_im1.bmp,['Im_HughJackman.png', 'Im_RobertDowneyJr.png', 'Im_GeorgeClooney.png', 'Im_MattDamon.png', 'Im_DanielCraig.png', 'Im_ElijahWood.png', 'Im_OrlandoBloom.png', 'Im_JustinTimberlake.png', 'Im_RyanGosling.png', 'Im_PatrickDempsey.png'],diff,1,0.40844779999997627,22,83.33333333333333,
ELHE1110,train,pos,120,pos120_id8_im13.bmp_pos120_id6_im18.bmp,['Im_HughJackman.png', 'Im_RobertDowneyJr.png', 'Im_GeorgeClooney.png', 'Im_MattDamon.png', 'Im_DanielCraig.png', 'Im_ElijahWood.png', 'Im_OrlandoBloom.png', 'Im_JustinTimberlake.png', 'Im_RyanGosling.png', 'Im_PatrickDempsey.png'],diff,1,0.40837659999999687,23,83.33333333333333,
ELHE1110,train,pos,150,pos150_id10_im18.bmp_pos150_id14_im24.bmp,['Im_HughJackman.png', 'Im_RobertDowneyJr.png', 'Im_GeorgeClooney.png', 'Im_MattDamon.png', 'Im_DanielCraig.png', 'Im_ElijahWood.png', 'Im_OrlandoBloom.png', 'Im_JustinTimberlake.png', 'Im_RyanGosling.png', 'Im_PatrickDempsey.png'],diff,1,0.40851150000003145,24,83.33333333333333,
ELHE1110,train,pos,30,pos30_id7_im15.bmp_pos30_id7_im26.bmp,['Im_HughJackman.png', 'Im_RobertDowneyJr.png', 'Im_GeorgeClooney.png', 'Im_MattDamon.png', 'Im_DanielCraig.png', 'Im_ElijahWood.png', 'Im_OrlandoBloom.png', 'Im_JustinTimberlake.png', 'Im_RyanGosling.png', 'Im_PatrickDempsey.png'],same,1,0.50011760000001,25,83.33333333333333,
ELHE1110,train,pos,120,pos120_id10_im1.bmp_pos120_id10_im18.bmp,['Im_HughJackman.png', 'Im_RobertDowneyJr.png', 'Im_GeorgeClooney.png', 'Im_MattDamon.png', 'Im_DanielCraig.png', 'Im_ElijahWood.png', 'Im_OrlandoBloom.png', 'Im_JustinTimberlake.png', 'Im_RyanGosling.png', 'Im_PatrickDempsey.png'],same,1,0.41670329999999467,26,83.33333333333333,
ELHE1110,train,pos,fs,posfs_id20_im12.bmp_posfs_id20_im30.bmp,['Im_HughJackman.png', 'Im_RobertDowneyJr.png', 'Im_GeorgeClooney.png', 'Im_MattDamon.png', 'Im_DanielCraig.png', 'Im_ElijahWood.png', 'Im_OrlandoBloom.png', 'Im_JustinTimberlake.png', 'Im_RyanGosling.png', 'Im_PatrickDempsey.png'],same,1,0.4169716999999764,27,83.33333333333333,
ELHE1110,train,inv,150,pos150_id20_im12.bmp_pos150_id8_im20.bmp,['Im_HughJackman.png', 'Im_RobertDowneyJr.png', 'Im_GeorgeClooney.png', 'Im_MattDamon.png', 'Im_DanielCraig.png', 'Im_ElijahWood.png', 'Im_OrlandoBloom.png', 'Im_JustinTimberlake.png', 'Im_RyanGosling.png', 'Im_PatrickDempsey.png'],diff,1,0.4169446000000221,28,83.33333333333333,
ELHE1110,train,inv,fs,posfs_id8_im20.bmp_posfs_id18_im18.bmp,['Im_HughJackman.png', 'Im_RobertDowneyJr.png', 'Im_GeorgeClooney.png', 'Im_MattDamon.png', 'Im_DanielCraig.png', 'Im_ElijahWood.png', 'Im_OrlandoBloom.png', 'Im_JustinTimberlake.png', 'Im_RyanGosling.png', 'Im_PatrickDempsey.png'],diff,1,0.4082778000000076,29,83.33333333333333,
ELHE1110,train,inv,fs,posfs_id6_im12.bmp_posfs_id18_im11.bmp,['Im_HughJackman.png', 'Im_RobertDowneyJr.png', 'Im_GeorgeClooney.png', 'Im_MattDamon.png', 'Im_DanielCraig.png', 'Im_ElijahWood.png', 'Im_OrlandoBloom.png', 'Im_JustinTimberlake.png', 'Im_RyanGosling.png', 'Im_PatrickDempsey.png'],diff,1,0.39968690000000606,30,83.33333333333333,
ELHE1110,train,inv,90,pos90_id10_im18.bmp_pos90_id10_im1.bmp,['Im_HughJackman.png', 'Im_RobertDowneyJr.png', 'Im_GeorgeClooney.png', 'Im_MattDamon.png', 'Im_DanielCraig.png', 'Im_ElijahWood.png', 'Im_OrlandoBloom.png', 'Im_JustinTimberlake.png', 'Im_RyanGosling.png', 'Im_PatrickDempsey.png'],same,1,0.7667400999999927,31,83.33333333333333,
ELHE1110,train,inv,30,pos30_id10_im1.bmp_pos30_id10_im18.bmp,['Im_HughJackman.png', 'Im_RobertDowneyJr.png', 'Im_GeorgeClooney.png', 'Im_MattDamon.png', 'Im_DanielCraig.png', 'Im_ElijahWood.png', 'Im_OrlandoBloom.png', 'Im_JustinTimberlake.png', 'Im_RyanGosling.png', 'Im_PatrickDempsey.png'],same,1,0.8331909999999993,32,83.33333333333333,
ELHE1110,train,inv,150,pos150_id16_im2.bmp_pos150_id14_im16.bmp,['Im_HughJackman.png', 'Im_RobertDowneyJr.png', 'Im_GeorgeClooney.png', 'Im_MattDamon.png', 'Im_DanielCraig.png', 'Im_ElijahWood.png', 'Im_OrlandoBloom.png', 'Im_JustinTimberlake.png', 'Im_RyanGosling.png', 'Im_PatrickDempsey.png'],diff,1,0.39987400000001116,33,83.33333333333333,
ELHE1110,train,inv,120,pos120_id4_im7.bmp_pos120_id8_im21.bmp,['Im_HughJackman.png', 'Im_RobertDowneyJr.png', 'Im_GeorgeClooney.png', 'Im_MattDamon.png', 'Im_DanielCraig.png', 'Im_ElijahWood.png', 'Im_OrlandoBloom.png', 'Im_JustinTimberlake.png', 'Im_RyanGosling.png', 'Im_PatrickDempsey.png'],diff,1,0.4085260000000517,34,83.33333333333333,
ELHE1110,train,inv,90,pos90_id18_im18.bmp_pos90_id8_im21.bmp,['Im_HughJackman.png', 'Im_RobertDowneyJr.png', 'Im_GeorgeClooney.png', 'Im_MattDamon.png', 'Im_DanielCraig.png', 'Im_ElijahWood.png', 'Im_OrlandoBloom.png', 'Im_JustinTimberlake.png', 'Im_RyanGosling.png', 'Im_PatrickDempsey.png'],diff,1,0.4168607999999949,35,83.33333333333333,
ELHE1110,train,inv,30,pos30_id6_im19.bmp_pos30_id6_im12.bmp,['Im_HughJackman.png', 'Im_RobertDowneyJr.png', 'Im_GeorgeClooney.png', 'Im_MattDamon.png', 'Im_DanielCraig.png', 'Im_ElijahWood.png', 'Im_OrlandoBloom.png', 'Im_JustinTimberlake.png', 'Im_RyanGosling.png', 'Im_PatrickDempsey.png'],same,1,0.4000737000000072,36,83.33333333333333,
ELHE1110,train,inv,0,pos0_id20_im12.bmp_pos0_id20_im3.bmp,['Im_HughJackman.png', 'Im_RobertDowneyJr.png', 'Im_GeorgeClooney.png', 'Im_MattDamon.png', 'Im_DanielCraig.png', 'Im_ElijahWood.png', 'Im_OrlandoBloom.png', 'Im_JustinTimberlake.png', 'Im_RyanGosling.png', 'Im_PatrickDempsey.png'],same,1,0.41657150000003185,37,83.33333333333333,
ELHE1110,train,inv,60,pos60_id4_im20.bmp_pos60_id4_im7.bmp,['Im_HughJackman.png', 'Im_RobertDowneyJr.png', 'Im_GeorgeClooney.png', 'Im_MattDamon.png', 'Im_DanielCraig.png', 'Im_ElijahWood.png', 'Im_OrlandoBloom.png', 'Im_JustinTimberlake.png', 'Im_RyanGosling.png', 'Im_PatrickDempsey.png'],same,1,0.5833608000000368,38,83.33333333333333,
ELHE1110,train,inv,0,pos0_id17_im8.bmp_pos0_id17_im9.bmp,['Im_HughJackman.png', 'Im_RobertDowneyJr.png', 'Im_GeorgeClooney.png', 'Im_MattDamon.png', 'Im_DanielCraig.png', 'Im_ElijahWood.png', 'Im_OrlandoBloom.png', 'Im_JustinTimberlake.png', 'Im_RyanGosling.png', 'Im_PatrickDempsey.png'],same,1,0.39968070000008993,39,83.33333333333333,
ELHE1110,train,inv,60,pos60_id18_im11.bmp_pos60_id18_im19.bmp,['Im_HughJackman.png', 'Im_RobertDowneyJr.png', 'Im_GeorgeClooney.png', 'Im_MattDamon.png', 'Im_DanielCraig.png', 'Im_ElijahWood.png', 'Im_OrlandoBloom.png', 'Im_JustinTimberlake.png', 'Im_RyanGosling.png', 'Im_PatrickDempsey.png'],same,1,0.7833537000000206,40,83.33333333333333,
ELHE1110,train,inv,120,pos120_id18_im19.bmp_pos120_id14_im16.bmp,['Im_HughJackman.png', 'Im_RobertDowneyJr.png', 'Im_GeorgeClooney.png', 'Im_MattDamon.png', 'Im_DanielCraig.png', 'Im_ElijahWood.png', 'Im_OrlandoBloom.png', 'Im_JustinTimberlake.png', 'Im_RyanGosling.png', 'Im_PatrickDempsey.png'],diff,1,0.41662429999996675,41,83.33333333333333,
ELHE1110,0,pos,60,pos60_id4_im7.bmp_pos60_id4_im20.bmp,['Im_HughJackman.png', 'Im_RobertDowneyJr.png', 'Im_GeorgeClooney.png', 'Im_MattDamon.png', 'Im_DanielCraig.png', 'Im_ElijahWood.png', 'Im_OrlandoBloom.png', 'Im_JustinTimberlake.png', 'Im_RyanGosling.png', 'Im_PatrickDempsey.png'],same,1,0.40838320000000294,1,0,
ELHE1110,0,pos,0,pos0_id4_im7.bmp_pos0_id17_im14.bmp,['Im_HughJackman.png', 'Im_RobertDowneyJr.png', 'Im_GeorgeClooney.png', 'Im_MattDamon.png', 'Im_DanielCraig.png', 'Im_ElijahWood.png', 'Im_OrlandoBloom.png', 'Im_JustinTimberlake.png', 'Im_RyanGosling.png', 'Im_PatrickDempsey.png'],diff,1,0.4000680999999986,2,0,
ELHE1110,0,pos,30,pos30_id17_im14.bmp_pos30_id17_im8.bmp,['Im_HughJackman.png', 'Im_RobertDowneyJr.png', 'Im_GeorgeClooney.png', 'Im_MattDamon.png', 'Im_DanielCraig.png', 'Im_ElijahWood.png', 'Im_OrlandoBloom.png', 'Im_JustinTimberlake.png', 'Im_RyanGosling.png', 'Im_PatrickDempsey.png'],same,1,0.40850399999999354,3,0,
ELHE1110,0,pos,150,pos150_id16_im3.bmp_pos150_id16_im2.bmp,['Im_HughJackman.png', 'Im_RobertDowneyJr.png', 'Im_GeorgeClooney.png', 'Im_MattDamon.png', 'Im_DanielCraig.png', 'Im_ElijahWood.png', 'Im_OrlandoBloom.png', 'Im_JustinTimberlake.png', 'Im_RyanGosling.png', 'Im_PatrickDempsey.png'],same,1,0.4000786000000289,4,0,
ELHE1110,0,pos,fs,posfs_id17_im14.bmp_posfs_id4_im7.bmp,['Im_HughJackman.png', 'Im_RobertDowneyJr.png', 'Im_GeorgeClooney.png', 'Im_MattDamon.png', 'Im_DanielCraig.png', 'Im_ElijahWood.png', 'Im_OrlandoBloom.png', 'Im_JustinTimberlake.png', 'Im_RyanGosling.png', 'Im_PatrickDempsey.png'],diff,1,0.40849469999989196,5,0,
ELHE1110,0,pos,120,pos120_id17_im9.bmp_pos120_id4_im20.bmp,['Im_HughJackman.png', 'Im_RobertDowneyJr.png', 'Im_GeorgeClooney.png', 'Im_MattDamon.png', 'Im_DanielCraig.png', 'Im_ElijahWood.png', 'Im_OrlandoBloom.png', 'Im_JustinTimberlake.png', 'Im_RyanGosling.png', 'Im_PatrickDempsey.png'],diff,1,0.40817550000008396,6,0,
ELHE1110,0,pos,0,pos0_id16_im19.bmp_pos0_id16_im3.bmp,['Im_HughJackman.png', 'Im_RobertDowneyJr.png', 'Im_GeorgeClooney.png', 'Im_MattDamon.png', 'Im_DanielCraig.png', 'Im_ElijahWood.png', 'Im_OrlandoBloom.png', 'Im_JustinTimberlake.png', 'Im_RyanGosling.png', 'Im_PatrickDempsey.png'],same,1,0.4000773999999865,7,0,
ELHE1110,0,pos,150,pos150_id4_im15.bmp_pos150_id10_im1.bmp,['Im_HughJackman.png', 'Im_RobertDowneyJr.png', 'Im_GeorgeClooney.png', 'Im_MattDamon.png', 'Im_DanielCraig.png', 'Im_ElijahWood.png', 'Im_OrlandoBloom.png', 'Im_JustinTimberlake.png', 'Im_RyanGosling.png', 'Im_PatrickDempsey.png'],diff,1,1.6168825999999399,8,0,
ELHE1110,0,pos,60,pos60_id18_im19.bmp_pos60_id16_im3.bmp,['Im_HughJackman.png', 'Im_RobertDowneyJr.png', 'Im_GeorgeClooney.png', 'Im_MattDamon.png', 'Im_DanielCraig.png', 'Im_ElijahWood.png', 'Im_OrlandoBloom.png', 'Im_JustinTimberlake.png', 'Im_RyanGosling.png', 'Im_PatrickDempsey.png'],diff,1,0.458624699999973,9,0,
ELHE1110,0,pos,30,pos30_id20_im3.bmp_pos30_id7_im26.bmp,['Im_HughJackman.png', 'Im_RobertDowneyJr.png', 'Im_GeorgeClooney.png', 'Im_MattDamon.png', 'Im_DanielCraig.png', 'Im_ElijahWood.png', 'Im_OrlandoBloom.png', 'Im_JustinTimberlake.png', 'Im_RyanGosling.png', 'Im_PatrickDempsey.png'],diff,1,0.4085046999999804,10,0,
ELHE1110,0,pos,120,pos120_id8_im21.bmp_pos120_id8_im13.bmp,['Im_HughJackman.png', 'Im_RobertDowneyJr.png', 'Im_GeorgeClooney.png', 'Im_MattDamon.png', 'Im_DanielCraig.png', 'Im_ElijahWood.png', 'Im_OrlandoBloom.png', 'Im_JustinTimberlake.png', 'Im_RyanGosling.png', 'Im_PatrickDempsey.png'],same,1,0.40006479999999556,11,0,
ELHE1110,0,pos,90,pos90_id16_im2.bmp_pos90_id14_im16.bmp,['Im_HughJackman.png', 'Im_RobertDowneyJr.png', 'Im_GeorgeClooney.png', 'Im_MattDamon.png', 'Im_DanielCraig.png', 'Im_ElijahWood.png', 'Im_OrlandoBloom.png', 'Im_JustinTimberlake.png', 'Im_RyanGosling.png', 'Im_PatrickDempsey.png'],diff,1,0.3998275000000149,12,0,
ELHE1110,0,pos,fs,posfs_id4_im20.bmp_posfs_id4_im7.bmp,['Im_HughJackman.png', 'Im_RobertDowneyJr.png', 'Im_GeorgeClooney.png', 'Im_MattDamon.png', 'Im_DanielCraig.png', 'Im_ElijahWood.png', 'Im_OrlandoBloom.png', 'Im_JustinTimberlake.png', 'Im_RyanGosling.png', 'Im_PatrickDempsey.png'],same,1,0.5085618000000522,13,0,
ELHE1110,0,pos,90,pos90_id6_im12.bmp_pos90_id6_im18.bmp,['Im_HughJackman.png', 'Im_RobertDowneyJr.png', 'Im_GeorgeClooney.png', 'Im_MattDamon.png', 'Im_DanielCraig.png', 'Im_ElijahWood.png', 'Im_OrlandoBloom.png', 'Im_JustinTimberlake.png', 'Im_RyanGosling.png', 'Im_PatrickDempsey.png'],same,1,0.40821100000005117,14,0,
ELHE1110,1,inv,30,pos30_id6_im19.bmp_pos30_id17_im8.bmp,['Im_HughJackman.png', 'Im_RobertDowneyJr.png', 'Im_GeorgeClooney.png', 'Im_MattDamon.png', 'Im_DanielCraig.png', 'Im_ElijahWood.png', 'Im_OrlandoBloom.png', 'Im_JustinTimberlake.png', 'Im_RyanGosling.png', 'Im_PatrickDempsey.png'],same,0,0.8834971999999652,14,0,
ELHE1110,1,inv,90,pos90_id6_im12.bmp_pos90_id7_im14.bmp,['Im_HughJackman.png', 'Im_RobertDowneyJr.png', 'Im_GeorgeClooney.png', 'Im_MattDamon.png', 'Im_DanielCraig.png', 'Im_ElijahWood.png', 'Im_OrlandoBloom.png', 'Im_JustinTimberlake.png', 'Im_RyanGosling.png', 'Im_PatrickDempsey.png'],diff,1,0.42527849999999034,15,0,
ELHE1110,1,inv,120,pos120_id18_im18.bmp_pos120_id8_im20.bmp,['Im_HughJackman.png', 'Im_RobertDowneyJr.png', 'Im_GeorgeClooney.png', 'Im_MattDamon.png', 'Im_DanielCraig.png', 'Im_ElijahWood.png', 'Im_OrlandoBloom.png', 'Im_JustinTimberlake.png', 'Im_RyanGosling.png', 'Im_PatrickDempsey.png'],diff,1,0.4250676999999996,16,0,
ELHE1110,1,inv,120,pos120_id20_im3.bmp_pos120_id7_im15.bmp,['Im_HughJackman.png', 'Im_RobertDowneyJr.png', 'Im_GeorgeClooney.png', 'Im_MattDamon.png', 'Im_DanielCraig.png', 'Im_ElijahWood.png', 'Im_OrlandoBloom.png', 'Im_JustinTimberlake.png', 'Im_RyanGosling.png', 'Im_PatrickDempsey.png'],diff,1,0.42503880000003846,17,0,
ELHE1110,1,inv,30,pos30_id17_im14.bmp_pos30_id17_im8.bmp,['Im_HughJackman.png', 'Im_RobertDowneyJr.png', 'Im_GeorgeClooney.png', 'Im_MattDamon.png', 'Im_DanielCraig.png', 'Im_ElijahWood.png', 'Im_OrlandoBloom.png', 'Im_JustinTimberlake.png', 'Im_RyanGosling.png', 'Im_PatrickDempsey.png'],same,1,0.8001534999999649,18,0,
ELHE1110,1,inv,fs,posfs_id20_im3.bmp_posfs_id7_im15.bmp,['Im_HughJackman.png', 'Im_RobertDowneyJr.png', 'Im_GeorgeClooney.png', 'Im_MattDamon.png', 'Im_DanielCraig.png', 'Im_ElijahWood.png', 'Im_OrlandoBloom.png', 'Im_JustinTimberlake.png', 'Im_RyanGosling.png', 'Im_PatrickDempsey.png'],diff,1,0.41652079999994385,19,0,
ELHE1110,1,inv,60,pos60_id8_im13.bmp_pos60_id8_im20.bmp,['Im_HughJackman.png', 'Im_RobertDowneyJr.png', 'Im_GeorgeClooney.png', 'Im_MattDamon.png', 'Im_DanielCraig.png', 'Im_ElijahWood.png', 'Im_OrlandoBloom.png', 'Im_JustinTimberlake.png', 'Im_RyanGosling.png', 'Im_PatrickDempsey.png'],diff,0,0.42508359999999357,19,0,
ELHE1110,1,inv,0,pos0_id10_im17.bmp_pos0_id10_im1.bmp,['Im_HughJackman.png', 'Im_RobertDowneyJr.png', 'Im_GeorgeClooney.png', 'Im_MattDamon.png', 'Im_DanielCraig.png', 'Im_ElijahWood.png', 'Im_OrlandoBloom.png', 'Im_JustinTimberlake.png', 'Im_RyanGosling.png', 'Im_PatrickDempsey.png'],same,1,0.933605899999975,20,0,
ELHE1110,1,inv,150,pos150_id14_im24.bmp_pos150_id14_im16.bmp,['Im_HughJackman.png', 'Im_RobertDowneyJr.png', 'Im_GeorgeClooney.png', 'Im_MattDamon.png', 'Im_DanielCraig.png', 'Im_ElijahWood.png', 'Im_OrlandoBloom.png', 'Im_JustinTimberlake.png', 'Im_RyanGosling.png', 'Im_PatrickDempsey.png'],same,1,0.500722699999983,21,0,
ELHE1110,1,inv,0,pos0_id6_im18.bmp_pos0_id20_im30.bmp,['Im_HughJackman.png', 'Im_RobertDowneyJr.png', 'Im_GeorgeClooney.png', 'Im_MattDamon.png', 'Im_DanielCraig.png', 'Im_ElijahWood.png', 'Im_OrlandoBloom.png', 'Im_JustinTimberlake.png', 'Im_RyanGosling.png', 'Im_PatrickDempsey.png'],diff,1,0.41679229999999734,22,0,
ELHE1110,1,inv,60,pos60_id4_im20.bmp_pos60_id4_im15.bmp,['Im_HughJackman.png', 'Im_RobertDowneyJr.png', 'Im_GeorgeClooney.png', 'Im_MattDamon.png', 'Im_DanielCraig.png', 'Im_ElijahWood.png', 'Im_OrlandoBloom.png', 'Im_JustinTimberlake.png', 'Im_RyanGosling.png', 'Im_PatrickDempsey.png'],same,1,0.8417064999999866,23,0,
ELHE1110,1,inv,150,pos150_id4_im7.bmp_pos150_id8_im21.bmp,['Im_HughJackman.png', 'Im_RobertDowneyJr.png', 'Im_GeorgeClooney.png', 'Im_MattDamon.png', 'Im_DanielCraig.png', 'Im_ElijahWood.png', 'Im_OrlandoBloom.png', 'Im_JustinTimberlake.png', 'Im_RyanGosling.png', 'Im_PatrickDempsey.png'],same,0,1.1333743999999797,23,0,
ELHE1110,1,inv,fs,posfs_id16_im3.bmp_posfs_id16_im19.bmp,['Im_HughJackman.png', 'Im_RobertDowneyJr.png', 'Im_GeorgeClooney.png', 'Im_MattDamon.png', 'Im_DanielCraig.png', 'Im_ElijahWood.png', 'Im_OrlandoBloom.png', 'Im_JustinTimberlake.png', 'Im_RyanGosling.png', 'Im_PatrickDempsey.png'],same,1,0.42504699999994955,24,0,
ELHE1110,1,inv,90,pos90_id6_im18.bmp_pos90_id8_im13.bmp,['Im_HughJackman.png', 'Im_RobertDowneyJr.png', 'Im_GeorgeClooney.png', 'Im_MattDamon.png', 'Im_DanielCraig.png', 'Im_ElijahWood.png', 'Im_OrlandoBloom.png', 'Im_JustinTimberlake.png', 'Im_RyanGosling.png', 'Im_PatrickDempsey.png'],diff,1,0.41673930000001747,25,0,
ELHE1110,2,pos,30,pos30_id14_im24.bmp_pos30_id10_im18.bmp,['Im_HughJackman.png', 'Im_RobertDowneyJr.png', 'Im_GeorgeClooney.png', 'Im_MattDamon.png', 'Im_DanielCraig.png', 'Im_ElijahWood.png', 'Im_OrlandoBloom.png', 'Im_JustinTimberlake.png', 'Im_RyanGosling.png', 'Im_PatrickDempsey.png'],diff,1,0.42508460000010473,26,0,
ELHE1110,2,pos,fs,posfs_id16_im2.bmp_posfs_id16_im3.bmp,['Im_HughJackman.png', 'Im_RobertDowneyJr.png', 'Im_GeorgeClooney.png', 'Im_MattDamon.png', 'Im_DanielCraig.png', 'Im_ElijahWood.png', 'Im_OrlandoBloom.png', 'Im_JustinTimberlake.png', 'Im_RyanGosling.png', 'Im_PatrickDempsey.png'],same,1,0.4251715000000331,27,0,
ELHE1110,2,pos,150,pos150_id17_im14.bmp_pos150_id17_im8.bmp,['Im_HughJackman.png', 'Im_RobertDowneyJr.png', 'Im_GeorgeClooney.png', 'Im_MattDamon.png', 'Im_DanielCraig.png', 'Im_ElijahWood.png', 'Im_OrlandoBloom.png', 'Im_JustinTimberlake.png', 'Im_RyanGosling.png', 'Im_PatrickDempsey.png'],same,1,0.4167060999999421,28,0,
ELHE1110,2,pos,90,pos90_id8_im13.bmp_pos90_id6_im18.bmp,['Im_HughJackman.png', 'Im_RobertDowneyJr.png', 'Im_GeorgeClooney.png', 'Im_MattDamon.png', 'Im_DanielCraig.png', 'Im_ElijahWood.png', 'Im_OrlandoBloom.png', 'Im_JustinTimberlake.png', 'Im_RyanGosling.png', 'Im_PatrickDempsey.png'],diff,1,0.41674749999992855,29,0,
ELHE1110,2,pos,30,pos30_id6_im18.bmp_pos30_id6_im19.bmp,['Im_HughJackman.png', 'Im_RobertDowneyJr.png', 'Im_GeorgeClooney.png', 'Im_MattDamon.png', 'Im_DanielCraig.png', 'Im_ElijahWood.png', 'Im_OrlandoBloom.png', 'Im_JustinTimberlake.png', 'Im_RyanGosling.png', 'Im_PatrickDempsey.png'],same,1,0.40840959999991355,30,0,
ELHE1110,2,pos,120,pos120_id10_im18.bmp_pos120_id20_im30.bmp,['Im_HughJackman.png', 'Im_RobertDowneyJr.png', 'Im_GeorgeClooney.png', 'Im_MattDamon.png', 'Im_DanielCraig.png', 'Im_ElijahWood.png', 'Im_OrlandoBloom.png', 'Im_JustinTimberlake.png', 'Im_RyanGosling.png', 'Im_PatrickDempsey.png'],diff,1,0.4250223000000233,31,0,
ELHE1110,2,pos,150,pos150_id6_im18.bmp_pos150_id6_im12.bmp,['Im_HughJackman.png', 'Im_RobertDowneyJr.png', 'Im_GeorgeClooney.png', 'Im_MattDamon.png', 'Im_DanielCraig.png', 'Im_ElijahWood.png', 'Im_OrlandoBloom.png', 'Im_JustinTimberlake.png', 'Im_RyanGosling.png', 'Im_PatrickDempsey.png'],same,1,0.4252874999999676,32,0,
ELHE1110,2,pos,60,pos60_id7_im26.bmp_pos60_id16_im19.bmp,['Im_HughJackman.png', 'Im_RobertDowneyJr.png', 'Im_GeorgeClooney.png', 'Im_MattDamon.png', 'Im_DanielCraig.png', 'Im_ElijahWood.png', 'Im_OrlandoBloom.png', 'Im_JustinTimberlake.png', 'Im_RyanGosling.png', 'Im_PatrickDempsey.png'],diff,1,0.4250563000000511,33,0,
ELHE1110,2,pos,90,pos90_id7_im26.bmp_pos90_id7_im14.bmp,['Im_HughJackman.png', 'Im_RobertDowneyJr.png', 'Im_GeorgeClooney.png', 'Im_MattDamon.png', 'Im_DanielCraig.png', 'Im_ElijahWood.png', 'Im_OrlandoBloom.png', 'Im_JustinTimberlake.png', 'Im_RyanGosling.png', 'Im_PatrickDempsey.png'],same,1,0.4251143000000184,34,0,
ELHE1110,2,pos,120,pos120_id14_im24.bmp_pos120_id14_im16.bmp,['Im_HughJackman.png', 'Im_RobertDowneyJr.png', 'Im_GeorgeClooney.png', 'Im_MattDamon.png', 'Im_DanielCraig.png', 'Im_ElijahWood.png', 'Im_OrlandoBloom.png', 'Im_JustinTimberlake.png', 'Im_RyanGosling.png', 'Im_PatrickDempsey.png'],same,1,0.4250985999999557,35,0,
ELHE1110,2,pos,fs,posfs_id8_im21.bmp_posfs_id4_im7.bmp,['Im_HughJackman.png', 'Im_RobertDowneyJr.png', 'Im_GeorgeClooney.png', 'Im_MattDamon.png', 'Im_DanielCraig.png', 'Im_ElijahWood.png', 'Im_OrlandoBloom.png', 'Im_JustinTimberlake.png', 'Im_RyanGosling.png', 'Im_PatrickDempsey.png'],diff,1,0.43324780000000374,36,0,
ELHE1110,2,pos,60,pos60_id8_im20.bmp_pos60_id18_im18.bmp,['Im_HughJackman.png', 'Im_RobertDowneyJr.png', 'Im_GeorgeClooney.png', 'Im_MattDamon.png', 'Im_DanielCraig.png', 'Im_ElijahWood.png', 'Im_OrlandoBloom.png', 'Im_JustinTimberlake.png', 'Im_RyanGosling.png', 'Im_PatrickDempsey.png'],diff,1,0.4167263000000503,37,0,
ELHE1110,2,pos,0,pos0_id8_im20.bmp_pos0_id8_im13.bmp,['Im_HughJackman.png', 'Im_RobertDowneyJr.png', 'Im_GeorgeClooney.png', 'Im_MattDamon.png', 'Im_DanielCraig.png', 'Im_ElijahWood.png', 'Im_OrlandoBloom.png', 'Im_JustinTimberlake.png', 'Im_RyanGosling.png', 'Im_PatrickDempsey.png'],same,1,0.4333953999999949,38,0,
ELHE1110,2,pos,0,pos0_id18_im11.bmp_pos0_id6_im12.bmp,['Im_HughJackman.png', 'Im_RobertDowneyJr.png', 'Im_GeorgeClooney.png', 'Im_MattDamon.png', 'Im_DanielCraig.png', 'Im_ElijahWood.png', 'Im_OrlandoBloom.png', 'Im_JustinTimberlake.png', 'Im_RyanGosling.png', 'Im_PatrickDempsey.png'],diff,1,0.483511099999987,39,0,
ELHE1110,3,neg,0,neg0_id14_im16.bmp_neg0_id14_im18.bmp,['Im_HughJackman.png', 'Im_RobertDowneyJr.png', 'Im_GeorgeClooney.png', 'Im_MattDamon.png', 'Im_DanielCraig.png', 'Im_ElijahWood.png', 'Im_OrlandoBloom.png', 'Im_JustinTimberlake.png', 'Im_RyanGosling.png', 'Im_PatrickDempsey.png'],same,1,1.067406099999971,1,92.85714285714286,
ELHE1110,3,neg,30,neg30_id6_im18.bmp_neg30_id6_im12.bmp,['Im_HughJackman.png', 'Im_RobertDowneyJr.png', 'Im_GeorgeClooney.png', 'Im_MattDamon.png', 'Im_DanielCraig.png', 'Im_ElijahWood.png', 'Im_OrlandoBloom.png', 'Im_JustinTimberlake.png', 'Im_RyanGosling.png', 'Im_PatrickDempsey.png'],same,1,0.4917293000000882,2,92.85714285714286,
ELHE1110,3,neg,fs,negfs_id10_im1.bmp_negfs_id7_im14.bmp,['Im_HughJackman.png', 'Im_RobertDowneyJr.png', 'Im_GeorgeClooney.png', 'Im_MattDamon.png', 'Im_DanielCraig.png', 'Im_ElijahWood.png', 'Im_OrlandoBloom.png', 'Im_JustinTimberlake.png', 'Im_RyanGosling.png', 'Im_PatrickDempsey.png'],diff,1,0.43350950000001376,3,92.85714285714286,
ELHE1110,3,neg,0,neg0_id16_im2.bmp_neg0_id16_im19.bmp,['Im_HughJackman.png', 'Im_RobertDowneyJr.png', 'Im_GeorgeClooney.png', 'Im_MattDamon.png', 'Im_DanielCraig.png', 'Im_ElijahWood.png', 'Im_OrlandoBloom.png', 'Im_JustinTimberlake.png', 'Im_RyanGosling.png', 'Im_PatrickDempsey.png'],same,1,0.4250700999999708,4,92.85714285714286,
ELHE1110,3,neg,120,neg120_id7_im14.bmp_neg120_id7_im26.bmp,['Im_HughJackman.png', 'Im_RobertDowneyJr.png', 'Im_GeorgeClooney.png', 'Im_MattDamon.png', 'Im_DanielCraig.png', 'Im_ElijahWood.png', 'Im_OrlandoBloom.png', 'Im_JustinTimberlake.png', 'Im_RyanGosling.png', 'Im_PatrickDempsey.png'],diff,0,0.6335119000000304,4,92.85714285714286,
ELHE1110,3,neg,60,neg60_id8_im21.bmp_neg60_id8_im20.bmp,['Im_HughJackman.png', 'Im_RobertDowneyJr.png', 'Im_GeorgeClooney.png', 'Im_MattDamon.png', 'Im_DanielCraig.png', 'Im_ElijahWood.png', 'Im_OrlandoBloom.png', 'Im_JustinTimberlake.png', 'Im_RyanGosling.png', 'Im_PatrickDempsey.png'],same,1,0.4333530999999766,5,92.85714285714286,
ELHE1110,3,neg,30,neg30_id20_im30.bmp_neg30_id10_im18.bmp,['Im_HughJackman.png', 'Im_RobertDowneyJr.png', 'Im_GeorgeClooney.png', 'Im_MattDamon.png', 'Im_DanielCraig.png', 'Im_ElijahWood.png', 'Im_OrlandoBloom.png', 'Im_JustinTimberlake.png', 'Im_RyanGosling.png', 'Im_PatrickDempsey.png'],diff,1,0.4167055000000346,6,92.85714285714286,
ELHE1110,3,neg,60,neg60_id14_im16.bmp_neg60_id14_im24.bmp,['Im_HughJackman.png', 'Im_RobertDowneyJr.png', 'Im_GeorgeClooney.png', 'Im_MattDamon.png', 'Im_DanielCraig.png', 'Im_ElijahWood.png', 'Im_OrlandoBloom.png', 'Im_JustinTimberlake.png', 'Im_RyanGosling.png', 'Im_PatrickDempsey.png'],same,1,0.42502669999998943,7,92.85714285714286,
ELHE1110,3,neg,90,neg90_id17_im9.bmp_neg90_id17_im14.bmp,['Im_HughJackman.png', 'Im_RobertDowneyJr.png', 'Im_GeorgeClooney.png', 'Im_MattDamon.png', 'Im_DanielCraig.png', 'Im_ElijahWood.png', 'Im_OrlandoBloom.png', 'Im_JustinTimberlake.png', 'Im_RyanGosling.png', 'Im_PatrickDempsey.png'],same,1,0.4083769999999731,8,92.85714285714286,
ELHE1110,3,neg,120,neg120_id4_im15.bmp_neg120_id14_im24.bmp,['Im_HughJackman.png', 'Im_RobertDowneyJr.png', 'Im_GeorgeClooney.png', 'Im_MattDamon.png', 'Im_DanielCraig.png', 'Im_ElijahWood.png', 'Im_OrlandoBloom.png', 'Im_JustinTimberlake.png', 'Im_RyanGosling.png', 'Im_PatrickDempsey.png'],diff,1,0.4250978000000032,9,92.85714285714286,
ELHE1110,3,neg,150,neg150_id20_im30.bmp_neg150_id20_im12.bmp,['Im_HughJackman.png', 'Im_RobertDowneyJr.png', 'Im_GeorgeClooney.png', 'Im_MattDamon.png', 'Im_DanielCraig.png', 'Im_ElijahWood.png', 'Im_OrlandoBloom.png', 'Im_JustinTimberlake.png', 'Im_RyanGosling.png', 'Im_PatrickDempsey.png'],same,1,0.45013810000000376,10,92.85714285714286,
ELHE1110,3,neg,90,neg90_id16_im3.bmp_neg90_id8_im13.bmp,['Im_HughJackman.png', 'Im_RobertDowneyJr.png', 'Im_GeorgeClooney.png', 'Im_MattDamon.png', 'Im_DanielCraig.png', 'Im_ElijahWood.png', 'Im_OrlandoBloom.png', 'Im_JustinTimberlake.png', 'Im_RyanGosling.png', 'Im_PatrickDempsey.png'],diff,1,0.4419584999999415,11,92.85714285714286,
ELHE1110,3,neg,150,neg150_id8_im20.bmp_neg150_id8_im13.bmp,['Im_HughJackman.png', 'Im_RobertDowneyJr.png', 'Im_GeorgeClooney.png', 'Im_MattDamon.png', 'Im_DanielCraig.png', 'Im_ElijahWood.png', 'Im_OrlandoBloom.png', 'Im_JustinTimberlake.png', 'Im_RyanGosling.png', 'Im_PatrickDempsey.png'],same,1,0.42505770000002485,12,92.85714285714286,
ELHE1110,3,neg,fs,negfs_id6_im19.bmp_negfs_id6_im12.bmp,['Im_HughJackman.png', 'Im_RobertDowneyJr.png', 'Im_GeorgeClooney.png', 'Im_MattDamon.png', 'Im_DanielCraig.png', 'Im_ElijahWood.png', 'Im_OrlandoBloom.png', 'Im_JustinTimberlake.png', 'Im_RyanGosling.png', 'Im_PatrickDempsey.png'],same,1,0.4167483999999604,13,92.85714285714286,
ELHE1110,4,pos,120,pos120_id17_im8.bmp_pos120_id17_im9.bmp,['Im_HughJackman.png', 'Im_RobertDowneyJr.png', 'Im_GeorgeClooney.png', 'Im_MattDamon.png', 'Im_DanielCraig.png', 'Im_ElijahWood.png', 'Im_OrlandoBloom.png', 'Im_JustinTimberlake.png', 'Im_RyanGosling.png', 'Im_PatrickDempsey.png'],same,1,0.45845710000003237,14,92.85714285714286,
ELHE1110,4,pos,60,pos60_id4_im15.bmp_pos60_id4_im20.bmp,['Im_HughJackman.png', 'Im_RobertDowneyJr.png', 'Im_GeorgeClooney.png', 'Im_MattDamon.png', 'Im_DanielCraig.png', 'Im_ElijahWood.png', 'Im_OrlandoBloom.png', 'Im_JustinTimberlake.png', 'Im_RyanGosling.png', 'Im_PatrickDempsey.png'],same,1,0.4166173000000981,15,92.85714285714286,
ELHE1110,4,pos,30,pos30_id17_im9.bmp_pos30_id17_im8.bmp,['Im_HughJackman.png', 'Im_RobertDowneyJr.png', 'Im_GeorgeClooney.png', 'Im_MattDamon.png', 'Im_DanielCraig.png', 'Im_ElijahWood.png', 'Im_OrlandoBloom.png', 'Im_JustinTimberlake.png', 'Im_RyanGosling.png', 'Im_PatrickDempsey.png'],same,1,0.4167235999999548,16,92.85714285714286,
ELHE1110,4,pos,fs,posfs_id4_im15.bmp_posfs_id4_im20.bmp,['Im_HughJackman.png', 'Im_RobertDowneyJr.png', 'Im_GeorgeClooney.png', 'Im_MattDamon.png', 'Im_DanielCraig.png', 'Im_ElijahWood.png', 'Im_OrlandoBloom.png', 'Im_JustinTimberlake.png', 'Im_RyanGosling.png', 'Im_PatrickDempsey.png'],same,1,0.4167380000000094,17,92.85714285714286,
ELHE1110,4,pos,fs,posfs_id17_im9.bmp_posfs_id17_im14.bmp,['Im_HughJackman.png', 'Im_RobertDowneyJr.png', 'Im_GeorgeClooney.png', 'Im_MattDamon.png', 'Im_DanielCraig.png', 'Im_ElijahWood.png', 'Im_OrlandoBloom.png', 'Im_JustinTimberlake.png', 'Im_RyanGosling.png', 'Im_PatrickDempsey.png'],same,1,0.41667439999991984,18,92.85714285714286,
ELHE1110,4,pos,90,pos90_id6_im19.bmp_pos90_id17_im8.bmp,['Im_HughJackman.png', 'Im_RobertDowneyJr.png', 'Im_GeorgeClooney.png', 'Im_MattDamon.png', 'Im_DanielCraig.png', 'Im_ElijahWood.png', 'Im_OrlandoBloom.png', 'Im_JustinTimberlake.png', 'Im_RyanGosling.png', 'Im_PatrickDempsey.png'],diff,1,0.41675899999995636,19,92.85714285714286,
ELHE1110,4,pos,150,pos150_id20_im12.bmp_pos150_id20_im3.bmp,['Im_HughJackman.png', 'Im_RobertDowneyJr.png', 'Im_GeorgeClooney.png', 'Im_MattDamon.png', 'Im_DanielCraig.png', 'Im_ElijahWood.png', 'Im_OrlandoBloom.png', 'Im_JustinTimberlake.png', 'Im_RyanGosling.png', 'Im_PatrickDempsey.png'],same,1,0.4166545999999016,20,92.85714285714286,
ELHE1110,4,pos,0,pos0_id18_im18.bmp_pos0_id8_im20.bmp,['Im_HughJackman.png', 'Im_RobertDowneyJr.png', 'Im_GeorgeClooney.png', 'Im_MattDamon.png', 'Im_DanielCraig.png', 'Im_ElijahWood.png', 'Im_OrlandoBloom.png', 'Im_JustinTimberlake.png', 'Im_RyanGosling.png', 'Im_PatrickDempsey.png'],diff,1,0.42502439999998387,21,92.85714285714286,
ELHE1110,4,pos,60,pos60_id4_im20.bmp_pos60_id17_im9.bmp,['Im_HughJackman.png', 'Im_RobertDowneyJr.png', 'Im_GeorgeClooney.png', 'Im_MattDamon.png', 'Im_DanielCraig.png', 'Im_ElijahWood.png', 'Im_OrlandoBloom.png', 'Im_JustinTimberlake.png', 'Im_RyanGosling.png', 'Im_PatrickDempsey.png'],diff,1,0.40821169999992435,22,92.85714285714286,
ELHE1110,4,pos,0,pos0_id20_im3.bmp_pos0_id7_im26.bmp,['Im_HughJackman.png', 'Im_RobertDowneyJr.png', 'Im_GeorgeClooney.png', 'Im_MattDamon.png', 'Im_DanielCraig.png', 'Im_ElijahWood.png', 'Im_OrlandoBloom.png', 'Im_JustinTimberlake.png', 'Im_RyanGosling.png', 'Im_PatrickDempsey.png'],diff,1,0.4167232999999442,23,92.85714285714286,
ELHE1110,4,pos,90,pos90_id8_im20.bmp_pos90_id18_im18.bmp,['Im_HughJackman.png', 'Im_RobertDowneyJr.png', 'Im_GeorgeClooney.png', 'Im_MattDamon.png', 'Im_DanielCraig.png', 'Im_ElijahWood.png', 'Im_OrlandoBloom.png', 'Im_JustinTimberlake.png', 'Im_RyanGosling.png', 'Im_PatrickDempsey.png'],diff,1,0.42504859999996825,24,92.85714285714286,
ELHE1110,4,pos,30,pos30_id7_im14.bmp_pos30_id10_im1.bmp,['Im_HughJackman.png', 'Im_RobertDowneyJr.png', 'Im_GeorgeClooney.png', 'Im_MattDamon.png', 'Im_DanielCraig.png', 'Im_ElijahWood.png', 'Im_OrlandoBloom.png', 'Im_JustinTimberlake.png', 'Im_RyanGosling.png', 'Im_PatrickDempsey.png'],diff,1,0.42507770000008804,25,92.85714285714286,
ELHE1110,4,pos,120,pos120_id18_im11.bmp_pos120_id18_im19.bmp,['Im_HughJackman.png', 'Im_RobertDowneyJr.png', 'Im_GeorgeClooney.png', 'Im_MattDamon.png', 'Im_DanielCraig.png', 'Im_ElijahWood.png', 'Im_OrlandoBloom.png', 'Im_JustinTimberlake.png', 'Im_RyanGosling.png', 'Im_PatrickDempsey.png'],same,1,0.42507020000005014,26,92.85714285714286,
ELHE1110,4,pos,150,pos150_id16_im2.bmp_pos150_id7_im15.bmp,['Im_HughJackman.png', 'Im_RobertDowneyJr.png', 'Im_GeorgeClooney.png', 'Im_MattDamon.png', 'Im_DanielCraig.png', 'Im_ElijahWood.png', 'Im_OrlandoBloom.png', 'Im_JustinTimberlake.png', 'Im_RyanGosling.png', 'Im_PatrickDempsey.png'],diff,1,0.43362839999997504,27,92.85714285714286,
ELHE1110,5,neg,60,neg60_id14_im24.bmp_neg60_id4_im15.bmp,['Im_HughJackman.png', 'Im_RobertDowneyJr.png', 'Im_GeorgeClooney.png', 'Im_MattDamon.png', 'Im_DanielCraig.png', 'Im_ElijahWood.png', 'Im_OrlandoBloom.png', 'Im_JustinTimberlake.png', 'Im_RyanGosling.png', 'Im_PatrickDempsey.png'],diff,1,0.42515559999992547,28,92.85714285714286,
ELHE1110,5,neg,0,neg0_id14_im18.bmp_neg0_id18_im11.bmp,['Im_HughJackman.png', 'Im_RobertDowneyJr.png', 'Im_GeorgeClooney.png', 'Im_MattDamon.png', 'Im_DanielCraig.png', 'Im_ElijahWood.png', 'Im_OrlandoBloom.png', 'Im_JustinTimberlake.png', 'Im_RyanGosling.png', 'Im_PatrickDempsey.png'],diff,1,0.6333677999999736,29,92.85714285714286,
ELHE1110,5,neg,120,neg120_id10_im17.bmp_neg120_id17_im8.bmp,['Im_HughJackman.png', 'Im_RobertDowneyJr.png', 'Im_GeorgeClooney.png', 'Im_MattDamon.png', 'Im_DanielCraig.png', 'Im_ElijahWood.png', 'Im_OrlandoBloom.png', 'Im_JustinTimberlake.png', 'Im_RyanGosling.png', 'Im_PatrickDempsey.png'],diff,1,0.4167452000000367,30,92.85714285714286,
ELHE1110,5,neg,30,neg30_id4_im20.bmp_neg30_id10_im17.bmp,['Im_HughJackman.png', 'Im_RobertDowneyJr.png', 'Im_GeorgeClooney.png', 'Im_MattDamon.png', 'Im_DanielCraig.png', 'Im_ElijahWood.png', 'Im_OrlandoBloom.png', 'Im_JustinTimberlake.png', 'Im_RyanGosling.png', 'Im_PatrickDempsey.png'],diff,1,0.4167363999999907,31,92.85714285714286,
ELHE1110,5,neg,0,neg0_id16_im3.bmp_neg0_id16_im2.bmp,['Im_HughJackman.png', 'Im_RobertDowneyJr.png', 'Im_GeorgeClooney.png', 'Im_MattDamon.png', 'Im_DanielCraig.png', 'Im_ElijahWood.png', 'Im_OrlandoBloom.png', 'Im_JustinTimberlake.png', 'Im_RyanGosling.png', 'Im_PatrickDempsey.png'],same,1,0.4167461000000685,32,92.85714285714286,
ELHE1110,5,neg,150,neg150_id14_im18.bmp_neg150_id14_im24.bmp,['Im_HughJackman.png', 'Im_RobertDowneyJr.png', 'Im_GeorgeClooney.png', 'Im_MattDamon.png', 'Im_DanielCraig.png', 'Im_ElijahWood.png', 'Im_OrlandoBloom.png', 'Im_JustinTimberlake.png', 'Im_RyanGosling.png', 'Im_PatrickDempsey.png'],same,1,0.4250317000000905,33,92.85714285714286,
ELHE1110,5,neg,30,neg30_id18_im11.bmp_neg30_id18_im18.bmp,['Im_HughJackman.png', 'Im_RobertDowneyJr.png', 'Im_GeorgeClooney.png', 'Im_MattDamon.png', 'Im_DanielCraig.png', 'Im_ElijahWood.png', 'Im_OrlandoBloom.png', 'Im_JustinTimberlake.png', 'Im_RyanGosling.png', 'Im_PatrickDempsey.png'],diff,0,0.4168816000000106,33,92.85714285714286,
ELHE1110,5,neg,150,neg150_id14_im18.bmp_neg150_id14_im16.bmp,['Im_HughJackman.png', 'Im_RobertDowneyJr.png', 'Im_GeorgeClooney.png', 'Im_MattDamon.png', 'Im_DanielCraig.png', 'Im_ElijahWood.png', 'Im_OrlandoBloom.png', 'Im_JustinTimberlake.png', 'Im_RyanGosling.png', 'Im_PatrickDempsey.png'],same,1,1.7752202000000352,34,92.85714285714286,
ELHE1110,5,neg,120,neg120_id20_im12.bmp_neg120_id8_im20.bmp,['Im_HughJackman.png', 'Im_RobertDowneyJr.png', 'Im_GeorgeClooney.png', 'Im_MattDamon.png', 'Im_DanielCraig.png', 'Im_ElijahWood.png', 'Im_OrlandoBloom.png', 'Im_JustinTimberlake.png', 'Im_RyanGosling.png', 'Im_PatrickDempsey.png'],diff,1,0.42501640000000407,35,92.85714285714286,
ELHE1110,5,neg,60,neg60_id6_im18.bmp_neg60_id6_im12.bmp,['Im_HughJackman.png', 'Im_RobertDowneyJr.png', 'Im_GeorgeClooney.png', 'Im_MattDamon.png', 'Im_DanielCraig.png', 'Im_ElijahWood.png', 'Im_OrlandoBloom.png', 'Im_JustinTimberlake.png', 'Im_RyanGosling.png', 'Im_PatrickDempsey.png'],same,1,0.4250451000000339,36,92.85714285714286,
ELHE1110,5,neg,fs,negfs_id14_im24.bmp_negfs_id14_im16.bmp,['Im_HughJackman.png', 'Im_RobertDowneyJr.png', 'Im_GeorgeClooney.png', 'Im_MattDamon.png', 'Im_DanielCraig.png', 'Im_ElijahWood.png', 'Im_OrlandoBloom.png', 'Im_JustinTimberlake.png', 'Im_RyanGosling.png', 'Im_PatrickDempsey.png'],same,1,0.42508410000004915,37,92.85714285714286,
ELHE1110,5,neg,90,neg90_id4_im7.bmp_neg90_id8_im21.bmp,['Im_HughJackman.png', 'Im_RobertDowneyJr.png', 'Im_GeorgeClooney.png', 'Im_MattDamon.png', 'Im_DanielCraig.png', 'Im_ElijahWood.png', 'Im_OrlandoBloom.png', 'Im_JustinTimberlake.png', 'Im_RyanGosling.png', 'Im_PatrickDempsey.png'],diff,1,0.4166996000000154,38,92.85714285714286,
ELHE1110,5,neg,fs,negfs_id10_im18.bmp_negfs_id10_im17.bmp,['Im_HughJackman.png', 'Im_RobertDowneyJr.png', 'Im_GeorgeClooney.png', 'Im_MattDamon.png', 'Im_DanielCraig.png', 'Im_ElijahWood.png', 'Im_OrlandoBloom.png', 'Im_JustinTimberlake.png', 'Im_RyanGosling.png', 'Im_PatrickDempsey.png'],same,1,0.4166572000000315,39,92.85714285714286,
ELHE1110,5,neg,90,neg90_id4_im15.bmp_neg90_id4_im20.bmp,['Im_HughJackman.png', 'Im_RobertDowneyJr.png', 'Im_GeorgeClooney.png', 'Im_MattDamon.png', 'Im_DanielCraig.png', 'Im_ElijahWood.png', 'Im_OrlandoBloom.png', 'Im_JustinTimberlake.png', 'Im_RyanGosling.png', 'Im_PatrickDempsey.png'],same,1,0.7417490000000271,40,92.85714285714286,
ELHE1110,6,inv,30,pos30_id18_im18.bmp_pos30_id18_im19.bmp,['Im_HughJackman.png', 'Im_RobertDowneyJr.png', 'Im_GeorgeClooney.png', 'Im_MattDamon.png', 'Im_DanielCraig.png', 'Im_ElijahWood.png', 'Im_OrlandoBloom.png', 'Im_JustinTimberlake.png', 'Im_RyanGosling.png', 'Im_PatrickDempsey.png'],same,1,0.9834018999999898,1,95.23809523809524,
ELHE1110,6,inv,fs,posfs_id17_im8.bmp_posfs_id17_im9.bmp,['Im_HughJackman.png', 'Im_RobertDowneyJr.png', 'Im_GeorgeClooney.png', 'Im_MattDamon.png', 'Im_DanielCraig.png', 'Im_ElijahWood.png', 'Im_OrlandoBloom.png', 'Im_JustinTimberlake.png', 'Im_RyanGosling.png', 'Im_PatrickDempsey.png'],same,1,0.4250999999999294,2,95.23809523809524,
ELHE1110,6,inv,120,pos120_id6_im12.bmp_pos120_id6_im18.bmp,['Im_HughJackman.png', 'Im_RobertDowneyJr.png', 'Im_GeorgeClooney.png', 'Im_MattDamon.png', 'Im_DanielCraig.png', 'Im_ElijahWood.png', 'Im_OrlandoBloom.png', 'Im_JustinTimberlake.png', 'Im_RyanGosling.png', 'Im_PatrickDempsey.png'],diff,0,0.43336189999990893,2,95.23809523809524,
ELHE1110,6,inv,60,pos60_id7_im15.bmp_pos60_id16_im2.bmp,['Im_HughJackman.png', 'Im_RobertDowneyJr.png', 'Im_GeorgeClooney.png', 'Im_MattDamon.png', 'Im_DanielCraig.png', 'Im_ElijahWood.png', 'Im_OrlandoBloom.png', 'Im_JustinTimberlake.png', 'Im_RyanGosling.png', 'Im_PatrickDempsey.png'],diff,1,0.5915655999999672,3,95.23809523809524,
ELHE1110,6,inv,30,pos30_id18_im11.bmp_pos30_id14_im18.bmp,['Im_HughJackman.png', 'Im_RobertDowneyJr.png', 'Im_GeorgeClooney.png', 'Im_MattDamon.png', 'Im_DanielCraig.png', 'Im_ElijahWood.png', 'Im_OrlandoBloom.png', 'Im_JustinTimberlake.png', 'Im_RyanGosling.png', 'Im_PatrickDempsey.png'],same,0,1.0753340999999637,3,95.23809523809524,
ELHE1110,6,inv,fs,posfs_id18_im19.bmp_posfs_id18_im18.bmp,['Im_HughJackman.png', 'Im_RobertDowneyJr.png', 'Im_GeorgeClooney.png', 'Im_MattDamon.png', 'Im_DanielCraig.png', 'Im_ElijahWood.png', 'Im_OrlandoBloom.png', 'Im_JustinTimberlake.png', 'Im_RyanGosling.png', 'Im_PatrickDempsey.png'],same,1,0.5749104000001353,4,95.23809523809524,
ELHE1110,6,inv,150,pos150_id7_im15.bmp_pos150_id7_im14.bmp,['Im_HughJackman.png', 'Im_RobertDowneyJr.png', 'Im_GeorgeClooney.png', 'Im_MattDamon.png', 'Im_DanielCraig.png', 'Im_ElijahWood.png', 'Im_OrlandoBloom.png', 'Im_JustinTimberlake.png', 'Im_RyanGosling.png', 'Im_PatrickDempsey.png'],same,1,0.4333187000001999,5,95.23809523809524,
ELHE1110,6,inv,90,pos90_id10_im1.bmp_pos90_id10_im17.bmp,['Im_HughJackman.png', 'Im_RobertDowneyJr.png', 'Im_GeorgeClooney.png', 'Im_MattDamon.png', 'Im_DanielCraig.png', 'Im_ElijahWood.png', 'Im_OrlandoBloom.png', 'Im_JustinTimberlake.png', 'Im_RyanGosling.png', 'Im_PatrickDempsey.png'],diff,0,0.4167123000001993,5,95.23809523809524,
ELHE1110,6,inv,150,pos150_id16_im19.bmp_pos150_id16_im2.bmp,['Im_HughJackman.png', 'Im_RobertDowneyJr.png', 'Im_GeorgeClooney.png', 'Im_MattDamon.png', 'Im_DanielCraig.png', 'Im_ElijahWood.png', 'Im_OrlandoBloom.png', 'Im_JustinTimberlake.png', 'Im_RyanGosling.png', 'Im_PatrickDempsey.png'],same,1,0.4167104999999083,6,95.23809523809524,
ELHE1110,6,inv,0,pos0_id10_im1.bmp_pos0_id10_im18.bmp,['Im_HughJackman.png', 'Im_RobertDowneyJr.png', 'Im_GeorgeClooney.png', 'Im_MattDamon.png', 'Im_DanielCraig.png', 'Im_ElijahWood.png', 'Im_OrlandoBloom.png', 'Im_JustinTimberlake.png', 'Im_RyanGosling.png', 'Im_PatrickDempsey.png'],same,1,0.42519449999986136,7,95.23809523809524,
ELHE1110,6,inv,60,pos60_id8_im21.bmp_pos60_id4_im7.bmp,['Im_HughJackman.png', 'Im_RobertDowneyJr.png', 'Im_GeorgeClooney.png', 'Im_MattDamon.png', 'Im_DanielCraig.png', 'Im_ElijahWood.png', 'Im_OrlandoBloom.png', 'Im_JustinTimberlake.png', 'Im_RyanGosling.png', 'Im_PatrickDempsey.png'],diff,1,0.4834690000000137,8,95.23809523809524,
ELHE1110,6,inv,0,pos0_id7_im15.bmp_pos0_id7_im14.bmp,['Im_HughJackman.png', 'Im_RobertDowneyJr.png', 'Im_GeorgeClooney.png', 'Im_MattDamon.png', 'Im_DanielCraig.png', 'Im_ElijahWood.png', 'Im_OrlandoBloom.png', 'Im_JustinTimberlake.png', 'Im_RyanGosling.png', 'Im_PatrickDempsey.png'],same,1,0.416792199999918,9,95.23809523809524,
ELHE1110,6,inv,120,pos120_id8_im21.bmp_pos120_id8_im20.bmp,['Im_HughJackman.png', 'Im_RobertDowneyJr.png', 'Im_GeorgeClooney.png', 'Im_MattDamon.png', 'Im_DanielCraig.png', 'Im_ElijahWood.png', 'Im_OrlandoBloom.png', 'Im_JustinTimberlake.png', 'Im_RyanGosling.png', 'Im_PatrickDempsey.png'],same,1,0.42487400000004527,10,95.23809523809524,
ELHE1110,6,inv,90,pos90_id14_im18.bmp_pos90_id18_im11.bmp,['Im_HughJackman.png', 'Im_RobertDowneyJr.png', 'Im_GeorgeClooney.png', 'Im_MattDamon.png', 'Im_DanielCraig.png', 'Im_ElijahWood.png', 'Im_OrlandoBloom.png', 'Im_JustinTimberlake.png', 'Im_RyanGosling.png', 'Im_PatrickDempsey.png'],diff,1,0.5248794999999973,11,95.23809523809524,
ELHE1110,7,neg,fs,negfs_id10_im17.bmp_negfs_id17_im8.bmp,['Im_HughJackman.png', 'Im_RobertDowneyJr.png', 'Im_GeorgeClooney.png', 'Im_MattDamon.png', 'Im_DanielCraig.png', 'Im_ElijahWood.png', 'Im_OrlandoBloom.png', 'Im_JustinTimberlake.png', 'Im_RyanGosling.png', 'Im_PatrickDempsey.png'],diff,1,0.44177480000007563,12,95.23809523809524,
ELHE1110,7,neg,60,neg60_id7_im14.bmp_neg60_id7_im15.bmp,['Im_HughJackman.png', 'Im_RobertDowneyJr.png', 'Im_GeorgeClooney.png', 'Im_MattDamon.png', 'Im_DanielCraig.png', 'Im_ElijahWood.png', 'Im_OrlandoBloom.png', 'Im_JustinTimberlake.png', 'Im_RyanGosling.png', 'Im_PatrickDempsey.png'],diff,0,0.8669563000000835,12,95.23809523809524,
ELHE1110,7,neg,120,neg120_id14_im16.bmp_neg120_id16_im2.bmp,['Im_HughJackman.png', 'Im_RobertDowneyJr.png', 'Im_GeorgeClooney.png', 'Im_MattDamon.png', 'Im_DanielCraig.png', 'Im_ElijahWood.png', 'Im_OrlandoBloom.png', 'Im_JustinTimberlake.png', 'Im_RyanGosling.png', 'Im_PatrickDempsey.png'],diff,1,0.4250609999999142,13,95.23809523809524,
ELHE1110,7,neg,30,neg30_id14_im24.bmp_neg30_id10_im18.bmp,['Im_HughJackman.png', 'Im_RobertDowneyJr.png', 'Im_GeorgeClooney.png', 'Im_MattDamon.png', 'Im_DanielCraig.png', 'Im_ElijahWood.png', 'Im_OrlandoBloom.png', 'Im_JustinTimberlake.png', 'Im_RyanGosling.png', 'Im_PatrickDempsey.png'],diff,1,0.4167692999999417,14,95.23809523809524,
ELHE1110,7,neg,90,neg90_id20_im12.bmp_neg90_id16_im19.bmp,['Im_HughJackman.png', 'Im_RobertDowneyJr.png', 'Im_GeorgeClooney.png', 'Im_MattDamon.png', 'Im_DanielCraig.png', 'Im_ElijahWood.png', 'Im_OrlandoBloom.png', 'Im_JustinTimberlake.png', 'Im_RyanGosling.png', 'Im_PatrickDempsey.png'],diff,1,0.4502795999999307,15,95.23809523809524,
ELHE1110,7,neg,150,neg150_id7_im26.bmp_neg150_id7_im14.bmp,['Im_HughJackman.png', 'Im_RobertDowneyJr.png', 'Im_GeorgeClooney.png', 'Im_MattDamon.png', 'Im_DanielCraig.png', 'Im_ElijahWood.png', 'Im_OrlandoBloom.png', 'Im_JustinTimberlake.png', 'Im_RyanGosling.png', 'Im_PatrickDempsey.png'],same,1,0.9002815999999711,16,95.23809523809524,
ELHE1110,7,neg,30,neg30_id18_im18.bmp_neg30_id18_im19.bmp,['Im_HughJackman.png', 'Im_RobertDowneyJr.png', 'Im_GeorgeClooney.png', 'Im_MattDamon.png', 'Im_DanielCraig.png', 'Im_ElijahWood.png', 'Im_OrlandoBloom.png', 'Im_JustinTimberlake.png', 'Im_RyanGosling.png', 'Im_PatrickDempsey.png'],same,1,0.46671010000000024,17,95.23809523809524,
ELHE1110,7,neg,0,neg0_id7_im15.bmp_neg0_id7_im26.bmp,['Im_HughJackman.png', 'Im_RobertDowneyJr.png', 'Im_GeorgeClooney.png', 'Im_MattDamon.png', 'Im_DanielCraig.png', 'Im_ElijahWood.png', 'Im_OrlandoBloom.png', 'Im_JustinTimberlake.png', 'Im_RyanGosling.png', 'Im_PatrickDempsey.png'],same,1,1.2919893999999204,18,95.23809523809524,
ELHE1110,7,neg,150,neg150_id6_im18.bmp_neg150_id8_im13.bmp,['Im_HughJackman.png', 'Im_RobertDowneyJr.png', 'Im_GeorgeClooney.png', 'Im_MattDamon.png', 'Im_DanielCraig.png', 'Im_ElijahWood.png', 'Im_OrlandoBloom.png', 'Im_JustinTimberlake.png', 'Im_RyanGosling.png', 'Im_PatrickDempsey.png'],diff,1,0.4250371999999061,19,95.23809523809524,
ELHE1110,7,neg,fs,negfs_id20_im12.bmp_negfs_id16_im19.bmp,['Im_HughJackman.png', 'Im_RobertDowneyJr.png', 'Im_GeorgeClooney.png', 'Im_MattDamon.png', 'Im_DanielCraig.png', 'Im_ElijahWood.png', 'Im_OrlandoBloom.png', 'Im_JustinTimberlake.png', 'Im_RyanGosling.png', 'Im_PatrickDempsey.png'],diff,1,0.42508760000009715,20,95.23809523809524,
ELHE1110,7,neg,120,neg120_id6_im12.bmp_neg120_id7_im14.bmp,['Im_HughJackman.png', 'Im_RobertDowneyJr.png', 'Im_GeorgeClooney.png', 'Im_MattDamon.png', 'Im_DanielCraig.png', 'Im_ElijahWood.png', 'Im_OrlandoBloom.png', 'Im_JustinTimberlake.png', 'Im_RyanGosling.png', 'Im_PatrickDempsey.png'],diff,1,0.425117900000032,21,95.23809523809524,
ELHE1110,7,neg,60,neg60_id8_im13.bmp_neg60_id6_im18.bmp,['Im_HughJackman.png', 'Im_RobertDowneyJr.png', 'Im_GeorgeClooney.png', 'Im_MattDamon.png', 'Im_DanielCraig.png', 'Im_ElijahWood.png', 'Im_OrlandoBloom.png', 'Im_JustinTimberlake.png', 'Im_RyanGosling.png', 'Im_PatrickDempsey.png'],diff,1,0.4167047000000821,22,95.23809523809524,
ELHE1110,7,neg,0,neg0_id10_im17.bmp_neg0_id10_im1.bmp,['Im_HughJackman.png', 'Im_RobertDowneyJr.png', 'Im_GeorgeClooney.png', 'Im_MattDamon.png', 'Im_DanielCraig.png', 'Im_ElijahWood.png', 'Im_OrlandoBloom.png', 'Im_JustinTimberlake.png', 'Im_RyanGosling.png', 'Im_PatrickDempsey.png'],same,1,0.4167029000000184,23,95.23809523809524,
ELHE1110,7,neg,90,neg90_id20_im3.bmp_neg90_id20_im12.bmp,['Im_HughJackman.png', 'Im_RobertDowneyJr.png', 'Im_GeorgeClooney.png', 'Im_MattDamon.png', 'Im_DanielCraig.png', 'Im_ElijahWood.png', 'Im_OrlandoBloom.png', 'Im_JustinTimberlake.png', 'Im_RyanGosling.png', 'Im_PatrickDempsey.png'],same,1,0.41681390000007923,24,95.23809523809524,
ELHE1110,8,pos,150,pos150_id20_im12.bmp_pos150_id16_im19.bmp,['Im_HughJackman.png', 'Im_RobertDowneyJr.png', 'Im_GeorgeClooney.png', 'Im_MattDamon.png', 'Im_DanielCraig.png', 'Im_ElijahWood.png', 'Im_OrlandoBloom.png', 'Im_JustinTimberlake.png', 'Im_RyanGosling.png', 'Im_PatrickDempsey.png'],diff,1,0.4334397000000081,25,95.23809523809524,
ELHE1110,8,pos,150,pos150_id7_im15.bmp_pos150_id7_im14.bmp,['Im_HughJackman.png', 'Im_RobertDowneyJr.png', 'Im_GeorgeClooney.png', 'Im_MattDamon.png', 'Im_DanielCraig.png', 'Im_ElijahWood.png', 'Im_OrlandoBloom.png', 'Im_JustinTimberlake.png', 'Im_RyanGosling.png', 'Im_PatrickDempsey.png'],same,1,0.4166912999999113,26,95.23809523809524,
ELHE1110,8,pos,0,pos0_id14_im18.bmp_pos0_id14_im16.bmp,['Im_HughJackman.png', 'Im_RobertDowneyJr.png', 'Im_GeorgeClooney.png', 'Im_MattDamon.png', 'Im_DanielCraig.png', 'Im_ElijahWood.png', 'Im_OrlandoBloom.png', 'Im_JustinTimberlake.png', 'Im_RyanGosling.png', 'Im_PatrickDempsey.png'],same,1,0.49162460000002284,27,95.23809523809524,
ELHE1110,8,pos,0,pos0_id17_im14.bmp_pos0_id17_im9.bmp,['Im_HughJackman.png', 'Im_RobertDowneyJr.png', 'Im_GeorgeClooney.png', 'Im_MattDamon.png', 'Im_DanielCraig.png', 'Im_ElijahWood.png', 'Im_OrlandoBloom.png', 'Im_JustinTimberlake.png', 'Im_RyanGosling.png', 'Im_PatrickDempsey.png'],same,1,0.41647729999999683,28,95.23809523809524,
ELHE1110,8,pos,fs,posfs_id7_im14.bmp_posfs_id10_im1.bmp,['Im_HughJackman.png', 'Im_RobertDowneyJr.png', 'Im_GeorgeClooney.png', 'Im_MattDamon.png', 'Im_DanielCraig.png', 'Im_ElijahWood.png', 'Im_OrlandoBloom.png', 'Im_JustinTimberlake.png', 'Im_RyanGosling.png', 'Im_PatrickDempsey.png'],diff,1,0.4167377999999644,29,95.23809523809524,
ELHE1110,8,pos,90,pos90_id18_im11.bmp_pos90_id14_im18.bmp,['Im_HughJackman.png', 'Im_RobertDowneyJr.png', 'Im_GeorgeClooney.png', 'Im_MattDamon.png', 'Im_DanielCraig.png', 'Im_ElijahWood.png', 'Im_OrlandoBloom.png', 'Im_JustinTimberlake.png', 'Im_RyanGosling.png', 'Im_PatrickDempsey.png'],diff,1,0.4252635000000282,30,95.23809523809524,
ELHE1110,8,pos,120,pos120_id7_im26.bmp_pos120_id7_im14.bmp,['Im_HughJackman.png', 'Im_RobertDowneyJr.png', 'Im_GeorgeClooney.png', 'Im_MattDamon.png', 'Im_DanielCraig.png', 'Im_ElijahWood.png', 'Im_OrlandoBloom.png', 'Im_JustinTimberlake.png', 'Im_RyanGosling.png', 'Im_PatrickDempsey.png'],same,1,0.9584482000000207,31,95.23809523809524,
ELHE1110,8,pos,120,pos120_id20_im30.bmp_pos120_id20_im3.bmp,['Im_HughJackman.png', 'Im_RobertDowneyJr.png', 'Im_GeorgeClooney.png', 'Im_MattDamon.png', 'Im_DanielCraig.png', 'Im_ElijahWood.png', 'Im_OrlandoBloom.png', 'Im_JustinTimberlake.png', 'Im_RyanGosling.png', 'Im_PatrickDempsey.png'],same,1,0.5168174000000363,32,95.23809523809524,
ELHE1110,8,pos,60,pos60_id7_im26.bmp_pos60_id7_im15.bmp,['Im_HughJackman.png', 'Im_RobertDowneyJr.png', 'Im_GeorgeClooney.png', 'Im_MattDamon.png', 'Im_DanielCraig.png', 'Im_ElijahWood.png', 'Im_OrlandoBloom.png', 'Im_JustinTimberlake.png', 'Im_RyanGosling.png', 'Im_PatrickDempsey.png'],same,1,0.8085704999998597,33,95.23809523809524,
ELHE1110,8,pos,30,pos30_id20_im3.bmp_pos30_id7_im15.bmp,['Im_HughJackman.png', 'Im_RobertDowneyJr.png', 'Im_GeorgeClooney.png', 'Im_MattDamon.png', 'Im_DanielCraig.png', 'Im_ElijahWood.png', 'Im_OrlandoBloom.png', 'Im_JustinTimberlake.png', 'Im_RyanGosling.png', 'Im_PatrickDempsey.png'],diff,1,0.4334787000000233,34,95.23809523809524,
ELHE1110,8,pos,90,pos90_id7_im14.bmp_pos90_id6_im12.bmp,['Im_HughJackman.png', 'Im_RobertDowneyJr.png', 'Im_GeorgeClooney.png', 'Im_MattDamon.png', 'Im_DanielCraig.png', 'Im_ElijahWood.png', 'Im_OrlandoBloom.png', 'Im_JustinTimberlake.png', 'Im_RyanGosling.png', 'Im_PatrickDempsey.png'],diff,1,0.5417566999999508,35,95.23809523809524,
ELHE1110,8,pos,30,pos30_id16_im19.bmp_pos30_id16_im2.bmp,['Im_HughJackman.png', 'Im_RobertDowneyJr.png', 'Im_GeorgeClooney.png', 'Im_MattDamon.png', 'Im_DanielCraig.png', 'Im_ElijahWood.png', 'Im_OrlandoBloom.png', 'Im_JustinTimberlake.png', 'Im_RyanGosling.png', 'Im_PatrickDempsey.png'],same,1,0.41669210000009116,36,95.23809523809524,
ELHE1110,8,pos,fs,posfs_id14_im18.bmp_posfs_id18_im11.bmp,['Im_HughJackman.png', 'Im_RobertDowneyJr.png', 'Im_GeorgeClooney.png', 'Im_MattDamon.png', 'Im_DanielCraig.png', 'Im_ElijahWood.png', 'Im_OrlandoBloom.png', 'Im_JustinTimberlake.png', 'Im_RyanGosling.png', 'Im_PatrickDempsey.png'],diff,1,0.4250332999999955,37,95.23809523809524,
ELHE1110,8,pos,60,pos60_id10_im18.bmp_pos60_id10_im1.bmp,['Im_HughJackman.png', 'Im_RobertDowneyJr.png', 'Im_GeorgeClooney.png', 'Im_MattDamon.png', 'Im_DanielCraig.png', 'Im_ElijahWood.png', 'Im_OrlandoBloom.png', 'Im_JustinTimberlake.png', 'Im_RyanGosling.png', 'Im_PatrickDempsey.png'],same,1,0.4250551000000087,38,95.23809523809524,
ELHE1110,9,inv,0,pos0_id14_im16.bmp_pos0_id14_im18.bmp,['Im_HughJackman.png', 'Im_RobertDowneyJr.png', 'Im_GeorgeClooney.png', 'Im_MattDamon.png', 'Im_DanielCraig.png', 'Im_ElijahWood.png', 'Im_OrlandoBloom.png', 'Im_JustinTimberlake.png', 'Im_RyanGosling.png', 'Im_PatrickDempsey.png'],diff,0,0.4919213000000582,0,90.47619047619048,
ELHE1110,9,inv,60,pos60_id7_im14.bmp_pos60_id6_im12.bmp,['Im_HughJackman.png', 'Im_RobertDowneyJr.png', 'Im_GeorgeClooney.png', 'Im_MattDamon.png', 'Im_DanielCraig.png', 'Im_ElijahWood.png', 'Im_OrlandoBloom.png', 'Im_JustinTimberlake.png', 'Im_RyanGosling.png', 'Im_PatrickDempsey.png'],diff,1,0.7000465999999506,1,90.47619047619048,
ELHE1110,9,inv,150,pos150_id20_im3.bmp_pos150_id20_im12.bmp,['Im_HughJackman.png', 'Im_RobertDowneyJr.png', 'Im_GeorgeClooney.png', 'Im_MattDamon.png', 'Im_DanielCraig.png', 'Im_ElijahWood.png', 'Im_OrlandoBloom.png', 'Im_JustinTimberlake.png', 'Im_RyanGosling.png', 'Im_PatrickDempsey.png'],same,1,0.4165671000000657,2,90.47619047619048,
ELHE1110,9,inv,90,pos90_id10_im18.bmp_pos90_id20_im30.bmp,['Im_HughJackman.png', 'Im_RobertDowneyJr.png', 'Im_GeorgeClooney.png', 'Im_MattDamon.png', 'Im_DanielCraig.png', 'Im_ElijahWood.png', 'Im_OrlandoBloom.png', 'Im_JustinTimberlake.png', 'Im_RyanGosling.png', 'Im_PatrickDempsey.png'],diff,1,0.44174679999991895,3,90.47619047619048,
ELHE1110,9,inv,30,pos30_id20_im30.bmp_pos30_id20_im3.bmp,['Im_HughJackman.png', 'Im_RobertDowneyJr.png', 'Im_GeorgeClooney.png', 'Im_MattDamon.png', 'Im_DanielCraig.png', 'Im_ElijahWood.png', 'Im_OrlandoBloom.png', 'Im_JustinTimberlake.png', 'Im_RyanGosling.png', 'Im_PatrickDempsey.png'],same,1,0.42506090000006225,4,90.47619047619048,
ELHE1110,9,inv,90,pos90_id16_im19.bmp_pos90_id20_im12.bmp,['Im_HughJackman.png', 'Im_RobertDowneyJr.png', 'Im_GeorgeClooney.png', 'Im_MattDamon.png', 'Im_DanielCraig.png', 'Im_ElijahWood.png', 'Im_OrlandoBloom.png', 'Im_JustinTimberlake.png', 'Im_RyanGosling.png', 'Im_PatrickDempsey.png'],diff,1,0.500045099999852,5,90.47619047619048,
ELHE1110,9,inv,120,pos120_id7_im15.bmp_pos120_id7_im26.bmp,['Im_HughJackman.png', 'Im_RobertDowneyJr.png', 'Im_GeorgeClooney.png', 'Im_MattDamon.png', 'Im_DanielCraig.png', 'Im_ElijahWood.png', 'Im_OrlandoBloom.png', 'Im_JustinTimberlake.png', 'Im_RyanGosling.png', 'Im_PatrickDempsey.png'],same,1,0.4750429999999142,6,90.47619047619048,
ELHE1110,9,inv,0,pos0_id7_im14.bmp_pos0_id6_im12.bmp,['Im_HughJackman.png', 'Im_RobertDowneyJr.png', 'Im_GeorgeClooney.png', 'Im_MattDamon.png', 'Im_DanielCraig.png', 'Im_ElijahWood.png', 'Im_OrlandoBloom.png', 'Im_JustinTimberlake.png', 'Im_RyanGosling.png', 'Im_PatrickDempsey.png'],same,0,0.41669420000016544,6,90.47619047619048,
ELHE1110,9,inv,fs,posfs_id14_im24.bmp_posfs_id14_im18.bmp,['Im_HughJackman.png', 'Im_RobertDowneyJr.png', 'Im_GeorgeClooney.png', 'Im_MattDamon.png', 'Im_DanielCraig.png', 'Im_ElijahWood.png', 'Im_OrlandoBloom.png', 'Im_JustinTimberlake.png', 'Im_RyanGosling.png', 'Im_PatrickDempsey.png'],same,1,0.5917252000001554,7,90.47619047619048,
ELHE1110,9,inv,150,pos150_id6_im19.bmp_pos150_id17_im8.bmp,['Im_HughJackman.png', 'Im_RobertDowneyJr.png', 'Im_GeorgeClooney.png', 'Im_MattDamon.png', 'Im_DanielCraig.png', 'Im_ElijahWood.png', 'Im_OrlandoBloom.png', 'Im_JustinTimberlake.png', 'Im_RyanGosling.png', 'Im_PatrickDempsey.png'],diff,1,1.0834389999999985,8,90.47619047619048,
ELHE1110,9,inv,fs,posfs_id4_im20.bmp_posfs_id4_im7.bmp,['Im_HughJackman.png', 'Im_RobertDowneyJr.png', 'Im_GeorgeClooney.png', 'Im_MattDamon.png', 'Im_DanielCraig.png', 'Im_ElijahWood.png', 'Im_OrlandoBloom.png', 'Im_JustinTimberlake.png', 'Im_RyanGosling.png', 'Im_PatrickDempsey.png'],same,1,0.42529400000012174,9,90.47619047619048,
ELHE1110,9,inv,60,pos60_id16_im3.bmp_pos60_id16_im2.bmp,['Im_HughJackman.png', 'Im_RobertDowneyJr.png', 'Im_GeorgeClooney.png', 'Im_MattDamon.png', 'Im_DanielCraig.png', 'Im_ElijahWood.png', 'Im_OrlandoBloom.png', 'Im_JustinTimberlake.png', 'Im_RyanGosling.png', 'Im_PatrickDempsey.png'],diff,0,0.7000080000000253,9,90.47619047619048,
ELHE1110,9,inv,30,pos30_id16_im19.bmp_pos30_id16_im2.bmp,['Im_HughJackman.png', 'Im_RobertDowneyJr.png', 'Im_GeorgeClooney.png', 'Im_MattDamon.png', 'Im_DanielCraig.png', 'Im_ElijahWood.png', 'Im_OrlandoBloom.png', 'Im_JustinTimberlake.png', 'Im_RyanGosling.png', 'Im_PatrickDempsey.png'],same,1,0.41672650000009526,10,90.47619047619048,
ELHE1110,9,inv,120,pos120_id4_im15.bmp_pos120_id10_im1.bmp,['Im_HughJackman.png', 'Im_RobertDowneyJr.png', 'Im_GeorgeClooney.png', 'Im_MattDamon.png', 'Im_DanielCraig.png', 'Im_ElijahWood.png', 'Im_OrlandoBloom.png', 'Im_JustinTimberlake.png', 'Im_RyanGosling.png', 'Im_PatrickDempsey.png'],same,0,1.9167711000000054,10,90.47619047619048,
ELHE1110,10,inv,90,pos90_id18_im18.bmp_pos90_id18_im11.bmp,['Im_HughJackman.png', 'Im_RobertDowneyJr.png', 'Im_GeorgeClooney.png', 'Im_MattDamon.png', 'Im_DanielCraig.png', 'Im_ElijahWood.png', 'Im_OrlandoBloom.png', 'Im_JustinTimberlake.png', 'Im_RyanGosling.png', 'Im_PatrickDempsey.png'],diff,0,0.8671692999998868,10,90.47619047619048,
ELHE1110,10,inv,150,pos150_id16_im3.bmp_pos150_id18_im19.bmp,['Im_HughJackman.png', 'Im_RobertDowneyJr.png', 'Im_GeorgeClooney.png', 'Im_MattDamon.png', 'Im_DanielCraig.png', 'Im_ElijahWood.png', 'Im_OrlandoBloom.png', 'Im_JustinTimberlake.png', 'Im_RyanGosling.png', 'Im_PatrickDempsey.png'],same,0,0.4836024000001089,10,90.47619047619048,
ELHE1110,10,inv,60,pos60_id20_im12.bmp_pos60_id8_im20.bmp,['Im_HughJackman.png', 'Im_RobertDowneyJr.png', 'Im_GeorgeClooney.png', 'Im_MattDamon.png', 'Im_DanielCraig.png', 'Im_ElijahWood.png', 'Im_OrlandoBloom.png', 'Im_JustinTimberlake.png', 'Im_RyanGosling.png', 'Im_PatrickDempsey.png'],diff,1,0.42525670000009086,11,90.47619047619048,
ELHE1110,10,inv,fs,posfs_id14_im18.bmp_posfs_id17_im14.bmp,['Im_HughJackman.png', 'Im_RobertDowneyJr.png', 'Im_GeorgeClooney.png', 'Im_MattDamon.png', 'Im_DanielCraig.png', 'Im_ElijahWood.png', 'Im_OrlandoBloom.png', 'Im_JustinTimberlake.png', 'Im_RyanGosling.png', 'Im_PatrickDempsey.png'],diff,1,0.4165954000000056,12,90.47619047619048,
ELHE1110,10,inv,90,pos90_id18_im11.bmp_pos90_id6_im12.bmp,['Im_HughJackman.png', 'Im_RobertDowneyJr.png', 'Im_GeorgeClooney.png', 'Im_MattDamon.png', 'Im_DanielCraig.png', 'Im_ElijahWood.png', 'Im_OrlandoBloom.png', 'Im_JustinTimberlake.png', 'Im_RyanGosling.png', 'Im_PatrickDempsey.png'],diff,1,0.541574300000093,13,90.47619047619048,
ELHE1110,10,inv,60,pos60_id10_im17.bmp_pos60_id17_im8.bmp,['Im_HughJackman.png', 'Im_RobertDowneyJr.png', 'Im_GeorgeClooney.png', 'Im_MattDamon.png', 'Im_DanielCraig.png', 'Im_ElijahWood.png', 'Im_OrlandoBloom.png', 'Im_JustinTimberlake.png', 'Im_RyanGosling.png', 'Im_PatrickDempsey.png'],diff,1,0.7252578000000085,14,90.47619047619048,
ELHE1110,10,inv,fs,posfs_id10_im1.bmp_posfs_id7_im14.bmp,['Im_HughJackman.png', 'Im_RobertDowneyJr.png', 'Im_GeorgeClooney.png', 'Im_MattDamon.png', 'Im_DanielCraig.png', 'Im_ElijahWood.png', 'Im_OrlandoBloom.png', 'Im_JustinTimberlake.png', 'Im_RyanGosling.png', 'Im_PatrickDempsey.png'],diff,1,0.41684669999995094,15,90.47619047619048,
ELHE1110,10,inv,120,pos120_id17_im9.bmp_pos120_id17_im8.bmp,['Im_HughJackman.png', 'Im_RobertDowneyJr.png', 'Im_GeorgeClooney.png', 'Im_MattDamon.png', 'Im_DanielCraig.png', 'Im_ElijahWood.png', 'Im_OrlandoBloom.png', 'Im_JustinTimberlake.png', 'Im_RyanGosling.png', 'Im_PatrickDempsey.png'],diff,0,0.4334400000000187,15,90.47619047619048,
ELHE1110,10,inv,120,pos120_id14_im24.bmp_pos120_id14_im18.bmp,['Im_HughJackman.png', 'Im_RobertDowneyJr.png', 'Im_GeorgeClooney.png', 'Im_MattDamon.png', 'Im_DanielCraig.png', 'Im_ElijahWood.png', 'Im_OrlandoBloom.png', 'Im_JustinTimberlake.png', 'Im_RyanGosling.png', 'Im_PatrickDempsey.png'],same,1,0.4252297999998973,16,90.47619047619048,
ELHE1110,10,inv,0,pos0_id20_im3.bmp_pos0_id7_im26.bmp,['Im_HughJackman.png', 'Im_RobertDowneyJr.png', 'Im_GeorgeClooney.png', 'Im_MattDamon.png', 'Im_DanielCraig.png', 'Im_ElijahWood.png', 'Im_OrlandoBloom.png', 'Im_JustinTimberlake.png', 'Im_RyanGosling.png', 'Im_PatrickDempsey.png'],diff,1,0.41673900000000685,17,90.47619047619048,
ELHE1110,10,inv,0,pos0_id4_im20.bmp_pos0_id10_im17.bmp,['Im_HughJackman.png', 'Im_RobertDowneyJr.png', 'Im_GeorgeClooney.png', 'Im_MattDamon.png', 'Im_DanielCraig.png', 'Im_ElijahWood.png', 'Im_OrlandoBloom.png', 'Im_JustinTimberlake.png', 'Im_RyanGosling.png', 'Im_PatrickDempsey.png'],diff,1,0.41678550000006,18,90.47619047619048,
ELHE1110,10,inv,30,pos30_id6_im12.bmp_pos30_id7_im14.bmp,['Im_HughJackman.png', 'Im_RobertDowneyJr.png', 'Im_GeorgeClooney.png', 'Im_MattDamon.png', 'Im_DanielCraig.png', 'Im_ElijahWood.png', 'Im_OrlandoBloom.png', 'Im_JustinTimberlake.png', 'Im_RyanGosling.png', 'Im_PatrickDempsey.png'],diff,1,0.41674859999989167,19,90.47619047619048,
ELHE1110,10,inv,150,pos150_id18_im19.bmp_pos150_id14_im16.bmp,['Im_HughJackman.png', 'Im_RobertDowneyJr.png', 'Im_GeorgeClooney.png', 'Im_MattDamon.png', 'Im_DanielCraig.png', 'Im_ElijahWood.png', 'Im_OrlandoBloom.png', 'Im_JustinTimberlake.png', 'Im_RyanGosling.png', 'Im_PatrickDempsey.png'],diff,1,0.47537130000000616,20,90.47619047619048,
ELHE1110,10,inv,30,pos30_id6_im19.bmp_pos30_id6_im18.bmp,['Im_HughJackman.png', 'Im_RobertDowneyJr.png', 'Im_GeorgeClooney.png', 'Im_MattDamon.png', 'Im_DanielCraig.png', 'Im_ElijahWood.png', 'Im_OrlandoBloom.png', 'Im_JustinTimberlake.png', 'Im_RyanGosling.png', 'Im_PatrickDempsey.png'],same,1,0.42503949999991164,21,90.47619047619048,
ELHE1110,11,neg,90,neg90_id4_im15.bmp_neg90_id10_im1.bmp,['Im_HughJackman.png', 'Im_RobertDowneyJr.png', 'Im_GeorgeClooney.png', 'Im_MattDamon.png', 'Im_DanielCraig.png', 'Im_ElijahWood.png', 'Im_OrlandoBloom.png', 'Im_JustinTimberlake.png', 'Im_RyanGosling.png', 'Im_PatrickDempsey.png'],diff,1,0.425041100000044,22,90.47619047619048,
ELHE1110,11,neg,60,neg60_id18_im19.bmp_neg60_id18_im18.bmp,['Im_HughJackman.png', 'Im_RobertDowneyJr.png', 'Im_GeorgeClooney.png', 'Im_MattDamon.png', 'Im_DanielCraig.png', 'Im_ElijahWood.png', 'Im_OrlandoBloom.png', 'Im_JustinTimberlake.png', 'Im_RyanGosling.png', 'Im_PatrickDempsey.png'],same,1,0.4250563000000511,23,90.47619047619048,
ELHE1110,11,neg,120,neg120_id6_im19.bmp_neg120_id6_im18.bmp,['Im_HughJackman.png', 'Im_RobertDowneyJr.png', 'Im_GeorgeClooney.png', 'Im_MattDamon.png', 'Im_DanielCraig.png', 'Im_ElijahWood.png', 'Im_OrlandoBloom.png', 'Im_JustinTimberlake.png', 'Im_RyanGosling.png', 'Im_PatrickDempsey.png'],same,1,0.42529500000000553,24,90.47619047619048,
ELHE1110,11,neg,fs,negfs_id4_im15.bmp_negfs_id14_im24.bmp,['Im_HughJackman.png', 'Im_RobertDowneyJr.png', 'Im_GeorgeClooney.png', 'Im_MattDamon.png', 'Im_DanielCraig.png', 'Im_ElijahWood.png', 'Im_OrlandoBloom.png', 'Im_JustinTimberlake.png', 'Im_RyanGosling.png', 'Im_PatrickDempsey.png'],diff,1,0.42497210000010455,25,90.47619047619048,
ELHE1110,11,neg,150,neg150_id6_im18.bmp_neg150_id6_im12.bmp,['Im_HughJackman.png', 'Im_RobertDowneyJr.png', 'Im_GeorgeClooney.png', 'Im_MattDamon.png', 'Im_DanielCraig.png', 'Im_ElijahWood.png', 'Im_OrlandoBloom.png', 'Im_JustinTimberlake.png', 'Im_RyanGosling.png', 'Im_PatrickDempsey.png'],same,1,0.4250792000000274,26,90.47619047619048,
ELHE1110,11,neg,120,neg120_id16_im2.bmp_neg120_id16_im19.bmp,['Im_HughJackman.png', 'Im_RobertDowneyJr.png', 'Im_GeorgeClooney.png', 'Im_MattDamon.png', 'Im_DanielCraig.png', 'Im_ElijahWood.png', 'Im_OrlandoBloom.png', 'Im_JustinTimberlake.png', 'Im_RyanGosling.png', 'Im_PatrickDempsey.png'],same,1,0.41675099999997656,27,90.47619047619048,
ELHE1110,11,neg,90,neg90_id7_im26.bmp_neg90_id16_im19.bmp,['Im_HughJackman.png', 'Im_RobertDowneyJr.png', 'Im_GeorgeClooney.png', 'Im_MattDamon.png', 'Im_DanielCraig.png', 'Im_ElijahWood.png', 'Im_OrlandoBloom.png', 'Im_JustinTimberlake.png', 'Im_RyanGosling.png', 'Im_PatrickDempsey.png'],diff,1,0.41676619999998366,28,90.47619047619048,
ELHE1110,11,neg,150,neg150_id10_im17.bmp_neg150_id17_im8.bmp,['Im_HughJackman.png', 'Im_RobertDowneyJr.png', 'Im_GeorgeClooney.png', 'Im_MattDamon.png', 'Im_DanielCraig.png', 'Im_ElijahWood.png', 'Im_OrlandoBloom.png', 'Im_JustinTimberlake.png', 'Im_RyanGosling.png', 'Im_PatrickDempsey.png'],diff,1,0.42497670000011567,29,90.47619047619048,
ELHE1110,11,neg,30,neg30_id16_im19.bmp_neg30_id7_im26.bmp,['Im_HughJackman.png', 'Im_RobertDowneyJr.png', 'Im_GeorgeClooney.png', 'Im_MattDamon.png', 'Im_DanielCraig.png', 'Im_ElijahWood.png', 'Im_OrlandoBloom.png', 'Im_JustinTimberlake.png', 'Im_RyanGosling.png', 'Im_PatrickDempsey.png'],diff,1,0.416717300000073,30,90.47619047619048,
ELHE1110,11,neg,fs,negfs_id4_im7.bmp_negfs_id4_im15.bmp,['Im_HughJackman.png', 'Im_RobertDowneyJr.png', 'Im_GeorgeClooney.png', 'Im_MattDamon.png', 'Im_DanielCraig.png', 'Im_ElijahWood.png', 'Im_OrlandoBloom.png', 'Im_JustinTimberlake.png', 'Im_RyanGosling.png', 'Im_PatrickDempsey.png'],same,1,0.4167422999998962,31,90.47619047619048,
ELHE1110,11,neg,0,neg0_id18_im11.bmp_neg0_id18_im19.bmp,['Im_HughJackman.png', 'Im_RobertDowneyJr.png', 'Im_GeorgeClooney.png', 'Im_MattDamon.png', 'Im_DanielCraig.png', 'Im_ElijahWood.png', 'Im_OrlandoBloom.png', 'Im_JustinTimberlake.png', 'Im_RyanGosling.png', 'Im_PatrickDempsey.png'],same,1,0.4167043999998441,32,90.47619047619048,
ELHE1110,11,neg,60,neg60_id8_im13.bmp_neg60_id8_im21.bmp,['Im_HughJackman.png', 'Im_RobertDowneyJr.png', 'Im_GeorgeClooney.png', 'Im_MattDamon.png', 'Im_DanielCraig.png', 'Im_ElijahWood.png', 'Im_OrlandoBloom.png', 'Im_JustinTimberlake.png', 'Im_RyanGosling.png', 'Im_PatrickDempsey.png'],same,1,0.41672089999997297,33,90.47619047619048,
ELHE1110,11,neg,30,neg30_id10_im1.bmp_neg30_id10_im18.bmp,['Im_HughJackman.png', 'Im_RobertDowneyJr.png', 'Im_GeorgeClooney.png', 'Im_MattDamon.png', 'Im_DanielCraig.png', 'Im_ElijahWood.png', 'Im_OrlandoBloom.png', 'Im_JustinTimberlake.png', 'Im_RyanGosling.png', 'Im_PatrickDempsey.png'],same,1,0.45009129999994,34,90.47619047619048,
ELHE1110,11,neg,0,neg0_id8_im13.bmp_neg0_id8_im21.bmp,['Im_HughJackman.png', 'Im_RobertDowneyJr.png', 'Im_GeorgeClooney.png', 'Im_MattDamon.png', 'Im_DanielCraig.png', 'Im_ElijahWood.png', 'Im_OrlandoBloom.png', 'Im_JustinTimberlake.png', 'Im_RyanGosling.png', 'Im_PatrickDempsey.png'],same,1,0.4587484000001041,35,90.47619047619048,
ELHE1110,12,pos,150,pos150_id16_im3.bmp_pos150_id8_im13.bmp,['Im_HughJackman.png', 'Im_RobertDowneyJr.png', 'Im_GeorgeClooney.png', 'Im_MattDamon.png', 'Im_DanielCraig.png', 'Im_ElijahWood.png', 'Im_OrlandoBloom.png', 'Im_JustinTimberlake.png', 'Im_RyanGosling.png', 'Im_PatrickDempsey.png'],diff,1,0.4167977999998129,1,83.33333333333333,
ELHE1110,12,pos,90,pos90_id7_im15.bmp_pos90_id7_im26.bmp,['Im_HughJackman.png', 'Im_RobertDowneyJr.png', 'Im_GeorgeClooney.png', 'Im_MattDamon.png', 'Im_DanielCraig.png', 'Im_ElijahWood.png', 'Im_OrlandoBloom.png', 'Im_JustinTimberlake.png', 'Im_RyanGosling.png', 'Im_PatrickDempsey.png'],diff,0,0.4167953999999554,1,83.33333333333333,
ELHE1110,12,pos,120,pos120_id6_im12.bmp_pos120_id6_im18.bmp,['Im_HughJackman.png', 'Im_RobertDowneyJr.png', 'Im_GeorgeClooney.png', 'Im_MattDamon.png', 'Im_DanielCraig.png', 'Im_ElijahWood.png', 'Im_OrlandoBloom.png', 'Im_JustinTimberlake.png', 'Im_RyanGosling.png', 'Im_PatrickDempsey.png'],same,1,0.4083556000000499,2,83.33333333333333,
ELHE1110,12,pos,120,pos120_id20_im12.bmp_pos120_id16_im19.bmp,['Im_HughJackman.png', 'Im_RobertDowneyJr.png', 'Im_GeorgeClooney.png', 'Im_MattDamon.png', 'Im_DanielCraig.png', 'Im_ElijahWood.png', 'Im_OrlandoBloom.png', 'Im_JustinTimberlake.png', 'Im_RyanGosling.png', 'Im_PatrickDempsey.png'],diff,1,0.425069300000132,3,83.33333333333333,
ELHE1110,12,pos,0,pos0_id7_im14.bmp_pos0_id7_im26.bmp,['Im_HughJackman.png', 'Im_RobertDowneyJr.png', 'Im_GeorgeClooney.png', 'Im_MattDamon.png', 'Im_DanielCraig.png', 'Im_ElijahWood.png', 'Im_OrlandoBloom.png', 'Im_JustinTimberlake.png', 'Im_RyanGosling.png', 'Im_PatrickDempsey.png'],same,1,0.4167239000000791,4,83.33333333333333,
ELHE1110,12,pos,90,pos90_id18_im19.bmp_pos90_id14_im16.bmp,['Im_HughJackman.png', 'Im_RobertDowneyJr.png', 'Im_GeorgeClooney.png', 'Im_MattDamon.png', 'Im_DanielCraig.png', 'Im_ElijahWood.png', 'Im_OrlandoBloom.png', 'Im_JustinTimberlake.png', 'Im_RyanGosling.png', 'Im_PatrickDempsey.png'],diff,1,0.5417890999999599,5,83.33333333333333,
ELHE1110,12,pos,150,pos150_id7_im14.bmp_pos150_id6_im12.bmp,['Im_HughJackman.png', 'Im_RobertDowneyJr.png', 'Im_GeorgeClooney.png', 'Im_MattDamon.png', 'Im_DanielCraig.png', 'Im_ElijahWood.png', 'Im_OrlandoBloom.png', 'Im_JustinTimberlake.png', 'Im_RyanGosling.png', 'Im_PatrickDempsey.png'],diff,1,0.5414478999998664,6,83.33333333333333,
ELHE1110,12,pos,fs,posfs_id20_im30.bmp_posfs_id20_im3.bmp,['Im_HughJackman.png', 'Im_RobertDowneyJr.png', 'Im_GeorgeClooney.png', 'Im_MattDamon.png', 'Im_DanielCraig.png', 'Im_ElijahWood.png', 'Im_OrlandoBloom.png', 'Im_JustinTimberlake.png', 'Im_RyanGosling.png', 'Im_PatrickDempsey.png'],same,1,0.4167151000001468,7,83.33333333333333,
ELHE1110,12,pos,0,pos0_id16_im3.bmp_pos0_id16_im2.bmp,['Im_HughJackman.png', 'Im_RobertDowneyJr.png', 'Im_GeorgeClooney.png', 'Im_MattDamon.png', 'Im_DanielCraig.png', 'Im_ElijahWood.png', 'Im_OrlandoBloom.png', 'Im_JustinTimberlake.png', 'Im_RyanGosling.png', 'Im_PatrickDempsey.png'],same,1,0.4167709000000741,8,83.33333333333333,
ELHE1110,12,pos,60,pos60_id14_im24.bmp_pos60_id4_im15.bmp,['Im_HughJackman.png', 'Im_RobertDowneyJr.png', 'Im_GeorgeClooney.png', 'Im_MattDamon.png', 'Im_DanielCraig.png', 'Im_ElijahWood.png', 'Im_OrlandoBloom.png', 'Im_JustinTimberlake.png', 'Im_RyanGosling.png', 'Im_PatrickDempsey.png'],diff,1,0.4168797000002087,9,83.33333333333333,
ELHE1110,12,pos,60,pos60_id17_im8.bmp_pos60_id17_im9.bmp,['Im_HughJackman.png', 'Im_RobertDowneyJr.png', 'Im_GeorgeClooney.png', 'Im_MattDamon.png', 'Im_DanielCraig.png', 'Im_ElijahWood.png', 'Im_OrlandoBloom.png', 'Im_JustinTimberlake.png', 'Im_RyanGosling.png', 'Im_PatrickDempsey.png'],same,1,0.6833567999999559,10,83.33333333333333,
ELHE1110,12,pos,30,pos30_id16_im19.bmp_pos30_id20_im12.bmp,['Im_HughJackman.png', 'Im_RobertDowneyJr.png', 'Im_GeorgeClooney.png', 'Im_MattDamon.png', 'Im_DanielCraig.png', 'Im_ElijahWood.png', 'Im_OrlandoBloom.png', 'Im_JustinTimberlake.png', 'Im_RyanGosling.png', 'Im_PatrickDempsey.png'],diff,1,0.41672110000013163,11,83.33333333333333,
ELHE1110,12,pos,fs,posfs_id18_im11.bmp_posfs_id18_im18.bmp,['Im_HughJackman.png', 'Im_RobertDowneyJr.png', 'Im_GeorgeClooney.png', 'Im_MattDamon.png', 'Im_DanielCraig.png', 'Im_ElijahWood.png', 'Im_OrlandoBloom.png', 'Im_JustinTimberlake.png', 'Im_RyanGosling.png', 'Im_PatrickDempsey.png'],same,1,0.41671519999999873,12,83.33333333333333,
ELHE1110,12,pos,30,pos30_id14_im16.bmp_pos30_id16_im2.bmp,['Im_HughJackman.png', 'Im_RobertDowneyJr.png', 'Im_GeorgeClooney.png', 'Im_MattDamon.png', 'Im_DanielCraig.png', 'Im_ElijahWood.png', 'Im_OrlandoBloom.png', 'Im_JustinTimberlake.png', 'Im_RyanGosling.png', 'Im_PatrickDempsey.png'],diff,1,0.4167863000000125,13,83.33333333333333,
ELHE1110,13,neg,90,neg90_id10_im1.bmp_neg90_id7_im14.bmp,['Im_HughJackman.png', 'Im_RobertDowneyJr.png', 'Im_GeorgeClooney.png', 'Im_MattDamon.png', 'Im_DanielCraig.png', 'Im_ElijahWood.png', 'Im_OrlandoBloom.png', 'Im_JustinTimberlake.png', 'Im_RyanGosling.png', 'Im_PatrickDempsey.png'],diff,1,0.5252050999999938,14,83.33333333333333,
ELHE1110,13,neg,90,neg90_id18_im19.bmp_neg90_id14_im16.bmp,['Im_HughJackman.png', 'Im_RobertDowneyJr.png', 'Im_GeorgeClooney.png', 'Im_MattDamon.png', 'Im_DanielCraig.png', 'Im_ElijahWood.png', 'Im_OrlandoBloom.png', 'Im_JustinTimberlake.png', 'Im_RyanGosling.png', 'Im_PatrickDempsey.png'],diff,1,0.8748610000000099,15,83.33333333333333,
ELHE1110,13,neg,fs,negfs_id20_im3.bmp_negfs_id20_im30.bmp,['Im_HughJackman.png', 'Im_RobertDowneyJr.png', 'Im_GeorgeClooney.png', 'Im_MattDamon.png', 'Im_DanielCraig.png', 'Im_ElijahWood.png', 'Im_OrlandoBloom.png', 'Im_JustinTimberlake.png', 'Im_RyanGosling.png', 'Im_PatrickDempsey.png'],same,1,0.5667945999998665,16,83.33333333333333,
ELHE1110,13,neg,150,neg150_id20_im3.bmp_neg150_id20_im12.bmp,['Im_HughJackman.png', 'Im_RobertDowneyJr.png', 'Im_GeorgeClooney.png', 'Im_MattDamon.png', 'Im_DanielCraig.png', 'Im_ElijahWood.png', 'Im_OrlandoBloom.png', 'Im_JustinTimberlake.png', 'Im_RyanGosling.png', 'Im_PatrickDempsey.png'],same,1,0.4250461000001451,17,83.33333333333333,
ELHE1110,13,neg,150,neg150_id17_im8.bmp_neg150_id17_im14.bmp,['Im_HughJackman.png', 'Im_RobertDowneyJr.png', 'Im_GeorgeClooney.png', 'Im_MattDamon.png', 'Im_DanielCraig.png', 'Im_ElijahWood.png', 'Im_OrlandoBloom.png', 'Im_JustinTimberlake.png', 'Im_RyanGosling.png', 'Im_PatrickDempsey.png'],same,1,0.5004420000000209,18,83.33333333333333,
ELHE1110,13,neg,120,neg120_id10_im1.bmp_neg120_id7_im14.bmp,['Im_HughJackman.png', 'Im_RobertDowneyJr.png', 'Im_GeorgeClooney.png', 'Im_MattDamon.png', 'Im_DanielCraig.png', 'Im_ElijahWood.png', 'Im_OrlandoBloom.png', 'Im_JustinTimberlake.png', 'Im_RyanGosling.png', 'Im_PatrickDempsey.png'],diff,1,0.4251894999999877,19,83.33333333333333,
ELHE1110,13,neg,30,neg30_id20_im12.bmp_neg30_id20_im30.bmp,['Im_HughJackman.png', 'Im_RobertDowneyJr.png', 'Im_GeorgeClooney.png', 'Im_MattDamon.png', 'Im_DanielCraig.png', 'Im_ElijahWood.png', 'Im_OrlandoBloom.png', 'Im_JustinTimberlake.png', 'Im_RyanGosling.png', 'Im_PatrickDempsey.png'],same,1,0.41689689999998336,20,83.33333333333333,
ELHE1110,13,neg,fs,negfs_id4_im20.bmp_negfs_id10_im17.bmp,['Im_HughJackman.png', 'Im_RobertDowneyJr.png', 'Im_GeorgeClooney.png', 'Im_MattDamon.png', 'Im_DanielCraig.png', 'Im_ElijahWood.png', 'Im_OrlandoBloom.png', 'Im_JustinTimberlake.png', 'Im_RyanGosling.png', 'Im_PatrickDempsey.png'],diff,1,0.4250201999998353,21,83.33333333333333,
ELHE1110,13,neg,0,neg0_id10_im18.bmp_neg0_id14_im24.bmp,['Im_HughJackman.png', 'Im_RobertDowneyJr.png', 'Im_GeorgeClooney.png', 'Im_MattDamon.png', 'Im_DanielCraig.png', 'Im_ElijahWood.png', 'Im_OrlandoBloom.png', 'Im_JustinTimberlake.png', 'Im_RyanGosling.png', 'Im_PatrickDempsey.png'],diff,1,0.45859010000003764,22,83.33333333333333,
ELHE1110,13,neg,0,neg0_id10_im1.bmp_neg0_id7_im14.bmp,['Im_HughJackman.png', 'Im_RobertDowneyJr.png', 'Im_GeorgeClooney.png', 'Im_MattDamon.png', 'Im_DanielCraig.png', 'Im_ElijahWood.png', 'Im_OrlandoBloom.png', 'Im_JustinTimberlake.png', 'Im_RyanGosling.png', 'Im_PatrickDempsey.png'],diff,1,0.46682590000000346,23,83.33333333333333,
ELHE1110,13,neg,60,neg60_id10_im17.bmp_neg60_id10_im18.bmp,['Im_HughJackman.png', 'Im_RobertDowneyJr.png', 'Im_GeorgeClooney.png', 'Im_MattDamon.png', 'Im_DanielCraig.png', 'Im_ElijahWood.png', 'Im_OrlandoBloom.png', 'Im_JustinTimberlake.png', 'Im_RyanGosling.png', 'Im_PatrickDempsey.png'],same,1,0.5000618000001396,24,83.33333333333333,
ELHE1110,13,neg,60,neg60_id7_im14.bmp_neg60_id6_im12.bmp,['Im_HughJackman.png', 'Im_RobertDowneyJr.png', 'Im_GeorgeClooney.png', 'Im_MattDamon.png', 'Im_DanielCraig.png', 'Im_ElijahWood.png', 'Im_OrlandoBloom.png', 'Im_JustinTimberlake.png', 'Im_RyanGosling.png', 'Im_PatrickDempsey.png'],diff,1,0.833340200000066,25,83.33333333333333,
ELHE1110,13,neg,120,neg120_id20_im3.bmp_neg120_id20_im30.bmp,['Im_HughJackman.png', 'Im_RobertDowneyJr.png', 'Im_GeorgeClooney.png', 'Im_MattDamon.png', 'Im_DanielCraig.png', 'Im_ElijahWood.png', 'Im_OrlandoBloom.png', 'Im_JustinTimberlake.png', 'Im_RyanGosling.png', 'Im_PatrickDempsey.png'],diff,0,1.3668977999998333,25,83.33333333333333,
ELHE1110,13,neg,30,neg30_id4_im7.bmp_neg30_id4_im20.bmp,['Im_HughJackman.png', 'Im_RobertDowneyJr.png', 'Im_GeorgeClooney.png', 'Im_MattDamon.png', 'Im_DanielCraig.png', 'Im_ElijahWood.png', 'Im_OrlandoBloom.png', 'Im_JustinTimberlake.png', 'Im_RyanGosling.png', 'Im_PatrickDempsey.png'],diff,0,1.3167441999999028,25,83.33333333333333,
ELHE1110,14,inv,120,pos120_id7_im26.bmp_pos120_id7_im14.bmp,['Im_HughJackman.png', 'Im_RobertDowneyJr.png', 'Im_GeorgeClooney.png', 'Im_MattDamon.png', 'Im_DanielCraig.png', 'Im_ElijahWood.png', 'Im_OrlandoBloom.png', 'Im_JustinTimberlake.png', 'Im_RyanGosling.png', 'Im_PatrickDempsey.png'],same,1,1.533377400000063,26,83.33333333333333,
ELHE1110,14,inv,90,pos90_id20_im12.bmp_pos90_id8_im20.bmp,['Im_HughJackman.png', 'Im_RobertDowneyJr.png', 'Im_GeorgeClooney.png', 'Im_MattDamon.png', 'Im_DanielCraig.png', 'Im_ElijahWood.png', 'Im_OrlandoBloom.png', 'Im_JustinTimberlake.png', 'Im_RyanGosling.png', 'Im_PatrickDempsey.png'],diff,1,0.8084547000000839,27,83.33333333333333,
ELHE1110,14,inv,30,pos30_id20_im30.bmp_pos30_id10_im18.bmp,['Im_HughJackman.png', 'Im_RobertDowneyJr.png', 'Im_GeorgeClooney.png', 'Im_MattDamon.png', 'Im_DanielCraig.png', 'Im_ElijahWood.png', 'Im_OrlandoBloom.png', 'Im_JustinTimberlake.png', 'Im_RyanGosling.png', 'Im_PatrickDempsey.png'],diff,1,0.40838189999999486,28,83.33333333333333,
ELHE1110,14,inv,0,pos0_id14_im16.bmp_pos0_id14_im24.bmp,['Im_HughJackman.png', 'Im_RobertDowneyJr.png', 'Im_GeorgeClooney.png', 'Im_MattDamon.png', 'Im_DanielCraig.png', 'Im_ElijahWood.png', 'Im_OrlandoBloom.png', 'Im_JustinTimberlake.png', 'Im_RyanGosling.png', 'Im_PatrickDempsey.png'],same,1,0.416762800000015,29,83.33333333333333,
ELHE1110,14,inv,0,pos0_id17_im9.bmp_pos0_id17_im14.bmp,['Im_HughJackman.png', 'Im_RobertDowneyJr.png', 'Im_GeorgeClooney.png', 'Im_MattDamon.png', 'Im_DanielCraig.png', 'Im_ElijahWood.png', 'Im_OrlandoBloom.png', 'Im_JustinTimberlake.png', 'Im_RyanGosling.png', 'Im_PatrickDempsey.png'],same,1,0.41702250000003005,30,83.33333333333333,
ELHE1110,14,inv,60,pos60_id18_im18.bmp_pos60_id18_im19.bmp,['Im_HughJackman.png', 'Im_RobertDowneyJr.png', 'Im_GeorgeClooney.png', 'Im_MattDamon.png', 'Im_DanielCraig.png', 'Im_ElijahWood.png', 'Im_OrlandoBloom.png', 'Im_JustinTimberlake.png', 'Im_RyanGosling.png', 'Im_PatrickDempsey.png'],same,1,1.2502160999999887,31,83.33333333333333,
ELHE1110,14,inv,120,pos120_id10_im18.bmp_pos120_id14_im24.bmp,['Im_HughJackman.png', 'Im_RobertDowneyJr.png', 'Im_GeorgeClooney.png', 'Im_MattDamon.png', 'Im_DanielCraig.png', 'Im_ElijahWood.png', 'Im_OrlandoBloom.png', 'Im_JustinTimberlake.png', 'Im_RyanGosling.png', 'Im_PatrickDempsey.png'],diff,1,1.441720499999974,32,83.33333333333333,
ELHE1110,14,inv,90,pos90_id20_im3.bmp_pos90_id7_im15.bmp,['Im_HughJackman.png', 'Im_RobertDowneyJr.png', 'Im_GeorgeClooney.png', 'Im_MattDamon.png', 'Im_DanielCraig.png', 'Im_ElijahWood.png', 'Im_OrlandoBloom.png', 'Im_JustinTimberlake.png', 'Im_RyanGosling.png', 'Im_PatrickDempsey.png'],diff,1,0.4167362000000594,33,83.33333333333333,
ELHE1110,14,inv,150,pos150_id8_im21.bmp_pos150_id8_im20.bmp,['Im_HughJackman.png', 'Im_RobertDowneyJr.png', 'Im_GeorgeClooney.png', 'Im_MattDamon.png', 'Im_DanielCraig.png', 'Im_ElijahWood.png', 'Im_OrlandoBloom.png', 'Im_JustinTimberlake.png', 'Im_RyanGosling.png', 'Im_PatrickDempsey.png'],same,1,0.41669679999995424,34,83.33333333333333,
ELHE1110,14,inv,150,pos150_id17_im8.bmp_pos150_id10_im17.bmp,['Im_HughJackman.png', 'Im_RobertDowneyJr.png', 'Im_GeorgeClooney.png', 'Im_MattDamon.png', 'Im_DanielCraig.png', 'Im_ElijahWood.png', 'Im_OrlandoBloom.png', 'Im_JustinTimberlake.png', 'Im_RyanGosling.png', 'Im_PatrickDempsey.png'],diff,1,1.041785000000118,35,83.33333333333333,
ELHE1110,14,inv,60,pos60_id20_im30.bmp_pos60_id20_im3.bmp,['Im_HughJackman.png', 'Im_RobertDowneyJr.png', 'Im_GeorgeClooney.png', 'Im_MattDamon.png', 'Im_DanielCraig.png', 'Im_ElijahWood.png', 'Im_OrlandoBloom.png', 'Im_JustinTimberlake.png', 'Im_RyanGosling.png', 'Im_PatrickDempsey.png'],same,1,0.4167500999999447,36,83.33333333333333,
ELHE1110,14,inv,fs,posfs_id18_im18.bmp_posfs_id8_im21.bmp,['Im_HughJackman.png', 'Im_RobertDowneyJr.png', 'Im_GeorgeClooney.png', 'Im_MattDamon.png', 'Im_DanielCraig.png', 'Im_ElijahWood.png', 'Im_OrlandoBloom.png', 'Im_JustinTimberlake.png', 'Im_RyanGosling.png', 'Im_PatrickDempsey.png'],diff,1,0.4666928999999982,37,83.33333333333333,
ELHE1110,14,inv,fs,posfs_id17_im14.bmp_posfs_id4_im7.bmp,['Im_HughJackman.png', 'Im_RobertDowneyJr.png', 'Im_GeorgeClooney.png', 'Im_MattDamon.png', 'Im_DanielCraig.png', 'Im_ElijahWood.png', 'Im_OrlandoBloom.png', 'Im_JustinTimberlake.png', 'Im_RyanGosling.png', 'Im_PatrickDempsey.png'],diff,1,0.41672810000000027,38,83.33333333333333,
ELHE1110,14,inv,30,pos30_id17_im14.bmp_pos30_id17_im9.bmp,['Im_HughJackman.png', 'Im_RobertDowneyJr.png', 'Im_GeorgeClooney.png', 'Im_MattDamon.png', 'Im_DanielCraig.png', 'Im_ElijahWood.png', 'Im_OrlandoBloom.png', 'Im_JustinTimberlake.png', 'Im_RyanGosling.png', 'Im_PatrickDempsey.png'],same,1,0.4167519000000084,39,83.33333333333333,
ELHE1110,15,pos,60,pos60_id17_im8.bmp_pos60_id6_im19.bmp,['Im_HughJackman.png', 'Im_RobertDowneyJr.png', 'Im_GeorgeClooney.png', 'Im_MattDamon.png', 'Im_DanielCraig.png', 'Im_ElijahWood.png', 'Im_OrlandoBloom.png', 'Im_JustinTimberlake.png', 'Im_RyanGosling.png', 'Im_PatrickDempsey.png'],diff,1,0.4167219999999361,1,92.85714285714286,
ELHE1110,15,pos,120,pos120_id4_im15.bmp_pos120_id4_im20.bmp,['Im_HughJackman.png', 'Im_RobertDowneyJr.png', 'Im_GeorgeClooney.png', 'Im_MattDamon.png', 'Im_DanielCraig.png', 'Im_ElijahWood.png', 'Im_OrlandoBloom.png', 'Im_JustinTimberlake.png', 'Im_RyanGosling.png', 'Im_PatrickDempsey.png'],same,1,0.4840733999999429,2,92.85714285714286,
ELHE1110,15,pos,120,pos120_id8_im20.bmp_pos120_id20_im12.bmp,['Im_HughJackman.png', 'Im_RobertDowneyJr.png', 'Im_GeorgeClooney.png', 'Im_MattDamon.png', 'Im_DanielCraig.png', 'Im_ElijahWood.png', 'Im_OrlandoBloom.png', 'Im_JustinTimberlake.png', 'Im_RyanGosling.png', 'Im_PatrickDempsey.png'],diff,1,0.4250162000000728,3,92.85714285714286,
ELHE1110,15,pos,90,pos90_id17_im8.bmp_pos90_id17_im14.bmp,['Im_HughJackman.png', 'Im_RobertDowneyJr.png', 'Im_GeorgeClooney.png', 'Im_MattDamon.png', 'Im_DanielCraig.png', 'Im_ElijahWood.png', 'Im_OrlandoBloom.png', 'Im_JustinTimberlake.png', 'Im_RyanGosling.png', 'Im_PatrickDempsey.png'],same,1,0.43355610000003253,4,92.85714285714286,
