Sujet,Trial,Condition,Filter,Imname,Actor0,Actor1,Actor2,Actor3,Actor4,Actor5,Actor6,Actor7,Actor8,Actor9,Answer,Accu,RT,Score,Scoreperc, 
EVES0409,train,pos,120,pos120_id3_im6.bmp_pos120_id1_im4.bmp,['Im_JustinTimberlake.png', 'Im_MattDamon.png', 'Im_LeonardoDiCaprio.png', 'Im_BenAffleck.png', 'Im_OrlandoBloom.png', 'Im_RyanGosling.png', 'Im_RobertDowneyJr.png', 'Im_GeorgeClooney.png', 'Im_ElijahWood.png', 'Im_BradPitt.png'],same,0,0.5334060000004683,0,0,
EVES0409,train,pos,30,pos30_id1_im21.bmp_pos30_id1_im4.bmp,['Im_JustinTimberlake.png', 'Im_MattDamon.png', 'Im_LeonardoDiCaprio.png', 'Im_BenAffleck.png', 'Im_OrlandoBloom.png', 'Im_RyanGosling.png', 'Im_RobertDowneyJr.png', 'Im_GeorgeClooney.png', 'Im_ElijahWood.png', 'Im_BradPitt.png'],same,1,0.40835150000020803,1,0,
EVES0409,train,pos,90,pos90_id6_im12.bmp_pos90_id10_im1.bmp,['Im_JustinTimberlake.png', 'Im_MattDamon.png', 'Im_LeonardoDiCaprio.png', 'Im_BenAffleck.png', 'Im_OrlandoBloom.png', 'Im_RyanGosling.png', 'Im_RobertDowneyJr.png', 'Im_GeorgeClooney.png', 'Im_ElijahWood.png', 'Im_BradPitt.png'],diff,1,0.41674179999972694,2,0,
EVES0409,train,pos,60,pos60_id1_im4.bmp_pos60_id1_im21.bmp,['Im_JustinTimberlake.png', 'Im_MattDamon.png', 'Im_LeonardoDiCaprio.png', 'Im_BenAffleck.png', 'Im_OrlandoBloom.png', 'Im_RyanGosling.png', 'Im_RobertDowneyJr.png', 'Im_GeorgeClooney.png', 'Im_ElijahWood.png', 'Im_BradPitt.png'],same,1,0.41670629999862285,3,0,
EVES0409,train,pos,150,pos150_id20_im3.bmp_pos150_id16_im3.bmp,['Im_JustinTimberlake.png', 'Im_MattDamon.png', 'Im_LeonardoDiCaprio.png', 'Im_BenAffleck.png', 'Im_OrlandoBloom.png', 'Im_RyanGosling.png', 'Im_RobertDowneyJr.png', 'Im_GeorgeClooney.png', 'Im_ElijahWood.png', 'Im_BradPitt.png'],diff,1,0.4167048999988765,4,0,
EVES0409,train,pos,0,pos0_id18_im18.bmp_pos0_id7_im15.bmp,['Im_JustinTimberlake.png', 'Im_MattDamon.png', 'Im_LeonardoDiCaprio.png', 'Im_BenAffleck.png', 'Im_OrlandoBloom.png', 'Im_RyanGosling.png', 'Im_RobertDowneyJr.png', 'Im_GeorgeClooney.png', 'Im_ElijahWood.png', 'Im_BradPitt.png'],diff,1,2.1416496000001644,5,0,
EVES0409,train,pos,fs,posfs_id10_im1.bmp_posfs_id10_im17.bmp,['Im_JustinTimberlake.png', 'Im_MattDamon.png', 'Im_LeonardoDiCaprio.png', 'Im_BenAffleck.png', 'Im_OrlandoBloom.png', 'Im_RyanGosling.png', 'Im_RobertDowneyJr.png', 'Im_GeorgeClooney.png', 'Im_ElijahWood.png', 'Im_BradPitt.png'],same,1,0.41672119999930146,6,0,
EVES0409,train,pos,90,pos90_id3_im6.bmp_pos90_id7_im14.bmp,['Im_JustinTimberlake.png', 'Im_MattDamon.png', 'Im_LeonardoDiCaprio.png', 'Im_BenAffleck.png', 'Im_OrlandoBloom.png', 'Im_RyanGosling.png', 'Im_RobertDowneyJr.png', 'Im_GeorgeClooney.png', 'Im_ElijahWood.png', 'Im_BradPitt.png'],diff,1,2.2915205000008427,7,0,
EVES0409,train,pos,0,pos0_id7_im26.bmp_pos0_id7_im14.bmp,['Im_JustinTimberlake.png', 'Im_MattDamon.png', 'Im_LeonardoDiCaprio.png', 'Im_BenAffleck.png', 'Im_OrlandoBloom.png', 'Im_RyanGosling.png', 'Im_RobertDowneyJr.png', 'Im_GeorgeClooney.png', 'Im_ElijahWood.png', 'Im_BradPitt.png'],diff,0,0.4170291999998881,7,0,
EVES0409,train,pos,60,pos60_id10_im17.bmp_pos60_id16_im2.bmp,['Im_JustinTimberlake.png', 'Im_MattDamon.png', 'Im_LeonardoDiCaprio.png', 'Im_BenAffleck.png', 'Im_OrlandoBloom.png', 'Im_RyanGosling.png', 'Im_RobertDowneyJr.png', 'Im_GeorgeClooney.png', 'Im_ElijahWood.png', 'Im_BradPitt.png'],diff,1,0.416532900000675,8,0,
EVES0409,train,pos,fs,posfs_id13_im15.bmp_posfs_id13_im29.bmp,['Im_JustinTimberlake.png', 'Im_MattDamon.png', 'Im_LeonardoDiCaprio.png', 'Im_BenAffleck.png', 'Im_OrlandoBloom.png', 'Im_RyanGosling.png', 'Im_RobertDowneyJr.png', 'Im_GeorgeClooney.png', 'Im_ElijahWood.png', 'Im_BradPitt.png'],same,1,0.5165288999996847,9,0,
EVES0409,train,pos,120,pos120_id3_im17.bmp_pos120_id3_im6.bmp,['Im_JustinTimberlake.png', 'Im_MattDamon.png', 'Im_LeonardoDiCaprio.png', 'Im_BenAffleck.png', 'Im_OrlandoBloom.png', 'Im_RyanGosling.png', 'Im_RobertDowneyJr.png', 'Im_GeorgeClooney.png', 'Im_ElijahWood.png', 'Im_BradPitt.png'],none,1,4.399697300001208,9,0,
EVES0409,train,pos,150,pos150_id3_im6.bmp_pos150_id3_im8.bmp,['Im_JustinTimberlake.png', 'Im_MattDamon.png', 'Im_LeonardoDiCaprio.png', 'Im_BenAffleck.png', 'Im_OrlandoBloom.png', 'Im_RyanGosling.png', 'Im_RobertDowneyJr.png', 'Im_GeorgeClooney.png', 'Im_ElijahWood.png', 'Im_BradPitt.png'],none,1,4.416691299999002,9,0,
EVES0409,train,pos,30,pos30_id18_im11.bmp_pos30_id13_im15.bmp,['Im_JustinTimberlake.png', 'Im_MattDamon.png', 'Im_LeonardoDiCaprio.png', 'Im_BenAffleck.png', 'Im_OrlandoBloom.png', 'Im_RyanGosling.png', 'Im_RobertDowneyJr.png', 'Im_GeorgeClooney.png', 'Im_ElijahWood.png', 'Im_BradPitt.png'],diff,1,0.6502127999992808,10,0,
EVES0409,train,inv,0,pos0_id16_im19.bmp_pos0_id13_im15.bmp,['Im_JustinTimberlake.png', 'Im_MattDamon.png', 'Im_LeonardoDiCaprio.png', 'Im_BenAffleck.png', 'Im_OrlandoBloom.png', 'Im_RyanGosling.png', 'Im_RobertDowneyJr.png', 'Im_GeorgeClooney.png', 'Im_ElijahWood.png', 'Im_BradPitt.png'],diff,1,0.5166578000007576,11,0,
EVES0409,train,inv,150,pos150_id3_im8.bmp_pos150_id3_im17.bmp,['Im_JustinTimberlake.png', 'Im_MattDamon.png', 'Im_LeonardoDiCaprio.png', 'Im_BenAffleck.png', 'Im_OrlandoBloom.png', 'Im_RyanGosling.png', 'Im_RobertDowneyJr.png', 'Im_GeorgeClooney.png', 'Im_ElijahWood.png', 'Im_BradPitt.png'],same,1,0.4167176999999356,12,0,
EVES0409,train,inv,0,pos0_id10_im1.bmp_pos0_id6_im12.bmp,['Im_JustinTimberlake.png', 'Im_MattDamon.png', 'Im_LeonardoDiCaprio.png', 'Im_BenAffleck.png', 'Im_OrlandoBloom.png', 'Im_RyanGosling.png', 'Im_RobertDowneyJr.png', 'Im_GeorgeClooney.png', 'Im_ElijahWood.png', 'Im_BradPitt.png'],diff,1,0.41657630000008794,13,0,
EVES0409,train,inv,90,pos90_id7_im26.bmp_pos90_id7_im14.bmp,['Im_JustinTimberlake.png', 'Im_MattDamon.png', 'Im_LeonardoDiCaprio.png', 'Im_BenAffleck.png', 'Im_OrlandoBloom.png', 'Im_RyanGosling.png', 'Im_RobertDowneyJr.png', 'Im_GeorgeClooney.png', 'Im_ElijahWood.png', 'Im_BradPitt.png'],same,1,0.9500306999998429,14,0,
EVES0409,train,inv,120,pos120_id14_im16.bmp_pos120_id14_im24.bmp,['Im_JustinTimberlake.png', 'Im_MattDamon.png', 'Im_LeonardoDiCaprio.png', 'Im_BenAffleck.png', 'Im_OrlandoBloom.png', 'Im_RyanGosling.png', 'Im_RobertDowneyJr.png', 'Im_GeorgeClooney.png', 'Im_ElijahWood.png', 'Im_BradPitt.png'],same,1,0.8584967000006145,15,0,
EVES0409,train,inv,30,pos30_id7_im26.bmp_pos30_id7_im14.bmp,['Im_JustinTimberlake.png', 'Im_MattDamon.png', 'Im_LeonardoDiCaprio.png', 'Im_BenAffleck.png', 'Im_OrlandoBloom.png', 'Im_RyanGosling.png', 'Im_RobertDowneyJr.png', 'Im_GeorgeClooney.png', 'Im_ElijahWood.png', 'Im_BradPitt.png'],same,1,1.0250591000003624,16,0,
EVES0409,train,inv,150,pos150_id7_im15.bmp_pos150_id1_im21.bmp,['Im_JustinTimberlake.png', 'Im_MattDamon.png', 'Im_LeonardoDiCaprio.png', 'Im_BenAffleck.png', 'Im_OrlandoBloom.png', 'Im_RyanGosling.png', 'Im_RobertDowneyJr.png', 'Im_GeorgeClooney.png', 'Im_ElijahWood.png', 'Im_BradPitt.png'],diff,1,0.5752501000006305,17,0,
EVES0409,train,inv,fs,posfs_id6_im19.bmp_posfs_id1_im24.bmp,['Im_JustinTimberlake.png', 'Im_MattDamon.png', 'Im_LeonardoDiCaprio.png', 'Im_BenAffleck.png', 'Im_OrlandoBloom.png', 'Im_RyanGosling.png', 'Im_RobertDowneyJr.png', 'Im_GeorgeClooney.png', 'Im_ElijahWood.png', 'Im_BradPitt.png'],diff,1,0.8833614999985002,18,0,
EVES0409,train,inv,120,pos120_id16_im2.bmp_pos120_id3_im8.bmp,['Im_JustinTimberlake.png', 'Im_MattDamon.png', 'Im_LeonardoDiCaprio.png', 'Im_BenAffleck.png', 'Im_OrlandoBloom.png', 'Im_RyanGosling.png', 'Im_RobertDowneyJr.png', 'Im_GeorgeClooney.png', 'Im_ElijahWood.png', 'Im_BradPitt.png'],same,0,0.500008600000001,18,0,
EVES0409,train,inv,30,pos30_id6_im18.bmp_pos30_id14_im18.bmp,['Im_JustinTimberlake.png', 'Im_MattDamon.png', 'Im_LeonardoDiCaprio.png', 'Im_BenAffleck.png', 'Im_OrlandoBloom.png', 'Im_RyanGosling.png', 'Im_RobertDowneyJr.png', 'Im_GeorgeClooney.png', 'Im_ElijahWood.png', 'Im_BradPitt.png'],same,0,0.6166088999998465,18,0,
EVES0409,train,inv,90,pos90_id7_im14.bmp_pos90_id3_im6.bmp,['Im_JustinTimberlake.png', 'Im_MattDamon.png', 'Im_LeonardoDiCaprio.png', 'Im_BenAffleck.png', 'Im_OrlandoBloom.png', 'Im_RyanGosling.png', 'Im_RobertDowneyJr.png', 'Im_GeorgeClooney.png', 'Im_ElijahWood.png', 'Im_BradPitt.png'],diff,1,0.4166633999993792,19,0,
EVES0409,train,inv,60,pos60_id3_im17.bmp_pos60_id6_im12.bmp,['Im_JustinTimberlake.png', 'Im_MattDamon.png', 'Im_LeonardoDiCaprio.png', 'Im_BenAffleck.png', 'Im_OrlandoBloom.png', 'Im_RyanGosling.png', 'Im_RobertDowneyJr.png', 'Im_GeorgeClooney.png', 'Im_ElijahWood.png', 'Im_BradPitt.png'],diff,1,0.4084032999999181,20,0,
EVES0409,train,inv,fs,posfs_id18_im11.bmp_posfs_id18_im18.bmp,['Im_JustinTimberlake.png', 'Im_MattDamon.png', 'Im_LeonardoDiCaprio.png', 'Im_BenAffleck.png', 'Im_OrlandoBloom.png', 'Im_RyanGosling.png', 'Im_RobertDowneyJr.png', 'Im_GeorgeClooney.png', 'Im_ElijahWood.png', 'Im_BradPitt.png'],same,1,0.43330260000038834,21,0,
EVES0409,train,inv,60,pos60_id20_im30.bmp_pos60_id16_im19.bmp,['Im_JustinTimberlake.png', 'Im_MattDamon.png', 'Im_LeonardoDiCaprio.png', 'Im_BenAffleck.png', 'Im_OrlandoBloom.png', 'Im_RyanGosling.png', 'Im_RobertDowneyJr.png', 'Im_GeorgeClooney.png', 'Im_ElijahWood.png', 'Im_BradPitt.png'],diff,1,1.10027749999972,22,0,
EVES0409,train,neg,90,neg90_id7_im15.bmp_neg90_id1_im21.bmp,['Im_JustinTimberlake.png', 'Im_MattDamon.png', 'Im_LeonardoDiCaprio.png', 'Im_BenAffleck.png', 'Im_OrlandoBloom.png', 'Im_RyanGosling.png', 'Im_RobertDowneyJr.png', 'Im_GeorgeClooney.png', 'Im_ElijahWood.png', 'Im_BradPitt.png'],same,0,0.8918833000006998,22,0,
EVES0409,train,neg,150,neg150_id20_im30.bmp_neg150_id7_im26.bmp,['Im_JustinTimberlake.png', 'Im_MattDamon.png', 'Im_LeonardoDiCaprio.png', 'Im_BenAffleck.png', 'Im_OrlandoBloom.png', 'Im_RyanGosling.png', 'Im_RobertDowneyJr.png', 'Im_GeorgeClooney.png', 'Im_ElijahWood.png', 'Im_BradPitt.png'],diff,1,0.4998938000007911,23,0,
EVES0409,train,neg,30,neg30_id1_im21.bmp_neg30_id14_im16.bmp,['Im_JustinTimberlake.png', 'Im_MattDamon.png', 'Im_LeonardoDiCaprio.png', 'Im_BenAffleck.png', 'Im_OrlandoBloom.png', 'Im_RyanGosling.png', 'Im_RobertDowneyJr.png', 'Im_GeorgeClooney.png', 'Im_ElijahWood.png', 'Im_BradPitt.png'],same,0,0.45004789999984496,23,0,
EVES0409,train,neg,120,neg120_id1_im24.bmp_neg120_id1_im4.bmp,['Im_JustinTimberlake.png', 'Im_MattDamon.png', 'Im_LeonardoDiCaprio.png', 'Im_BenAffleck.png', 'Im_OrlandoBloom.png', 'Im_RyanGosling.png', 'Im_RobertDowneyJr.png', 'Im_GeorgeClooney.png', 'Im_ElijahWood.png', 'Im_BradPitt.png'],same,1,0.7581943000004685,24,0,
EVES0409,train,neg,fs,negfs_id20_im3.bmp_negfs_id10_im17.bmp,['Im_JustinTimberlake.png', 'Im_MattDamon.png', 'Im_LeonardoDiCaprio.png', 'Im_BenAffleck.png', 'Im_OrlandoBloom.png', 'Im_RyanGosling.png', 'Im_RobertDowneyJr.png', 'Im_GeorgeClooney.png', 'Im_ElijahWood.png', 'Im_BradPitt.png'],diff,1,0.45878430000084336,25,0,
EVES0409,train,neg,30,neg30_id6_im18.bmp_neg30_id14_im18.bmp,['Im_JustinTimberlake.png', 'Im_MattDamon.png', 'Im_LeonardoDiCaprio.png', 'Im_BenAffleck.png', 'Im_OrlandoBloom.png', 'Im_RyanGosling.png', 'Im_RobertDowneyJr.png', 'Im_GeorgeClooney.png', 'Im_ElijahWood.png', 'Im_BradPitt.png'],same,0,0.7253005999991728,25,0,
EVES0409,train,neg,60,neg60_id1_im21.bmp_neg60_id1_im4.bmp,['Im_JustinTimberlake.png', 'Im_MattDamon.png', 'Im_LeonardoDiCaprio.png', 'Im_BenAffleck.png', 'Im_OrlandoBloom.png', 'Im_RyanGosling.png', 'Im_RobertDowneyJr.png', 'Im_GeorgeClooney.png', 'Im_ElijahWood.png', 'Im_BradPitt.png'],same,1,0.3997859999999491,26,0,
EVES0409,train,neg,90,neg90_id3_im6.bmp_neg90_id7_im14.bmp,['Im_JustinTimberlake.png', 'Im_MattDamon.png', 'Im_LeonardoDiCaprio.png', 'Im_BenAffleck.png', 'Im_OrlandoBloom.png', 'Im_RyanGosling.png', 'Im_RobertDowneyJr.png', 'Im_GeorgeClooney.png', 'Im_ElijahWood.png', 'Im_BradPitt.png'],diff,1,0.9502926000004663,27,0,
EVES0409,train,neg,60,neg60_id3_im17.bmp_neg60_id18_im11.bmp,['Im_JustinTimberlake.png', 'Im_MattDamon.png', 'Im_LeonardoDiCaprio.png', 'Im_BenAffleck.png', 'Im_OrlandoBloom.png', 'Im_RyanGosling.png', 'Im_RobertDowneyJr.png', 'Im_GeorgeClooney.png', 'Im_ElijahWood.png', 'Im_BradPitt.png'],same,0,0.3994610999998258,27,0,
EVES0409,train,neg,0,neg0_id1_im21.bmp_neg0_id1_im24.bmp,['Im_JustinTimberlake.png', 'Im_MattDamon.png', 'Im_LeonardoDiCaprio.png', 'Im_BenAffleck.png', 'Im_OrlandoBloom.png', 'Im_RyanGosling.png', 'Im_RobertDowneyJr.png', 'Im_GeorgeClooney.png', 'Im_ElijahWood.png', 'Im_BradPitt.png'],same,1,0.6251712000012049,28,0,
EVES0409,train,neg,150,neg150_id3_im8.bmp_neg150_id3_im6.bmp,['Im_JustinTimberlake.png', 'Im_MattDamon.png', 'Im_LeonardoDiCaprio.png', 'Im_BenAffleck.png', 'Im_OrlandoBloom.png', 'Im_RyanGosling.png', 'Im_RobertDowneyJr.png', 'Im_GeorgeClooney.png', 'Im_ElijahWood.png', 'Im_BradPitt.png'],diff,0,0.8503848000000289,28,0,
EVES0409,train,neg,0,neg0_id7_im15.bmp_neg0_id1_im21.bmp,['Im_JustinTimberlake.png', 'Im_MattDamon.png', 'Im_LeonardoDiCaprio.png', 'Im_BenAffleck.png', 'Im_OrlandoBloom.png', 'Im_RyanGosling.png', 'Im_RobertDowneyJr.png', 'Im_GeorgeClooney.png', 'Im_ElijahWood.png', 'Im_BradPitt.png'],same,0,0.4165190999992774,28,0,
EVES0409,train,neg,120,neg120_id14_im16.bmp_neg120_id6_im19.bmp,['Im_JustinTimberlake.png', 'Im_MattDamon.png', 'Im_LeonardoDiCaprio.png', 'Im_BenAffleck.png', 'Im_OrlandoBloom.png', 'Im_RyanGosling.png', 'Im_RobertDowneyJr.png', 'Im_GeorgeClooney.png', 'Im_ElijahWood.png', 'Im_BradPitt.png'],diff,1,1.2000765000011597,29,0,
EVES0409,train,neg,fs,negfs_id20_im12.bmp_negfs_id13_im29.bmp,['Im_JustinTimberlake.png', 'Im_MattDamon.png', 'Im_LeonardoDiCaprio.png', 'Im_BenAffleck.png', 'Im_OrlandoBloom.png', 'Im_RyanGosling.png', 'Im_RobertDowneyJr.png', 'Im_GeorgeClooney.png', 'Im_ElijahWood.png', 'Im_BradPitt.png'],diff,1,0.41670539999904577,30,0,
EVES0409,train,pos,60,pos60_id1_im4.bmp_pos60_id10_im18.bmp,['Im_JustinTimberlake.png', 'Im_MattDamon.png', 'Im_LeonardoDiCaprio.png', 'Im_BenAffleck.png', 'Im_OrlandoBloom.png', 'Im_RyanGosling.png', 'Im_RobertDowneyJr.png', 'Im_GeorgeClooney.png', 'Im_ElijahWood.png', 'Im_BradPitt.png'],diff,1,2.0333755999999994,1,71.42857142857143,
EVES0409,train,pos,0,pos0_id1_im24.bmp_pos0_id1_im4.bmp,['Im_JustinTimberlake.png', 'Im_MattDamon.png', 'Im_LeonardoDiCaprio.png', 'Im_BenAffleck.png', 'Im_OrlandoBloom.png', 'Im_RyanGosling.png', 'Im_RobertDowneyJr.png', 'Im_GeorgeClooney.png', 'Im_ElijahWood.png', 'Im_BradPitt.png'],diff,0,2.208440699998391,1,71.42857142857143,
EVES0409,train,pos,150,pos150_id20_im3.bmp_pos150_id20_im12.bmp,['Im_JustinTimberlake.png', 'Im_MattDamon.png', 'Im_LeonardoDiCaprio.png', 'Im_BenAffleck.png', 'Im_OrlandoBloom.png', 'Im_RyanGosling.png', 'Im_RobertDowneyJr.png', 'Im_GeorgeClooney.png', 'Im_ElijahWood.png', 'Im_BradPitt.png'],diff,0,1.375074500001574,1,71.42857142857143,
EVES0409,train,pos,30,pos30_id16_im3.bmp_pos30_id16_im2.bmp,['Im_JustinTimberlake.png', 'Im_MattDamon.png', 'Im_LeonardoDiCaprio.png', 'Im_BenAffleck.png', 'Im_OrlandoBloom.png', 'Im_RyanGosling.png', 'Im_RobertDowneyJr.png', 'Im_GeorgeClooney.png', 'Im_ElijahWood.png', 'Im_BradPitt.png'],diff,0,0.5501062000003003,1,71.42857142857143,
EVES0409,train,pos,150,pos150_id13_im15.bmp_pos150_id18_im11.bmp,['Im_JustinTimberlake.png', 'Im_MattDamon.png', 'Im_LeonardoDiCaprio.png', 'Im_BenAffleck.png', 'Im_OrlandoBloom.png', 'Im_RyanGosling.png', 'Im_RobertDowneyJr.png', 'Im_GeorgeClooney.png', 'Im_ElijahWood.png', 'Im_BradPitt.png'],diff,1,0.41683129999910307,2,71.42857142857143,
EVES0409,train,pos,fs,posfs_id16_im2.bmp_posfs_id16_im3.bmp,['Im_JustinTimberlake.png', 'Im_MattDamon.png', 'Im_LeonardoDiCaprio.png', 'Im_BenAffleck.png', 'Im_OrlandoBloom.png', 'Im_RyanGosling.png', 'Im_RobertDowneyJr.png', 'Im_GeorgeClooney.png', 'Im_ElijahWood.png', 'Im_BradPitt.png'],same,1,0.4168138999993971,3,71.42857142857143,
EVES0409,train,pos,90,pos90_id10_im1.bmp_pos90_id10_im17.bmp,['Im_JustinTimberlake.png', 'Im_MattDamon.png', 'Im_LeonardoDiCaprio.png', 'Im_BenAffleck.png', 'Im_OrlandoBloom.png', 'Im_RyanGosling.png', 'Im_RobertDowneyJr.png', 'Im_GeorgeClooney.png', 'Im_ElijahWood.png', 'Im_BradPitt.png'],same,1,0.45820070000081614,4,71.42857142857143,
EVES0409,train,pos,120,pos120_id7_im14.bmp_pos120_id14_im24.bmp,['Im_JustinTimberlake.png', 'Im_MattDamon.png', 'Im_LeonardoDiCaprio.png', 'Im_BenAffleck.png', 'Im_OrlandoBloom.png', 'Im_RyanGosling.png', 'Im_RobertDowneyJr.png', 'Im_GeorgeClooney.png', 'Im_ElijahWood.png', 'Im_BradPitt.png'],diff,1,0.4500335000011546,5,71.42857142857143,
EVES0409,train,pos,90,pos90_id20_im3.bmp_pos90_id10_im17.bmp,['Im_JustinTimberlake.png', 'Im_MattDamon.png', 'Im_LeonardoDiCaprio.png', 'Im_BenAffleck.png', 'Im_OrlandoBloom.png', 'Im_RyanGosling.png', 'Im_RobertDowneyJr.png', 'Im_GeorgeClooney.png', 'Im_ElijahWood.png', 'Im_BradPitt.png'],diff,1,0.6836763999999675,6,71.42857142857143,
EVES0409,train,pos,120,pos120_id14_im18.bmp_pos120_id14_im24.bmp,['Im_JustinTimberlake.png', 'Im_MattDamon.png', 'Im_LeonardoDiCaprio.png', 'Im_BenAffleck.png', 'Im_OrlandoBloom.png', 'Im_RyanGosling.png', 'Im_RobertDowneyJr.png', 'Im_GeorgeClooney.png', 'Im_ElijahWood.png', 'Im_BradPitt.png'],same,1,0.7836169999991398,7,71.42857142857143,
EVES0409,train,pos,fs,posfs_id1_im4.bmp_posfs_id3_im6.bmp,['Im_JustinTimberlake.png', 'Im_MattDamon.png', 'Im_LeonardoDiCaprio.png', 'Im_BenAffleck.png', 'Im_OrlandoBloom.png', 'Im_RyanGosling.png', 'Im_RobertDowneyJr.png', 'Im_GeorgeClooney.png', 'Im_ElijahWood.png', 'Im_BradPitt.png'],diff,1,1.7919499000017822,8,71.42857142857143,
EVES0409,train,pos,60,pos60_id3_im17.bmp_pos60_id3_im8.bmp,['Im_JustinTimberlake.png', 'Im_MattDamon.png', 'Im_LeonardoDiCaprio.png', 'Im_BenAffleck.png', 'Im_OrlandoBloom.png', 'Im_RyanGosling.png', 'Im_RobertDowneyJr.png', 'Im_GeorgeClooney.png', 'Im_ElijahWood.png', 'Im_BradPitt.png'],same,1,0.40844170000127633,9,71.42857142857143,
EVES0409,train,pos,0,pos0_id6_im18.bmp_pos0_id6_im12.bmp,['Im_JustinTimberlake.png', 'Im_MattDamon.png', 'Im_LeonardoDiCaprio.png', 'Im_BenAffleck.png', 'Im_OrlandoBloom.png', 'Im_RyanGosling.png', 'Im_RobertDowneyJr.png', 'Im_GeorgeClooney.png', 'Im_ElijahWood.png', 'Im_BradPitt.png'],same,1,0.4085367999996379,10,71.42857142857143,
EVES0409,train,pos,30,pos30_id14_im18.bmp_pos30_id13_im10.bmp,['Im_JustinTimberlake.png', 'Im_MattDamon.png', 'Im_LeonardoDiCaprio.png', 'Im_BenAffleck.png', 'Im_OrlandoBloom.png', 'Im_RyanGosling.png', 'Im_RobertDowneyJr.png', 'Im_GeorgeClooney.png', 'Im_ElijahWood.png', 'Im_BradPitt.png'],same,0,0.741524400000344,10,71.42857142857143,
EVES0409,train,pos,fs,posfs_id10_im18.bmp_posfs_id10_im17.bmp,['Im_JustinTimberlake.png', 'Im_MattDamon.png', 'Im_LeonardoDiCaprio.png', 'Im_BenAffleck.png', 'Im_OrlandoBloom.png', 'Im_RyanGosling.png', 'Im_RobertDowneyJr.png', 'Im_GeorgeClooney.png', 'Im_ElijahWood.png', 'Im_BradPitt.png'],same,1,0.7502452000007906,11,71.42857142857143,
EVES0409,train,pos,60,pos60_id3_im8.bmp_pos60_id16_im3.bmp,['Im_JustinTimberlake.png', 'Im_MattDamon.png', 'Im_LeonardoDiCaprio.png', 'Im_BenAffleck.png', 'Im_OrlandoBloom.png', 'Im_RyanGosling.png', 'Im_RobertDowneyJr.png', 'Im_GeorgeClooney.png', 'Im_ElijahWood.png', 'Im_BradPitt.png'],same,0,0.5332591999995202,11,71.42857142857143,
EVES0409,train,pos,60,pos60_id1_im21.bmp_pos60_id7_im15.bmp,['Im_JustinTimberlake.png', 'Im_MattDamon.png', 'Im_LeonardoDiCaprio.png', 'Im_BenAffleck.png', 'Im_OrlandoBloom.png', 'Im_RyanGosling.png', 'Im_RobertDowneyJr.png', 'Im_GeorgeClooney.png', 'Im_ElijahWood.png', 'Im_BradPitt.png'],diff,1,0.5498764999993,12,71.42857142857143,
EVES0409,train,pos,0,pos0_id6_im18.bmp_pos0_id1_im24.bmp,['Im_JustinTimberlake.png', 'Im_MattDamon.png', 'Im_LeonardoDiCaprio.png', 'Im_BenAffleck.png', 'Im_OrlandoBloom.png', 'Im_RyanGosling.png', 'Im_RobertDowneyJr.png', 'Im_GeorgeClooney.png', 'Im_ElijahWood.png', 'Im_BradPitt.png'],diff,1,0.5919137000000774,13,71.42857142857143,
EVES0409,train,pos,90,pos90_id14_im24.bmp_pos90_id7_im14.bmp,['Im_JustinTimberlake.png', 'Im_MattDamon.png', 'Im_LeonardoDiCaprio.png', 'Im_BenAffleck.png', 'Im_OrlandoBloom.png', 'Im_RyanGosling.png', 'Im_RobertDowneyJr.png', 'Im_GeorgeClooney.png', 'Im_ElijahWood.png', 'Im_BradPitt.png'],diff,1,0.4083925000013551,14,71.42857142857143,
EVES0409,train,pos,120,pos120_id7_im14.bmp_pos120_id3_im6.bmp,['Im_JustinTimberlake.png', 'Im_MattDamon.png', 'Im_LeonardoDiCaprio.png', 'Im_BenAffleck.png', 'Im_OrlandoBloom.png', 'Im_RyanGosling.png', 'Im_RobertDowneyJr.png', 'Im_GeorgeClooney.png', 'Im_ElijahWood.png', 'Im_BradPitt.png'],diff,1,0.7333720000005997,15,71.42857142857143,
EVES0409,train,pos,120,pos120_id13_im29.bmp_pos120_id13_im10.bmp,['Im_JustinTimberlake.png', 'Im_MattDamon.png', 'Im_LeonardoDiCaprio.png', 'Im_BenAffleck.png', 'Im_OrlandoBloom.png', 'Im_RyanGosling.png', 'Im_RobertDowneyJr.png', 'Im_GeorgeClooney.png', 'Im_ElijahWood.png', 'Im_BradPitt.png'],same,1,0.41670410000006086,16,71.42857142857143,
EVES0409,train,pos,0,pos0_id20_im30.bmp_pos0_id20_im3.bmp,['Im_JustinTimberlake.png', 'Im_MattDamon.png', 'Im_LeonardoDiCaprio.png', 'Im_BenAffleck.png', 'Im_OrlandoBloom.png', 'Im_RyanGosling.png', 'Im_RobertDowneyJr.png', 'Im_GeorgeClooney.png', 'Im_ElijahWood.png', 'Im_BradPitt.png'],same,1,0.40867139999863866,17,71.42857142857143,
EVES0409,train,pos,150,pos150_id16_im3.bmp_pos150_id16_im2.bmp,['Im_JustinTimberlake.png', 'Im_MattDamon.png', 'Im_LeonardoDiCaprio.png', 'Im_BenAffleck.png', 'Im_OrlandoBloom.png', 'Im_RyanGosling.png', 'Im_RobertDowneyJr.png', 'Im_GeorgeClooney.png', 'Im_ElijahWood.png', 'Im_BradPitt.png'],same,1,0.408376400000634,18,71.42857142857143,
EVES0409,train,pos,fs,posfs_id14_im16.bmp_posfs_id6_im19.bmp,['Im_JustinTimberlake.png', 'Im_MattDamon.png', 'Im_LeonardoDiCaprio.png', 'Im_BenAffleck.png', 'Im_OrlandoBloom.png', 'Im_RyanGosling.png', 'Im_RobertDowneyJr.png', 'Im_GeorgeClooney.png', 'Im_ElijahWood.png', 'Im_BradPitt.png'],diff,1,0.40004899999985355,19,71.42857142857143,
EVES0409,train,pos,90,pos90_id16_im2.bmp_pos90_id3_im8.bmp,['Im_JustinTimberlake.png', 'Im_MattDamon.png', 'Im_LeonardoDiCaprio.png', 'Im_BenAffleck.png', 'Im_OrlandoBloom.png', 'Im_RyanGosling.png', 'Im_RobertDowneyJr.png', 'Im_GeorgeClooney.png', 'Im_ElijahWood.png', 'Im_BradPitt.png'],diff,1,0.5167925000005198,20,71.42857142857143,
EVES0409,train,pos,150,pos150_id14_im16.bmp_pos150_id6_im19.bmp,['Im_JustinTimberlake.png', 'Im_MattDamon.png', 'Im_LeonardoDiCaprio.png', 'Im_BenAffleck.png', 'Im_OrlandoBloom.png', 'Im_RyanGosling.png', 'Im_RobertDowneyJr.png', 'Im_GeorgeClooney.png', 'Im_ElijahWood.png', 'Im_BradPitt.png'],diff,1,0.4583188999986305,21,71.42857142857143,
EVES0409,train,pos,30,pos30_id20_im12.bmp_pos30_id10_im1.bmp,['Im_JustinTimberlake.png', 'Im_MattDamon.png', 'Im_LeonardoDiCaprio.png', 'Im_BenAffleck.png', 'Im_OrlandoBloom.png', 'Im_RyanGosling.png', 'Im_RobertDowneyJr.png', 'Im_GeorgeClooney.png', 'Im_ElijahWood.png', 'Im_BradPitt.png'],diff,1,0.616710599999351,22,71.42857142857143,
EVES0409,train,pos,30,pos30_id20_im30.bmp_pos30_id16_im19.bmp,['Im_JustinTimberlake.png', 'Im_MattDamon.png', 'Im_LeonardoDiCaprio.png', 'Im_BenAffleck.png', 'Im_OrlandoBloom.png', 'Im_RyanGosling.png', 'Im_RobertDowneyJr.png', 'Im_GeorgeClooney.png', 'Im_ElijahWood.png', 'Im_BradPitt.png'],diff,1,0.7416742000004888,23,71.42857142857143,
EVES0409,train,neg,150,neg150_id3_im17.bmp_neg150_id3_im8.bmp,['Im_JustinTimberlake.png', 'Im_MattDamon.png', 'Im_LeonardoDiCaprio.png', 'Im_BenAffleck.png', 'Im_OrlandoBloom.png', 'Im_RyanGosling.png', 'Im_RobertDowneyJr.png', 'Im_GeorgeClooney.png', 'Im_ElijahWood.png', 'Im_BradPitt.png'],same,1,0.4166678999990836,24,71.42857142857143,
EVES0409,train,neg,fs,negfs_id20_im30.bmp_negfs_id20_im3.bmp,['Im_JustinTimberlake.png', 'Im_MattDamon.png', 'Im_LeonardoDiCaprio.png', 'Im_BenAffleck.png', 'Im_OrlandoBloom.png', 'Im_RyanGosling.png', 'Im_RobertDowneyJr.png', 'Im_GeorgeClooney.png', 'Im_ElijahWood.png', 'Im_BradPitt.png'],same,1,0.41673550000086834,25,71.42857142857143,
EVES0409,train,neg,60,neg60_id6_im18.bmp_neg60_id1_im24.bmp,['Im_JustinTimberlake.png', 'Im_MattDamon.png', 'Im_LeonardoDiCaprio.png', 'Im_BenAffleck.png', 'Im_OrlandoBloom.png', 'Im_RyanGosling.png', 'Im_RobertDowneyJr.png', 'Im_GeorgeClooney.png', 'Im_ElijahWood.png', 'Im_BradPitt.png'],diff,1,0.6917051000000356,26,71.42857142857143,
EVES0409,train,neg,150,neg150_id7_im26.bmp_neg150_id18_im18.bmp,['Im_JustinTimberlake.png', 'Im_MattDamon.png', 'Im_LeonardoDiCaprio.png', 'Im_BenAffleck.png', 'Im_OrlandoBloom.png', 'Im_RyanGosling.png', 'Im_RobertDowneyJr.png', 'Im_GeorgeClooney.png', 'Im_ElijahWood.png', 'Im_BradPitt.png'],diff,1,1.4583643000005395,27,71.42857142857143,
EVES0409,train,neg,120,neg120_id1_im4.bmp_neg120_id3_im6.bmp,['Im_JustinTimberlake.png', 'Im_MattDamon.png', 'Im_LeonardoDiCaprio.png', 'Im_BenAffleck.png', 'Im_OrlandoBloom.png', 'Im_RyanGosling.png', 'Im_RobertDowneyJr.png', 'Im_GeorgeClooney.png', 'Im_ElijahWood.png', 'Im_BradPitt.png'],same,0,0.41705410000031407,27,71.42857142857143,
EVES0409,train,neg,30,neg30_id3_im6.bmp_neg30_id1_im4.bmp,['Im_JustinTimberlake.png', 'Im_MattDamon.png', 'Im_LeonardoDiCaprio.png', 'Im_BenAffleck.png', 'Im_OrlandoBloom.png', 'Im_RyanGosling.png', 'Im_RobertDowneyJr.png', 'Im_GeorgeClooney.png', 'Im_ElijahWood.png', 'Im_BradPitt.png'],same,0,0.4084235999998782,27,71.42857142857143,
EVES0409,train,neg,120,neg120_id18_im11.bmp_neg120_id18_im18.bmp,['Im_JustinTimberlake.png', 'Im_MattDamon.png', 'Im_LeonardoDiCaprio.png', 'Im_BenAffleck.png', 'Im_OrlandoBloom.png', 'Im_RyanGosling.png', 'Im_RobertDowneyJr.png', 'Im_GeorgeClooney.png', 'Im_ElijahWood.png', 'Im_BradPitt.png'],same,1,0.4165974000006827,28,71.42857142857143,
EVES0409,train,neg,30,neg30_id7_im26.bmp_neg30_id18_im18.bmp,['Im_JustinTimberlake.png', 'Im_MattDamon.png', 'Im_LeonardoDiCaprio.png', 'Im_BenAffleck.png', 'Im_OrlandoBloom.png', 'Im_RyanGosling.png', 'Im_RobertDowneyJr.png', 'Im_GeorgeClooney.png', 'Im_ElijahWood.png', 'Im_BradPitt.png'],same,0,0.6332280999995419,28,71.42857142857143,
EVES0409,train,neg,90,neg90_id20_im30.bmp_neg90_id20_im12.bmp,['Im_JustinTimberlake.png', 'Im_MattDamon.png', 'Im_LeonardoDiCaprio.png', 'Im_BenAffleck.png', 'Im_OrlandoBloom.png', 'Im_RyanGosling.png', 'Im_RobertDowneyJr.png', 'Im_GeorgeClooney.png', 'Im_ElijahWood.png', 'Im_BradPitt.png'],diff,0,0.4416626999991422,28,71.42857142857143,
EVES0409,train,neg,60,neg60_id18_im18.bmp_neg60_id18_im19.bmp,['Im_JustinTimberlake.png', 'Im_MattDamon.png', 'Im_LeonardoDiCaprio.png', 'Im_BenAffleck.png', 'Im_OrlandoBloom.png', 'Im_RyanGosling.png', 'Im_RobertDowneyJr.png', 'Im_GeorgeClooney.png', 'Im_ElijahWood.png', 'Im_BradPitt.png'],diff,0,0.9664758999988408,28,71.42857142857143,
EVES0409,train,neg,fs,negfs_id13_im15.bmp_negfs_id18_im11.bmp,['Im_JustinTimberlake.png', 'Im_MattDamon.png', 'Im_LeonardoDiCaprio.png', 'Im_BenAffleck.png', 'Im_OrlandoBloom.png', 'Im_RyanGosling.png', 'Im_RobertDowneyJr.png', 'Im_GeorgeClooney.png', 'Im_ElijahWood.png', 'Im_BradPitt.png'],diff,1,0.5501336000015726,29,71.42857142857143,
EVES0409,train,neg,90,neg90_id20_im30.bmp_neg90_id20_im3.bmp,['Im_JustinTimberlake.png', 'Im_MattDamon.png', 'Im_LeonardoDiCaprio.png', 'Im_BenAffleck.png', 'Im_OrlandoBloom.png', 'Im_RyanGosling.png', 'Im_RobertDowneyJr.png', 'Im_GeorgeClooney.png', 'Im_ElijahWood.png', 'Im_BradPitt.png'],same,1,0.41682589999982156,30,71.42857142857143,
EVES0409,train,neg,0,neg0_id6_im12.bmp_neg0_id10_im1.bmp,['Im_JustinTimberlake.png', 'Im_MattDamon.png', 'Im_LeonardoDiCaprio.png', 'Im_BenAffleck.png', 'Im_OrlandoBloom.png', 'Im_RyanGosling.png', 'Im_RobertDowneyJr.png', 'Im_GeorgeClooney.png', 'Im_ElijahWood.png', 'Im_BradPitt.png'],diff,1,0.8167591000001266,31,71.42857142857143,
EVES0409,train,neg,0,neg0_id13_im10.bmp_neg0_id13_im15.bmp,['Im_JustinTimberlake.png', 'Im_MattDamon.png', 'Im_LeonardoDiCaprio.png', 'Im_BenAffleck.png', 'Im_OrlandoBloom.png', 'Im_RyanGosling.png', 'Im_RobertDowneyJr.png', 'Im_GeorgeClooney.png', 'Im_ElijahWood.png', 'Im_BradPitt.png'],same,1,0.4168241000006674,32,71.42857142857143,
EVES0409,train,inv,150,pos150_id20_im30.bmp_pos150_id20_im3.bmp,['Im_JustinTimberlake.png', 'Im_MattDamon.png', 'Im_LeonardoDiCaprio.png', 'Im_BenAffleck.png', 'Im_OrlandoBloom.png', 'Im_RyanGosling.png', 'Im_RobertDowneyJr.png', 'Im_GeorgeClooney.png', 'Im_ElijahWood.png', 'Im_BradPitt.png'],same,1,0.46684600000116916,1,76.19047619047619,
EVES0409,train,inv,90,pos90_id16_im19.bmp_pos90_id16_im2.bmp,['Im_JustinTimberlake.png', 'Im_MattDamon.png', 'Im_LeonardoDiCaprio.png', 'Im_BenAffleck.png', 'Im_OrlandoBloom.png', 'Im_RyanGosling.png', 'Im_RobertDowneyJr.png', 'Im_GeorgeClooney.png', 'Im_ElijahWood.png', 'Im_BradPitt.png'],same,1,0.4165525999997044,2,76.19047619047619,
EVES0409,train,inv,120,pos120_id18_im19.bmp_pos120_id18_im11.bmp,['Im_JustinTimberlake.png', 'Im_MattDamon.png', 'Im_LeonardoDiCaprio.png', 'Im_BenAffleck.png', 'Im_OrlandoBloom.png', 'Im_RyanGosling.png', 'Im_RobertDowneyJr.png', 'Im_GeorgeClooney.png', 'Im_ElijahWood.png', 'Im_BradPitt.png'],diff,0,0.8667272999991837,2,76.19047619047619,
EVES0409,train,inv,60,pos60_id1_im4.bmp_pos60_id1_im21.bmp,['Im_JustinTimberlake.png', 'Im_MattDamon.png', 'Im_LeonardoDiCaprio.png', 'Im_BenAffleck.png', 'Im_OrlandoBloom.png', 'Im_RyanGosling.png', 'Im_RobertDowneyJr.png', 'Im_GeorgeClooney.png', 'Im_ElijahWood.png', 'Im_BradPitt.png'],same,1,0.7834490999994159,3,76.19047619047619,
EVES0409,train,inv,30,pos30_id16_im2.bmp_pos30_id3_im8.bmp,['Im_JustinTimberlake.png', 'Im_MattDamon.png', 'Im_LeonardoDiCaprio.png', 'Im_BenAffleck.png', 'Im_OrlandoBloom.png', 'Im_RyanGosling.png', 'Im_RobertDowneyJr.png', 'Im_GeorgeClooney.png', 'Im_ElijahWood.png', 'Im_BradPitt.png'],same,0,0.4167204000004858,3,76.19047619047619,
EVES0409,train,inv,90,pos90_id13_im15.bmp_pos90_id13_im29.bmp,['Im_JustinTimberlake.png', 'Im_MattDamon.png', 'Im_LeonardoDiCaprio.png', 'Im_BenAffleck.png', 'Im_OrlandoBloom.png', 'Im_RyanGosling.png', 'Im_RobertDowneyJr.png', 'Im_GeorgeClooney.png', 'Im_ElijahWood.png', 'Im_BradPitt.png'],same,1,0.43358189999889873,4,76.19047619047619,
EVES0409,train,inv,60,pos60_id3_im8.bmp_pos60_id16_im3.bmp,['Im_JustinTimberlake.png', 'Im_MattDamon.png', 'Im_LeonardoDiCaprio.png', 'Im_BenAffleck.png', 'Im_OrlandoBloom.png', 'Im_RyanGosling.png', 'Im_RobertDowneyJr.png', 'Im_GeorgeClooney.png', 'Im_ElijahWood.png', 'Im_BradPitt.png'],same,0,0.41667899999993097,4,76.19047619047619,
EVES0409,train,inv,120,pos120_id13_im29.bmp_pos120_id20_im12.bmp,['Im_JustinTimberlake.png', 'Im_MattDamon.png', 'Im_LeonardoDiCaprio.png', 'Im_BenAffleck.png', 'Im_OrlandoBloom.png', 'Im_RyanGosling.png', 'Im_RobertDowneyJr.png', 'Im_GeorgeClooney.png', 'Im_ElijahWood.png', 'Im_BradPitt.png'],same,0,0.41688969999995606,4,76.19047619047619,
EVES0409,train,inv,0,pos0_id1_im21.bmp_pos0_id1_im24.bmp,['Im_JustinTimberlake.png', 'Im_MattDamon.png', 'Im_LeonardoDiCaprio.png', 'Im_BenAffleck.png', 'Im_OrlandoBloom.png', 'Im_RyanGosling.png', 'Im_RobertDowneyJr.png', 'Im_GeorgeClooney.png', 'Im_ElijahWood.png', 'Im_BradPitt.png'],same,1,0.40836269999999786,5,76.19047619047619,
EVES0409,train,inv,150,pos150_id20_im3.bmp_pos150_id16_im3.bmp,['Im_JustinTimberlake.png', 'Im_MattDamon.png', 'Im_LeonardoDiCaprio.png', 'Im_BenAffleck.png', 'Im_OrlandoBloom.png', 'Im_RyanGosling.png', 'Im_RobertDowneyJr.png', 'Im_GeorgeClooney.png', 'Im_ElijahWood.png', 'Im_BradPitt.png'],diff,1,0.40838719999919704,6,76.19047619047619,
EVES0409,train,inv,fs,posfs_id16_im3.bmp_posfs_id3_im8.bmp,['Im_JustinTimberlake.png', 'Im_MattDamon.png', 'Im_LeonardoDiCaprio.png', 'Im_BenAffleck.png', 'Im_OrlandoBloom.png', 'Im_RyanGosling.png', 'Im_RobertDowneyJr.png', 'Im_GeorgeClooney.png', 'Im_ElijahWood.png', 'Im_BradPitt.png'],same,0,0.8916558000000805,6,76.19047619047619,
EVES0409,train,inv,30,pos30_id20_im12.bmp_pos30_id20_im3.bmp,['Im_JustinTimberlake.png', 'Im_MattDamon.png', 'Im_LeonardoDiCaprio.png', 'Im_BenAffleck.png', 'Im_OrlandoBloom.png', 'Im_RyanGosling.png', 'Im_RobertDowneyJr.png', 'Im_GeorgeClooney.png', 'Im_ElijahWood.png', 'Im_BradPitt.png'],same,1,0.4165517000001273,7,76.19047619047619,
EVES0409,train,inv,fs,posfs_id14_im18.bmp_posfs_id14_im24.bmp,['Im_JustinTimberlake.png', 'Im_MattDamon.png', 'Im_LeonardoDiCaprio.png', 'Im_BenAffleck.png', 'Im_OrlandoBloom.png', 'Im_RyanGosling.png', 'Im_RobertDowneyJr.png', 'Im_GeorgeClooney.png', 'Im_ElijahWood.png', 'Im_BradPitt.png'],diff,0,0.4165725000002567,7,76.19047619047619,
EVES0409,train,inv,0,pos0_id13_im10.bmp_pos0_id14_im18.bmp,['Im_JustinTimberlake.png', 'Im_MattDamon.png', 'Im_LeonardoDiCaprio.png', 'Im_BenAffleck.png', 'Im_OrlandoBloom.png', 'Im_RyanGosling.png', 'Im_RobertDowneyJr.png', 'Im_GeorgeClooney.png', 'Im_ElijahWood.png', 'Im_BradPitt.png'],diff,1,0.8497750999995333,8,76.19047619047619,
EVES0409,train,neg,fs,negfs_id1_im24.bmp_negfs_id1_im4.bmp,['Im_JustinTimberlake.png', 'Im_MattDamon.png', 'Im_LeonardoDiCaprio.png', 'Im_BenAffleck.png', 'Im_OrlandoBloom.png', 'Im_RyanGosling.png', 'Im_RobertDowneyJr.png', 'Im_GeorgeClooney.png', 'Im_ElijahWood.png', 'Im_BradPitt.png'],diff,0,0.5670917000006739,8,76.19047619047619,
EVES0409,train,neg,90,neg90_id6_im19.bmp_neg90_id6_im12.bmp,['Im_JustinTimberlake.png', 'Im_MattDamon.png', 'Im_LeonardoDiCaprio.png', 'Im_BenAffleck.png', 'Im_OrlandoBloom.png', 'Im_RyanGosling.png', 'Im_RobertDowneyJr.png', 'Im_GeorgeClooney.png', 'Im_ElijahWood.png', 'Im_BradPitt.png'],diff,0,1.1332349999993312,8,76.19047619047619,
EVES0409,train,neg,0,neg0_id1_im21.bmp_neg0_id14_im16.bmp,['Im_JustinTimberlake.png', 'Im_MattDamon.png', 'Im_LeonardoDiCaprio.png', 'Im_BenAffleck.png', 'Im_OrlandoBloom.png', 'Im_RyanGosling.png', 'Im_RobertDowneyJr.png', 'Im_GeorgeClooney.png', 'Im_ElijahWood.png', 'Im_BradPitt.png'],diff,1,0.5165587999999843,9,76.19047619047619,
EVES0409,train,neg,90,neg90_id13_im10.bmp_neg90_id18_im19.bmp,['Im_JustinTimberlake.png', 'Im_MattDamon.png', 'Im_LeonardoDiCaprio.png', 'Im_BenAffleck.png', 'Im_OrlandoBloom.png', 'Im_RyanGosling.png', 'Im_RobertDowneyJr.png', 'Im_GeorgeClooney.png', 'Im_ElijahWood.png', 'Im_BradPitt.png'],diff,1,0.5751882999993541,10,76.19047619047619,
EVES0409,train,neg,60,neg60_id20_im12.bmp_neg60_id13_im29.bmp,['Im_JustinTimberlake.png', 'Im_MattDamon.png', 'Im_LeonardoDiCaprio.png', 'Im_BenAffleck.png', 'Im_OrlandoBloom.png', 'Im_RyanGosling.png', 'Im_RobertDowneyJr.png', 'Im_GeorgeClooney.png', 'Im_ElijahWood.png', 'Im_BradPitt.png'],diff,1,0.5833938000014314,11,76.19047619047619,
EVES0409,train,neg,30,neg30_id16_im2.bmp_neg30_id3_im8.bmp,['Im_JustinTimberlake.png', 'Im_MattDamon.png', 'Im_LeonardoDiCaprio.png', 'Im_BenAffleck.png', 'Im_OrlandoBloom.png', 'Im_RyanGosling.png', 'Im_RobertDowneyJr.png', 'Im_GeorgeClooney.png', 'Im_ElijahWood.png', 'Im_BradPitt.png'],same,0,1.3418048999992607,11,76.19047619047619,
EVES0409,train,neg,30,neg30_id7_im15.bmp_neg30_id1_im21.bmp,['Im_JustinTimberlake.png', 'Im_MattDamon.png', 'Im_LeonardoDiCaprio.png', 'Im_BenAffleck.png', 'Im_OrlandoBloom.png', 'Im_RyanGosling.png', 'Im_RobertDowneyJr.png', 'Im_GeorgeClooney.png', 'Im_ElijahWood.png', 'Im_BradPitt.png'],diff,1,0.4081583999995928,12,76.19047619047619,
EVES0409,train,neg,fs,negfs_id20_im30.bmp_negfs_id16_im19.bmp,['Im_JustinTimberlake.png', 'Im_MattDamon.png', 'Im_LeonardoDiCaprio.png', 'Im_BenAffleck.png', 'Im_OrlandoBloom.png', 'Im_RyanGosling.png', 'Im_RobertDowneyJr.png', 'Im_GeorgeClooney.png', 'Im_ElijahWood.png', 'Im_BradPitt.png'],diff,1,0.40004009999938717,13,76.19047619047619,
EVES0409,train,neg,120,neg120_id18_im18.bmp_neg120_id7_im26.bmp,['Im_JustinTimberlake.png', 'Im_MattDamon.png', 'Im_LeonardoDiCaprio.png', 'Im_BenAffleck.png', 'Im_OrlandoBloom.png', 'Im_RyanGosling.png', 'Im_RobertDowneyJr.png', 'Im_GeorgeClooney.png', 'Im_ElijahWood.png', 'Im_BradPitt.png'],diff,1,0.8416691000002174,14,76.19047619047619,
EVES0409,train,neg,150,neg150_id18_im19.bmp_neg150_id18_im11.bmp,['Im_JustinTimberlake.png', 'Im_MattDamon.png', 'Im_LeonardoDiCaprio.png', 'Im_BenAffleck.png', 'Im_OrlandoBloom.png', 'Im_RyanGosling.png', 'Im_RobertDowneyJr.png', 'Im_GeorgeClooney.png', 'Im_ElijahWood.png', 'Im_BradPitt.png'],diff,0,0.6833895999989181,14,76.19047619047619,
EVES0409,train,neg,0,neg0_id3_im17.bmp_neg0_id3_im8.bmp,['Im_JustinTimberlake.png', 'Im_MattDamon.png', 'Im_LeonardoDiCaprio.png', 'Im_BenAffleck.png', 'Im_OrlandoBloom.png', 'Im_RyanGosling.png', 'Im_RobertDowneyJr.png', 'Im_GeorgeClooney.png', 'Im_ElijahWood.png', 'Im_BradPitt.png'],diff,0,1.533498700000564,14,76.19047619047619,
EVES0409,train,neg,120,neg120_id1_im21.bmp_neg120_id1_im4.bmp,['Im_JustinTimberlake.png', 'Im_MattDamon.png', 'Im_LeonardoDiCaprio.png', 'Im_BenAffleck.png', 'Im_OrlandoBloom.png', 'Im_RyanGosling.png', 'Im_RobertDowneyJr.png', 'Im_GeorgeClooney.png', 'Im_ElijahWood.png', 'Im_BradPitt.png'],same,1,1.5165648000001966,15,76.19047619047619,
EVES0409,train,neg,60,neg60_id7_im26.bmp_neg60_id7_im15.bmp,['Im_JustinTimberlake.png', 'Im_MattDamon.png', 'Im_LeonardoDiCaprio.png', 'Im_BenAffleck.png', 'Im_OrlandoBloom.png', 'Im_RyanGosling.png', 'Im_RobertDowneyJr.png', 'Im_GeorgeClooney.png', 'Im_ElijahWood.png', 'Im_BradPitt.png'],diff,0,1.9666584999995393,15,76.19047619047619,
EVES0409,train,neg,150,neg150_id18_im11.bmp_neg150_id3_im17.bmp,['Im_JustinTimberlake.png', 'Im_MattDamon.png', 'Im_LeonardoDiCaprio.png', 'Im_BenAffleck.png', 'Im_OrlandoBloom.png', 'Im_RyanGosling.png', 'Im_RobertDowneyJr.png', 'Im_GeorgeClooney.png', 'Im_ElijahWood.png', 'Im_BradPitt.png'],diff,1,0.9501211000006151,16,76.19047619047619,
EVES0409,train,inv,120,pos120_id10_im18.bmp_pos120_id10_im17.bmp,['Im_JustinTimberlake.png', 'Im_MattDamon.png', 'Im_LeonardoDiCaprio.png', 'Im_BenAffleck.png', 'Im_OrlandoBloom.png', 'Im_RyanGosling.png', 'Im_RobertDowneyJr.png', 'Im_GeorgeClooney.png', 'Im_ElijahWood.png', 'Im_BradPitt.png'],same,1,0.41673919999993814,17,76.19047619047619,
EVES0409,train,inv,0,pos0_id16_im19.bmp_pos0_id16_im3.bmp,['Im_JustinTimberlake.png', 'Im_MattDamon.png', 'Im_LeonardoDiCaprio.png', 'Im_BenAffleck.png', 'Im_OrlandoBloom.png', 'Im_RyanGosling.png', 'Im_RobertDowneyJr.png', 'Im_GeorgeClooney.png', 'Im_ElijahWood.png', 'Im_BradPitt.png'],same,1,2.200478700000531,18,76.19047619047619,
EVES0409,train,inv,fs,posfs_id10_im1.bmp_posfs_id10_im18.bmp,['Im_JustinTimberlake.png', 'Im_MattDamon.png', 'Im_LeonardoDiCaprio.png', 'Im_BenAffleck.png', 'Im_OrlandoBloom.png', 'Im_RyanGosling.png', 'Im_RobertDowneyJr.png', 'Im_GeorgeClooney.png', 'Im_ElijahWood.png', 'Im_BradPitt.png'],diff,0,0.416713599999639,18,76.19047619047619,
EVES0409,train,inv,fs,posfs_id16_im19.bmp_posfs_id16_im3.bmp,['Im_JustinTimberlake.png', 'Im_MattDamon.png', 'Im_LeonardoDiCaprio.png', 'Im_BenAffleck.png', 'Im_OrlandoBloom.png', 'Im_RyanGosling.png', 'Im_RobertDowneyJr.png', 'Im_GeorgeClooney.png', 'Im_ElijahWood.png', 'Im_BradPitt.png'],same,1,0.4166055999994569,19,76.19047619047619,
EVES0409,train,inv,30,pos30_id3_im6.bmp_pos30_id3_im8.bmp,['Im_JustinTimberlake.png', 'Im_MattDamon.png', 'Im_LeonardoDiCaprio.png', 'Im_BenAffleck.png', 'Im_OrlandoBloom.png', 'Im_RyanGosling.png', 'Im_RobertDowneyJr.png', 'Im_GeorgeClooney.png', 'Im_ElijahWood.png', 'Im_BradPitt.png'],same,1,0.41659350000009,20,76.19047619047619,
EVES0409,train,inv,90,pos90_id13_im15.bmp_pos90_id13_im10.bmp,['Im_JustinTimberlake.png', 'Im_MattDamon.png', 'Im_LeonardoDiCaprio.png', 'Im_BenAffleck.png', 'Im_OrlandoBloom.png', 'Im_RyanGosling.png', 'Im_RobertDowneyJr.png', 'Im_GeorgeClooney.png', 'Im_ElijahWood.png', 'Im_BradPitt.png'],diff,0,0.40840229999957955,20,76.19047619047619,
EVES0409,train,inv,60,pos60_id13_im29.bmp_pos60_id10_im18.bmp,['Im_JustinTimberlake.png', 'Im_MattDamon.png', 'Im_LeonardoDiCaprio.png', 'Im_BenAffleck.png', 'Im_OrlandoBloom.png', 'Im_RyanGosling.png', 'Im_RobertDowneyJr.png', 'Im_GeorgeClooney.png', 'Im_ElijahWood.png', 'Im_BradPitt.png'],diff,1,0.7334043999999267,21,76.19047619047619,
EVES0409,train,inv,30,pos30_id16_im3.bmp_pos30_id3_im8.bmp,['Im_JustinTimberlake.png', 'Im_MattDamon.png', 'Im_LeonardoDiCaprio.png', 'Im_BenAffleck.png', 'Im_OrlandoBloom.png', 'Im_RyanGosling.png', 'Im_RobertDowneyJr.png', 'Im_GeorgeClooney.png', 'Im_ElijahWood.png', 'Im_BradPitt.png'],same,0,0.4333986999990884,21,76.19047619047619,
EVES0409,train,inv,0,pos0_id13_im10.bmp_pos0_id13_im15.bmp,['Im_JustinTimberlake.png', 'Im_MattDamon.png', 'Im_LeonardoDiCaprio.png', 'Im_BenAffleck.png', 'Im_OrlandoBloom.png', 'Im_RyanGosling.png', 'Im_RobertDowneyJr.png', 'Im_GeorgeClooney.png', 'Im_ElijahWood.png', 'Im_BradPitt.png'],same,1,0.9918520000010176,22,76.19047619047619,
EVES0409,train,inv,120,pos120_id3_im6.bmp_pos120_id3_im8.bmp,['Im_JustinTimberlake.png', 'Im_MattDamon.png', 'Im_LeonardoDiCaprio.png', 'Im_BenAffleck.png', 'Im_OrlandoBloom.png', 'Im_RyanGosling.png', 'Im_RobertDowneyJr.png', 'Im_GeorgeClooney.png', 'Im_ElijahWood.png', 'Im_BradPitt.png'],same,1,0.40833030000067083,23,76.19047619047619,
EVES0409,train,inv,90,pos90_id18_im18.bmp_pos90_id18_im19.bmp,['Im_JustinTimberlake.png', 'Im_MattDamon.png', 'Im_LeonardoDiCaprio.png', 'Im_BenAffleck.png', 'Im_OrlandoBloom.png', 'Im_RyanGosling.png', 'Im_RobertDowneyJr.png', 'Im_GeorgeClooney.png', 'Im_ElijahWood.png', 'Im_BradPitt.png'],same,1,0.408381899998858,24,76.19047619047619,
EVES0409,train,inv,150,pos150_id3_im8.bmp_pos150_id3_im6.bmp,['Im_JustinTimberlake.png', 'Im_MattDamon.png', 'Im_LeonardoDiCaprio.png', 'Im_BenAffleck.png', 'Im_OrlandoBloom.png', 'Im_RyanGosling.png', 'Im_RobertDowneyJr.png', 'Im_GeorgeClooney.png', 'Im_ElijahWood.png', 'Im_BradPitt.png'],diff,0,0.40846529999907943,24,76.19047619047619,
EVES0409,train,inv,150,pos150_id6_im18.bmp_pos150_id1_im24.bmp,['Im_JustinTimberlake.png', 'Im_MattDamon.png', 'Im_LeonardoDiCaprio.png', 'Im_BenAffleck.png', 'Im_OrlandoBloom.png', 'Im_RyanGosling.png', 'Im_RobertDowneyJr.png', 'Im_GeorgeClooney.png', 'Im_ElijahWood.png', 'Im_BradPitt.png'],none,0,4.400025799999639,24,76.19047619047619,
EVES0409,train,inv,60,pos60_id6_im18.bmp_pos60_id6_im19.bmp,['Im_JustinTimberlake.png', 'Im_MattDamon.png', 'Im_LeonardoDiCaprio.png', 'Im_BenAffleck.png', 'Im_OrlandoBloom.png', 'Im_RyanGosling.png', 'Im_RobertDowneyJr.png', 'Im_GeorgeClooney.png', 'Im_ElijahWood.png', 'Im_BradPitt.png'],same,1,2.516680400000041,25,76.19047619047619,
EVES0409,train,pos,60,pos60_id7_im14.bmp_pos60_id7_im26.bmp,['Im_JustinTimberlake.png', 'Im_MattDamon.png', 'Im_LeonardoDiCaprio.png', 'Im_BenAffleck.png', 'Im_OrlandoBloom.png', 'Im_RyanGosling.png', 'Im_RobertDowneyJr.png', 'Im_GeorgeClooney.png', 'Im_ElijahWood.png', 'Im_BradPitt.png'],same,1,0.8165606000002299,1,59.523809523809526,
EVES0409,train,pos,60,pos60_id18_im18.bmp_pos60_id7_im15.bmp,['Im_JustinTimberlake.png', 'Im_MattDamon.png', 'Im_LeonardoDiCaprio.png', 'Im_BenAffleck.png', 'Im_OrlandoBloom.png', 'Im_RyanGosling.png', 'Im_RobertDowneyJr.png', 'Im_GeorgeClooney.png', 'Im_ElijahWood.png', 'Im_BradPitt.png'],same,0,1.1168052000011812,1,59.523809523809526,
EVES0409,train,pos,30,pos30_id10_im18.bmp_pos30_id1_im4.bmp,['Im_JustinTimberlake.png', 'Im_MattDamon.png', 'Im_LeonardoDiCaprio.png', 'Im_BenAffleck.png', 'Im_OrlandoBloom.png', 'Im_RyanGosling.png', 'Im_RobertDowneyJr.png', 'Im_GeorgeClooney.png', 'Im_ElijahWood.png', 'Im_BradPitt.png'],diff,1,0.5669555999993463,2,59.523809523809526,
EVES0409,train,pos,90,pos90_id20_im3.bmp_pos90_id16_im3.bmp,['Im_JustinTimberlake.png', 'Im_MattDamon.png', 'Im_LeonardoDiCaprio.png', 'Im_BenAffleck.png', 'Im_OrlandoBloom.png', 'Im_RyanGosling.png', 'Im_RobertDowneyJr.png', 'Im_GeorgeClooney.png', 'Im_ElijahWood.png', 'Im_BradPitt.png'],diff,1,0.7918305000002874,3,59.523809523809526,
EVES0409,train,pos,fs,posfs_id7_im26.bmp_posfs_id18_im18.bmp,['Im_JustinTimberlake.png', 'Im_MattDamon.png', 'Im_LeonardoDiCaprio.png', 'Im_BenAffleck.png', 'Im_OrlandoBloom.png', 'Im_RyanGosling.png', 'Im_RobertDowneyJr.png', 'Im_GeorgeClooney.png', 'Im_ElijahWood.png', 'Im_BradPitt.png'],diff,1,0.44989470000109577,4,59.523809523809526,
EVES0409,train,pos,150,pos150_id3_im17.bmp_pos150_id3_im6.bmp,['Im_JustinTimberlake.png', 'Im_MattDamon.png', 'Im_LeonardoDiCaprio.png', 'Im_BenAffleck.png', 'Im_OrlandoBloom.png', 'Im_RyanGosling.png', 'Im_RobertDowneyJr.png', 'Im_GeorgeClooney.png', 'Im_ElijahWood.png', 'Im_BradPitt.png'],same,1,0.5748777999997401,5,59.523809523809526,
EVES0409,train,pos,150,pos150_id10_im17.bmp_pos150_id16_im2.bmp,['Im_JustinTimberlake.png', 'Im_MattDamon.png', 'Im_LeonardoDiCaprio.png', 'Im_BenAffleck.png', 'Im_OrlandoBloom.png', 'Im_RyanGosling.png', 'Im_RobertDowneyJr.png', 'Im_GeorgeClooney.png', 'Im_ElijahWood.png', 'Im_BradPitt.png'],diff,1,0.4920891000001575,6,59.523809523809526,
EVES0409,train,pos,120,pos120_id16_im2.bmp_pos120_id3_im8.bmp,['Im_JustinTimberlake.png', 'Im_MattDamon.png', 'Im_LeonardoDiCaprio.png', 'Im_BenAffleck.png', 'Im_OrlandoBloom.png', 'Im_RyanGosling.png', 'Im_RobertDowneyJr.png', 'Im_GeorgeClooney.png', 'Im_ElijahWood.png', 'Im_BradPitt.png'],same,0,1.2750040000009903,6,59.523809523809526,
EVES0409,train,pos,30,pos30_id18_im18.bmp_pos30_id18_im19.bmp,['Im_JustinTimberlake.png', 'Im_MattDamon.png', 'Im_LeonardoDiCaprio.png', 'Im_BenAffleck.png', 'Im_OrlandoBloom.png', 'Im_RyanGosling.png', 'Im_RobertDowneyJr.png', 'Im_GeorgeClooney.png', 'Im_ElijahWood.png', 'Im_BradPitt.png'],same,1,0.399639199999001,7,59.523809523809526,
EVES0409,train,pos,120,pos120_id14_im18.bmp_pos120_id6_im18.bmp,['Im_JustinTimberlake.png', 'Im_MattDamon.png', 'Im_LeonardoDiCaprio.png', 'Im_BenAffleck.png', 'Im_OrlandoBloom.png', 'Im_RyanGosling.png', 'Im_RobertDowneyJr.png', 'Im_GeorgeClooney.png', 'Im_ElijahWood.png', 'Im_BradPitt.png'],diff,1,0.6084622999987914,8,59.523809523809526,
EVES0409,train,pos,90,pos90_id16_im2.bmp_pos90_id16_im3.bmp,['Im_JustinTimberlake.png', 'Im_MattDamon.png', 'Im_LeonardoDiCaprio.png', 'Im_BenAffleck.png', 'Im_OrlandoBloom.png', 'Im_RyanGosling.png', 'Im_RobertDowneyJr.png', 'Im_GeorgeClooney.png', 'Im_ElijahWood.png', 'Im_BradPitt.png'],same,1,0.53339909999886,9,59.523809523809526,
EVES0409,train,pos,0,pos0_id7_im14.bmp_pos0_id7_im15.bmp,['Im_JustinTimberlake.png', 'Im_MattDamon.png', 'Im_LeonardoDiCaprio.png', 'Im_BenAffleck.png', 'Im_OrlandoBloom.png', 'Im_RyanGosling.png', 'Im_RobertDowneyJr.png', 'Im_GeorgeClooney.png', 'Im_ElijahWood.png', 'Im_BradPitt.png'],same,1,0.6003294000001915,10,59.523809523809526,
EVES0409,train,pos,0,pos0_id10_im1.bmp_pos0_id10_im17.bmp,['Im_JustinTimberlake.png', 'Im_MattDamon.png', 'Im_LeonardoDiCaprio.png', 'Im_BenAffleck.png', 'Im_OrlandoBloom.png', 'Im_RyanGosling.png', 'Im_RobertDowneyJr.png', 'Im_GeorgeClooney.png', 'Im_ElijahWood.png', 'Im_BradPitt.png'],same,1,0.42526189999989583,11,59.523809523809526,
EVES0409,train,pos,fs,posfs_id18_im18.bmp_posfs_id7_im15.bmp,['Im_JustinTimberlake.png', 'Im_MattDamon.png', 'Im_LeonardoDiCaprio.png', 'Im_BenAffleck.png', 'Im_OrlandoBloom.png', 'Im_RyanGosling.png', 'Im_RobertDowneyJr.png', 'Im_GeorgeClooney.png', 'Im_ElijahWood.png', 'Im_BradPitt.png'],diff,1,1.0082695000000967,12,59.523809523809526,
EVES0409,train,neg,0,neg0_id20_im12.bmp_neg0_id20_im3.bmp,['Im_JustinTimberlake.png', 'Im_MattDamon.png', 'Im_LeonardoDiCaprio.png', 'Im_BenAffleck.png', 'Im_OrlandoBloom.png', 'Im_RyanGosling.png', 'Im_RobertDowneyJr.png', 'Im_GeorgeClooney.png', 'Im_ElijahWood.png', 'Im_BradPitt.png'],same,1,0.48346219999984896,13,59.523809523809526,
EVES0409,train,neg,120,neg120_id3_im17.bmp_neg120_id3_im6.bmp,['Im_JustinTimberlake.png', 'Im_MattDamon.png', 'Im_LeonardoDiCaprio.png', 'Im_BenAffleck.png', 'Im_OrlandoBloom.png', 'Im_RyanGosling.png', 'Im_RobertDowneyJr.png', 'Im_GeorgeClooney.png', 'Im_ElijahWood.png', 'Im_BradPitt.png'],same,1,0.8251221999998961,14,59.523809523809526,
EVES0409,train,neg,fs,negfs_id7_im14.bmp_negfs_id7_im15.bmp,['Im_JustinTimberlake.png', 'Im_MattDamon.png', 'Im_LeonardoDiCaprio.png', 'Im_BenAffleck.png', 'Im_OrlandoBloom.png', 'Im_RyanGosling.png', 'Im_RobertDowneyJr.png', 'Im_GeorgeClooney.png', 'Im_ElijahWood.png', 'Im_BradPitt.png'],same,1,0.41700440000022354,15,59.523809523809526,
EVES0409,train,neg,90,neg90_id3_im8.bmp_neg90_id16_im3.bmp,['Im_JustinTimberlake.png', 'Im_MattDamon.png', 'Im_LeonardoDiCaprio.png', 'Im_BenAffleck.png', 'Im_OrlandoBloom.png', 'Im_RyanGosling.png', 'Im_RobertDowneyJr.png', 'Im_GeorgeClooney.png', 'Im_ElijahWood.png', 'Im_BradPitt.png'],same,0,1.4916867000010825,15,59.523809523809526,
EVES0409,train,neg,30,neg30_id10_im17.bmp_neg30_id20_im3.bmp,['Im_JustinTimberlake.png', 'Im_MattDamon.png', 'Im_LeonardoDiCaprio.png', 'Im_BenAffleck.png', 'Im_OrlandoBloom.png', 'Im_RyanGosling.png', 'Im_RobertDowneyJr.png', 'Im_GeorgeClooney.png', 'Im_ElijahWood.png', 'Im_BradPitt.png'],same,0,0.41655439999885857,15,59.523809523809526,
EVES0409,train,neg,60,neg60_id14_im16.bmp_neg60_id14_im24.bmp,['Im_JustinTimberlake.png', 'Im_MattDamon.png', 'Im_LeonardoDiCaprio.png', 'Im_BenAffleck.png', 'Im_OrlandoBloom.png', 'Im_RyanGosling.png', 'Im_RobertDowneyJr.png', 'Im_GeorgeClooney.png', 'Im_ElijahWood.png', 'Im_BradPitt.png'],same,1,0.41667079999933776,16,59.523809523809526,
EVES0409,train,neg,30,neg30_id18_im18.bmp_neg30_id18_im11.bmp,['Im_JustinTimberlake.png', 'Im_MattDamon.png', 'Im_LeonardoDiCaprio.png', 'Im_BenAffleck.png', 'Im_OrlandoBloom.png', 'Im_RyanGosling.png', 'Im_RobertDowneyJr.png', 'Im_GeorgeClooney.png', 'Im_ElijahWood.png', 'Im_BradPitt.png'],same,1,0.5918935999998212,17,59.523809523809526,
EVES0409,train,neg,0,neg0_id16_im3.bmp_neg0_id3_im8.bmp,['Im_JustinTimberlake.png', 'Im_MattDamon.png', 'Im_LeonardoDiCaprio.png', 'Im_BenAffleck.png', 'Im_OrlandoBloom.png', 'Im_RyanGosling.png', 'Im_RobertDowneyJr.png', 'Im_GeorgeClooney.png', 'Im_ElijahWood.png', 'Im_BradPitt.png'],diff,1,0.5831536000005144,18,59.523809523809526,
EVES0409,train,neg,fs,negfs_id10_im18.bmp_negfs_id10_im17.bmp,['Im_JustinTimberlake.png', 'Im_MattDamon.png', 'Im_LeonardoDiCaprio.png', 'Im_BenAffleck.png', 'Im_OrlandoBloom.png', 'Im_RyanGosling.png', 'Im_RobertDowneyJr.png', 'Im_GeorgeClooney.png', 'Im_ElijahWood.png', 'Im_BradPitt.png'],same,1,1.016913299999942,19,59.523809523809526,
EVES0409,train,neg,90,neg90_id6_im12.bmp_neg90_id3_im17.bmp,['Im_JustinTimberlake.png', 'Im_MattDamon.png', 'Im_LeonardoDiCaprio.png', 'Im_BenAffleck.png', 'Im_OrlandoBloom.png', 'Im_RyanGosling.png', 'Im_RobertDowneyJr.png', 'Im_GeorgeClooney.png', 'Im_ElijahWood.png', 'Im_BradPitt.png'],diff,1,1.267130599999291,20,59.523809523809526,
EVES0409,train,neg,120,neg120_id10_im18.bmp_neg120_id13_im29.bmp,['Im_JustinTimberlake.png', 'Im_MattDamon.png', 'Im_LeonardoDiCaprio.png', 'Im_BenAffleck.png', 'Im_OrlandoBloom.png', 'Im_RyanGosling.png', 'Im_RobertDowneyJr.png', 'Im_GeorgeClooney.png', 'Im_ElijahWood.png', 'Im_BradPitt.png'],same,0,0.8166901000004145,20,59.523809523809526,
EVES0409,train,neg,150,neg150_id3_im6.bmp_neg150_id3_im17.bmp,['Im_JustinTimberlake.png', 'Im_MattDamon.png', 'Im_LeonardoDiCaprio.png', 'Im_BenAffleck.png', 'Im_OrlandoBloom.png', 'Im_RyanGosling.png', 'Im_RobertDowneyJr.png', 'Im_GeorgeClooney.png', 'Im_ElijahWood.png', 'Im_BradPitt.png'],same,1,0.39985089999936463,21,59.523809523809526,
EVES0409,train,neg,150,neg150_id16_im19.bmp_neg150_id13_im15.bmp,['Im_JustinTimberlake.png', 'Im_MattDamon.png', 'Im_LeonardoDiCaprio.png', 'Im_BenAffleck.png', 'Im_OrlandoBloom.png', 'Im_RyanGosling.png', 'Im_RobertDowneyJr.png', 'Im_GeorgeClooney.png', 'Im_ElijahWood.png', 'Im_BradPitt.png'],same,0,0.441840499999671,21,59.523809523809526,
EVES0409,train,neg,60,neg60_id16_im19.bmp_neg60_id16_im2.bmp,['Im_JustinTimberlake.png', 'Im_MattDamon.png', 'Im_LeonardoDiCaprio.png', 'Im_BenAffleck.png', 'Im_OrlandoBloom.png', 'Im_RyanGosling.png', 'Im_RobertDowneyJr.png', 'Im_GeorgeClooney.png', 'Im_ElijahWood.png', 'Im_BradPitt.png'],same,1,0.41662689999975555,22,59.523809523809526,
EVES0409,train,pos,90,pos90_id13_im10.bmp_pos90_id13_im15.bmp,['Im_JustinTimberlake.png', 'Im_MattDamon.png', 'Im_LeonardoDiCaprio.png', 'Im_BenAffleck.png', 'Im_OrlandoBloom.png', 'Im_RyanGosling.png', 'Im_RobertDowneyJr.png', 'Im_GeorgeClooney.png', 'Im_ElijahWood.png', 'Im_BradPitt.png'],same,1,0.46662780000042403,23,59.523809523809526,
EVES0409,train,pos,150,pos150_id18_im18.bmp_pos150_id18_im19.bmp,['Im_JustinTimberlake.png', 'Im_MattDamon.png', 'Im_LeonardoDiCaprio.png', 'Im_BenAffleck.png', 'Im_OrlandoBloom.png', 'Im_RyanGosling.png', 'Im_RobertDowneyJr.png', 'Im_GeorgeClooney.png', 'Im_ElijahWood.png', 'Im_BradPitt.png'],same,1,0.41667679999955,24,59.523809523809526,
EVES0409,train,pos,30,pos30_id7_im26.bmp_pos30_id20_im30.bmp,['Im_JustinTimberlake.png', 'Im_MattDamon.png', 'Im_LeonardoDiCaprio.png', 'Im_BenAffleck.png', 'Im_OrlandoBloom.png', 'Im_RyanGosling.png', 'Im_RobertDowneyJr.png', 'Im_GeorgeClooney.png', 'Im_ElijahWood.png', 'Im_BradPitt.png'],diff,1,0.4337948000011238,25,59.523809523809526,
EVES0409,train,pos,120,pos120_id14_im16.bmp_pos120_id6_im19.bmp,['Im_JustinTimberlake.png', 'Im_MattDamon.png', 'Im_LeonardoDiCaprio.png', 'Im_BenAffleck.png', 'Im_OrlandoBloom.png', 'Im_RyanGosling.png', 'Im_RobertDowneyJr.png', 'Im_GeorgeClooney.png', 'Im_ElijahWood.png', 'Im_BradPitt.png'],same,0,0.8500280999996903,25,59.523809523809526,
EVES0409,train,pos,0,pos0_id20_im30.bmp_pos0_id20_im12.bmp,['Im_JustinTimberlake.png', 'Im_MattDamon.png', 'Im_LeonardoDiCaprio.png', 'Im_BenAffleck.png', 'Im_OrlandoBloom.png', 'Im_RyanGosling.png', 'Im_RobertDowneyJr.png', 'Im_GeorgeClooney.png', 'Im_ElijahWood.png', 'Im_BradPitt.png'],same,1,0.6666564000006474,26,59.523809523809526,
EVES0409,train,pos,fs,posfs_id3_im17.bmp_posfs_id18_im11.bmp,['Im_JustinTimberlake.png', 'Im_MattDamon.png', 'Im_LeonardoDiCaprio.png', 'Im_BenAffleck.png', 'Im_OrlandoBloom.png', 'Im_RyanGosling.png', 'Im_RobertDowneyJr.png', 'Im_GeorgeClooney.png', 'Im_ElijahWood.png', 'Im_BradPitt.png'],diff,1,0.4084155999989889,27,59.523809523809526,
EVES0409,train,pos,60,pos60_id6_im12.bmp_pos60_id3_im17.bmp,['Im_JustinTimberlake.png', 'Im_MattDamon.png', 'Im_LeonardoDiCaprio.png', 'Im_BenAffleck.png', 'Im_OrlandoBloom.png', 'Im_RyanGosling.png', 'Im_RobertDowneyJr.png', 'Im_GeorgeClooney.png', 'Im_ElijahWood.png', 'Im_BradPitt.png'],diff,1,0.6499217000000499,28,59.523809523809526,
EVES0409,train,pos,fs,posfs_id6_im18.bmp_posfs_id6_im12.bmp,['Im_JustinTimberlake.png', 'Im_MattDamon.png', 'Im_LeonardoDiCaprio.png', 'Im_BenAffleck.png', 'Im_OrlandoBloom.png', 'Im_RyanGosling.png', 'Im_RobertDowneyJr.png', 'Im_GeorgeClooney.png', 'Im_ElijahWood.png', 'Im_BradPitt.png'],same,1,1.741781799999444,29,59.523809523809526,
EVES0409,train,pos,60,pos60_id14_im16.bmp_pos60_id14_im18.bmp,['Im_JustinTimberlake.png', 'Im_MattDamon.png', 'Im_LeonardoDiCaprio.png', 'Im_BenAffleck.png', 'Im_OrlandoBloom.png', 'Im_RyanGosling.png', 'Im_RobertDowneyJr.png', 'Im_GeorgeClooney.png', 'Im_ElijahWood.png', 'Im_BradPitt.png'],same,1,0.4082455999996455,30,59.523809523809526,
EVES0409,train,pos,90,pos90_id16_im3.bmp_pos90_id3_im8.bmp,['Im_JustinTimberlake.png', 'Im_MattDamon.png', 'Im_LeonardoDiCaprio.png', 'Im_BenAffleck.png', 'Im_OrlandoBloom.png', 'Im_RyanGosling.png', 'Im_RobertDowneyJr.png', 'Im_GeorgeClooney.png', 'Im_ElijahWood.png', 'Im_BradPitt.png'],same,0,0.4166719999993802,30,59.523809523809526,
EVES0409,train,pos,30,pos30_id3_im6.bmp_pos30_id3_im8.bmp,['Im_JustinTimberlake.png', 'Im_MattDamon.png', 'Im_LeonardoDiCaprio.png', 'Im_BenAffleck.png', 'Im_OrlandoBloom.png', 'Im_RyanGosling.png', 'Im_RobertDowneyJr.png', 'Im_GeorgeClooney.png', 'Im_ElijahWood.png', 'Im_BradPitt.png'],same,1,0.416647500000181,31,59.523809523809526,
EVES0409,train,pos,120,pos120_id20_im12.bmp_pos120_id10_im1.bmp,['Im_JustinTimberlake.png', 'Im_MattDamon.png', 'Im_LeonardoDiCaprio.png', 'Im_BenAffleck.png', 'Im_OrlandoBloom.png', 'Im_RyanGosling.png', 'Im_RobertDowneyJr.png', 'Im_GeorgeClooney.png', 'Im_ElijahWood.png', 'Im_BradPitt.png'],diff,1,0.8832108999995398,32,59.523809523809526,
EVES0409,train,pos,0,pos0_id6_im19.bmp_pos0_id6_im18.bmp,['Im_JustinTimberlake.png', 'Im_MattDamon.png', 'Im_LeonardoDiCaprio.png', 'Im_BenAffleck.png', 'Im_OrlandoBloom.png', 'Im_RyanGosling.png', 'Im_RobertDowneyJr.png', 'Im_GeorgeClooney.png', 'Im_ElijahWood.png', 'Im_BradPitt.png'],same,1,0.41663640000115265,33,59.523809523809526,
EVES0409,train,pos,150,pos150_id10_im18.bmp_pos150_id10_im17.bmp,['Im_JustinTimberlake.png', 'Im_MattDamon.png', 'Im_LeonardoDiCaprio.png', 'Im_BenAffleck.png', 'Im_OrlandoBloom.png', 'Im_RyanGosling.png', 'Im_RobertDowneyJr.png', 'Im_GeorgeClooney.png', 'Im_ElijahWood.png', 'Im_BradPitt.png'],same,1,0.41676600000027975,34,59.523809523809526,
EVES0409,train,inv,150,pos150_id10_im17.bmp_pos150_id16_im2.bmp,['Im_JustinTimberlake.png', 'Im_MattDamon.png', 'Im_LeonardoDiCaprio.png', 'Im_BenAffleck.png', 'Im_OrlandoBloom.png', 'Im_RyanGosling.png', 'Im_RobertDowneyJr.png', 'Im_GeorgeClooney.png', 'Im_ElijahWood.png', 'Im_BradPitt.png'],diff,1,0.4082109999999375,1,80.95238095238095,
EVES0409,train,inv,0,pos0_id10_im18.bmp_pos0_id1_im4.bmp,['Im_JustinTimberlake.png', 'Im_MattDamon.png', 'Im_LeonardoDiCaprio.png', 'Im_BenAffleck.png', 'Im_OrlandoBloom.png', 'Im_RyanGosling.png', 'Im_RobertDowneyJr.png', 'Im_GeorgeClooney.png', 'Im_ElijahWood.png', 'Im_BradPitt.png'],same,0,0.4165322000008018,1,80.95238095238095,
EVES0409,train,inv,30,pos30_id6_im12.bmp_pos30_id3_im17.bmp,['Im_JustinTimberlake.png', 'Im_MattDamon.png', 'Im_LeonardoDiCaprio.png', 'Im_BenAffleck.png', 'Im_OrlandoBloom.png', 'Im_RyanGosling.png', 'Im_RobertDowneyJr.png', 'Im_GeorgeClooney.png', 'Im_ElijahWood.png', 'Im_BradPitt.png'],same,0,0.4165570999994088,1,80.95238095238095,
EVES0409,train,inv,fs,posfs_id14_im16.bmp_posfs_id14_im18.bmp,['Im_JustinTimberlake.png', 'Im_MattDamon.png', 'Im_LeonardoDiCaprio.png', 'Im_BenAffleck.png', 'Im_OrlandoBloom.png', 'Im_RyanGosling.png', 'Im_RobertDowneyJr.png', 'Im_GeorgeClooney.png', 'Im_ElijahWood.png', 'Im_BradPitt.png'],same,1,0.4166695999992953,2,80.95238095238095,
EVES0409,train,inv,0,pos0_id3_im17.bmp_pos0_id3_im6.bmp,['Im_JustinTimberlake.png', 'Im_MattDamon.png', 'Im_LeonardoDiCaprio.png', 'Im_BenAffleck.png', 'Im_OrlandoBloom.png', 'Im_RyanGosling.png', 'Im_RobertDowneyJr.png', 'Im_GeorgeClooney.png', 'Im_ElijahWood.png', 'Im_BradPitt.png'],same,1,0.41664289999971515,3,80.95238095238095,
EVES0409,train,inv,fs,posfs_id13_im15.bmp_posfs_id16_im19.bmp,['Im_JustinTimberlake.png', 'Im_MattDamon.png', 'Im_LeonardoDiCaprio.png', 'Im_BenAffleck.png', 'Im_OrlandoBloom.png', 'Im_RyanGosling.png', 'Im_RobertDowneyJr.png', 'Im_GeorgeClooney.png', 'Im_ElijahWood.png', 'Im_BradPitt.png'],diff,1,0.40832509999927424,4,80.95238095238095,
EVES0409,train,inv,120,pos120_id16_im2.bmp_pos120_id16_im19.bmp,['Im_JustinTimberlake.png', 'Im_MattDamon.png', 'Im_LeonardoDiCaprio.png', 'Im_BenAffleck.png', 'Im_OrlandoBloom.png', 'Im_RyanGosling.png', 'Im_RobertDowneyJr.png', 'Im_GeorgeClooney.png', 'Im_ElijahWood.png', 'Im_BradPitt.png'],same,1,0.9333665000012843,5,80.95238095238095,
EVES0409,train,inv,120,pos120_id10_im18.bmp_pos120_id1_im4.bmp,['Im_JustinTimberlake.png', 'Im_MattDamon.png', 'Im_LeonardoDiCaprio.png', 'Im_BenAffleck.png', 'Im_OrlandoBloom.png', 'Im_RyanGosling.png', 'Im_RobertDowneyJr.png', 'Im_GeorgeClooney.png', 'Im_ElijahWood.png', 'Im_BradPitt.png'],same,0,0.5081814999994094,5,80.95238095238095,
EVES0409,train,inv,60,pos60_id18_im19.bmp_pos60_id18_im18.bmp,['Im_JustinTimberlake.png', 'Im_MattDamon.png', 'Im_LeonardoDiCaprio.png', 'Im_BenAffleck.png', 'Im_OrlandoBloom.png', 'Im_RyanGosling.png', 'Im_RobertDowneyJr.png', 'Im_GeorgeClooney.png', 'Im_ElijahWood.png', 'Im_BradPitt.png'],same,1,0.41673589999845717,6,80.95238095238095,
EVES0409,train,inv,30,pos30_id20_im30.bmp_pos30_id16_im19.bmp,['Im_JustinTimberlake.png', 'Im_MattDamon.png', 'Im_LeonardoDiCaprio.png', 'Im_BenAffleck.png', 'Im_OrlandoBloom.png', 'Im_RyanGosling.png', 'Im_RobertDowneyJr.png', 'Im_GeorgeClooney.png', 'Im_ElijahWood.png', 'Im_BradPitt.png'],diff,1,0.4167835999996896,7,80.95238095238095,
EVES0409,train,inv,150,pos150_id14_im24.bmp_pos150_id14_im18.bmp,['Im_JustinTimberlake.png', 'Im_MattDamon.png', 'Im_LeonardoDiCaprio.png', 'Im_BenAffleck.png', 'Im_OrlandoBloom.png', 'Im_RyanGosling.png', 'Im_RobertDowneyJr.png', 'Im_GeorgeClooney.png', 'Im_ElijahWood.png', 'Im_BradPitt.png'],same,1,0.8166993000013463,8,80.95238095238095,
EVES0409,train,inv,60,pos60_id16_im3.bmp_pos60_id16_im19.bmp,['Im_JustinTimberlake.png', 'Im_MattDamon.png', 'Im_LeonardoDiCaprio.png', 'Im_BenAffleck.png', 'Im_OrlandoBloom.png', 'Im_RyanGosling.png', 'Im_RobertDowneyJr.png', 'Im_GeorgeClooney.png', 'Im_ElijahWood.png', 'Im_BradPitt.png'],same,1,0.8834538999999495,9,80.95238095238095,
EVES0409,train,inv,90,pos90_id6_im18.bmp_pos90_id14_im18.bmp,['Im_JustinTimberlake.png', 'Im_MattDamon.png', 'Im_LeonardoDiCaprio.png', 'Im_BenAffleck.png', 'Im_OrlandoBloom.png', 'Im_RyanGosling.png', 'Im_RobertDowneyJr.png', 'Im_GeorgeClooney.png', 'Im_ElijahWood.png', 'Im_BradPitt.png'],diff,1,1.6083760999990773,10,80.95238095238095,
EVES0409,train,inv,90,pos90_id20_im30.bmp_pos90_id20_im3.bmp,['Im_JustinTimberlake.png', 'Im_MattDamon.png', 'Im_LeonardoDiCaprio.png', 'Im_BenAffleck.png', 'Im_OrlandoBloom.png', 'Im_RyanGosling.png', 'Im_RobertDowneyJr.png', 'Im_GeorgeClooney.png', 'Im_ElijahWood.png', 'Im_BradPitt.png'],none,1,4.400157899999613,10,80.95238095238095,
EVES0409,train,pos,30,pos30_id16_im2.bmp_pos30_id16_im19.bmp,['Im_JustinTimberlake.png', 'Im_MattDamon.png', 'Im_LeonardoDiCaprio.png', 'Im_BenAffleck.png', 'Im_OrlandoBloom.png', 'Im_RyanGosling.png', 'Im_RobertDowneyJr.png', 'Im_GeorgeClooney.png', 'Im_ElijahWood.png', 'Im_BradPitt.png'],same,1,0.4167878999996901,11,80.95238095238095,
EVES0409,train,pos,150,pos150_id3_im8.bmp_pos150_id16_im2.bmp,['Im_JustinTimberlake.png', 'Im_MattDamon.png', 'Im_LeonardoDiCaprio.png', 'Im_BenAffleck.png', 'Im_OrlandoBloom.png', 'Im_RyanGosling.png', 'Im_RobertDowneyJr.png', 'Im_GeorgeClooney.png', 'Im_ElijahWood.png', 'Im_BradPitt.png'],diff,1,0.40844710000055784,12,80.95238095238095,
EVES0409,train,pos,30,pos30_id18_im19.bmp_pos30_id18_im11.bmp,['Im_JustinTimberlake.png', 'Im_MattDamon.png', 'Im_LeonardoDiCaprio.png', 'Im_BenAffleck.png', 'Im_OrlandoBloom.png', 'Im_RyanGosling.png', 'Im_RobertDowneyJr.png', 'Im_GeorgeClooney.png', 'Im_ElijahWood.png', 'Im_BradPitt.png'],same,1,0.416497199999867,13,80.95238095238095,
EVES0409,train,pos,60,pos60_id16_im3.bmp_pos60_id16_im2.bmp,['Im_JustinTimberlake.png', 'Im_MattDamon.png', 'Im_LeonardoDiCaprio.png', 'Im_BenAffleck.png', 'Im_OrlandoBloom.png', 'Im_RyanGosling.png', 'Im_RobertDowneyJr.png', 'Im_GeorgeClooney.png', 'Im_ElijahWood.png', 'Im_BradPitt.png'],same,1,0.6000404999995226,14,80.95238095238095,
EVES0409,train,pos,0,pos0_id13_im15.bmp_pos0_id16_im19.bmp,['Im_JustinTimberlake.png', 'Im_MattDamon.png', 'Im_LeonardoDiCaprio.png', 'Im_BenAffleck.png', 'Im_OrlandoBloom.png', 'Im_RyanGosling.png', 'Im_RobertDowneyJr.png', 'Im_GeorgeClooney.png', 'Im_ElijahWood.png', 'Im_BradPitt.png'],same,0,0.40818840000065393,14,80.95238095238095,
EVES0409,train,pos,fs,posfs_id20_im30.bmp_posfs_id20_im12.bmp,['Im_JustinTimberlake.png', 'Im_MattDamon.png', 'Im_LeonardoDiCaprio.png', 'Im_BenAffleck.png', 'Im_OrlandoBloom.png', 'Im_RyanGosling.png', 'Im_RobertDowneyJr.png', 'Im_GeorgeClooney.png', 'Im_ElijahWood.png', 'Im_BradPitt.png'],same,1,0.41656260000127077,15,80.95238095238095,
EVES0409,train,pos,0,pos0_id14_im18.bmp_pos0_id13_im10.bmp,['Im_JustinTimberlake.png', 'Im_MattDamon.png', 'Im_LeonardoDiCaprio.png', 'Im_BenAffleck.png', 'Im_OrlandoBloom.png', 'Im_RyanGosling.png', 'Im_RobertDowneyJr.png', 'Im_GeorgeClooney.png', 'Im_ElijahWood.png', 'Im_BradPitt.png'],same,0,0.833423899999616,15,80.95238095238095,
EVES0409,train,pos,120,pos120_id18_im18.bmp_pos120_id7_im26.bmp,['Im_JustinTimberlake.png', 'Im_MattDamon.png', 'Im_LeonardoDiCaprio.png', 'Im_BenAffleck.png', 'Im_OrlandoBloom.png', 'Im_RyanGosling.png', 'Im_RobertDowneyJr.png', 'Im_GeorgeClooney.png', 'Im_ElijahWood.png', 'Im_BradPitt.png'],diff,1,0.7667220999992423,16,80.95238095238095,
EVES0409,train,pos,120,pos120_id16_im2.bmp_pos120_id16_im3.bmp,['Im_JustinTimberlake.png', 'Im_MattDamon.png', 'Im_LeonardoDiCaprio.png', 'Im_BenAffleck.png', 'Im_OrlandoBloom.png', 'Im_RyanGosling.png', 'Im_RobertDowneyJr.png', 'Im_GeorgeClooney.png', 'Im_ElijahWood.png', 'Im_BradPitt.png'],same,1,0.4336406000002171,17,80.95238095238095,
EVES0409,train,pos,60,pos60_id20_im12.bmp_pos60_id20_im30.bmp,['Im_JustinTimberlake.png', 'Im_MattDamon.png', 'Im_LeonardoDiCaprio.png', 'Im_BenAffleck.png', 'Im_OrlandoBloom.png', 'Im_RyanGosling.png', 'Im_RobertDowneyJr.png', 'Im_GeorgeClooney.png', 'Im_ElijahWood.png', 'Im_BradPitt.png'],same,1,0.4000214000006963,18,80.95238095238095,
EVES0409,train,pos,90,pos90_id20_im12.bmp_pos90_id20_im3.bmp,['Im_JustinTimberlake.png', 'Im_MattDamon.png', 'Im_LeonardoDiCaprio.png', 'Im_BenAffleck.png', 'Im_OrlandoBloom.png', 'Im_RyanGosling.png', 'Im_RobertDowneyJr.png', 'Im_GeorgeClooney.png', 'Im_ElijahWood.png', 'Im_BradPitt.png'],same,1,0.41670390000035695,19,80.95238095238095,
EVES0409,train,pos,90,pos90_id14_im16.bmp_pos90_id1_im21.bmp,['Im_JustinTimberlake.png', 'Im_MattDamon.png', 'Im_LeonardoDiCaprio.png', 'Im_BenAffleck.png', 'Im_OrlandoBloom.png', 'Im_RyanGosling.png', 'Im_RobertDowneyJr.png', 'Im_GeorgeClooney.png', 'Im_ElijahWood.png', 'Im_BradPitt.png'],diff,1,0.5334464999996271,20,80.95238095238095,
EVES0409,train,pos,150,pos150_id16_im2.bmp_pos150_id16_im19.bmp,['Im_JustinTimberlake.png', 'Im_MattDamon.png', 'Im_LeonardoDiCaprio.png', 'Im_BenAffleck.png', 'Im_OrlandoBloom.png', 'Im_RyanGosling.png', 'Im_RobertDowneyJr.png', 'Im_GeorgeClooney.png', 'Im_ElijahWood.png', 'Im_BradPitt.png'],same,1,0.4165421999987302,21,80.95238095238095,
EVES0409,train,pos,fs,posfs_id14_im18.bmp_posfs_id14_im16.bmp,['Im_JustinTimberlake.png', 'Im_MattDamon.png', 'Im_LeonardoDiCaprio.png', 'Im_BenAffleck.png', 'Im_OrlandoBloom.png', 'Im_RyanGosling.png', 'Im_RobertDowneyJr.png', 'Im_GeorgeClooney.png', 'Im_ElijahWood.png', 'Im_BradPitt.png'],same,1,1.3166986999985966,22,80.95238095238095,
EVES0409,train,inv,30,pos30_id20_im3.bmp_pos30_id20_im30.bmp,['Im_JustinTimberlake.png', 'Im_MattDamon.png', 'Im_LeonardoDiCaprio.png', 'Im_BenAffleck.png', 'Im_OrlandoBloom.png', 'Im_RyanGosling.png', 'Im_RobertDowneyJr.png', 'Im_GeorgeClooney.png', 'Im_ElijahWood.png', 'Im_BradPitt.png'],same,1,0.5333676000009291,23,80.95238095238095,
EVES0409,train,inv,120,pos120_id16_im3.bmp_pos120_id3_im8.bmp,['Im_JustinTimberlake.png', 'Im_MattDamon.png', 'Im_LeonardoDiCaprio.png', 'Im_BenAffleck.png', 'Im_OrlandoBloom.png', 'Im_RyanGosling.png', 'Im_RobertDowneyJr.png', 'Im_GeorgeClooney.png', 'Im_ElijahWood.png', 'Im_BradPitt.png'],diff,1,0.40837809999902674,24,80.95238095238095,
EVES0409,train,inv,fs,posfs_id7_im15.bmp_posfs_id18_im18.bmp,['Im_JustinTimberlake.png', 'Im_MattDamon.png', 'Im_LeonardoDiCaprio.png', 'Im_BenAffleck.png', 'Im_OrlandoBloom.png', 'Im_RyanGosling.png', 'Im_RobertDowneyJr.png', 'Im_GeorgeClooney.png', 'Im_ElijahWood.png', 'Im_BradPitt.png'],diff,1,0.4081872000006115,25,80.95238095238095,
EVES0409,train,inv,150,pos150_id10_im1.bmp_pos150_id6_im12.bmp,['Im_JustinTimberlake.png', 'Im_MattDamon.png', 'Im_LeonardoDiCaprio.png', 'Im_BenAffleck.png', 'Im_OrlandoBloom.png', 'Im_RyanGosling.png', 'Im_RobertDowneyJr.png', 'Im_GeorgeClooney.png', 'Im_ElijahWood.png', 'Im_BradPitt.png'],diff,1,0.40824050000082934,26,80.95238095238095,
EVES0409,train,inv,60,pos60_id1_im21.bmp_pos60_id7_im15.bmp,['Im_JustinTimberlake.png', 'Im_MattDamon.png', 'Im_LeonardoDiCaprio.png', 'Im_BenAffleck.png', 'Im_OrlandoBloom.png', 'Im_RyanGosling.png', 'Im_RobertDowneyJr.png', 'Im_GeorgeClooney.png', 'Im_ElijahWood.png', 'Im_BradPitt.png'],diff,1,1.9414753000000928,27,80.95238095238095,
EVES0409,train,inv,0,pos0_id20_im12.bmp_pos0_id20_im30.bmp,['Im_JustinTimberlake.png', 'Im_MattDamon.png', 'Im_LeonardoDiCaprio.png', 'Im_BenAffleck.png', 'Im_OrlandoBloom.png', 'Im_RyanGosling.png', 'Im_RobertDowneyJr.png', 'Im_GeorgeClooney.png', 'Im_ElijahWood.png', 'Im_BradPitt.png'],diff,0,1.142083900000216,27,80.95238095238095,
EVES0409,train,inv,90,pos90_id6_im19.bmp_pos90_id6_im18.bmp,['Im_JustinTimberlake.png', 'Im_MattDamon.png', 'Im_LeonardoDiCaprio.png', 'Im_BenAffleck.png', 'Im_OrlandoBloom.png', 'Im_RyanGosling.png', 'Im_RobertDowneyJr.png', 'Im_GeorgeClooney.png', 'Im_ElijahWood.png', 'Im_BradPitt.png'],same,1,0.7249807999996847,28,80.95238095238095,
EVES0409,train,inv,150,pos150_id20_im3.bmp_pos150_id20_im12.bmp,['Im_JustinTimberlake.png', 'Im_MattDamon.png', 'Im_LeonardoDiCaprio.png', 'Im_BenAffleck.png', 'Im_OrlandoBloom.png', 'Im_RyanGosling.png', 'Im_RobertDowneyJr.png', 'Im_GeorgeClooney.png', 'Im_ElijahWood.png', 'Im_BradPitt.png'],diff,0,0.5833215000002383,28,80.95238095238095,
EVES0409,train,inv,fs,posfs_id10_im17.bmp_posfs_id16_im2.bmp,['Im_JustinTimberlake.png', 'Im_MattDamon.png', 'Im_LeonardoDiCaprio.png', 'Im_BenAffleck.png', 'Im_OrlandoBloom.png', 'Im_RyanGosling.png', 'Im_RobertDowneyJr.png', 'Im_GeorgeClooney.png', 'Im_ElijahWood.png', 'Im_BradPitt.png'],diff,1,0.5168546000004426,29,80.95238095238095,
EVES0409,train,inv,30,pos30_id18_im19.bmp_pos30_id18_im11.bmp,['Im_JustinTimberlake.png', 'Im_MattDamon.png', 'Im_LeonardoDiCaprio.png', 'Im_BenAffleck.png', 'Im_OrlandoBloom.png', 'Im_RyanGosling.png', 'Im_RobertDowneyJr.png', 'Im_GeorgeClooney.png', 'Im_ElijahWood.png', 'Im_BradPitt.png'],same,1,1.4165476999987732,30,80.95238095238095,
EVES0409,train,inv,60,pos60_id14_im16.bmp_pos60_id14_im24.bmp,['Im_JustinTimberlake.png', 'Im_MattDamon.png', 'Im_LeonardoDiCaprio.png', 'Im_BenAffleck.png', 'Im_OrlandoBloom.png', 'Im_RyanGosling.png', 'Im_RobertDowneyJr.png', 'Im_GeorgeClooney.png', 'Im_ElijahWood.png', 'Im_BradPitt.png'],same,1,0.41676279999956023,31,80.95238095238095,
EVES0409,train,inv,90,pos90_id1_im4.bmp_pos90_id10_im18.bmp,['Im_JustinTimberlake.png', 'Im_MattDamon.png', 'Im_LeonardoDiCaprio.png', 'Im_BenAffleck.png', 'Im_OrlandoBloom.png', 'Im_RyanGosling.png', 'Im_RobertDowneyJr.png', 'Im_GeorgeClooney.png', 'Im_ElijahWood.png', 'Im_BradPitt.png'],same,0,0.4168709999994462,31,80.95238095238095,
EVES0409,train,inv,0,pos0_id14_im18.bmp_pos0_id14_im24.bmp,['Im_JustinTimberlake.png', 'Im_MattDamon.png', 'Im_LeonardoDiCaprio.png', 'Im_BenAffleck.png', 'Im_OrlandoBloom.png', 'Im_RyanGosling.png', 'Im_RobertDowneyJr.png', 'Im_GeorgeClooney.png', 'Im_ElijahWood.png', 'Im_BradPitt.png'],same,1,0.4168424999988929,32,80.95238095238095,
EVES0409,train,inv,120,pos120_id20_im3.bmp_pos120_id10_im17.bmp,['Im_JustinTimberlake.png', 'Im_MattDamon.png', 'Im_LeonardoDiCaprio.png', 'Im_BenAffleck.png', 'Im_OrlandoBloom.png', 'Im_RyanGosling.png', 'Im_RobertDowneyJr.png', 'Im_GeorgeClooney.png', 'Im_ElijahWood.png', 'Im_BradPitt.png'],same,0,0.41656139999940933,32,80.95238095238095,
EVES0409,0,inv,120,pos120_id14_im16.bmp_pos120_id6_im19.bmp,['Im_JustinTimberlake.png', 'Im_MattDamon.png', 'Im_LeonardoDiCaprio.png', 'Im_BenAffleck.png', 'Im_OrlandoBloom.png', 'Im_RyanGosling.png', 'Im_RobertDowneyJr.png', 'Im_GeorgeClooney.png', 'Im_ElijahWood.png', 'Im_BradPitt.png'],diff,1,1.0422149000005447,1,0,
EVES0409,0,inv,60,pos60_id1_im21.bmp_pos60_id14_im16.bmp,['Im_JustinTimberlake.png', 'Im_MattDamon.png', 'Im_LeonardoDiCaprio.png', 'Im_BenAffleck.png', 'Im_OrlandoBloom.png', 'Im_RyanGosling.png', 'Im_RobertDowneyJr.png', 'Im_GeorgeClooney.png', 'Im_ElijahWood.png', 'Im_BradPitt.png'],same,0,0.4082471000001533,1,0,
EVES0409,0,inv,30,pos30_id20_im30.bmp_pos30_id20_im12.bmp,['Im_JustinTimberlake.png', 'Im_MattDamon.png', 'Im_LeonardoDiCaprio.png', 'Im_BenAffleck.png', 'Im_OrlandoBloom.png', 'Im_RyanGosling.png', 'Im_RobertDowneyJr.png', 'Im_GeorgeClooney.png', 'Im_ElijahWood.png', 'Im_BradPitt.png'],same,1,0.4082421000002796,2,0,
EVES0409,0,inv,150,pos150_id7_im14.bmp_pos150_id3_im6.bmp,['Im_JustinTimberlake.png', 'Im_MattDamon.png', 'Im_LeonardoDiCaprio.png', 'Im_BenAffleck.png', 'Im_OrlandoBloom.png', 'Im_RyanGosling.png', 'Im_RobertDowneyJr.png', 'Im_GeorgeClooney.png', 'Im_ElijahWood.png', 'Im_BradPitt.png'],same,0,1.9669992999988608,2,0,
EVES0409,0,inv,0,pos0_id16_im2.bmp_pos0_id3_im8.bmp,['Im_JustinTimberlake.png', 'Im_MattDamon.png', 'Im_LeonardoDiCaprio.png', 'Im_BenAffleck.png', 'Im_OrlandoBloom.png', 'Im_RyanGosling.png', 'Im_RobertDowneyJr.png', 'Im_GeorgeClooney.png', 'Im_ElijahWood.png', 'Im_BradPitt.png'],same,0,0.6250452999993286,2,0,
EVES0409,0,inv,60,pos60_id6_im19.bmp_pos60_id6_im12.bmp,['Im_JustinTimberlake.png', 'Im_MattDamon.png', 'Im_LeonardoDiCaprio.png', 'Im_BenAffleck.png', 'Im_OrlandoBloom.png', 'Im_RyanGosling.png', 'Im_RobertDowneyJr.png', 'Im_GeorgeClooney.png', 'Im_ElijahWood.png', 'Im_BradPitt.png'],same,1,0.575074799999129,3,0,
EVES0409,0,inv,fs,posfs_id13_im15.bmp_posfs_id13_im29.bmp,['Im_JustinTimberlake.png', 'Im_MattDamon.png', 'Im_LeonardoDiCaprio.png', 'Im_BenAffleck.png', 'Im_OrlandoBloom.png', 'Im_RyanGosling.png', 'Im_RobertDowneyJr.png', 'Im_GeorgeClooney.png', 'Im_ElijahWood.png', 'Im_BradPitt.png'],same,1,0.40843889999996463,4,0,
EVES0409,0,inv,120,pos120_id20_im30.bmp_pos120_id20_im12.bmp,['Im_JustinTimberlake.png', 'Im_MattDamon.png', 'Im_LeonardoDiCaprio.png', 'Im_BenAffleck.png', 'Im_OrlandoBloom.png', 'Im_RyanGosling.png', 'Im_RobertDowneyJr.png', 'Im_GeorgeClooney.png', 'Im_ElijahWood.png', 'Im_BradPitt.png'],same,1,0.7333849000006012,5,0,
EVES0409,0,inv,0,pos0_id18_im18.bmp_pos0_id7_im26.bmp,['Im_JustinTimberlake.png', 'Im_MattDamon.png', 'Im_LeonardoDiCaprio.png', 'Im_BenAffleck.png', 'Im_OrlandoBloom.png', 'Im_RyanGosling.png', 'Im_RobertDowneyJr.png', 'Im_GeorgeClooney.png', 'Im_ElijahWood.png', 'Im_BradPitt.png'],diff,1,0.5168326000002708,6,0,
EVES0409,0,inv,30,pos30_id16_im2.bmp_pos30_id10_im17.bmp,['Im_JustinTimberlake.png', 'Im_MattDamon.png', 'Im_LeonardoDiCaprio.png', 'Im_BenAffleck.png', 'Im_OrlandoBloom.png', 'Im_RyanGosling.png', 'Im_RobertDowneyJr.png', 'Im_GeorgeClooney.png', 'Im_ElijahWood.png', 'Im_BradPitt.png'],diff,1,1.4085950999997294,7,0,
EVES0409,0,inv,90,pos90_id10_im18.bmp_pos90_id13_im29.bmp,['Im_JustinTimberlake.png', 'Im_MattDamon.png', 'Im_LeonardoDiCaprio.png', 'Im_BenAffleck.png', 'Im_OrlandoBloom.png', 'Im_RyanGosling.png', 'Im_RobertDowneyJr.png', 'Im_GeorgeClooney.png', 'Im_ElijahWood.png', 'Im_BradPitt.png'],diff,1,0.8335705000008602,8,0,
EVES0409,0,inv,150,pos150_id1_im21.bmp_pos150_id1_im24.bmp,['Im_JustinTimberlake.png', 'Im_MattDamon.png', 'Im_LeonardoDiCaprio.png', 'Im_BenAffleck.png', 'Im_OrlandoBloom.png', 'Im_RyanGosling.png', 'Im_RobertDowneyJr.png', 'Im_GeorgeClooney.png', 'Im_ElijahWood.png', 'Im_BradPitt.png'],diff,0,0.4919551999992109,8,0,
EVES0409,0,inv,90,pos90_id14_im18.bmp_pos90_id14_im16.bmp,['Im_JustinTimberlake.png', 'Im_MattDamon.png', 'Im_LeonardoDiCaprio.png', 'Im_BenAffleck.png', 'Im_OrlandoBloom.png', 'Im_RyanGosling.png', 'Im_RobertDowneyJr.png', 'Im_GeorgeClooney.png', 'Im_ElijahWood.png', 'Im_BradPitt.png'],same,1,0.4416006000010384,9,0,
EVES0409,0,inv,fs,posfs_id1_im4.bmp_posfs_id3_im6.bmp,['Im_JustinTimberlake.png', 'Im_MattDamon.png', 'Im_LeonardoDiCaprio.png', 'Im_BenAffleck.png', 'Im_OrlandoBloom.png', 'Im_RyanGosling.png', 'Im_RobertDowneyJr.png', 'Im_GeorgeClooney.png', 'Im_ElijahWood.png', 'Im_BradPitt.png'],diff,1,0.6251927000012074,10,0,
EVES0409,1,neg,120,neg120_id18_im19.bmp_neg120_id14_im24.bmp,['Im_JustinTimberlake.png', 'Im_MattDamon.png', 'Im_LeonardoDiCaprio.png', 'Im_BenAffleck.png', 'Im_OrlandoBloom.png', 'Im_RyanGosling.png', 'Im_RobertDowneyJr.png', 'Im_GeorgeClooney.png', 'Im_ElijahWood.png', 'Im_BradPitt.png'],diff,1,0.41663510000034876,11,0,
EVES0409,1,neg,30,neg30_id16_im3.bmp_neg30_id3_im8.bmp,['Im_JustinTimberlake.png', 'Im_MattDamon.png', 'Im_LeonardoDiCaprio.png', 'Im_BenAffleck.png', 'Im_OrlandoBloom.png', 'Im_RyanGosling.png', 'Im_RobertDowneyJr.png', 'Im_GeorgeClooney.png', 'Im_ElijahWood.png', 'Im_BradPitt.png'],diff,1,0.5167168999996647,12,0,
EVES0409,1,neg,150,neg150_id14_im18.bmp_neg150_id13_im10.bmp,['Im_JustinTimberlake.png', 'Im_MattDamon.png', 'Im_LeonardoDiCaprio.png', 'Im_BenAffleck.png', 'Im_OrlandoBloom.png', 'Im_RyanGosling.png', 'Im_RobertDowneyJr.png', 'Im_GeorgeClooney.png', 'Im_ElijahWood.png', 'Im_BradPitt.png'],diff,1,0.45816670000021986,13,0,
EVES0409,1,neg,90,neg90_id13_im10.bmp_neg90_id13_im15.bmp,['Im_JustinTimberlake.png', 'Im_MattDamon.png', 'Im_LeonardoDiCaprio.png', 'Im_BenAffleck.png', 'Im_OrlandoBloom.png', 'Im_RyanGosling.png', 'Im_RobertDowneyJr.png', 'Im_GeorgeClooney.png', 'Im_ElijahWood.png', 'Im_BradPitt.png'],same,1,0.7083726000000752,14,0,
EVES0409,1,neg,30,neg30_id18_im11.bmp_neg30_id18_im19.bmp,['Im_JustinTimberlake.png', 'Im_MattDamon.png', 'Im_LeonardoDiCaprio.png', 'Im_BenAffleck.png', 'Im_OrlandoBloom.png', 'Im_RyanGosling.png', 'Im_RobertDowneyJr.png', 'Im_GeorgeClooney.png', 'Im_ElijahWood.png', 'Im_BradPitt.png'],same,1,0.4170505999991292,15,0,
EVES0409,1,neg,90,neg90_id10_im17.bmp_neg90_id16_im2.bmp,['Im_JustinTimberlake.png', 'Im_MattDamon.png', 'Im_LeonardoDiCaprio.png', 'Im_BenAffleck.png', 'Im_OrlandoBloom.png', 'Im_RyanGosling.png', 'Im_RobertDowneyJr.png', 'Im_GeorgeClooney.png', 'Im_ElijahWood.png', 'Im_BradPitt.png'],same,0,1.0167031000000861,15,0,
EVES0409,1,neg,0,neg0_id6_im12.bmp_neg0_id6_im18.bmp,['Im_JustinTimberlake.png', 'Im_MattDamon.png', 'Im_LeonardoDiCaprio.png', 'Im_BenAffleck.png', 'Im_OrlandoBloom.png', 'Im_RyanGosling.png', 'Im_RobertDowneyJr.png', 'Im_GeorgeClooney.png', 'Im_ElijahWood.png', 'Im_BradPitt.png'],diff,0,0.4250548999989405,15,0,
EVES0409,1,neg,120,neg120_id10_im18.bmp_neg120_id10_im17.bmp,['Im_JustinTimberlake.png', 'Im_MattDamon.png', 'Im_LeonardoDiCaprio.png', 'Im_BenAffleck.png', 'Im_OrlandoBloom.png', 'Im_RyanGosling.png', 'Im_RobertDowneyJr.png', 'Im_GeorgeClooney.png', 'Im_ElijahWood.png', 'Im_BradPitt.png'],same,1,0.4175247000002855,16,0,
EVES0409,1,neg,60,neg60_id6_im19.bmp_neg60_id6_im12.bmp,['Im_JustinTimberlake.png', 'Im_MattDamon.png', 'Im_LeonardoDiCaprio.png', 'Im_BenAffleck.png', 'Im_OrlandoBloom.png', 'Im_RyanGosling.png', 'Im_RobertDowneyJr.png', 'Im_GeorgeClooney.png', 'Im_ElijahWood.png', 'Im_BradPitt.png'],same,1,0.9420197999988886,17,0,
EVES0409,1,neg,150,neg150_id16_im3.bmp_neg150_id3_im8.bmp,['Im_JustinTimberlake.png', 'Im_MattDamon.png', 'Im_LeonardoDiCaprio.png', 'Im_BenAffleck.png', 'Im_OrlandoBloom.png', 'Im_RyanGosling.png', 'Im_RobertDowneyJr.png', 'Im_GeorgeClooney.png', 'Im_ElijahWood.png', 'Im_BradPitt.png'],diff,1,1.0419351999989885,18,0,
EVES0409,1,neg,60,neg60_id18_im11.bmp_neg60_id18_im18.bmp,['Im_JustinTimberlake.png', 'Im_MattDamon.png', 'Im_LeonardoDiCaprio.png', 'Im_BenAffleck.png', 'Im_OrlandoBloom.png', 'Im_RyanGosling.png', 'Im_RobertDowneyJr.png', 'Im_GeorgeClooney.png', 'Im_ElijahWood.png', 'Im_BradPitt.png'],diff,0,1.566902199998367,18,0,
EVES0409,1,neg,0,neg0_id7_im26.bmp_neg0_id18_im18.bmp,['Im_JustinTimberlake.png', 'Im_MattDamon.png', 'Im_LeonardoDiCaprio.png', 'Im_BenAffleck.png', 'Im_OrlandoBloom.png', 'Im_RyanGosling.png', 'Im_RobertDowneyJr.png', 'Im_GeorgeClooney.png', 'Im_ElijahWood.png', 'Im_BradPitt.png'],diff,1,0.4506174000016472,19,0,
EVES0409,1,neg,fs,negfs_id10_im18.bmp_negfs_id1_im4.bmp,['Im_JustinTimberlake.png', 'Im_MattDamon.png', 'Im_LeonardoDiCaprio.png', 'Im_BenAffleck.png', 'Im_OrlandoBloom.png', 'Im_RyanGosling.png', 'Im_RobertDowneyJr.png', 'Im_GeorgeClooney.png', 'Im_ElijahWood.png', 'Im_BradPitt.png'],diff,1,0.45843260000037844,20,0,
EVES0409,1,neg,fs,negfs_id6_im19.bmp_negfs_id6_im12.bmp,['Im_JustinTimberlake.png', 'Im_MattDamon.png', 'Im_LeonardoDiCaprio.png', 'Im_BenAffleck.png', 'Im_OrlandoBloom.png', 'Im_RyanGosling.png', 'Im_RobertDowneyJr.png', 'Im_GeorgeClooney.png', 'Im_ElijahWood.png', 'Im_BradPitt.png'],same,1,1.3083578000005218,21,0,
EVES0409,2,inv,fs,posfs_id10_im1.bmp_posfs_id6_im12.bmp,['Im_JustinTimberlake.png', 'Im_MattDamon.png', 'Im_LeonardoDiCaprio.png', 'Im_BenAffleck.png', 'Im_OrlandoBloom.png', 'Im_RyanGosling.png', 'Im_RobertDowneyJr.png', 'Im_GeorgeClooney.png', 'Im_ElijahWood.png', 'Im_BradPitt.png'],diff,1,0.4584015000000363,22,0,
EVES0409,2,inv,fs,posfs_id14_im18.bmp_posfs_id13_im10.bmp,['Im_JustinTimberlake.png', 'Im_MattDamon.png', 'Im_LeonardoDiCaprio.png', 'Im_BenAffleck.png', 'Im_OrlandoBloom.png', 'Im_RyanGosling.png', 'Im_RobertDowneyJr.png', 'Im_GeorgeClooney.png', 'Im_ElijahWood.png', 'Im_BradPitt.png'],diff,1,0.5835667999999714,23,0,
EVES0409,2,inv,120,pos120_id10_im1.bmp_pos120_id10_im17.bmp,['Im_JustinTimberlake.png', 'Im_MattDamon.png', 'Im_LeonardoDiCaprio.png', 'Im_BenAffleck.png', 'Im_OrlandoBloom.png', 'Im_RyanGosling.png', 'Im_RobertDowneyJr.png', 'Im_GeorgeClooney.png', 'Im_ElijahWood.png', 'Im_BradPitt.png'],diff,0,0.7169536999990669,23,0,
EVES0409,2,inv,120,pos120_id1_im24.bmp_pos120_id6_im18.bmp,['Im_JustinTimberlake.png', 'Im_MattDamon.png', 'Im_LeonardoDiCaprio.png', 'Im_BenAffleck.png', 'Im_OrlandoBloom.png', 'Im_RyanGosling.png', 'Im_RobertDowneyJr.png', 'Im_GeorgeClooney.png', 'Im_ElijahWood.png', 'Im_BradPitt.png'],diff,1,1.083435800001098,24,0,
EVES0409,2,inv,90,pos90_id7_im26.bmp_pos90_id20_im30.bmp,['Im_JustinTimberlake.png', 'Im_MattDamon.png', 'Im_LeonardoDiCaprio.png', 'Im_BenAffleck.png', 'Im_OrlandoBloom.png', 'Im_RyanGosling.png', 'Im_RobertDowneyJr.png', 'Im_GeorgeClooney.png', 'Im_ElijahWood.png', 'Im_BradPitt.png'],diff,1,0.5084572999985539,25,0,
EVES0409,2,inv,30,pos30_id3_im17.bmp_pos30_id18_im11.bmp,['Im_JustinTimberlake.png', 'Im_MattDamon.png', 'Im_LeonardoDiCaprio.png', 'Im_BenAffleck.png', 'Im_OrlandoBloom.png', 'Im_RyanGosling.png', 'Im_RobertDowneyJr.png', 'Im_GeorgeClooney.png', 'Im_ElijahWood.png', 'Im_BradPitt.png'],diff,1,0.8001332000003458,26,0,
EVES0409,2,inv,90,pos90_id7_im15.bmp_pos90_id18_im18.bmp,['Im_JustinTimberlake.png', 'Im_MattDamon.png', 'Im_LeonardoDiCaprio.png', 'Im_BenAffleck.png', 'Im_OrlandoBloom.png', 'Im_RyanGosling.png', 'Im_RobertDowneyJr.png', 'Im_GeorgeClooney.png', 'Im_ElijahWood.png', 'Im_BradPitt.png'],diff,1,0.5418700999998691,27,0,
EVES0409,2,inv,60,pos60_id14_im24.bmp_pos60_id14_im18.bmp,['Im_JustinTimberlake.png', 'Im_MattDamon.png', 'Im_LeonardoDiCaprio.png', 'Im_BenAffleck.png', 'Im_OrlandoBloom.png', 'Im_RyanGosling.png', 'Im_RobertDowneyJr.png', 'Im_GeorgeClooney.png', 'Im_ElijahWood.png', 'Im_BradPitt.png'],same,1,0.4167295000006561,28,0,
EVES0409,2,inv,150,pos150_id16_im19.bmp_pos150_id13_im15.bmp,['Im_JustinTimberlake.png', 'Im_MattDamon.png', 'Im_LeonardoDiCaprio.png', 'Im_BenAffleck.png', 'Im_OrlandoBloom.png', 'Im_RyanGosling.png', 'Im_RobertDowneyJr.png', 'Im_GeorgeClooney.png', 'Im_ElijahWood.png', 'Im_BradPitt.png'],diff,1,0.5919119999998657,29,0,
EVES0409,2,inv,60,pos60_id10_im18.bmp_pos60_id10_im17.bmp,['Im_JustinTimberlake.png', 'Im_MattDamon.png', 'Im_LeonardoDiCaprio.png', 'Im_BenAffleck.png', 'Im_OrlandoBloom.png', 'Im_RyanGosling.png', 'Im_RobertDowneyJr.png', 'Im_GeorgeClooney.png', 'Im_ElijahWood.png', 'Im_BradPitt.png'],diff,0,0.4251131000000896,29,0,
EVES0409,2,inv,150,pos150_id14_im16.bmp_pos150_id1_im21.bmp,['Im_JustinTimberlake.png', 'Im_MattDamon.png', 'Im_LeonardoDiCaprio.png', 'Im_BenAffleck.png', 'Im_OrlandoBloom.png', 'Im_RyanGosling.png', 'Im_RobertDowneyJr.png', 'Im_GeorgeClooney.png', 'Im_ElijahWood.png', 'Im_BradPitt.png'],same,0,0.6750453999993624,29,0,
EVES0409,2,inv,0,pos0_id7_im14.bmp_pos0_id7_im15.bmp,['Im_JustinTimberlake.png', 'Im_MattDamon.png', 'Im_LeonardoDiCaprio.png', 'Im_BenAffleck.png', 'Im_OrlandoBloom.png', 'Im_RyanGosling.png', 'Im_RobertDowneyJr.png', 'Im_GeorgeClooney.png', 'Im_ElijahWood.png', 'Im_BradPitt.png'],same,1,0.4499930999991193,30,0,
EVES0409,2,inv,0,pos0_id13_im29.bmp_pos0_id13_im10.bmp,['Im_JustinTimberlake.png', 'Im_MattDamon.png', 'Im_LeonardoDiCaprio.png', 'Im_BenAffleck.png', 'Im_OrlandoBloom.png', 'Im_RyanGosling.png', 'Im_RobertDowneyJr.png', 'Im_GeorgeClooney.png', 'Im_ElijahWood.png', 'Im_BradPitt.png'],diff,0,0.4833457000004273,30,0,
EVES0409,2,inv,30,pos30_id1_im4.bmp_pos30_id3_im6.bmp,['Im_JustinTimberlake.png', 'Im_MattDamon.png', 'Im_LeonardoDiCaprio.png', 'Im_BenAffleck.png', 'Im_OrlandoBloom.png', 'Im_RyanGosling.png', 'Im_RobertDowneyJr.png', 'Im_GeorgeClooney.png', 'Im_ElijahWood.png', 'Im_BradPitt.png'],same,0,0.40839369999957853,30,0,
EVES0409,3,pos,120,pos120_id1_im24.bmp_pos120_id1_im21.bmp,['Im_JustinTimberlake.png', 'Im_MattDamon.png', 'Im_LeonardoDiCaprio.png', 'Im_BenAffleck.png', 'Im_OrlandoBloom.png', 'Im_RyanGosling.png', 'Im_RobertDowneyJr.png', 'Im_GeorgeClooney.png', 'Im_ElijahWood.png', 'Im_BradPitt.png'],same,1,0.4334858999991411,1,71.42857142857143,
EVES0409,3,pos,150,pos150_id14_im18.bmp_pos150_id13_im10.bmp,['Im_JustinTimberlake.png', 'Im_MattDamon.png', 'Im_LeonardoDiCaprio.png', 'Im_BenAffleck.png', 'Im_OrlandoBloom.png', 'Im_RyanGosling.png', 'Im_RobertDowneyJr.png', 'Im_GeorgeClooney.png', 'Im_ElijahWood.png', 'Im_BradPitt.png'],diff,1,0.5337511999987328,2,71.42857142857143,
EVES0409,3,pos,120,pos120_id10_im1.bmp_pos120_id10_im18.bmp,['Im_JustinTimberlake.png', 'Im_MattDamon.png', 'Im_LeonardoDiCaprio.png', 'Im_BenAffleck.png', 'Im_OrlandoBloom.png', 'Im_RyanGosling.png', 'Im_RobertDowneyJr.png', 'Im_GeorgeClooney.png', 'Im_ElijahWood.png', 'Im_BradPitt.png'],same,1,0.42497929999990447,3,71.42857142857143,
EVES0409,3,pos,60,pos60_id18_im11.bmp_pos60_id13_im15.bmp,['Im_JustinTimberlake.png', 'Im_MattDamon.png', 'Im_LeonardoDiCaprio.png', 'Im_BenAffleck.png', 'Im_OrlandoBloom.png', 'Im_RyanGosling.png', 'Im_RobertDowneyJr.png', 'Im_GeorgeClooney.png', 'Im_ElijahWood.png', 'Im_BradPitt.png'],diff,1,0.8919301000005362,4,71.42857142857143,
EVES0409,3,pos,fs,posfs_id16_im3.bmp_posfs_id16_im19.bmp,['Im_JustinTimberlake.png', 'Im_MattDamon.png', 'Im_LeonardoDiCaprio.png', 'Im_BenAffleck.png', 'Im_OrlandoBloom.png', 'Im_RyanGosling.png', 'Im_RobertDowneyJr.png', 'Im_GeorgeClooney.png', 'Im_ElijahWood.png', 'Im_BradPitt.png'],same,1,0.9836669999986043,5,71.42857142857143,
EVES0409,3,pos,0,pos0_id3_im17.bmp_pos0_id6_im12.bmp,['Im_JustinTimberlake.png', 'Im_MattDamon.png', 'Im_LeonardoDiCaprio.png', 'Im_BenAffleck.png', 'Im_OrlandoBloom.png', 'Im_RyanGosling.png', 'Im_RobertDowneyJr.png', 'Im_GeorgeClooney.png', 'Im_ElijahWood.png', 'Im_BradPitt.png'],diff,1,0.41656289999991714,6,71.42857142857143,
EVES0409,3,pos,30,pos30_id13_im10.bmp_pos30_id18_im19.bmp,['Im_JustinTimberlake.png', 'Im_MattDamon.png', 'Im_LeonardoDiCaprio.png', 'Im_BenAffleck.png', 'Im_OrlandoBloom.png', 'Im_RyanGosling.png', 'Im_RobertDowneyJr.png', 'Im_GeorgeClooney.png', 'Im_ElijahWood.png', 'Im_BradPitt.png'],diff,1,0.48363739999877,7,71.42857142857143,
EVES0409,3,pos,90,pos90_id7_im15.bmp_pos90_id7_im14.bmp,['Im_JustinTimberlake.png', 'Im_MattDamon.png', 'Im_LeonardoDiCaprio.png', 'Im_BenAffleck.png', 'Im_OrlandoBloom.png', 'Im_RyanGosling.png', 'Im_RobertDowneyJr.png', 'Im_GeorgeClooney.png', 'Im_ElijahWood.png', 'Im_BradPitt.png'],same,1,0.6752656000007846,8,71.42857142857143,
EVES0409,3,pos,fs,posfs_id13_im29.bmp_posfs_id20_im12.bmp,['Im_JustinTimberlake.png', 'Im_MattDamon.png', 'Im_LeonardoDiCaprio.png', 'Im_BenAffleck.png', 'Im_OrlandoBloom.png', 'Im_RyanGosling.png', 'Im_RobertDowneyJr.png', 'Im_GeorgeClooney.png', 'Im_ElijahWood.png', 'Im_BradPitt.png'],diff,1,0.41675779999968654,9,71.42857142857143,
EVES0409,3,pos,90,pos90_id18_im19.bmp_pos90_id14_im24.bmp,['Im_JustinTimberlake.png', 'Im_MattDamon.png', 'Im_LeonardoDiCaprio.png', 'Im_BenAffleck.png', 'Im_OrlandoBloom.png', 'Im_RyanGosling.png', 'Im_RobertDowneyJr.png', 'Im_GeorgeClooney.png', 'Im_ElijahWood.png', 'Im_BradPitt.png'],diff,1,1.3084431000006589,10,71.42857142857143,
EVES0409,3,pos,150,pos150_id7_im15.bmp_pos150_id7_im14.bmp,['Im_JustinTimberlake.png', 'Im_MattDamon.png', 'Im_LeonardoDiCaprio.png', 'Im_BenAffleck.png', 'Im_OrlandoBloom.png', 'Im_RyanGosling.png', 'Im_RobertDowneyJr.png', 'Im_GeorgeClooney.png', 'Im_ElijahWood.png', 'Im_BradPitt.png'],same,1,0.8170565000000352,11,71.42857142857143,
EVES0409,3,pos,60,pos60_id10_im1.bmp_pos60_id10_im18.bmp,['Im_JustinTimberlake.png', 'Im_MattDamon.png', 'Im_LeonardoDiCaprio.png', 'Im_BenAffleck.png', 'Im_OrlandoBloom.png', 'Im_RyanGosling.png', 'Im_RobertDowneyJr.png', 'Im_GeorgeClooney.png', 'Im_ElijahWood.png', 'Im_BradPitt.png'],same,1,2.341582799999742,12,71.42857142857143,
EVES0409,3,pos,30,pos30_id20_im30.bmp_pos30_id20_im3.bmp,['Im_JustinTimberlake.png', 'Im_MattDamon.png', 'Im_LeonardoDiCaprio.png', 'Im_BenAffleck.png', 'Im_OrlandoBloom.png', 'Im_RyanGosling.png', 'Im_RobertDowneyJr.png', 'Im_GeorgeClooney.png', 'Im_ElijahWood.png', 'Im_BradPitt.png'],same,1,0.6084807999995974,13,71.42857142857143,
EVES0409,3,pos,0,pos0_id16_im2.bmp_pos0_id16_im19.bmp,['Im_JustinTimberlake.png', 'Im_MattDamon.png', 'Im_LeonardoDiCaprio.png', 'Im_BenAffleck.png', 'Im_OrlandoBloom.png', 'Im_RyanGosling.png', 'Im_RobertDowneyJr.png', 'Im_GeorgeClooney.png', 'Im_ElijahWood.png', 'Im_BradPitt.png'],same,1,0.42505170000004,14,71.42857142857143,
EVES0409,4,neg,fs,negfs_id6_im18.bmp_negfs_id1_im24.bmp,['Im_JustinTimberlake.png', 'Im_MattDamon.png', 'Im_LeonardoDiCaprio.png', 'Im_BenAffleck.png', 'Im_OrlandoBloom.png', 'Im_RyanGosling.png', 'Im_RobertDowneyJr.png', 'Im_GeorgeClooney.png', 'Im_ElijahWood.png', 'Im_BradPitt.png'],same,0,0.5084458000001177,14,71.42857142857143,
EVES0409,4,neg,60,neg60_id18_im19.bmp_neg60_id18_im11.bmp,['Im_JustinTimberlake.png', 'Im_MattDamon.png', 'Im_LeonardoDiCaprio.png', 'Im_BenAffleck.png', 'Im_OrlandoBloom.png', 'Im_RyanGosling.png', 'Im_RobertDowneyJr.png', 'Im_GeorgeClooney.png', 'Im_ElijahWood.png', 'Im_BradPitt.png'],same,1,0.4167526999990514,15,71.42857142857143,
EVES0409,4,neg,150,neg150_id7_im15.bmp_neg150_id18_im18.bmp,['Im_JustinTimberlake.png', 'Im_MattDamon.png', 'Im_LeonardoDiCaprio.png', 'Im_BenAffleck.png', 'Im_OrlandoBloom.png', 'Im_RyanGosling.png', 'Im_RobertDowneyJr.png', 'Im_GeorgeClooney.png', 'Im_ElijahWood.png', 'Im_BradPitt.png'],diff,1,0.4085042999995494,16,71.42857142857143,
EVES0409,4,neg,fs,negfs_id14_im24.bmp_negfs_id14_im18.bmp,['Im_JustinTimberlake.png', 'Im_MattDamon.png', 'Im_LeonardoDiCaprio.png', 'Im_BenAffleck.png', 'Im_OrlandoBloom.png', 'Im_RyanGosling.png', 'Im_RobertDowneyJr.png', 'Im_GeorgeClooney.png', 'Im_ElijahWood.png', 'Im_BradPitt.png'],diff,0,0.7416811000002781,16,71.42857142857143,
EVES0409,4,neg,30,neg30_id20_im30.bmp_neg30_id20_im12.bmp,['Im_JustinTimberlake.png', 'Im_MattDamon.png', 'Im_LeonardoDiCaprio.png', 'Im_BenAffleck.png', 'Im_OrlandoBloom.png', 'Im_RyanGosling.png', 'Im_RobertDowneyJr.png', 'Im_GeorgeClooney.png', 'Im_ElijahWood.png', 'Im_BradPitt.png'],same,1,0.5337818000007246,17,71.42857142857143,
EVES0409,4,neg,0,neg0_id13_im29.bmp_neg0_id13_im10.bmp,['Im_JustinTimberlake.png', 'Im_MattDamon.png', 'Im_LeonardoDiCaprio.png', 'Im_BenAffleck.png', 'Im_OrlandoBloom.png', 'Im_RyanGosling.png', 'Im_RobertDowneyJr.png', 'Im_GeorgeClooney.png', 'Im_ElijahWood.png', 'Im_BradPitt.png'],diff,0,0.4750898000002053,17,71.42857142857143,
EVES0409,4,neg,90,neg90_id10_im17.bmp_neg90_id20_im3.bmp,['Im_JustinTimberlake.png', 'Im_MattDamon.png', 'Im_LeonardoDiCaprio.png', 'Im_BenAffleck.png', 'Im_OrlandoBloom.png', 'Im_RyanGosling.png', 'Im_RobertDowneyJr.png', 'Im_GeorgeClooney.png', 'Im_ElijahWood.png', 'Im_BradPitt.png'],diff,1,1.1418673999996827,18,71.42857142857143,
EVES0409,4,neg,30,neg30_id13_im29.bmp_neg30_id13_im10.bmp,['Im_JustinTimberlake.png', 'Im_MattDamon.png', 'Im_LeonardoDiCaprio.png', 'Im_BenAffleck.png', 'Im_OrlandoBloom.png', 'Im_RyanGosling.png', 'Im_RobertDowneyJr.png', 'Im_GeorgeClooney.png', 'Im_ElijahWood.png', 'Im_BradPitt.png'],diff,0,0.5086071999994601,18,71.42857142857143,
EVES0409,4,neg,90,neg90_id1_im4.bmp_neg90_id1_im21.bmp,['Im_JustinTimberlake.png', 'Im_MattDamon.png', 'Im_LeonardoDiCaprio.png', 'Im_BenAffleck.png', 'Im_OrlandoBloom.png', 'Im_RyanGosling.png', 'Im_RobertDowneyJr.png', 'Im_GeorgeClooney.png', 'Im_ElijahWood.png', 'Im_BradPitt.png'],diff,0,1.1333748000015476,18,71.42857142857143,
EVES0409,4,neg,0,neg0_id3_im17.bmp_neg0_id3_im6.bmp,['Im_JustinTimberlake.png', 'Im_MattDamon.png', 'Im_LeonardoDiCaprio.png', 'Im_BenAffleck.png', 'Im_OrlandoBloom.png', 'Im_RyanGosling.png', 'Im_RobertDowneyJr.png', 'Im_GeorgeClooney.png', 'Im_ElijahWood.png', 'Im_BradPitt.png'],same,1,0.5085744999996678,19,71.42857142857143,
EVES0409,4,neg,120,neg120_id1_im24.bmp_neg120_id6_im19.bmp,['Im_JustinTimberlake.png', 'Im_MattDamon.png', 'Im_LeonardoDiCaprio.png', 'Im_BenAffleck.png', 'Im_OrlandoBloom.png', 'Im_RyanGosling.png', 'Im_RobertDowneyJr.png', 'Im_GeorgeClooney.png', 'Im_ElijahWood.png', 'Im_BradPitt.png'],diff,1,0.4167274000010366,20,71.42857142857143,
EVES0409,4,neg,120,neg120_id20_im30.bmp_neg120_id16_im19.bmp,['Im_JustinTimberlake.png', 'Im_MattDamon.png', 'Im_LeonardoDiCaprio.png', 'Im_BenAffleck.png', 'Im_OrlandoBloom.png', 'Im_RyanGosling.png', 'Im_RobertDowneyJr.png', 'Im_GeorgeClooney.png', 'Im_ElijahWood.png', 'Im_BradPitt.png'],same,0,0.9166593000009016,20,71.42857142857143,
EVES0409,4,neg,150,neg150_id13_im10.bmp_neg150_id13_im15.bmp,['Im_JustinTimberlake.png', 'Im_MattDamon.png', 'Im_LeonardoDiCaprio.png', 'Im_BenAffleck.png', 'Im_OrlandoBloom.png', 'Im_RyanGosling.png', 'Im_RobertDowneyJr.png', 'Im_GeorgeClooney.png', 'Im_ElijahWood.png', 'Im_BradPitt.png'],same,1,0.5003353000010975,21,71.42857142857143,
EVES0409,4,neg,60,neg60_id7_im14.bmp_neg60_id14_im24.bmp,['Im_JustinTimberlake.png', 'Im_MattDamon.png', 'Im_LeonardoDiCaprio.png', 'Im_BenAffleck.png', 'Im_OrlandoBloom.png', 'Im_RyanGosling.png', 'Im_RobertDowneyJr.png', 'Im_GeorgeClooney.png', 'Im_ElijahWood.png', 'Im_BradPitt.png'],diff,1,0.684207599999354,22,71.42857142857143,
EVES0409,5,pos,fs,posfs_id7_im15.bmp_posfs_id7_im26.bmp,['Im_JustinTimberlake.png', 'Im_MattDamon.png', 'Im_LeonardoDiCaprio.png', 'Im_BenAffleck.png', 'Im_OrlandoBloom.png', 'Im_RyanGosling.png', 'Im_RobertDowneyJr.png', 'Im_GeorgeClooney.png', 'Im_ElijahWood.png', 'Im_BradPitt.png'],diff,0,1.0836348999982874,22,71.42857142857143,
EVES0409,5,pos,60,pos60_id16_im2.bmp_pos60_id16_im19.bmp,['Im_JustinTimberlake.png', 'Im_MattDamon.png', 'Im_LeonardoDiCaprio.png', 'Im_BenAffleck.png', 'Im_OrlandoBloom.png', 'Im_RyanGosling.png', 'Im_RobertDowneyJr.png', 'Im_GeorgeClooney.png', 'Im_ElijahWood.png', 'Im_BradPitt.png'],diff,0,0.8169560999995156,22,71.42857142857143,
EVES0409,5,pos,fs,posfs_id13_im10.bmp_posfs_id13_im15.bmp,['Im_JustinTimberlake.png', 'Im_MattDamon.png', 'Im_LeonardoDiCaprio.png', 'Im_BenAffleck.png', 'Im_OrlandoBloom.png', 'Im_RyanGosling.png', 'Im_RobertDowneyJr.png', 'Im_GeorgeClooney.png', 'Im_ElijahWood.png', 'Im_BradPitt.png'],same,1,0.4250270000011369,23,71.42857142857143,
EVES0409,5,pos,150,pos150_id3_im17.bmp_pos150_id18_im11.bmp,['Im_JustinTimberlake.png', 'Im_MattDamon.png', 'Im_LeonardoDiCaprio.png', 'Im_BenAffleck.png', 'Im_OrlandoBloom.png', 'Im_RyanGosling.png', 'Im_RobertDowneyJr.png', 'Im_GeorgeClooney.png', 'Im_ElijahWood.png', 'Im_BradPitt.png'],diff,1,1.791746200000489,24,71.42857142857143,
EVES0409,5,pos,120,pos120_id10_im1.bmp_pos120_id10_im17.bmp,['Im_JustinTimberlake.png', 'Im_MattDamon.png', 'Im_LeonardoDiCaprio.png', 'Im_BenAffleck.png', 'Im_OrlandoBloom.png', 'Im_RyanGosling.png', 'Im_RobertDowneyJr.png', 'Im_GeorgeClooney.png', 'Im_ElijahWood.png', 'Im_BradPitt.png'],same,1,1.7086185999996815,25,71.42857142857143,
EVES0409,5,pos,90,pos90_id6_im18.bmp_pos90_id1_im24.bmp,['Im_JustinTimberlake.png', 'Im_MattDamon.png', 'Im_LeonardoDiCaprio.png', 'Im_BenAffleck.png', 'Im_OrlandoBloom.png', 'Im_RyanGosling.png', 'Im_RobertDowneyJr.png', 'Im_GeorgeClooney.png', 'Im_ElijahWood.png', 'Im_BradPitt.png'],diff,1,0.5086479000001418,26,71.42857142857143,
EVES0409,5,pos,0,pos0_id7_im15.bmp_pos0_id7_im26.bmp,['Im_JustinTimberlake.png', 'Im_MattDamon.png', 'Im_LeonardoDiCaprio.png', 'Im_BenAffleck.png', 'Im_OrlandoBloom.png', 'Im_RyanGosling.png', 'Im_RobertDowneyJr.png', 'Im_GeorgeClooney.png', 'Im_ElijahWood.png', 'Im_BradPitt.png'],diff,0,0.6418840999995155,26,71.42857142857143,
EVES0409,5,pos,0,pos0_id1_im21.bmp_pos0_id1_im24.bmp,['Im_JustinTimberlake.png', 'Im_MattDamon.png', 'Im_LeonardoDiCaprio.png', 'Im_BenAffleck.png', 'Im_OrlandoBloom.png', 'Im_RyanGosling.png', 'Im_RobertDowneyJr.png', 'Im_GeorgeClooney.png', 'Im_ElijahWood.png', 'Im_BradPitt.png'],same,1,0.5336102999990544,27,71.42857142857143,
EVES0409,5,pos,120,pos120_id20_im3.bmp_pos120_id20_im12.bmp,['Im_JustinTimberlake.png', 'Im_MattDamon.png', 'Im_LeonardoDiCaprio.png', 'Im_BenAffleck.png', 'Im_OrlandoBloom.png', 'Im_RyanGosling.png', 'Im_RobertDowneyJr.png', 'Im_GeorgeClooney.png', 'Im_ElijahWood.png', 'Im_BradPitt.png'],same,1,0.6667183999998088,28,71.42857142857143,
EVES0409,5,pos,30,pos30_id3_im8.bmp_pos30_id16_im2.bmp,['Im_JustinTimberlake.png', 'Im_MattDamon.png', 'Im_LeonardoDiCaprio.png', 'Im_BenAffleck.png', 'Im_OrlandoBloom.png', 'Im_RyanGosling.png', 'Im_RobertDowneyJr.png', 'Im_GeorgeClooney.png', 'Im_ElijahWood.png', 'Im_BradPitt.png'],diff,1,1.11672980000003,29,71.42857142857143,
EVES0409,5,pos,150,pos150_id7_im15.bmp_pos150_id18_im18.bmp,['Im_JustinTimberlake.png', 'Im_MattDamon.png', 'Im_LeonardoDiCaprio.png', 'Im_BenAffleck.png', 'Im_OrlandoBloom.png', 'Im_RyanGosling.png', 'Im_RobertDowneyJr.png', 'Im_GeorgeClooney.png', 'Im_ElijahWood.png', 'Im_BradPitt.png'],same,0,1.8415344000004552,29,71.42857142857143,
EVES0409,5,pos,90,pos90_id13_im29.bmp_pos90_id10_im18.bmp,['Im_JustinTimberlake.png', 'Im_MattDamon.png', 'Im_LeonardoDiCaprio.png', 'Im_BenAffleck.png', 'Im_OrlandoBloom.png', 'Im_RyanGosling.png', 'Im_RobertDowneyJr.png', 'Im_GeorgeClooney.png', 'Im_ElijahWood.png', 'Im_BradPitt.png'],same,0,1.0336601000017254,29,71.42857142857143,
EVES0409,5,pos,60,pos60_id6_im12.bmp_pos60_id6_im19.bmp,['Im_JustinTimberlake.png', 'Im_MattDamon.png', 'Im_LeonardoDiCaprio.png', 'Im_BenAffleck.png', 'Im_OrlandoBloom.png', 'Im_RyanGosling.png', 'Im_RobertDowneyJr.png', 'Im_GeorgeClooney.png', 'Im_ElijahWood.png', 'Im_BradPitt.png'],same,1,0.45858570000018517,30,71.42857142857143,
EVES0409,5,pos,30,pos30_id18_im11.bmp_pos30_id3_im17.bmp,['Im_JustinTimberlake.png', 'Im_MattDamon.png', 'Im_LeonardoDiCaprio.png', 'Im_BenAffleck.png', 'Im_OrlandoBloom.png', 'Im_RyanGosling.png', 'Im_RobertDowneyJr.png', 'Im_GeorgeClooney.png', 'Im_ElijahWood.png', 'Im_BradPitt.png'],diff,1,0.41666930000064895,31,71.42857142857143,
EVES0409,6,inv,fs,posfs_id1_im4.bmp_posfs_id10_im18.bmp,['Im_JustinTimberlake.png', 'Im_MattDamon.png', 'Im_LeonardoDiCaprio.png', 'Im_BenAffleck.png', 'Im_OrlandoBloom.png', 'Im_RyanGosling.png', 'Im_RobertDowneyJr.png', 'Im_GeorgeClooney.png', 'Im_ElijahWood.png', 'Im_BradPitt.png'],diff,1,0.42520630000035453,1,73.80952380952381,
EVES0409,6,inv,120,pos120_id6_im12.bmp_pos120_id6_im19.bmp,['Im_JustinTimberlake.png', 'Im_MattDamon.png', 'Im_LeonardoDiCaprio.png', 'Im_BenAffleck.png', 'Im_OrlandoBloom.png', 'Im_RyanGosling.png', 'Im_RobertDowneyJr.png', 'Im_GeorgeClooney.png', 'Im_ElijahWood.png', 'Im_BradPitt.png'],same,1,0.4248698000010336,2,73.80952380952381,
EVES0409,6,inv,120,pos120_id14_im16.bmp_pos120_id1_im21.bmp,['Im_JustinTimberlake.png', 'Im_MattDamon.png', 'Im_LeonardoDiCaprio.png', 'Im_BenAffleck.png', 'Im_OrlandoBloom.png', 'Im_RyanGosling.png', 'Im_RobertDowneyJr.png', 'Im_GeorgeClooney.png', 'Im_ElijahWood.png', 'Im_BradPitt.png'],diff,1,0.7583278000001883,3,73.80952380952381,
EVES0409,6,inv,fs,posfs_id14_im24.bmp_posfs_id18_im19.bmp,['Im_JustinTimberlake.png', 'Im_MattDamon.png', 'Im_LeonardoDiCaprio.png', 'Im_BenAffleck.png', 'Im_OrlandoBloom.png', 'Im_RyanGosling.png', 'Im_RobertDowneyJr.png', 'Im_GeorgeClooney.png', 'Im_ElijahWood.png', 'Im_BradPitt.png'],diff,1,0.72498110000015,4,73.80952380952381,
