Sujet,Trial,Condition,Filter,Imname,Actor0,Actor1,Actor2,Actor3,Actor4,Actor5,Actor6,Actor7,Actor8,Actor9,Answer,Accu,RT,Score,Scoreperc, 
EVES0409,train,pos,fs,posfs_id14_im18.bmp_posfs_id13_im10.bmp,['Im_RyanGosling.png', 'Im_ElijahWood.png', 'Im_LeonardoDiCaprio.png', 'Im_RobertDowneyJr.png', 'Im_BenAffleck.png', 'Im_OrlandoBloom.png', 'Im_MattDamon.png', 'Im_GeorgeClooney.png', 'Im_JustinTimberlake.png', 'Im_BradPitt.png'],diff,1,1.8747904000047129,1,0,
EVES0409,train,pos,fs,posfs_id7_im15.bmp_posfs_id1_im21.bmp,['Im_RyanGosling.png', 'Im_ElijahWood.png', 'Im_LeonardoDiCaprio.png', 'Im_RobertDowneyJr.png', 'Im_BenAffleck.png', 'Im_OrlandoBloom.png', 'Im_MattDamon.png', 'Im_GeorgeClooney.png', 'Im_JustinTimberlake.png', 'Im_BradPitt.png'],diff,1,0.7166064000048209,2,0,
EVES0409,train,pos,fs,posfs_id1_im4.bmp_posfs_id10_im18.bmp,['Im_RyanGosling.png', 'Im_ElijahWood.png', 'Im_LeonardoDiCaprio.png', 'Im_RobertDowneyJr.png', 'Im_BenAffleck.png', 'Im_OrlandoBloom.png', 'Im_MattDamon.png', 'Im_GeorgeClooney.png', 'Im_JustinTimberlake.png', 'Im_BradPitt.png'],diff,1,0.9248312000127044,3,0,
EVES0409,train,pos,fs,posfs_id3_im17.bmp_posfs_id6_im12.bmp,['Im_RyanGosling.png', 'Im_ElijahWood.png', 'Im_LeonardoDiCaprio.png', 'Im_RobertDowneyJr.png', 'Im_BenAffleck.png', 'Im_OrlandoBloom.png', 'Im_MattDamon.png', 'Im_GeorgeClooney.png', 'Im_JustinTimberlake.png', 'Im_BradPitt.png'],diff,1,0.6414663000032306,4,0,
EVES0409,train,pos,fs,posfs_id16_im19.bmp_posfs_id13_im15.bmp,['Im_RyanGosling.png', 'Im_ElijahWood.png', 'Im_LeonardoDiCaprio.png', 'Im_RobertDowneyJr.png', 'Im_BenAffleck.png', 'Im_OrlandoBloom.png', 'Im_MattDamon.png', 'Im_GeorgeClooney.png', 'Im_JustinTimberlake.png', 'Im_BradPitt.png'],diff,1,0.6164461000007577,5,0,
EVES0409,train,pos,fs,posfs_id1_im4.bmp_posfs_id1_im21.bmp,['Im_RyanGosling.png', 'Im_ElijahWood.png', 'Im_LeonardoDiCaprio.png', 'Im_RobertDowneyJr.png', 'Im_BenAffleck.png', 'Im_OrlandoBloom.png', 'Im_MattDamon.png', 'Im_GeorgeClooney.png', 'Im_JustinTimberlake.png', 'Im_BradPitt.png'],same,1,0.7750590000068769,6,0,
EVES0409,train,pos,fs,posfs_id10_im17.bmp_posfs_id16_im2.bmp,['Im_RyanGosling.png', 'Im_ElijahWood.png', 'Im_LeonardoDiCaprio.png', 'Im_RobertDowneyJr.png', 'Im_BenAffleck.png', 'Im_OrlandoBloom.png', 'Im_MattDamon.png', 'Im_GeorgeClooney.png', 'Im_JustinTimberlake.png', 'Im_BradPitt.png'],diff,1,0.6416335999965668,7,0,
EVES0409,train,pos,fs,posfs_id3_im6.bmp_posfs_id3_im8.bmp,['Im_RyanGosling.png', 'Im_ElijahWood.png', 'Im_LeonardoDiCaprio.png', 'Im_RobertDowneyJr.png', 'Im_BenAffleck.png', 'Im_OrlandoBloom.png', 'Im_MattDamon.png', 'Im_GeorgeClooney.png', 'Im_JustinTimberlake.png', 'Im_BradPitt.png'],same,1,0.841671000001952,8,0,
EVES0409,train,pos,fs,posfs_id7_im14.bmp_posfs_id3_im6.bmp,['Im_RyanGosling.png', 'Im_ElijahWood.png', 'Im_LeonardoDiCaprio.png', 'Im_RobertDowneyJr.png', 'Im_BenAffleck.png', 'Im_OrlandoBloom.png', 'Im_MattDamon.png', 'Im_GeorgeClooney.png', 'Im_JustinTimberlake.png', 'Im_BradPitt.png'],diff,1,0.9168548999878112,9,0,
EVES0409,train,pos,fs,posfs_id16_im19.bmp_posfs_id20_im30.bmp,['Im_RyanGosling.png', 'Im_ElijahWood.png', 'Im_LeonardoDiCaprio.png', 'Im_RobertDowneyJr.png', 'Im_BenAffleck.png', 'Im_OrlandoBloom.png', 'Im_MattDamon.png', 'Im_GeorgeClooney.png', 'Im_JustinTimberlake.png', 'Im_BradPitt.png'],diff,1,0.6835515000275336,10,0,
EVES0409,train,pos,fs,posfs_id18_im11.bmp_posfs_id13_im15.bmp,['Im_RyanGosling.png', 'Im_ElijahWood.png', 'Im_LeonardoDiCaprio.png', 'Im_RobertDowneyJr.png', 'Im_BenAffleck.png', 'Im_OrlandoBloom.png', 'Im_MattDamon.png', 'Im_GeorgeClooney.png', 'Im_JustinTimberlake.png', 'Im_BradPitt.png'],diff,1,0.8168008999782614,11,0,
EVES0409,train,pos,fs,posfs_id13_im29.bmp_posfs_id13_im10.bmp,['Im_RyanGosling.png', 'Im_ElijahWood.png', 'Im_LeonardoDiCaprio.png', 'Im_RobertDowneyJr.png', 'Im_BenAffleck.png', 'Im_OrlandoBloom.png', 'Im_MattDamon.png', 'Im_GeorgeClooney.png', 'Im_JustinTimberlake.png', 'Im_BradPitt.png'],same,1,0.8502177000045776,12,0,
EVES0409,train,pos,fs,posfs_id14_im18.bmp_posfs_id14_im24.bmp,['Im_RyanGosling.png', 'Im_ElijahWood.png', 'Im_LeonardoDiCaprio.png', 'Im_RobertDowneyJr.png', 'Im_BenAffleck.png', 'Im_OrlandoBloom.png', 'Im_MattDamon.png', 'Im_GeorgeClooney.png', 'Im_JustinTimberlake.png', 'Im_BradPitt.png'],same,1,0.7000424000143539,13,0,
EVES0409,train,pos,fs,posfs_id6_im12.bmp_posfs_id6_im19.bmp,['Im_RyanGosling.png', 'Im_ElijahWood.png', 'Im_LeonardoDiCaprio.png', 'Im_RobertDowneyJr.png', 'Im_BenAffleck.png', 'Im_OrlandoBloom.png', 'Im_MattDamon.png', 'Im_GeorgeClooney.png', 'Im_JustinTimberlake.png', 'Im_BradPitt.png'],same,1,0.8333121000032406,14,0,
EVES0409,train,pos,fs,posfs_id16_im3.bmp_posfs_id20_im3.bmp,['Im_RyanGosling.png', 'Im_ElijahWood.png', 'Im_LeonardoDiCaprio.png', 'Im_RobertDowneyJr.png', 'Im_BenAffleck.png', 'Im_OrlandoBloom.png', 'Im_MattDamon.png', 'Im_GeorgeClooney.png', 'Im_JustinTimberlake.png', 'Im_BradPitt.png'],diff,1,0.9917445000028238,15,0,
EVES0409,train,pos,fs,posfs_id1_im24.bmp_posfs_id6_im18.bmp,['Im_RyanGosling.png', 'Im_ElijahWood.png', 'Im_LeonardoDiCaprio.png', 'Im_RobertDowneyJr.png', 'Im_BenAffleck.png', 'Im_OrlandoBloom.png', 'Im_MattDamon.png', 'Im_GeorgeClooney.png', 'Im_JustinTimberlake.png', 'Im_BradPitt.png'],diff,1,0.8498002999986056,16,0,
EVES0409,train,pos,fs,posfs_id1_im4.bmp_posfs_id1_im24.bmp,['Im_RyanGosling.png', 'Im_ElijahWood.png', 'Im_LeonardoDiCaprio.png', 'Im_RobertDowneyJr.png', 'Im_BenAffleck.png', 'Im_OrlandoBloom.png', 'Im_MattDamon.png', 'Im_GeorgeClooney.png', 'Im_JustinTimberlake.png', 'Im_BradPitt.png'],same,1,0.7582307999837212,17,0,
EVES0409,train,pos,fs,posfs_id20_im30.bmp_posfs_id7_im26.bmp,['Im_RyanGosling.png', 'Im_ElijahWood.png', 'Im_LeonardoDiCaprio.png', 'Im_RobertDowneyJr.png', 'Im_BenAffleck.png', 'Im_OrlandoBloom.png', 'Im_MattDamon.png', 'Im_GeorgeClooney.png', 'Im_JustinTimberlake.png', 'Im_BradPitt.png'],diff,1,0.7501004000077955,18,0,
EVES0409,train,pos,fs,posfs_id20_im3.bmp_posfs_id10_im17.bmp,['Im_RyanGosling.png', 'Im_ElijahWood.png', 'Im_LeonardoDiCaprio.png', 'Im_RobertDowneyJr.png', 'Im_BenAffleck.png', 'Im_OrlandoBloom.png', 'Im_MattDamon.png', 'Im_GeorgeClooney.png', 'Im_JustinTimberlake.png', 'Im_BradPitt.png'],diff,1,0.8498087000043597,19,0,
EVES0409,train,pos,fs,posfs_id18_im19.bmp_posfs_id18_im18.bmp,['Im_RyanGosling.png', 'Im_ElijahWood.png', 'Im_LeonardoDiCaprio.png', 'Im_RobertDowneyJr.png', 'Im_BenAffleck.png', 'Im_OrlandoBloom.png', 'Im_MattDamon.png', 'Im_GeorgeClooney.png', 'Im_JustinTimberlake.png', 'Im_BradPitt.png'],same,1,0.5916274999908637,20,0,
EVES0409,train,neg,fs,negfs_id16_im19.bmp_negfs_id16_im2.bmp,['Im_RyanGosling.png', 'Im_ElijahWood.png', 'Im_LeonardoDiCaprio.png', 'Im_RobertDowneyJr.png', 'Im_BenAffleck.png', 'Im_OrlandoBloom.png', 'Im_MattDamon.png', 'Im_GeorgeClooney.png', 'Im_JustinTimberlake.png', 'Im_BradPitt.png'],same,1,0.40863370001898147,1,0,
EVES0409,train,pos,fs,posfs_id6_im18.bmp_posfs_id1_im24.bmp,['Im_RyanGosling.png', 'Im_ElijahWood.png', 'Im_LeonardoDiCaprio.png', 'Im_RobertDowneyJr.png', 'Im_BenAffleck.png', 'Im_OrlandoBloom.png', 'Im_MattDamon.png', 'Im_GeorgeClooney.png', 'Im_JustinTimberlake.png', 'Im_BradPitt.png'],diff,1,0.40843139999196865,2,0,
EVES0409,train,pos,fs,posfs_id13_im15.bmp_posfs_id13_im10.bmp,['Im_RyanGosling.png', 'Im_ElijahWood.png', 'Im_LeonardoDiCaprio.png', 'Im_RobertDowneyJr.png', 'Im_BenAffleck.png', 'Im_OrlandoBloom.png', 'Im_MattDamon.png', 'Im_GeorgeClooney.png', 'Im_JustinTimberlake.png', 'Im_BradPitt.png'],same,1,0.4000813999737147,3,0,
EVES0409,train,pos,fs,posfs_id7_im14.bmp_posfs_id14_im24.bmp,['Im_RyanGosling.png', 'Im_ElijahWood.png', 'Im_LeonardoDiCaprio.png', 'Im_RobertDowneyJr.png', 'Im_BenAffleck.png', 'Im_OrlandoBloom.png', 'Im_MattDamon.png', 'Im_GeorgeClooney.png', 'Im_JustinTimberlake.png', 'Im_BradPitt.png'],diff,1,0.5082996999844909,4,0,
EVES0409,train,neg,fs,negfs_id20_im30.bmp_negfs_id20_im3.bmp,['Im_RyanGosling.png', 'Im_ElijahWood.png', 'Im_LeonardoDiCaprio.png', 'Im_RobertDowneyJr.png', 'Im_BenAffleck.png', 'Im_OrlandoBloom.png', 'Im_MattDamon.png', 'Im_GeorgeClooney.png', 'Im_JustinTimberlake.png', 'Im_BradPitt.png'],same,1,1.2668946999765467,5,0,
EVES0409,train,inv,fs,posfs_id7_im15.bmp_posfs_id18_im18.bmp,['Im_RyanGosling.png', 'Im_ElijahWood.png', 'Im_LeonardoDiCaprio.png', 'Im_RobertDowneyJr.png', 'Im_BenAffleck.png', 'Im_OrlandoBloom.png', 'Im_MattDamon.png', 'Im_GeorgeClooney.png', 'Im_JustinTimberlake.png', 'Im_BradPitt.png'],diff,1,0.4421260999806691,6,0,
EVES0409,train,inv,fs,posfs_id3_im6.bmp_posfs_id3_im17.bmp,['Im_RyanGosling.png', 'Im_ElijahWood.png', 'Im_LeonardoDiCaprio.png', 'Im_RobertDowneyJr.png', 'Im_BenAffleck.png', 'Im_OrlandoBloom.png', 'Im_MattDamon.png', 'Im_GeorgeClooney.png', 'Im_JustinTimberlake.png', 'Im_BradPitt.png'],same,1,0.5249272999935783,7,0,
EVES0409,train,inv,fs,posfs_id13_im15.bmp_posfs_id18_im11.bmp,['Im_RyanGosling.png', 'Im_ElijahWood.png', 'Im_LeonardoDiCaprio.png', 'Im_RobertDowneyJr.png', 'Im_BenAffleck.png', 'Im_OrlandoBloom.png', 'Im_MattDamon.png', 'Im_GeorgeClooney.png', 'Im_JustinTimberlake.png', 'Im_BradPitt.png'],diff,1,0.6082305000163615,8,0,
EVES0409,train,pos,fs,posfs_id18_im18.bmp_posfs_id7_im26.bmp,['Im_RyanGosling.png', 'Im_ElijahWood.png', 'Im_LeonardoDiCaprio.png', 'Im_RobertDowneyJr.png', 'Im_BenAffleck.png', 'Im_OrlandoBloom.png', 'Im_MattDamon.png', 'Im_GeorgeClooney.png', 'Im_JustinTimberlake.png', 'Im_BradPitt.png'],diff,1,0.5168698999914341,9,0,
EVES0409,train,pos,fs,posfs_id18_im18.bmp_posfs_id18_im11.bmp,['Im_RyanGosling.png', 'Im_ElijahWood.png', 'Im_LeonardoDiCaprio.png', 'Im_RobertDowneyJr.png', 'Im_BenAffleck.png', 'Im_OrlandoBloom.png', 'Im_MattDamon.png', 'Im_GeorgeClooney.png', 'Im_JustinTimberlake.png', 'Im_BradPitt.png'],diff,0,0.5083884000196122,9,0,
EVES0409,train,neg,fs,negfs_id1_im4.bmp_negfs_id1_im21.bmp,['Im_RyanGosling.png', 'Im_ElijahWood.png', 'Im_LeonardoDiCaprio.png', 'Im_RobertDowneyJr.png', 'Im_BenAffleck.png', 'Im_OrlandoBloom.png', 'Im_MattDamon.png', 'Im_GeorgeClooney.png', 'Im_JustinTimberlake.png', 'Im_BradPitt.png'],same,1,0.40847260001464747,10,0,
EVES0409,train,inv,fs,posfs_id13_im15.bmp_posfs_id13_im10.bmp,['Im_RyanGosling.png', 'Im_ElijahWood.png', 'Im_LeonardoDiCaprio.png', 'Im_RobertDowneyJr.png', 'Im_BenAffleck.png', 'Im_OrlandoBloom.png', 'Im_MattDamon.png', 'Im_GeorgeClooney.png', 'Im_JustinTimberlake.png', 'Im_BradPitt.png'],same,1,0.40831440000329167,11,0,
EVES0409,train,pos,fs,posfs_id14_im18.bmp_posfs_id14_im24.bmp,['Im_RyanGosling.png', 'Im_ElijahWood.png', 'Im_LeonardoDiCaprio.png', 'Im_RobertDowneyJr.png', 'Im_BenAffleck.png', 'Im_OrlandoBloom.png', 'Im_MattDamon.png', 'Im_GeorgeClooney.png', 'Im_JustinTimberlake.png', 'Im_BradPitt.png'],same,1,0.4083393999899272,12,0,
EVES0409,train,pos,fs,posfs_id13_im15.bmp_posfs_id13_im29.bmp,['Im_RyanGosling.png', 'Im_ElijahWood.png', 'Im_LeonardoDiCaprio.png', 'Im_RobertDowneyJr.png', 'Im_BenAffleck.png', 'Im_OrlandoBloom.png', 'Im_MattDamon.png', 'Im_GeorgeClooney.png', 'Im_JustinTimberlake.png', 'Im_BradPitt.png'],same,1,0.4502204000018537,13,0,
EVES0409,train,neg,fs,negfs_id14_im16.bmp_negfs_id14_im18.bmp,['Im_RyanGosling.png', 'Im_ElijahWood.png', 'Im_LeonardoDiCaprio.png', 'Im_RobertDowneyJr.png', 'Im_BenAffleck.png', 'Im_OrlandoBloom.png', 'Im_MattDamon.png', 'Im_GeorgeClooney.png', 'Im_JustinTimberlake.png', 'Im_BradPitt.png'],same,1,0.42521379998652264,14,0,
EVES0409,train,neg,fs,negfs_id3_im8.bmp_negfs_id3_im6.bmp,['Im_RyanGosling.png', 'Im_ElijahWood.png', 'Im_LeonardoDiCaprio.png', 'Im_RobertDowneyJr.png', 'Im_BenAffleck.png', 'Im_OrlandoBloom.png', 'Im_MattDamon.png', 'Im_GeorgeClooney.png', 'Im_JustinTimberlake.png', 'Im_BradPitt.png'],same,1,0.4082756999996491,15,0,
EVES0409,train,pos,fs,posfs_id3_im8.bmp_posfs_id16_im3.bmp,['Im_RyanGosling.png', 'Im_ElijahWood.png', 'Im_LeonardoDiCaprio.png', 'Im_RobertDowneyJr.png', 'Im_BenAffleck.png', 'Im_OrlandoBloom.png', 'Im_MattDamon.png', 'Im_GeorgeClooney.png', 'Im_JustinTimberlake.png', 'Im_BradPitt.png'],diff,1,0.4084279000235256,16,0,
EVES0409,train,inv,fs,posfs_id13_im29.bmp_posfs_id10_im18.bmp,['Im_RyanGosling.png', 'Im_ElijahWood.png', 'Im_LeonardoDiCaprio.png', 'Im_RobertDowneyJr.png', 'Im_BenAffleck.png', 'Im_OrlandoBloom.png', 'Im_MattDamon.png', 'Im_GeorgeClooney.png', 'Im_JustinTimberlake.png', 'Im_BradPitt.png'],diff,1,0.558434100006707,17,0,
EVES0409,train,neg,fs,negfs_id6_im18.bmp_negfs_id6_im12.bmp,['Im_RyanGosling.png', 'Im_ElijahWood.png', 'Im_LeonardoDiCaprio.png', 'Im_RobertDowneyJr.png', 'Im_BenAffleck.png', 'Im_OrlandoBloom.png', 'Im_MattDamon.png', 'Im_GeorgeClooney.png', 'Im_JustinTimberlake.png', 'Im_BradPitt.png'],same,1,0.8582721999846399,18,0,
EVES0409,train,neg,fs,negfs_id6_im19.bmp_negfs_id6_im12.bmp,['Im_RyanGosling.png', 'Im_ElijahWood.png', 'Im_LeonardoDiCaprio.png', 'Im_RobertDowneyJr.png', 'Im_BenAffleck.png', 'Im_OrlandoBloom.png', 'Im_MattDamon.png', 'Im_GeorgeClooney.png', 'Im_JustinTimberlake.png', 'Im_BradPitt.png'],same,1,0.4917593999998644,19,0,
EVES0409,train,pos,120,pos120_id16_im3.bmp_pos120_id20_im3.bmp,['Im_RyanGosling.png', 'Im_ElijahWood.png', 'Im_LeonardoDiCaprio.png', 'Im_RobertDowneyJr.png', 'Im_BenAffleck.png', 'Im_OrlandoBloom.png', 'Im_MattDamon.png', 'Im_GeorgeClooney.png', 'Im_JustinTimberlake.png', 'Im_BradPitt.png'],diff,1,0.675274300010642,1,0,
EVES0409,train,pos,0,pos0_id18_im18.bmp_pos0_id18_im19.bmp,['Im_RyanGosling.png', 'Im_ElijahWood.png', 'Im_LeonardoDiCaprio.png', 'Im_RobertDowneyJr.png', 'Im_BenAffleck.png', 'Im_OrlandoBloom.png', 'Im_MattDamon.png', 'Im_GeorgeClooney.png', 'Im_JustinTimberlake.png', 'Im_BradPitt.png'],same,1,0.49973000001045875,2,0,
EVES0409,train,pos,120,pos120_id10_im18.bmp_pos120_id10_im17.bmp,['Im_RyanGosling.png', 'Im_ElijahWood.png', 'Im_LeonardoDiCaprio.png', 'Im_RobertDowneyJr.png', 'Im_BenAffleck.png', 'Im_OrlandoBloom.png', 'Im_MattDamon.png', 'Im_GeorgeClooney.png', 'Im_JustinTimberlake.png', 'Im_BradPitt.png'],same,1,0.7668032000074163,3,0,
EVES0409,train,pos,fs,posfs_id7_im26.bmp_posfs_id20_im30.bmp,['Im_RyanGosling.png', 'Im_ElijahWood.png', 'Im_LeonardoDiCaprio.png', 'Im_RobertDowneyJr.png', 'Im_BenAffleck.png', 'Im_OrlandoBloom.png', 'Im_MattDamon.png', 'Im_GeorgeClooney.png', 'Im_JustinTimberlake.png', 'Im_BradPitt.png'],diff,1,0.39988409998477437,4,0,
EVES0409,train,pos,0,pos0_id3_im8.bmp_pos0_id3_im17.bmp,['Im_RyanGosling.png', 'Im_ElijahWood.png', 'Im_LeonardoDiCaprio.png', 'Im_RobertDowneyJr.png', 'Im_BenAffleck.png', 'Im_OrlandoBloom.png', 'Im_MattDamon.png', 'Im_GeorgeClooney.png', 'Im_JustinTimberlake.png', 'Im_BradPitt.png'],same,1,0.3998740000242833,5,0,
EVES0409,train,pos,150,pos150_id3_im17.bmp_pos150_id3_im8.bmp,['Im_RyanGosling.png', 'Im_ElijahWood.png', 'Im_LeonardoDiCaprio.png', 'Im_RobertDowneyJr.png', 'Im_BenAffleck.png', 'Im_OrlandoBloom.png', 'Im_MattDamon.png', 'Im_GeorgeClooney.png', 'Im_JustinTimberlake.png', 'Im_BradPitt.png'],same,1,0.40835410001454875,6,0,
EVES0409,train,pos,fs,posfs_id1_im24.bmp_posfs_id1_im4.bmp,['Im_RyanGosling.png', 'Im_ElijahWood.png', 'Im_LeonardoDiCaprio.png', 'Im_RobertDowneyJr.png', 'Im_BenAffleck.png', 'Im_OrlandoBloom.png', 'Im_MattDamon.png', 'Im_GeorgeClooney.png', 'Im_JustinTimberlake.png', 'Im_BradPitt.png'],same,1,0.416722199996002,7,0,
EVES0409,train,pos,90,pos90_id1_im4.bmp_pos90_id10_im18.bmp,['Im_RyanGosling.png', 'Im_ElijahWood.png', 'Im_LeonardoDiCaprio.png', 'Im_RobertDowneyJr.png', 'Im_BenAffleck.png', 'Im_OrlandoBloom.png', 'Im_MattDamon.png', 'Im_GeorgeClooney.png', 'Im_JustinTimberlake.png', 'Im_BradPitt.png'],diff,1,0.425039800000377,8,0,
EVES0409,train,pos,150,pos150_id20_im3.bmp_pos150_id10_im17.bmp,['Im_RyanGosling.png', 'Im_ElijahWood.png', 'Im_LeonardoDiCaprio.png', 'Im_RobertDowneyJr.png', 'Im_BenAffleck.png', 'Im_OrlandoBloom.png', 'Im_MattDamon.png', 'Im_GeorgeClooney.png', 'Im_JustinTimberlake.png', 'Im_BradPitt.png'],diff,1,0.41688229999272153,9,0,
EVES0409,train,pos,30,pos30_id3_im6.bmp_pos30_id7_im14.bmp,['Im_RyanGosling.png', 'Im_ElijahWood.png', 'Im_LeonardoDiCaprio.png', 'Im_RobertDowneyJr.png', 'Im_BenAffleck.png', 'Im_OrlandoBloom.png', 'Im_MattDamon.png', 'Im_GeorgeClooney.png', 'Im_JustinTimberlake.png', 'Im_BradPitt.png'],diff,1,0.4082576000073459,10,0,
EVES0409,train,pos,60,pos60_id1_im4.bmp_pos60_id1_im24.bmp,['Im_RyanGosling.png', 'Im_ElijahWood.png', 'Im_LeonardoDiCaprio.png', 'Im_RobertDowneyJr.png', 'Im_BenAffleck.png', 'Im_OrlandoBloom.png', 'Im_MattDamon.png', 'Im_GeorgeClooney.png', 'Im_JustinTimberlake.png', 'Im_BradPitt.png'],same,1,0.700237199984258,11,0,
EVES0409,train,pos,90,pos90_id13_im29.bmp_pos90_id20_im12.bmp,['Im_RyanGosling.png', 'Im_ElijahWood.png', 'Im_LeonardoDiCaprio.png', 'Im_RobertDowneyJr.png', 'Im_BenAffleck.png', 'Im_OrlandoBloom.png', 'Im_MattDamon.png', 'Im_GeorgeClooney.png', 'Im_JustinTimberlake.png', 'Im_BradPitt.png'],diff,1,0.4168562999984715,12,0,
EVES0409,train,pos,30,pos30_id13_im15.bmp_pos30_id16_im19.bmp,['Im_RyanGosling.png', 'Im_ElijahWood.png', 'Im_LeonardoDiCaprio.png', 'Im_RobertDowneyJr.png', 'Im_BenAffleck.png', 'Im_OrlandoBloom.png', 'Im_MattDamon.png', 'Im_GeorgeClooney.png', 'Im_JustinTimberlake.png', 'Im_BradPitt.png'],diff,1,0.5169505999947432,13,0,
EVES0409,train,pos,60,pos60_id13_im10.bmp_pos60_id14_im18.bmp,['Im_RyanGosling.png', 'Im_ElijahWood.png', 'Im_LeonardoDiCaprio.png', 'Im_RobertDowneyJr.png', 'Im_BenAffleck.png', 'Im_OrlandoBloom.png', 'Im_MattDamon.png', 'Im_GeorgeClooney.png', 'Im_JustinTimberlake.png', 'Im_BradPitt.png'],diff,1,1.3335808000119869,14,0,
EVES0409,train,neg,90,neg90_id1_im24.bmp_neg90_id1_im21.bmp,['Im_RyanGosling.png', 'Im_ElijahWood.png', 'Im_LeonardoDiCaprio.png', 'Im_RobertDowneyJr.png', 'Im_BenAffleck.png', 'Im_OrlandoBloom.png', 'Im_MattDamon.png', 'Im_GeorgeClooney.png', 'Im_JustinTimberlake.png', 'Im_BradPitt.png'],same,1,0.4581670000043232,15,0,
EVES0409,train,neg,120,neg120_id16_im19.bmp_neg120_id16_im3.bmp,['Im_RyanGosling.png', 'Im_ElijahWood.png', 'Im_LeonardoDiCaprio.png', 'Im_RobertDowneyJr.png', 'Im_BenAffleck.png', 'Im_OrlandoBloom.png', 'Im_MattDamon.png', 'Im_GeorgeClooney.png', 'Im_JustinTimberlake.png', 'Im_BradPitt.png'],same,1,1.3335440000228118,16,0,
EVES0409,train,neg,120,neg120_id13_im15.bmp_neg120_id13_im29.bmp,['Im_RyanGosling.png', 'Im_ElijahWood.png', 'Im_LeonardoDiCaprio.png', 'Im_RobertDowneyJr.png', 'Im_BenAffleck.png', 'Im_OrlandoBloom.png', 'Im_MattDamon.png', 'Im_GeorgeClooney.png', 'Im_JustinTimberlake.png', 'Im_BradPitt.png'],same,1,1.8333854000084102,17,0,
EVES0409,train,neg,0,neg0_id6_im18.bmp_neg0_id14_im18.bmp,['Im_RyanGosling.png', 'Im_ElijahWood.png', 'Im_LeonardoDiCaprio.png', 'Im_RobertDowneyJr.png', 'Im_BenAffleck.png', 'Im_OrlandoBloom.png', 'Im_MattDamon.png', 'Im_GeorgeClooney.png', 'Im_JustinTimberlake.png', 'Im_BradPitt.png'],diff,1,2.4997844000172336,18,0,
EVES0409,train,neg,30,neg30_id6_im19.bmp_neg30_id6_im18.bmp,['Im_RyanGosling.png', 'Im_ElijahWood.png', 'Im_LeonardoDiCaprio.png', 'Im_RobertDowneyJr.png', 'Im_BenAffleck.png', 'Im_OrlandoBloom.png', 'Im_MattDamon.png', 'Im_GeorgeClooney.png', 'Im_JustinTimberlake.png', 'Im_BradPitt.png'],same,1,1.8670424000010826,19,0,
EVES0409,train,neg,fs,negfs_id14_im24.bmp_negfs_id7_im14.bmp,['Im_RyanGosling.png', 'Im_ElijahWood.png', 'Im_LeonardoDiCaprio.png', 'Im_RobertDowneyJr.png', 'Im_BenAffleck.png', 'Im_OrlandoBloom.png', 'Im_MattDamon.png', 'Im_GeorgeClooney.png', 'Im_JustinTimberlake.png', 'Im_BradPitt.png'],diff,1,0.45863450001343153,20,0,
EVES0409,train,neg,30,neg30_id16_im2.bmp_neg30_id16_im19.bmp,['Im_RyanGosling.png', 'Im_ElijahWood.png', 'Im_LeonardoDiCaprio.png', 'Im_RobertDowneyJr.png', 'Im_BenAffleck.png', 'Im_OrlandoBloom.png', 'Im_MattDamon.png', 'Im_GeorgeClooney.png', 'Im_JustinTimberlake.png', 'Im_BradPitt.png'],same,1,0.7502394999901298,21,0,
EVES0409,train,neg,0,neg0_id7_im26.bmp_neg0_id20_im30.bmp,['Im_RyanGosling.png', 'Im_ElijahWood.png', 'Im_LeonardoDiCaprio.png', 'Im_RobertDowneyJr.png', 'Im_BenAffleck.png', 'Im_OrlandoBloom.png', 'Im_MattDamon.png', 'Im_GeorgeClooney.png', 'Im_JustinTimberlake.png', 'Im_BradPitt.png'],diff,1,1.1167108999798074,22,0,
EVES0409,train,neg,60,neg60_id16_im3.bmp_neg60_id3_im8.bmp,['Im_RyanGosling.png', 'Im_ElijahWood.png', 'Im_LeonardoDiCaprio.png', 'Im_RobertDowneyJr.png', 'Im_BenAffleck.png', 'Im_OrlandoBloom.png', 'Im_MattDamon.png', 'Im_GeorgeClooney.png', 'Im_JustinTimberlake.png', 'Im_BradPitt.png'],same,0,2.9833415999892168,22,0,
EVES0409,train,neg,90,neg90_id16_im19.bmp_neg90_id13_im15.bmp,['Im_RyanGosling.png', 'Im_ElijahWood.png', 'Im_LeonardoDiCaprio.png', 'Im_RobertDowneyJr.png', 'Im_BenAffleck.png', 'Im_OrlandoBloom.png', 'Im_MattDamon.png', 'Im_GeorgeClooney.png', 'Im_JustinTimberlake.png', 'Im_BradPitt.png'],diff,1,0.8585729000042193,23,0,
EVES0409,train,neg,150,neg150_id14_im24.bmp_neg150_id14_im16.bmp,['Im_RyanGosling.png', 'Im_ElijahWood.png', 'Im_LeonardoDiCaprio.png', 'Im_RobertDowneyJr.png', 'Im_BenAffleck.png', 'Im_OrlandoBloom.png', 'Im_MattDamon.png', 'Im_GeorgeClooney.png', 'Im_JustinTimberlake.png', 'Im_BradPitt.png'],diff,0,0.7668244000233244,23,0,
EVES0409,train,neg,150,neg150_id3_im17.bmp_neg150_id6_im12.bmp,['Im_RyanGosling.png', 'Im_ElijahWood.png', 'Im_LeonardoDiCaprio.png', 'Im_RobertDowneyJr.png', 'Im_BenAffleck.png', 'Im_OrlandoBloom.png', 'Im_MattDamon.png', 'Im_GeorgeClooney.png', 'Im_JustinTimberlake.png', 'Im_BradPitt.png'],diff,1,0.399750699987635,24,0,
EVES0409,train,neg,fs,negfs_id13_im10.bmp_negfs_id13_im29.bmp,['Im_RyanGosling.png', 'Im_ElijahWood.png', 'Im_LeonardoDiCaprio.png', 'Im_RobertDowneyJr.png', 'Im_BenAffleck.png', 'Im_OrlandoBloom.png', 'Im_MattDamon.png', 'Im_GeorgeClooney.png', 'Im_JustinTimberlake.png', 'Im_BradPitt.png'],same,1,0.9667782000033185,25,0,
EVES0409,train,neg,60,neg60_id1_im4.bmp_neg60_id1_im24.bmp,['Im_RyanGosling.png', 'Im_ElijahWood.png', 'Im_LeonardoDiCaprio.png', 'Im_RobertDowneyJr.png', 'Im_BenAffleck.png', 'Im_OrlandoBloom.png', 'Im_MattDamon.png', 'Im_GeorgeClooney.png', 'Im_JustinTimberlake.png', 'Im_BradPitt.png'],same,1,0.6665024999820162,26,0,
EVES0409,train,inv,0,pos0_id1_im24.bmp_pos0_id6_im18.bmp,['Im_RyanGosling.png', 'Im_ElijahWood.png', 'Im_LeonardoDiCaprio.png', 'Im_RobertDowneyJr.png', 'Im_BenAffleck.png', 'Im_OrlandoBloom.png', 'Im_MattDamon.png', 'Im_GeorgeClooney.png', 'Im_JustinTimberlake.png', 'Im_BradPitt.png'],diff,1,0.8335269999806769,27,0,
EVES0409,train,inv,60,pos60_id13_im15.bmp_pos60_id16_im19.bmp,['Im_RyanGosling.png', 'Im_ElijahWood.png', 'Im_LeonardoDiCaprio.png', 'Im_RobertDowneyJr.png', 'Im_BenAffleck.png', 'Im_OrlandoBloom.png', 'Im_MattDamon.png', 'Im_GeorgeClooney.png', 'Im_JustinTimberlake.png', 'Im_BradPitt.png'],diff,1,0.5834294999949634,28,0,
EVES0409,train,inv,150,pos150_id16_im19.bmp_pos150_id16_im3.bmp,['Im_RyanGosling.png', 'Im_ElijahWood.png', 'Im_LeonardoDiCaprio.png', 'Im_RobertDowneyJr.png', 'Im_BenAffleck.png', 'Im_OrlandoBloom.png', 'Im_MattDamon.png', 'Im_GeorgeClooney.png', 'Im_JustinTimberlake.png', 'Im_BradPitt.png'],same,1,1.0002546000177972,29,0,
EVES0409,train,inv,90,pos90_id14_im24.bmp_pos90_id14_im16.bmp,['Im_RyanGosling.png', 'Im_ElijahWood.png', 'Im_LeonardoDiCaprio.png', 'Im_RobertDowneyJr.png', 'Im_BenAffleck.png', 'Im_OrlandoBloom.png', 'Im_MattDamon.png', 'Im_GeorgeClooney.png', 'Im_JustinTimberlake.png', 'Im_BradPitt.png'],same,1,0.6497514999937266,30,0,
EVES0409,train,inv,60,pos60_id14_im18.bmp_pos60_id13_im10.bmp,['Im_RyanGosling.png', 'Im_ElijahWood.png', 'Im_LeonardoDiCaprio.png', 'Im_RobertDowneyJr.png', 'Im_BenAffleck.png', 'Im_OrlandoBloom.png', 'Im_MattDamon.png', 'Im_GeorgeClooney.png', 'Im_JustinTimberlake.png', 'Im_BradPitt.png'],diff,1,0.6501137999875937,31,0,
EVES0409,train,inv,30,pos30_id13_im15.bmp_pos30_id16_im19.bmp,['Im_RyanGosling.png', 'Im_ElijahWood.png', 'Im_LeonardoDiCaprio.png', 'Im_RobertDowneyJr.png', 'Im_BenAffleck.png', 'Im_OrlandoBloom.png', 'Im_MattDamon.png', 'Im_GeorgeClooney.png', 'Im_JustinTimberlake.png', 'Im_BradPitt.png'],diff,1,0.5416760999942198,32,0,
EVES0409,train,inv,150,pos150_id3_im17.bmp_pos150_id18_im11.bmp,['Im_RyanGosling.png', 'Im_ElijahWood.png', 'Im_LeonardoDiCaprio.png', 'Im_RobertDowneyJr.png', 'Im_BenAffleck.png', 'Im_OrlandoBloom.png', 'Im_MattDamon.png', 'Im_GeorgeClooney.png', 'Im_JustinTimberlake.png', 'Im_BradPitt.png'],diff,1,0.5666300999873783,33,0,
EVES0409,train,inv,120,pos120_id1_im24.bmp_pos120_id6_im19.bmp,['Im_RyanGosling.png', 'Im_ElijahWood.png', 'Im_LeonardoDiCaprio.png', 'Im_RobertDowneyJr.png', 'Im_BenAffleck.png', 'Im_OrlandoBloom.png', 'Im_MattDamon.png', 'Im_GeorgeClooney.png', 'Im_JustinTimberlake.png', 'Im_BradPitt.png'],diff,1,2.2504982000100426,34,0,
EVES0409,train,inv,0,pos0_id13_im15.bmp_pos0_id13_im29.bmp,['Im_RyanGosling.png', 'Im_ElijahWood.png', 'Im_LeonardoDiCaprio.png', 'Im_RobertDowneyJr.png', 'Im_BenAffleck.png', 'Im_OrlandoBloom.png', 'Im_MattDamon.png', 'Im_GeorgeClooney.png', 'Im_JustinTimberlake.png', 'Im_BradPitt.png'],same,1,0.9002743999881204,35,0,
EVES0409,train,inv,90,pos90_id7_im15.bmp_pos90_id1_im21.bmp,['Im_RyanGosling.png', 'Im_ElijahWood.png', 'Im_LeonardoDiCaprio.png', 'Im_RobertDowneyJr.png', 'Im_BenAffleck.png', 'Im_OrlandoBloom.png', 'Im_MattDamon.png', 'Im_GeorgeClooney.png', 'Im_JustinTimberlake.png', 'Im_BradPitt.png'],diff,1,0.5333664999925531,36,0,
EVES0409,train,inv,120,pos120_id16_im2.bmp_pos120_id10_im17.bmp,['Im_RyanGosling.png', 'Im_ElijahWood.png', 'Im_LeonardoDiCaprio.png', 'Im_RobertDowneyJr.png', 'Im_BenAffleck.png', 'Im_OrlandoBloom.png', 'Im_MattDamon.png', 'Im_GeorgeClooney.png', 'Im_JustinTimberlake.png', 'Im_BradPitt.png'],same,0,0.6000203000148758,36,0,
EVES0409,train,inv,fs,posfs_id10_im1.bmp_posfs_id10_im17.bmp,['Im_RyanGosling.png', 'Im_ElijahWood.png', 'Im_LeonardoDiCaprio.png', 'Im_RobertDowneyJr.png', 'Im_BenAffleck.png', 'Im_OrlandoBloom.png', 'Im_MattDamon.png', 'Im_GeorgeClooney.png', 'Im_JustinTimberlake.png', 'Im_BradPitt.png'],same,1,0.4831782000255771,37,0,
EVES0409,train,inv,30,pos30_id6_im18.bmp_pos30_id6_im19.bmp,['Im_RyanGosling.png', 'Im_ElijahWood.png', 'Im_LeonardoDiCaprio.png', 'Im_RobertDowneyJr.png', 'Im_BenAffleck.png', 'Im_OrlandoBloom.png', 'Im_MattDamon.png', 'Im_GeorgeClooney.png', 'Im_JustinTimberlake.png', 'Im_BradPitt.png'],same,1,0.4498412999964785,38,0,
EVES0409,train,inv,fs,posfs_id13_im10.bmp_posfs_id18_im19.bmp,['Im_RyanGosling.png', 'Im_ElijahWood.png', 'Im_LeonardoDiCaprio.png', 'Im_RobertDowneyJr.png', 'Im_BenAffleck.png', 'Im_OrlandoBloom.png', 'Im_MattDamon.png', 'Im_GeorgeClooney.png', 'Im_JustinTimberlake.png', 'Im_BradPitt.png'],diff,1,0.8915589000098407,39,0,
EVES0409,train,neg,30,neg30_id7_im15.bmp_neg30_id7_im14.bmp,['Im_RyanGosling.png', 'Im_ElijahWood.png', 'Im_LeonardoDiCaprio.png', 'Im_RobertDowneyJr.png', 'Im_BenAffleck.png', 'Im_OrlandoBloom.png', 'Im_MattDamon.png', 'Im_GeorgeClooney.png', 'Im_JustinTimberlake.png', 'Im_BradPitt.png'],diff,0,1.325405800016597,0,92.85714285714286,
EVES0409,train,neg,90,neg90_id16_im2.bmp_neg90_id3_im8.bmp,['Im_RyanGosling.png', 'Im_ElijahWood.png', 'Im_LeonardoDiCaprio.png', 'Im_RobertDowneyJr.png', 'Im_BenAffleck.png', 'Im_OrlandoBloom.png', 'Im_MattDamon.png', 'Im_GeorgeClooney.png', 'Im_JustinTimberlake.png', 'Im_BradPitt.png'],same,0,0.8250009000184946,0,92.85714285714286,
EVES0409,train,neg,fs,negfs_id13_im10.bmp_negfs_id18_im19.bmp,['Im_RyanGosling.png', 'Im_ElijahWood.png', 'Im_LeonardoDiCaprio.png', 'Im_RobertDowneyJr.png', 'Im_BenAffleck.png', 'Im_OrlandoBloom.png', 'Im_MattDamon.png', 'Im_GeorgeClooney.png', 'Im_JustinTimberlake.png', 'Im_BradPitt.png'],diff,1,0.6501358000095934,1,92.85714285714286,
EVES0409,train,neg,0,neg0_id14_im16.bmp_neg0_id14_im24.bmp,['Im_RyanGosling.png', 'Im_ElijahWood.png', 'Im_LeonardoDiCaprio.png', 'Im_RobertDowneyJr.png', 'Im_BenAffleck.png', 'Im_OrlandoBloom.png', 'Im_MattDamon.png', 'Im_GeorgeClooney.png', 'Im_JustinTimberlake.png', 'Im_BradPitt.png'],diff,0,0.8668797000136692,1,92.85714285714286,
EVES0409,train,neg,0,neg0_id1_im24.bmp_neg0_id6_im18.bmp,['Im_RyanGosling.png', 'Im_ElijahWood.png', 'Im_LeonardoDiCaprio.png', 'Im_RobertDowneyJr.png', 'Im_BenAffleck.png', 'Im_OrlandoBloom.png', 'Im_MattDamon.png', 'Im_GeorgeClooney.png', 'Im_JustinTimberlake.png', 'Im_BradPitt.png'],diff,1,0.5169077000173274,2,92.85714285714286,
EVES0409,train,neg,90,neg90_id18_im18.bmp_neg90_id7_im26.bmp,['Im_RyanGosling.png', 'Im_ElijahWood.png', 'Im_LeonardoDiCaprio.png', 'Im_RobertDowneyJr.png', 'Im_BenAffleck.png', 'Im_OrlandoBloom.png', 'Im_MattDamon.png', 'Im_GeorgeClooney.png', 'Im_JustinTimberlake.png', 'Im_BradPitt.png'],diff,1,0.7417950000090059,3,92.85714285714286,
EVES0409,train,neg,60,neg60_id13_im10.bmp_neg60_id14_im18.bmp,['Im_RyanGosling.png', 'Im_ElijahWood.png', 'Im_LeonardoDiCaprio.png', 'Im_RobertDowneyJr.png', 'Im_BenAffleck.png', 'Im_OrlandoBloom.png', 'Im_MattDamon.png', 'Im_GeorgeClooney.png', 'Im_JustinTimberlake.png', 'Im_BradPitt.png'],same,0,0.9669039000000339,3,92.85714285714286,
EVES0409,train,neg,120,neg120_id13_im15.bmp_neg120_id13_im10.bmp,['Im_RyanGosling.png', 'Im_ElijahWood.png', 'Im_LeonardoDiCaprio.png', 'Im_RobertDowneyJr.png', 'Im_BenAffleck.png', 'Im_OrlandoBloom.png', 'Im_MattDamon.png', 'Im_GeorgeClooney.png', 'Im_JustinTimberlake.png', 'Im_BradPitt.png'],same,1,0.7753291000262834,4,92.85714285714286,
EVES0409,train,neg,fs,negfs_id14_im24.bmp_negfs_id18_im19.bmp,['Im_RyanGosling.png', 'Im_ElijahWood.png', 'Im_LeonardoDiCaprio.png', 'Im_RobertDowneyJr.png', 'Im_BenAffleck.png', 'Im_OrlandoBloom.png', 'Im_MattDamon.png', 'Im_GeorgeClooney.png', 'Im_JustinTimberlake.png', 'Im_BradPitt.png'],diff,1,0.40004869998665527,5,92.85714285714286,
EVES0409,train,neg,120,neg120_id13_im10.bmp_neg120_id14_im18.bmp,['Im_RyanGosling.png', 'Im_ElijahWood.png', 'Im_LeonardoDiCaprio.png', 'Im_RobertDowneyJr.png', 'Im_BenAffleck.png', 'Im_OrlandoBloom.png', 'Im_MattDamon.png', 'Im_GeorgeClooney.png', 'Im_JustinTimberlake.png', 'Im_BradPitt.png'],same,0,0.9002408000233117,5,92.85714285714286,
EVES0409,train,neg,30,neg30_id14_im18.bmp_neg30_id13_im10.bmp,['Im_RyanGosling.png', 'Im_ElijahWood.png', 'Im_LeonardoDiCaprio.png', 'Im_RobertDowneyJr.png', 'Im_BenAffleck.png', 'Im_OrlandoBloom.png', 'Im_MattDamon.png', 'Im_GeorgeClooney.png', 'Im_JustinTimberlake.png', 'Im_BradPitt.png'],same,0,0.691781000001356,5,92.85714285714286,
EVES0409,train,neg,60,neg60_id18_im19.bmp_neg60_id13_im10.bmp,['Im_RyanGosling.png', 'Im_ElijahWood.png', 'Im_LeonardoDiCaprio.png', 'Im_RobertDowneyJr.png', 'Im_BenAffleck.png', 'Im_OrlandoBloom.png', 'Im_MattDamon.png', 'Im_GeorgeClooney.png', 'Im_JustinTimberlake.png', 'Im_BradPitt.png'],diff,1,1.0499176000012085,6,92.85714285714286,
EVES0409,train,neg,150,neg150_id16_im19.bmp_neg150_id16_im3.bmp,['Im_RyanGosling.png', 'Im_ElijahWood.png', 'Im_LeonardoDiCaprio.png', 'Im_RobertDowneyJr.png', 'Im_BenAffleck.png', 'Im_OrlandoBloom.png', 'Im_MattDamon.png', 'Im_GeorgeClooney.png', 'Im_JustinTimberlake.png', 'Im_BradPitt.png'],same,1,0.7085026000277139,7,92.85714285714286,
EVES0409,train,neg,150,neg150_id3_im6.bmp_neg150_id7_im14.bmp,['Im_RyanGosling.png', 'Im_ElijahWood.png', 'Im_LeonardoDiCaprio.png', 'Im_RobertDowneyJr.png', 'Im_BenAffleck.png', 'Im_OrlandoBloom.png', 'Im_MattDamon.png', 'Im_GeorgeClooney.png', 'Im_JustinTimberlake.png', 'Im_BradPitt.png'],diff,1,0.5585876000113785,8,92.85714285714286,
EVES0409,train,inv,90,pos90_id16_im3.bmp_pos90_id3_im8.bmp,['Im_RyanGosling.png', 'Im_ElijahWood.png', 'Im_LeonardoDiCaprio.png', 'Im_RobertDowneyJr.png', 'Im_BenAffleck.png', 'Im_OrlandoBloom.png', 'Im_MattDamon.png', 'Im_GeorgeClooney.png', 'Im_JustinTimberlake.png', 'Im_BradPitt.png'],diff,1,0.9004011000215542,9,92.85714285714286,
EVES0409,train,inv,120,pos120_id16_im3.bmp_pos120_id16_im2.bmp,['Im_RyanGosling.png', 'Im_ElijahWood.png', 'Im_LeonardoDiCaprio.png', 'Im_RobertDowneyJr.png', 'Im_BenAffleck.png', 'Im_OrlandoBloom.png', 'Im_MattDamon.png', 'Im_GeorgeClooney.png', 'Im_JustinTimberlake.png', 'Im_BradPitt.png'],same,1,0.9752531000121962,10,92.85714285714286,
EVES0409,train,inv,fs,posfs_id18_im11.bmp_posfs_id3_im17.bmp,['Im_RyanGosling.png', 'Im_ElijahWood.png', 'Im_LeonardoDiCaprio.png', 'Im_RobertDowneyJr.png', 'Im_BenAffleck.png', 'Im_OrlandoBloom.png', 'Im_MattDamon.png', 'Im_GeorgeClooney.png', 'Im_JustinTimberlake.png', 'Im_BradPitt.png'],diff,1,0.4083667999948375,11,92.85714285714286,
EVES0409,train,inv,90,pos90_id13_im29.bmp_pos90_id20_im12.bmp,['Im_RyanGosling.png', 'Im_ElijahWood.png', 'Im_LeonardoDiCaprio.png', 'Im_RobertDowneyJr.png', 'Im_BenAffleck.png', 'Im_OrlandoBloom.png', 'Im_MattDamon.png', 'Im_GeorgeClooney.png', 'Im_JustinTimberlake.png', 'Im_BradPitt.png'],diff,1,0.6418673000007402,12,92.85714285714286,
EVES0409,train,inv,0,pos0_id7_im14.bmp_pos0_id7_im26.bmp,['Im_RyanGosling.png', 'Im_ElijahWood.png', 'Im_LeonardoDiCaprio.png', 'Im_RobertDowneyJr.png', 'Im_BenAffleck.png', 'Im_OrlandoBloom.png', 'Im_MattDamon.png', 'Im_GeorgeClooney.png', 'Im_JustinTimberlake.png', 'Im_BradPitt.png'],diff,0,1.1003872999863233,12,92.85714285714286,
EVES0409,train,inv,120,pos120_id13_im15.bmp_pos120_id13_im10.bmp,['Im_RyanGosling.png', 'Im_ElijahWood.png', 'Im_LeonardoDiCaprio.png', 'Im_RobertDowneyJr.png', 'Im_BenAffleck.png', 'Im_OrlandoBloom.png', 'Im_MattDamon.png', 'Im_GeorgeClooney.png', 'Im_JustinTimberlake.png', 'Im_BradPitt.png'],same,1,0.4206267999834381,13,92.85714285714286,
EVES0409,train,inv,fs,posfs_id7_im26.bmp_posfs_id7_im15.bmp,['Im_RyanGosling.png', 'Im_ElijahWood.png', 'Im_LeonardoDiCaprio.png', 'Im_RobertDowneyJr.png', 'Im_BenAffleck.png', 'Im_OrlandoBloom.png', 'Im_MattDamon.png', 'Im_GeorgeClooney.png', 'Im_JustinTimberlake.png', 'Im_BradPitt.png'],same,1,0.6582398999889847,14,92.85714285714286,
EVES0409,train,inv,150,pos150_id10_im17.bmp_pos150_id10_im18.bmp,['Im_RyanGosling.png', 'Im_ElijahWood.png', 'Im_LeonardoDiCaprio.png', 'Im_RobertDowneyJr.png', 'Im_BenAffleck.png', 'Im_OrlandoBloom.png', 'Im_MattDamon.png', 'Im_GeorgeClooney.png', 'Im_JustinTimberlake.png', 'Im_BradPitt.png'],same,1,1.7581937999930233,15,92.85714285714286,
EVES0409,train,inv,150,pos150_id18_im19.bmp_pos150_id18_im11.bmp,['Im_RyanGosling.png', 'Im_ElijahWood.png', 'Im_LeonardoDiCaprio.png', 'Im_RobertDowneyJr.png', 'Im_BenAffleck.png', 'Im_OrlandoBloom.png', 'Im_MattDamon.png', 'Im_GeorgeClooney.png', 'Im_JustinTimberlake.png', 'Im_BradPitt.png'],same,1,0.4083747999975458,16,92.85714285714286,
EVES0409,train,inv,0,pos0_id20_im3.bmp_pos0_id10_im17.bmp,['Im_RyanGosling.png', 'Im_ElijahWood.png', 'Im_LeonardoDiCaprio.png', 'Im_RobertDowneyJr.png', 'Im_BenAffleck.png', 'Im_OrlandoBloom.png', 'Im_MattDamon.png', 'Im_GeorgeClooney.png', 'Im_JustinTimberlake.png', 'Im_BradPitt.png'],same,0,0.558422200003406,16,92.85714285714286,
EVES0409,train,inv,30,pos30_id6_im19.bmp_pos30_id6_im12.bmp,['Im_RyanGosling.png', 'Im_ElijahWood.png', 'Im_LeonardoDiCaprio.png', 'Im_RobertDowneyJr.png', 'Im_BenAffleck.png', 'Im_OrlandoBloom.png', 'Im_MattDamon.png', 'Im_GeorgeClooney.png', 'Im_JustinTimberlake.png', 'Im_BradPitt.png'],diff,0,4.067192999995314,16,92.85714285714286,
EVES0409,train,inv,30,pos30_id7_im15.bmp_pos30_id7_im14.bmp,['Im_RyanGosling.png', 'Im_ElijahWood.png', 'Im_LeonardoDiCaprio.png', 'Im_RobertDowneyJr.png', 'Im_BenAffleck.png', 'Im_OrlandoBloom.png', 'Im_MattDamon.png', 'Im_GeorgeClooney.png', 'Im_JustinTimberlake.png', 'Im_BradPitt.png'],same,1,0.8001565000158735,17,92.85714285714286,
EVES0409,train,inv,60,pos60_id16_im2.bmp_pos60_id3_im8.bmp,['Im_RyanGosling.png', 'Im_ElijahWood.png', 'Im_LeonardoDiCaprio.png', 'Im_RobertDowneyJr.png', 'Im_BenAffleck.png', 'Im_OrlandoBloom.png', 'Im_MattDamon.png', 'Im_GeorgeClooney.png', 'Im_JustinTimberlake.png', 'Im_BradPitt.png'],diff,1,1.466597799997544,18,92.85714285714286,
EVES0409,train,inv,60,pos60_id13_im10.bmp_pos60_id13_im15.bmp,['Im_RyanGosling.png', 'Im_ElijahWood.png', 'Im_LeonardoDiCaprio.png', 'Im_RobertDowneyJr.png', 'Im_BenAffleck.png', 'Im_OrlandoBloom.png', 'Im_MattDamon.png', 'Im_GeorgeClooney.png', 'Im_JustinTimberlake.png', 'Im_BradPitt.png'],same,1,0.40836400000262074,19,92.85714285714286,
EVES0409,train,pos,90,pos90_id14_im24.bmp_pos90_id14_im16.bmp,['Im_RyanGosling.png', 'Im_ElijahWood.png', 'Im_LeonardoDiCaprio.png', 'Im_RobertDowneyJr.png', 'Im_BenAffleck.png', 'Im_OrlandoBloom.png', 'Im_MattDamon.png', 'Im_GeorgeClooney.png', 'Im_JustinTimberlake.png', 'Im_BradPitt.png'],diff,0,1.575246899999911,19,92.85714285714286,
EVES0409,train,pos,60,pos60_id3_im17.bmp_pos60_id3_im6.bmp,['Im_RyanGosling.png', 'Im_ElijahWood.png', 'Im_LeonardoDiCaprio.png', 'Im_RobertDowneyJr.png', 'Im_BenAffleck.png', 'Im_OrlandoBloom.png', 'Im_MattDamon.png', 'Im_GeorgeClooney.png', 'Im_JustinTimberlake.png', 'Im_BradPitt.png'],same,1,0.44980699999723583,20,92.85714285714286,
EVES0409,train,pos,120,pos120_id6_im19.bmp_pos120_id6_im18.bmp,['Im_RyanGosling.png', 'Im_ElijahWood.png', 'Im_LeonardoDiCaprio.png', 'Im_RobertDowneyJr.png', 'Im_BenAffleck.png', 'Im_OrlandoBloom.png', 'Im_MattDamon.png', 'Im_GeorgeClooney.png', 'Im_JustinTimberlake.png', 'Im_BradPitt.png'],diff,0,2.35009020002326,20,92.85714285714286,
EVES0409,train,pos,0,pos0_id18_im11.bmp_pos0_id3_im17.bmp,['Im_RyanGosling.png', 'Im_ElijahWood.png', 'Im_LeonardoDiCaprio.png', 'Im_RobertDowneyJr.png', 'Im_BenAffleck.png', 'Im_OrlandoBloom.png', 'Im_MattDamon.png', 'Im_GeorgeClooney.png', 'Im_JustinTimberlake.png', 'Im_BradPitt.png'],diff,1,0.5002059999969788,21,92.85714285714286,
EVES0409,train,pos,30,pos30_id6_im12.bmp_pos30_id10_im1.bmp,['Im_RyanGosling.png', 'Im_ElijahWood.png', 'Im_LeonardoDiCaprio.png', 'Im_RobertDowneyJr.png', 'Im_BenAffleck.png', 'Im_OrlandoBloom.png', 'Im_MattDamon.png', 'Im_GeorgeClooney.png', 'Im_JustinTimberlake.png', 'Im_BradPitt.png'],diff,1,0.4167103999934625,22,92.85714285714286,
EVES0409,train,pos,0,pos0_id6_im12.bmp_pos0_id10_im1.bmp,['Im_RyanGosling.png', 'Im_ElijahWood.png', 'Im_LeonardoDiCaprio.png', 'Im_RobertDowneyJr.png', 'Im_BenAffleck.png', 'Im_OrlandoBloom.png', 'Im_MattDamon.png', 'Im_GeorgeClooney.png', 'Im_JustinTimberlake.png', 'Im_BradPitt.png'],diff,1,2.6500341999926604,23,92.85714285714286,
EVES0409,train,pos,90,pos90_id13_im10.bmp_pos90_id18_im19.bmp,['Im_RyanGosling.png', 'Im_ElijahWood.png', 'Im_LeonardoDiCaprio.png', 'Im_RobertDowneyJr.png', 'Im_BenAffleck.png', 'Im_OrlandoBloom.png', 'Im_MattDamon.png', 'Im_GeorgeClooney.png', 'Im_JustinTimberlake.png', 'Im_BradPitt.png'],diff,1,0.8999714000092354,24,92.85714285714286,
EVES0409,train,pos,120,pos120_id13_im29.bmp_pos120_id10_im18.bmp,['Im_RyanGosling.png', 'Im_ElijahWood.png', 'Im_LeonardoDiCaprio.png', 'Im_RobertDowneyJr.png', 'Im_BenAffleck.png', 'Im_OrlandoBloom.png', 'Im_MattDamon.png', 'Im_GeorgeClooney.png', 'Im_JustinTimberlake.png', 'Im_BradPitt.png'],diff,1,0.4166850999754388,25,92.85714285714286,
EVES0409,train,pos,fs,posfs_id18_im18.bmp_posfs_id18_im19.bmp,['Im_RyanGosling.png', 'Im_ElijahWood.png', 'Im_LeonardoDiCaprio.png', 'Im_RobertDowneyJr.png', 'Im_BenAffleck.png', 'Im_OrlandoBloom.png', 'Im_MattDamon.png', 'Im_GeorgeClooney.png', 'Im_JustinTimberlake.png', 'Im_BradPitt.png'],same,1,0.4833275999990292,26,92.85714285714286,
EVES0409,train,pos,30,pos30_id3_im6.bmp_pos30_id3_im17.bmp,['Im_RyanGosling.png', 'Im_ElijahWood.png', 'Im_LeonardoDiCaprio.png', 'Im_RobertDowneyJr.png', 'Im_BenAffleck.png', 'Im_OrlandoBloom.png', 'Im_MattDamon.png', 'Im_GeorgeClooney.png', 'Im_JustinTimberlake.png', 'Im_BradPitt.png'],same,1,0.5165581000037491,27,92.85714285714286,
EVES0409,train,pos,60,pos60_id6_im19.bmp_pos60_id6_im18.bmp,['Im_RyanGosling.png', 'Im_ElijahWood.png', 'Im_LeonardoDiCaprio.png', 'Im_RobertDowneyJr.png', 'Im_BenAffleck.png', 'Im_OrlandoBloom.png', 'Im_MattDamon.png', 'Im_GeorgeClooney.png', 'Im_JustinTimberlake.png', 'Im_BradPitt.png'],same,1,0.5084882999944966,28,92.85714285714286,
EVES0409,train,pos,150,pos150_id10_im1.bmp_pos150_id10_im18.bmp,['Im_RyanGosling.png', 'Im_ElijahWood.png', 'Im_LeonardoDiCaprio.png', 'Im_RobertDowneyJr.png', 'Im_BenAffleck.png', 'Im_OrlandoBloom.png', 'Im_MattDamon.png', 'Im_GeorgeClooney.png', 'Im_JustinTimberlake.png', 'Im_BradPitt.png'],same,1,0.4083577999845147,29,92.85714285714286,
EVES0409,train,pos,fs,posfs_id20_im3.bmp_posfs_id10_im17.bmp,['Im_RyanGosling.png', 'Im_ElijahWood.png', 'Im_LeonardoDiCaprio.png', 'Im_RobertDowneyJr.png', 'Im_BenAffleck.png', 'Im_OrlandoBloom.png', 'Im_MattDamon.png', 'Im_GeorgeClooney.png', 'Im_JustinTimberlake.png', 'Im_BradPitt.png'],diff,1,0.4168731999816373,30,92.85714285714286,
EVES0409,train,pos,150,pos150_id13_im10.bmp_pos150_id18_im19.bmp,['Im_RyanGosling.png', 'Im_ElijahWood.png', 'Im_LeonardoDiCaprio.png', 'Im_RobertDowneyJr.png', 'Im_BenAffleck.png', 'Im_OrlandoBloom.png', 'Im_MattDamon.png', 'Im_GeorgeClooney.png', 'Im_JustinTimberlake.png', 'Im_BradPitt.png'],same,0,1.983579199993983,30,92.85714285714286,
EVES0409,train,neg,0,neg0_id1_im21.bmp_neg0_id1_im4.bmp,['Im_RyanGosling.png', 'Im_ElijahWood.png', 'Im_LeonardoDiCaprio.png', 'Im_RobertDowneyJr.png', 'Im_BenAffleck.png', 'Im_OrlandoBloom.png', 'Im_MattDamon.png', 'Im_GeorgeClooney.png', 'Im_JustinTimberlake.png', 'Im_BradPitt.png'],same,1,1.0166257000237238,1,71.42857142857143,
EVES0409,train,neg,90,neg90_id14_im16.bmp_neg90_id1_im21.bmp,['Im_RyanGosling.png', 'Im_ElijahWood.png', 'Im_LeonardoDiCaprio.png', 'Im_RobertDowneyJr.png', 'Im_BenAffleck.png', 'Im_OrlandoBloom.png', 'Im_MattDamon.png', 'Im_GeorgeClooney.png', 'Im_JustinTimberlake.png', 'Im_BradPitt.png'],diff,1,0.5667918000253849,2,71.42857142857143,
EVES0409,train,neg,150,neg150_id10_im17.bmp_neg150_id16_im2.bmp,['Im_RyanGosling.png', 'Im_ElijahWood.png', 'Im_LeonardoDiCaprio.png', 'Im_RobertDowneyJr.png', 'Im_BenAffleck.png', 'Im_OrlandoBloom.png', 'Im_MattDamon.png', 'Im_GeorgeClooney.png', 'Im_JustinTimberlake.png', 'Im_BradPitt.png'],diff,1,0.5000492999970447,3,71.42857142857143,
EVES0409,train,neg,90,neg90_id6_im19.bmp_neg90_id1_im24.bmp,['Im_RyanGosling.png', 'Im_ElijahWood.png', 'Im_LeonardoDiCaprio.png', 'Im_RobertDowneyJr.png', 'Im_BenAffleck.png', 'Im_OrlandoBloom.png', 'Im_MattDamon.png', 'Im_GeorgeClooney.png', 'Im_JustinTimberlake.png', 'Im_BradPitt.png'],diff,1,1.3416607000108343,4,71.42857142857143,
EVES0409,train,neg,30,neg30_id1_im24.bmp_neg30_id1_im21.bmp,['Im_RyanGosling.png', 'Im_ElijahWood.png', 'Im_LeonardoDiCaprio.png', 'Im_RobertDowneyJr.png', 'Im_BenAffleck.png', 'Im_OrlandoBloom.png', 'Im_MattDamon.png', 'Im_GeorgeClooney.png', 'Im_JustinTimberlake.png', 'Im_BradPitt.png'],same,1,0.4918421999900602,5,71.42857142857143,
EVES0409,train,neg,60,neg60_id3_im8.bmp_neg60_id3_im17.bmp,['Im_RyanGosling.png', 'Im_ElijahWood.png', 'Im_LeonardoDiCaprio.png', 'Im_RobertDowneyJr.png', 'Im_BenAffleck.png', 'Im_OrlandoBloom.png', 'Im_MattDamon.png', 'Im_GeorgeClooney.png', 'Im_JustinTimberlake.png', 'Im_BradPitt.png'],same,1,0.8834513000037987,6,71.42857142857143,
EVES0409,train,neg,fs,negfs_id10_im1.bmp_negfs_id10_im17.bmp,['Im_RyanGosling.png', 'Im_ElijahWood.png', 'Im_LeonardoDiCaprio.png', 'Im_RobertDowneyJr.png', 'Im_BenAffleck.png', 'Im_OrlandoBloom.png', 'Im_MattDamon.png', 'Im_GeorgeClooney.png', 'Im_JustinTimberlake.png', 'Im_BradPitt.png'],same,1,1.7998989999759942,7,71.42857142857143,
EVES0409,train,neg,fs,negfs_id3_im17.bmp_negfs_id18_im11.bmp,['Im_RyanGosling.png', 'Im_ElijahWood.png', 'Im_LeonardoDiCaprio.png', 'Im_RobertDowneyJr.png', 'Im_BenAffleck.png', 'Im_OrlandoBloom.png', 'Im_MattDamon.png', 'Im_GeorgeClooney.png', 'Im_JustinTimberlake.png', 'Im_BradPitt.png'],diff,1,0.5000809000048321,8,71.42857142857143,
EVES0409,train,neg,120,neg120_id16_im3.bmp_neg120_id16_im2.bmp,['Im_RyanGosling.png', 'Im_ElijahWood.png', 'Im_LeonardoDiCaprio.png', 'Im_RobertDowneyJr.png', 'Im_BenAffleck.png', 'Im_OrlandoBloom.png', 'Im_MattDamon.png', 'Im_GeorgeClooney.png', 'Im_JustinTimberlake.png', 'Im_BradPitt.png'],diff,0,0.6502994999755174,8,71.42857142857143,
EVES0409,train,neg,120,neg120_id6_im19.bmp_neg120_id6_im18.bmp,['Im_RyanGosling.png', 'Im_ElijahWood.png', 'Im_LeonardoDiCaprio.png', 'Im_RobertDowneyJr.png', 'Im_BenAffleck.png', 'Im_OrlandoBloom.png', 'Im_MattDamon.png', 'Im_GeorgeClooney.png', 'Im_JustinTimberlake.png', 'Im_BradPitt.png'],same,1,0.425117600010708,9,71.42857142857143,
EVES0409,train,neg,30,neg30_id16_im2.bmp_neg30_id10_im17.bmp,['Im_RyanGosling.png', 'Im_ElijahWood.png', 'Im_LeonardoDiCaprio.png', 'Im_RobertDowneyJr.png', 'Im_BenAffleck.png', 'Im_OrlandoBloom.png', 'Im_MattDamon.png', 'Im_GeorgeClooney.png', 'Im_JustinTimberlake.png', 'Im_BradPitt.png'],diff,1,0.4000303999928292,10,71.42857142857143,
EVES0409,train,neg,60,neg60_id6_im18.bmp_neg60_id14_im18.bmp,['Im_RyanGosling.png', 'Im_ElijahWood.png', 'Im_LeonardoDiCaprio.png', 'Im_RobertDowneyJr.png', 'Im_BenAffleck.png', 'Im_OrlandoBloom.png', 'Im_MattDamon.png', 'Im_GeorgeClooney.png', 'Im_JustinTimberlake.png', 'Im_BradPitt.png'],diff,1,1.3166971000027843,11,71.42857142857143,
EVES0409,train,neg,150,neg150_id16_im3.bmp_neg150_id20_im3.bmp,['Im_RyanGosling.png', 'Im_ElijahWood.png', 'Im_LeonardoDiCaprio.png', 'Im_RobertDowneyJr.png', 'Im_BenAffleck.png', 'Im_OrlandoBloom.png', 'Im_MattDamon.png', 'Im_GeorgeClooney.png', 'Im_JustinTimberlake.png', 'Im_BradPitt.png'],diff,1,0.6854196999920532,12,71.42857142857143,
EVES0409,train,neg,0,neg0_id18_im18.bmp_neg0_id7_im15.bmp,['Im_RyanGosling.png', 'Im_ElijahWood.png', 'Im_LeonardoDiCaprio.png', 'Im_RobertDowneyJr.png', 'Im_BenAffleck.png', 'Im_OrlandoBloom.png', 'Im_MattDamon.png', 'Im_GeorgeClooney.png', 'Im_JustinTimberlake.png', 'Im_BradPitt.png'],diff,1,1.4503435999795329,13,71.42857142857143,
EVES0409,train,pos,150,pos150_id7_im26.bmp_pos150_id18_im18.bmp,['Im_RyanGosling.png', 'Im_ElijahWood.png', 'Im_LeonardoDiCaprio.png', 'Im_RobertDowneyJr.png', 'Im_BenAffleck.png', 'Im_OrlandoBloom.png', 'Im_MattDamon.png', 'Im_GeorgeClooney.png', 'Im_JustinTimberlake.png', 'Im_BradPitt.png'],diff,1,2.266642300004605,14,71.42857142857143,
EVES0409,train,pos,120,pos120_id6_im12.bmp_pos120_id3_im17.bmp,['Im_RyanGosling.png', 'Im_ElijahWood.png', 'Im_LeonardoDiCaprio.png', 'Im_RobertDowneyJr.png', 'Im_BenAffleck.png', 'Im_OrlandoBloom.png', 'Im_MattDamon.png', 'Im_GeorgeClooney.png', 'Im_JustinTimberlake.png', 'Im_BradPitt.png'],diff,1,0.41675189998932183,15,71.42857142857143,
EVES0409,train,pos,30,pos30_id18_im19.bmp_pos30_id14_im24.bmp,['Im_RyanGosling.png', 'Im_ElijahWood.png', 'Im_LeonardoDiCaprio.png', 'Im_RobertDowneyJr.png', 'Im_BenAffleck.png', 'Im_OrlandoBloom.png', 'Im_MattDamon.png', 'Im_GeorgeClooney.png', 'Im_JustinTimberlake.png', 'Im_BradPitt.png'],diff,1,0.4082023999944795,16,71.42857142857143,
EVES0409,train,pos,90,pos90_id1_im4.bmp_pos90_id1_im21.bmp,['Im_RyanGosling.png', 'Im_ElijahWood.png', 'Im_LeonardoDiCaprio.png', 'Im_RobertDowneyJr.png', 'Im_BenAffleck.png', 'Im_OrlandoBloom.png', 'Im_MattDamon.png', 'Im_GeorgeClooney.png', 'Im_JustinTimberlake.png', 'Im_BradPitt.png'],diff,0,0.6836046000244096,16,71.42857142857143,
EVES0409,train,pos,90,pos90_id18_im11.bmp_pos90_id18_im19.bmp,['Im_RyanGosling.png', 'Im_ElijahWood.png', 'Im_LeonardoDiCaprio.png', 'Im_RobertDowneyJr.png', 'Im_BenAffleck.png', 'Im_OrlandoBloom.png', 'Im_MattDamon.png', 'Im_GeorgeClooney.png', 'Im_JustinTimberlake.png', 'Im_BradPitt.png'],same,1,1.7332992000156082,17,71.42857142857143,
EVES0409,train,pos,30,pos30_id14_im18.bmp_pos30_id14_im24.bmp,['Im_RyanGosling.png', 'Im_ElijahWood.png', 'Im_LeonardoDiCaprio.png', 'Im_RobertDowneyJr.png', 'Im_BenAffleck.png', 'Im_OrlandoBloom.png', 'Im_MattDamon.png', 'Im_GeorgeClooney.png', 'Im_JustinTimberlake.png', 'Im_BradPitt.png'],diff,0,2.0670429000165313,17,71.42857142857143,
EVES0409,train,pos,120,pos120_id16_im3.bmp_pos120_id3_im8.bmp,['Im_RyanGosling.png', 'Im_ElijahWood.png', 'Im_LeonardoDiCaprio.png', 'Im_RobertDowneyJr.png', 'Im_BenAffleck.png', 'Im_OrlandoBloom.png', 'Im_MattDamon.png', 'Im_GeorgeClooney.png', 'Im_JustinTimberlake.png', 'Im_BradPitt.png'],diff,1,0.5833566999936011,18,71.42857142857143,
EVES0409,train,pos,fs,posfs_id10_im1.bmp_posfs_id6_im12.bmp,['Im_RyanGosling.png', 'Im_ElijahWood.png', 'Im_LeonardoDiCaprio.png', 'Im_RobertDowneyJr.png', 'Im_BenAffleck.png', 'Im_OrlandoBloom.png', 'Im_MattDamon.png', 'Im_GeorgeClooney.png', 'Im_JustinTimberlake.png', 'Im_BradPitt.png'],diff,1,1.3501129999931436,19,71.42857142857143,
EVES0409,train,pos,0,pos0_id16_im3.bmp_pos0_id20_im3.bmp,['Im_RyanGosling.png', 'Im_ElijahWood.png', 'Im_LeonardoDiCaprio.png', 'Im_RobertDowneyJr.png', 'Im_BenAffleck.png', 'Im_OrlandoBloom.png', 'Im_MattDamon.png', 'Im_GeorgeClooney.png', 'Im_JustinTimberlake.png', 'Im_BradPitt.png'],same,0,1.283448199974373,19,71.42857142857143,
EVES0409,train,pos,150,pos150_id3_im6.bmp_pos150_id7_im14.bmp,['Im_RyanGosling.png', 'Im_ElijahWood.png', 'Im_LeonardoDiCaprio.png', 'Im_RobertDowneyJr.png', 'Im_BenAffleck.png', 'Im_OrlandoBloom.png', 'Im_MattDamon.png', 'Im_GeorgeClooney.png', 'Im_JustinTimberlake.png', 'Im_BradPitt.png'],diff,1,0.46768339999835007,20,71.42857142857143,
EVES0409,train,pos,0,pos0_id16_im2.bmp_pos0_id16_im3.bmp,['Im_RyanGosling.png', 'Im_ElijahWood.png', 'Im_LeonardoDiCaprio.png', 'Im_RobertDowneyJr.png', 'Im_BenAffleck.png', 'Im_OrlandoBloom.png', 'Im_MattDamon.png', 'Im_GeorgeClooney.png', 'Im_JustinTimberlake.png', 'Im_BradPitt.png'],same,1,1.0000433000095654,21,71.42857142857143,
EVES0409,train,pos,60,pos60_id14_im16.bmp_pos60_id1_im21.bmp,['Im_RyanGosling.png', 'Im_ElijahWood.png', 'Im_LeonardoDiCaprio.png', 'Im_RobertDowneyJr.png', 'Im_BenAffleck.png', 'Im_OrlandoBloom.png', 'Im_MattDamon.png', 'Im_GeorgeClooney.png', 'Im_JustinTimberlake.png', 'Im_BradPitt.png'],diff,1,0.4166620000032708,22,71.42857142857143,
EVES0409,train,pos,fs,posfs_id20_im3.bmp_posfs_id20_im12.bmp,['Im_RyanGosling.png', 'Im_ElijahWood.png', 'Im_LeonardoDiCaprio.png', 'Im_RobertDowneyJr.png', 'Im_BenAffleck.png', 'Im_OrlandoBloom.png', 'Im_MattDamon.png', 'Im_GeorgeClooney.png', 'Im_JustinTimberlake.png', 'Im_BradPitt.png'],same,1,0.6500433000037447,23,71.42857142857143,
EVES0409,train,pos,60,pos60_id14_im24.bmp_pos60_id7_im14.bmp,['Im_RyanGosling.png', 'Im_ElijahWood.png', 'Im_LeonardoDiCaprio.png', 'Im_RobertDowneyJr.png', 'Im_BenAffleck.png', 'Im_OrlandoBloom.png', 'Im_MattDamon.png', 'Im_GeorgeClooney.png', 'Im_JustinTimberlake.png', 'Im_BradPitt.png'],diff,1,1.3501987000054214,24,71.42857142857143,
EVES0409,train,inv,fs,posfs_id13_im29.bmp_posfs_id10_im18.bmp,['Im_RyanGosling.png', 'Im_ElijahWood.png', 'Im_LeonardoDiCaprio.png', 'Im_RobertDowneyJr.png', 'Im_BenAffleck.png', 'Im_OrlandoBloom.png', 'Im_MattDamon.png', 'Im_GeorgeClooney.png', 'Im_JustinTimberlake.png', 'Im_BradPitt.png'],diff,1,1.3663630999799352,25,71.42857142857143,
EVES0409,train,inv,120,pos120_id6_im12.bmp_pos120_id10_im1.bmp,['Im_RyanGosling.png', 'Im_ElijahWood.png', 'Im_LeonardoDiCaprio.png', 'Im_RobertDowneyJr.png', 'Im_BenAffleck.png', 'Im_OrlandoBloom.png', 'Im_MattDamon.png', 'Im_GeorgeClooney.png', 'Im_JustinTimberlake.png', 'Im_BradPitt.png'],diff,1,0.4918793000106234,26,71.42857142857143,
EVES0409,train,inv,90,pos90_id18_im18.bmp_pos90_id7_im26.bmp,['Im_RyanGosling.png', 'Im_ElijahWood.png', 'Im_LeonardoDiCaprio.png', 'Im_RobertDowneyJr.png', 'Im_BenAffleck.png', 'Im_OrlandoBloom.png', 'Im_MattDamon.png', 'Im_GeorgeClooney.png', 'Im_JustinTimberlake.png', 'Im_BradPitt.png'],diff,1,0.9835087999817915,27,71.42857142857143,
EVES0409,train,inv,0,pos0_id18_im19.bmp_pos0_id18_im18.bmp,['Im_RyanGosling.png', 'Im_ElijahWood.png', 'Im_LeonardoDiCaprio.png', 'Im_RobertDowneyJr.png', 'Im_BenAffleck.png', 'Im_OrlandoBloom.png', 'Im_MattDamon.png', 'Im_GeorgeClooney.png', 'Im_JustinTimberlake.png', 'Im_BradPitt.png'],same,1,0.8833740999980364,28,71.42857142857143,
EVES0409,train,inv,0,pos0_id7_im15.bmp_pos0_id18_im18.bmp,['Im_RyanGosling.png', 'Im_ElijahWood.png', 'Im_LeonardoDiCaprio.png', 'Im_RobertDowneyJr.png', 'Im_BenAffleck.png', 'Im_OrlandoBloom.png', 'Im_MattDamon.png', 'Im_GeorgeClooney.png', 'Im_JustinTimberlake.png', 'Im_BradPitt.png'],diff,1,1.0084565000142902,29,71.42857142857143,
EVES0409,train,inv,150,pos150_id10_im1.bmp_pos150_id10_im18.bmp,['Im_RyanGosling.png', 'Im_ElijahWood.png', 'Im_LeonardoDiCaprio.png', 'Im_RobertDowneyJr.png', 'Im_BenAffleck.png', 'Im_OrlandoBloom.png', 'Im_MattDamon.png', 'Im_GeorgeClooney.png', 'Im_JustinTimberlake.png', 'Im_BradPitt.png'],same,1,0.5583915000024717,30,71.42857142857143,
EVES0409,train,inv,90,pos90_id20_im3.bmp_pos90_id10_im17.bmp,['Im_RyanGosling.png', 'Im_ElijahWood.png', 'Im_LeonardoDiCaprio.png', 'Im_RobertDowneyJr.png', 'Im_BenAffleck.png', 'Im_OrlandoBloom.png', 'Im_MattDamon.png', 'Im_GeorgeClooney.png', 'Im_JustinTimberlake.png', 'Im_BradPitt.png'],diff,1,0.9250718000112101,31,71.42857142857143,
EVES0409,train,inv,30,pos30_id6_im12.bmp_pos30_id6_im18.bmp,['Im_RyanGosling.png', 'Im_ElijahWood.png', 'Im_LeonardoDiCaprio.png', 'Im_RobertDowneyJr.png', 'Im_BenAffleck.png', 'Im_OrlandoBloom.png', 'Im_MattDamon.png', 'Im_GeorgeClooney.png', 'Im_JustinTimberlake.png', 'Im_BradPitt.png'],diff,0,0.5003026000049431,31,71.42857142857143,
EVES0409,train,inv,120,pos120_id18_im18.bmp_pos120_id18_im11.bmp,['Im_RyanGosling.png', 'Im_ElijahWood.png', 'Im_LeonardoDiCaprio.png', 'Im_RobertDowneyJr.png', 'Im_BenAffleck.png', 'Im_OrlandoBloom.png', 'Im_MattDamon.png', 'Im_GeorgeClooney.png', 'Im_JustinTimberlake.png', 'Im_BradPitt.png'],same,1,0.883300399989821,32,71.42857142857143,
EVES0409,train,inv,60,pos60_id20_im30.bmp_pos60_id20_im3.bmp,['Im_RyanGosling.png', 'Im_ElijahWood.png', 'Im_LeonardoDiCaprio.png', 'Im_RobertDowneyJr.png', 'Im_BenAffleck.png', 'Im_OrlandoBloom.png', 'Im_MattDamon.png', 'Im_GeorgeClooney.png', 'Im_JustinTimberlake.png', 'Im_BradPitt.png'],diff,0,0.5001428999821655,32,71.42857142857143,
EVES0409,train,inv,fs,posfs_id7_im26.bmp_posfs_id18_im18.bmp,['Im_RyanGosling.png', 'Im_ElijahWood.png', 'Im_LeonardoDiCaprio.png', 'Im_RobertDowneyJr.png', 'Im_BenAffleck.png', 'Im_OrlandoBloom.png', 'Im_MattDamon.png', 'Im_GeorgeClooney.png', 'Im_JustinTimberlake.png', 'Im_BradPitt.png'],diff,1,0.48371359999873675,33,71.42857142857143,
EVES0409,train,inv,150,pos150_id14_im18.bmp_pos150_id6_im18.bmp,['Im_RyanGosling.png', 'Im_ElijahWood.png', 'Im_LeonardoDiCaprio.png', 'Im_RobertDowneyJr.png', 'Im_BenAffleck.png', 'Im_OrlandoBloom.png', 'Im_MattDamon.png', 'Im_GeorgeClooney.png', 'Im_JustinTimberlake.png', 'Im_BradPitt.png'],diff,1,0.45021559999440797,34,71.42857142857143,
EVES0409,train,inv,30,pos30_id13_im29.bmp_pos30_id13_im15.bmp,['Im_RyanGosling.png', 'Im_ElijahWood.png', 'Im_LeonardoDiCaprio.png', 'Im_RobertDowneyJr.png', 'Im_BenAffleck.png', 'Im_OrlandoBloom.png', 'Im_MattDamon.png', 'Im_GeorgeClooney.png', 'Im_JustinTimberlake.png', 'Im_BradPitt.png'],diff,0,0.6837747000099625,34,71.42857142857143,
EVES0409,train,inv,60,pos60_id13_im29.bmp_pos60_id20_im12.bmp,['Im_RyanGosling.png', 'Im_ElijahWood.png', 'Im_LeonardoDiCaprio.png', 'Im_RobertDowneyJr.png', 'Im_BenAffleck.png', 'Im_OrlandoBloom.png', 'Im_MattDamon.png', 'Im_GeorgeClooney.png', 'Im_JustinTimberlake.png', 'Im_BradPitt.png'],none,0,4.41687010001624,34,71.42857142857143,
EVES0409,train,pos,60,pos60_id14_im24.bmp_pos60_id14_im18.bmp,['Im_RyanGosling.png', 'Im_ElijahWood.png', 'Im_LeonardoDiCaprio.png', 'Im_RobertDowneyJr.png', 'Im_BenAffleck.png', 'Im_OrlandoBloom.png', 'Im_MattDamon.png', 'Im_GeorgeClooney.png', 'Im_JustinTimberlake.png', 'Im_BradPitt.png'],same,1,0.6498936999996658,1,80.95238095238095,
EVES0409,train,pos,0,pos0_id14_im18.bmp_pos0_id6_im18.bmp,['Im_RyanGosling.png', 'Im_ElijahWood.png', 'Im_LeonardoDiCaprio.png', 'Im_RobertDowneyJr.png', 'Im_BenAffleck.png', 'Im_OrlandoBloom.png', 'Im_MattDamon.png', 'Im_GeorgeClooney.png', 'Im_JustinTimberlake.png', 'Im_BradPitt.png'],diff,1,0.48303329999907874,2,80.95238095238095,
EVES0409,train,pos,150,pos150_id13_im29.bmp_pos150_id13_im10.bmp,['Im_RyanGosling.png', 'Im_ElijahWood.png', 'Im_LeonardoDiCaprio.png', 'Im_RobertDowneyJr.png', 'Im_BenAffleck.png', 'Im_OrlandoBloom.png', 'Im_MattDamon.png', 'Im_GeorgeClooney.png', 'Im_JustinTimberlake.png', 'Im_BradPitt.png'],same,1,0.5669273000094108,3,80.95238095238095,
EVES0409,train,pos,30,pos30_id20_im30.bmp_pos30_id20_im12.bmp,['Im_RyanGosling.png', 'Im_ElijahWood.png', 'Im_LeonardoDiCaprio.png', 'Im_RobertDowneyJr.png', 'Im_BenAffleck.png', 'Im_OrlandoBloom.png', 'Im_MattDamon.png', 'Im_GeorgeClooney.png', 'Im_JustinTimberlake.png', 'Im_BradPitt.png'],same,1,0.4166434000071604,4,80.95238095238095,
EVES0409,train,pos,150,pos150_id16_im19.bmp_pos150_id13_im15.bmp,['Im_RyanGosling.png', 'Im_ElijahWood.png', 'Im_LeonardoDiCaprio.png', 'Im_RobertDowneyJr.png', 'Im_BenAffleck.png', 'Im_OrlandoBloom.png', 'Im_MattDamon.png', 'Im_GeorgeClooney.png', 'Im_JustinTimberlake.png', 'Im_BradPitt.png'],diff,1,0.41669179999735206,5,80.95238095238095,
EVES0409,train,pos,90,pos90_id1_im24.bmp_pos90_id1_im21.bmp,['Im_RyanGosling.png', 'Im_ElijahWood.png', 'Im_LeonardoDiCaprio.png', 'Im_RobertDowneyJr.png', 'Im_BenAffleck.png', 'Im_OrlandoBloom.png', 'Im_MattDamon.png', 'Im_GeorgeClooney.png', 'Im_JustinTimberlake.png', 'Im_BradPitt.png'],same,1,0.4081974000146147,6,80.95238095238095,
EVES0409,train,pos,fs,posfs_id6_im18.bmp_posfs_id6_im19.bmp,['Im_RyanGosling.png', 'Im_ElijahWood.png', 'Im_LeonardoDiCaprio.png', 'Im_RobertDowneyJr.png', 'Im_BenAffleck.png', 'Im_OrlandoBloom.png', 'Im_MattDamon.png', 'Im_GeorgeClooney.png', 'Im_JustinTimberlake.png', 'Im_BradPitt.png'],same,1,0.7335848000075202,7,80.95238095238095,
EVES0409,train,pos,60,pos60_id20_im30.bmp_pos60_id20_im3.bmp,['Im_RyanGosling.png', 'Im_ElijahWood.png', 'Im_LeonardoDiCaprio.png', 'Im_RobertDowneyJr.png', 'Im_BenAffleck.png', 'Im_OrlandoBloom.png', 'Im_MattDamon.png', 'Im_GeorgeClooney.png', 'Im_JustinTimberlake.png', 'Im_BradPitt.png'],same,1,0.6416557000193279,8,80.95238095238095,
EVES0409,train,pos,90,pos90_id7_im26.bmp_pos90_id20_im30.bmp,['Im_RyanGosling.png', 'Im_ElijahWood.png', 'Im_LeonardoDiCaprio.png', 'Im_RobertDowneyJr.png', 'Im_BenAffleck.png', 'Im_OrlandoBloom.png', 'Im_MattDamon.png', 'Im_GeorgeClooney.png', 'Im_JustinTimberlake.png', 'Im_BradPitt.png'],diff,1,0.4168092999898363,9,80.95238095238095,
EVES0409,train,pos,fs,posfs_id7_im14.bmp_posfs_id7_im15.bmp,['Im_RyanGosling.png', 'Im_ElijahWood.png', 'Im_LeonardoDiCaprio.png', 'Im_RobertDowneyJr.png', 'Im_BenAffleck.png', 'Im_OrlandoBloom.png', 'Im_MattDamon.png', 'Im_GeorgeClooney.png', 'Im_JustinTimberlake.png', 'Im_BradPitt.png'],same,1,0.4083787999988999,10,80.95238095238095,
EVES0409,train,pos,30,pos30_id14_im16.bmp_pos30_id14_im24.bmp,['Im_RyanGosling.png', 'Im_ElijahWood.png', 'Im_LeonardoDiCaprio.png', 'Im_RobertDowneyJr.png', 'Im_BenAffleck.png', 'Im_OrlandoBloom.png', 'Im_MattDamon.png', 'Im_GeorgeClooney.png', 'Im_JustinTimberlake.png', 'Im_BradPitt.png'],same,1,0.8417063000088092,11,80.95238095238095,
EVES0409,train,pos,120,pos120_id16_im3.bmp_pos120_id16_im19.bmp,['Im_RyanGosling.png', 'Im_ElijahWood.png', 'Im_LeonardoDiCaprio.png', 'Im_RobertDowneyJr.png', 'Im_BenAffleck.png', 'Im_OrlandoBloom.png', 'Im_MattDamon.png', 'Im_GeorgeClooney.png', 'Im_JustinTimberlake.png', 'Im_BradPitt.png'],same,1,0.46681290000560693,12,80.95238095238095,
EVES0409,train,pos,120,pos120_id1_im21.bmp_pos120_id14_im16.bmp,['Im_RyanGosling.png', 'Im_ElijahWood.png', 'Im_LeonardoDiCaprio.png', 'Im_RobertDowneyJr.png', 'Im_BenAffleck.png', 'Im_OrlandoBloom.png', 'Im_MattDamon.png', 'Im_GeorgeClooney.png', 'Im_JustinTimberlake.png', 'Im_BradPitt.png'],diff,1,0.6831884999992326,13,80.95238095238095,
EVES0409,train,pos,0,pos0_id6_im19.bmp_pos0_id6_im12.bmp,['Im_RyanGosling.png', 'Im_ElijahWood.png', 'Im_LeonardoDiCaprio.png', 'Im_RobertDowneyJr.png', 'Im_BenAffleck.png', 'Im_OrlandoBloom.png', 'Im_MattDamon.png', 'Im_GeorgeClooney.png', 'Im_JustinTimberlake.png', 'Im_BradPitt.png'],same,1,0.5668310000037309,14,80.95238095238095,
EVES0409,train,inv,120,pos120_id20_im30.bmp_pos120_id16_im19.bmp,['Im_RyanGosling.png', 'Im_ElijahWood.png', 'Im_LeonardoDiCaprio.png', 'Im_RobertDowneyJr.png', 'Im_BenAffleck.png', 'Im_OrlandoBloom.png', 'Im_MattDamon.png', 'Im_GeorgeClooney.png', 'Im_JustinTimberlake.png', 'Im_BradPitt.png'],diff,1,0.8167187999933958,15,80.95238095238095,
EVES0409,train,inv,60,pos60_id7_im14.bmp_pos60_id7_im26.bmp,['Im_RyanGosling.png', 'Im_ElijahWood.png', 'Im_LeonardoDiCaprio.png', 'Im_RobertDowneyJr.png', 'Im_BenAffleck.png', 'Im_OrlandoBloom.png', 'Im_MattDamon.png', 'Im_GeorgeClooney.png', 'Im_JustinTimberlake.png', 'Im_BradPitt.png'],same,1,0.5168150000099558,16,80.95238095238095,
EVES0409,train,inv,30,pos30_id18_im18.bmp_pos30_id7_im26.bmp,['Im_RyanGosling.png', 'Im_ElijahWood.png', 'Im_LeonardoDiCaprio.png', 'Im_RobertDowneyJr.png', 'Im_BenAffleck.png', 'Im_OrlandoBloom.png', 'Im_MattDamon.png', 'Im_GeorgeClooney.png', 'Im_JustinTimberlake.png', 'Im_BradPitt.png'],diff,1,0.6666619000025094,17,80.95238095238095,
EVES0409,train,inv,120,pos120_id20_im3.bmp_pos120_id20_im30.bmp,['Im_RyanGosling.png', 'Im_ElijahWood.png', 'Im_LeonardoDiCaprio.png', 'Im_RobertDowneyJr.png', 'Im_BenAffleck.png', 'Im_OrlandoBloom.png', 'Im_MattDamon.png', 'Im_GeorgeClooney.png', 'Im_JustinTimberlake.png', 'Im_BradPitt.png'],none,1,4.399938500020653,17,80.95238095238095,
EVES0409,train,inv,30,pos30_id13_im10.bmp_pos30_id13_im15.bmp,['Im_RyanGosling.png', 'Im_ElijahWood.png', 'Im_LeonardoDiCaprio.png', 'Im_RobertDowneyJr.png', 'Im_BenAffleck.png', 'Im_OrlandoBloom.png', 'Im_MattDamon.png', 'Im_GeorgeClooney.png', 'Im_JustinTimberlake.png', 'Im_BradPitt.png'],same,1,1.683202500018524,18,80.95238095238095,
EVES0409,train,inv,fs,posfs_id7_im26.bmp_posfs_id7_im14.bmp,['Im_RyanGosling.png', 'Im_ElijahWood.png', 'Im_LeonardoDiCaprio.png', 'Im_RobertDowneyJr.png', 'Im_BenAffleck.png', 'Im_OrlandoBloom.png', 'Im_MattDamon.png', 'Im_GeorgeClooney.png', 'Im_JustinTimberlake.png', 'Im_BradPitt.png'],same,1,0.4083868000016082,19,80.95238095238095,
EVES0409,train,inv,0,pos0_id1_im21.bmp_pos0_id1_im4.bmp,['Im_RyanGosling.png', 'Im_ElijahWood.png', 'Im_LeonardoDiCaprio.png', 'Im_RobertDowneyJr.png', 'Im_BenAffleck.png', 'Im_OrlandoBloom.png', 'Im_MattDamon.png', 'Im_GeorgeClooney.png', 'Im_JustinTimberlake.png', 'Im_BradPitt.png'],same,1,0.4165482000098564,20,80.95238095238095,
EVES0409,train,inv,90,pos90_id20_im12.bmp_pos90_id20_im3.bmp,['Im_RyanGosling.png', 'Im_ElijahWood.png', 'Im_LeonardoDiCaprio.png', 'Im_RobertDowneyJr.png', 'Im_BenAffleck.png', 'Im_OrlandoBloom.png', 'Im_MattDamon.png', 'Im_GeorgeClooney.png', 'Im_JustinTimberlake.png', 'Im_BradPitt.png'],diff,0,2.2668003999860957,20,80.95238095238095,
EVES0409,train,inv,0,pos0_id20_im30.bmp_pos0_id16_im19.bmp,['Im_RyanGosling.png', 'Im_ElijahWood.png', 'Im_LeonardoDiCaprio.png', 'Im_RobertDowneyJr.png', 'Im_BenAffleck.png', 'Im_OrlandoBloom.png', 'Im_MattDamon.png', 'Im_GeorgeClooney.png', 'Im_JustinTimberlake.png', 'Im_BradPitt.png'],diff,1,1.6167253000021446,21,80.95238095238095,
EVES0409,train,inv,fs,posfs_id20_im3.bmp_posfs_id20_im30.bmp,['Im_RyanGosling.png', 'Im_ElijahWood.png', 'Im_LeonardoDiCaprio.png', 'Im_RobertDowneyJr.png', 'Im_BenAffleck.png', 'Im_OrlandoBloom.png', 'Im_MattDamon.png', 'Im_GeorgeClooney.png', 'Im_JustinTimberlake.png', 'Im_BradPitt.png'],same,1,0.5421130000031553,22,80.95238095238095,
EVES0409,train,inv,150,pos150_id20_im30.bmp_pos150_id7_im26.bmp,['Im_RyanGosling.png', 'Im_ElijahWood.png', 'Im_LeonardoDiCaprio.png', 'Im_RobertDowneyJr.png', 'Im_BenAffleck.png', 'Im_OrlandoBloom.png', 'Im_MattDamon.png', 'Im_GeorgeClooney.png', 'Im_JustinTimberlake.png', 'Im_BradPitt.png'],diff,1,0.408485699997982,23,80.95238095238095,
EVES0409,train,inv,90,pos90_id10_im18.bmp_pos90_id10_im1.bmp,['Im_RyanGosling.png', 'Im_ElijahWood.png', 'Im_LeonardoDiCaprio.png', 'Im_RobertDowneyJr.png', 'Im_BenAffleck.png', 'Im_OrlandoBloom.png', 'Im_MattDamon.png', 'Im_GeorgeClooney.png', 'Im_JustinTimberlake.png', 'Im_BradPitt.png'],same,1,0.8252517000073567,24,80.95238095238095,
EVES0409,train,inv,60,pos60_id13_im15.bmp_pos60_id13_im29.bmp,['Im_RyanGosling.png', 'Im_ElijahWood.png', 'Im_LeonardoDiCaprio.png', 'Im_RobertDowneyJr.png', 'Im_BenAffleck.png', 'Im_OrlandoBloom.png', 'Im_MattDamon.png', 'Im_GeorgeClooney.png', 'Im_JustinTimberlake.png', 'Im_BradPitt.png'],same,1,0.40836170001421124,25,80.95238095238095,
EVES0409,train,inv,150,pos150_id16_im2.bmp_pos150_id3_im8.bmp,['Im_RyanGosling.png', 'Im_ElijahWood.png', 'Im_LeonardoDiCaprio.png', 'Im_RobertDowneyJr.png', 'Im_BenAffleck.png', 'Im_OrlandoBloom.png', 'Im_MattDamon.png', 'Im_GeorgeClooney.png', 'Im_JustinTimberlake.png', 'Im_BradPitt.png'],same,0,0.8835919999983162,25,80.95238095238095,
EVES0409,train,neg,30,neg30_id16_im3.bmp_neg30_id20_im3.bmp,['Im_RyanGosling.png', 'Im_ElijahWood.png', 'Im_LeonardoDiCaprio.png', 'Im_RobertDowneyJr.png', 'Im_BenAffleck.png', 'Im_OrlandoBloom.png', 'Im_MattDamon.png', 'Im_GeorgeClooney.png', 'Im_JustinTimberlake.png', 'Im_BradPitt.png'],diff,1,0.683370599988848,26,80.95238095238095,
EVES0409,train,neg,120,neg120_id13_im10.bmp_neg120_id13_im29.bmp,['Im_RyanGosling.png', 'Im_ElijahWood.png', 'Im_LeonardoDiCaprio.png', 'Im_RobertDowneyJr.png', 'Im_BenAffleck.png', 'Im_OrlandoBloom.png', 'Im_MattDamon.png', 'Im_GeorgeClooney.png', 'Im_JustinTimberlake.png', 'Im_BradPitt.png'],diff,0,0.48348160000750795,26,80.95238095238095,
EVES0409,train,neg,60,neg60_id18_im18.bmp_neg60_id7_im26.bmp,['Im_RyanGosling.png', 'Im_ElijahWood.png', 'Im_LeonardoDiCaprio.png', 'Im_RobertDowneyJr.png', 'Im_BenAffleck.png', 'Im_OrlandoBloom.png', 'Im_MattDamon.png', 'Im_GeorgeClooney.png', 'Im_JustinTimberlake.png', 'Im_BradPitt.png'],diff,1,0.4834700000064913,27,80.95238095238095,
EVES0409,train,neg,90,neg90_id13_im29.bmp_neg90_id13_im10.bmp,['Im_RyanGosling.png', 'Im_ElijahWood.png', 'Im_LeonardoDiCaprio.png', 'Im_RobertDowneyJr.png', 'Im_BenAffleck.png', 'Im_OrlandoBloom.png', 'Im_MattDamon.png', 'Im_GeorgeClooney.png', 'Im_JustinTimberlake.png', 'Im_BradPitt.png'],same,1,1.2335470000107307,28,80.95238095238095,
EVES0409,train,neg,30,neg30_id13_im10.bmp_neg30_id18_im19.bmp,['Im_RyanGosling.png', 'Im_ElijahWood.png', 'Im_LeonardoDiCaprio.png', 'Im_RobertDowneyJr.png', 'Im_BenAffleck.png', 'Im_OrlandoBloom.png', 'Im_MattDamon.png', 'Im_GeorgeClooney.png', 'Im_JustinTimberlake.png', 'Im_BradPitt.png'],diff,1,0.41682899999432266,29,80.95238095238095,
EVES0409,train,neg,90,neg90_id6_im18.bmp_neg90_id1_im24.bmp,['Im_RyanGosling.png', 'Im_ElijahWood.png', 'Im_LeonardoDiCaprio.png', 'Im_RobertDowneyJr.png', 'Im_BenAffleck.png', 'Im_OrlandoBloom.png', 'Im_MattDamon.png', 'Im_GeorgeClooney.png', 'Im_JustinTimberlake.png', 'Im_BradPitt.png'],diff,1,0.5169019000022672,30,80.95238095238095,
EVES0409,train,neg,fs,negfs_id6_im18.bmp_negfs_id14_im18.bmp,['Im_RyanGosling.png', 'Im_ElijahWood.png', 'Im_LeonardoDiCaprio.png', 'Im_RobertDowneyJr.png', 'Im_BenAffleck.png', 'Im_OrlandoBloom.png', 'Im_MattDamon.png', 'Im_GeorgeClooney.png', 'Im_JustinTimberlake.png', 'Im_BradPitt.png'],diff,1,0.4249695000180509,31,80.95238095238095,
EVES0409,train,neg,0,neg0_id1_im4.bmp_neg0_id10_im18.bmp,['Im_RyanGosling.png', 'Im_ElijahWood.png', 'Im_LeonardoDiCaprio.png', 'Im_RobertDowneyJr.png', 'Im_BenAffleck.png', 'Im_OrlandoBloom.png', 'Im_MattDamon.png', 'Im_GeorgeClooney.png', 'Im_JustinTimberlake.png', 'Im_BradPitt.png'],diff,1,2.6752419999975245,32,80.95238095238095,
EVES0409,train,neg,120,neg120_id20_im12.bmp_neg120_id20_im30.bmp,['Im_RyanGosling.png', 'Im_ElijahWood.png', 'Im_LeonardoDiCaprio.png', 'Im_RobertDowneyJr.png', 'Im_BenAffleck.png', 'Im_OrlandoBloom.png', 'Im_MattDamon.png', 'Im_GeorgeClooney.png', 'Im_JustinTimberlake.png', 'Im_BradPitt.png'],same,1,1.0585888999921735,33,80.95238095238095,
EVES0409,train,neg,150,neg150_id20_im12.bmp_neg150_id10_im1.bmp,['Im_RyanGosling.png', 'Im_ElijahWood.png', 'Im_LeonardoDiCaprio.png', 'Im_RobertDowneyJr.png', 'Im_BenAffleck.png', 'Im_OrlandoBloom.png', 'Im_MattDamon.png', 'Im_GeorgeClooney.png', 'Im_JustinTimberlake.png', 'Im_BradPitt.png'],diff,1,0.6084030000201892,34,80.95238095238095,
EVES0409,train,neg,fs,negfs_id10_im1.bmp_negfs_id10_im18.bmp,['Im_RyanGosling.png', 'Im_ElijahWood.png', 'Im_LeonardoDiCaprio.png', 'Im_RobertDowneyJr.png', 'Im_BenAffleck.png', 'Im_OrlandoBloom.png', 'Im_MattDamon.png', 'Im_GeorgeClooney.png', 'Im_JustinTimberlake.png', 'Im_BradPitt.png'],same,1,0.6830269000201952,35,80.95238095238095,
EVES0409,train,neg,60,neg60_id16_im2.bmp_neg60_id3_im8.bmp,['Im_RyanGosling.png', 'Im_ElijahWood.png', 'Im_LeonardoDiCaprio.png', 'Im_RobertDowneyJr.png', 'Im_BenAffleck.png', 'Im_OrlandoBloom.png', 'Im_MattDamon.png', 'Im_GeorgeClooney.png', 'Im_JustinTimberlake.png', 'Im_BradPitt.png'],diff,1,1.2499796000192873,36,80.95238095238095,
EVES0409,train,neg,0,neg0_id20_im3.bmp_neg0_id16_im3.bmp,['Im_RyanGosling.png', 'Im_ElijahWood.png', 'Im_LeonardoDiCaprio.png', 'Im_RobertDowneyJr.png', 'Im_BenAffleck.png', 'Im_OrlandoBloom.png', 'Im_MattDamon.png', 'Im_GeorgeClooney.png', 'Im_JustinTimberlake.png', 'Im_BradPitt.png'],diff,1,1.5417844000039622,37,80.95238095238095,
EVES0409,train,neg,150,neg150_id14_im24.bmp_neg150_id18_im19.bmp,['Im_RyanGosling.png', 'Im_ElijahWood.png', 'Im_LeonardoDiCaprio.png', 'Im_RobertDowneyJr.png', 'Im_BenAffleck.png', 'Im_OrlandoBloom.png', 'Im_MattDamon.png', 'Im_GeorgeClooney.png', 'Im_JustinTimberlake.png', 'Im_BradPitt.png'],diff,1,0.7665799000242259,38,80.95238095238095,
EVES0409,0,neg,0,neg0_id20_im30.bmp_neg0_id20_im12.bmp,['Im_RyanGosling.png', 'Im_ElijahWood.png', 'Im_LeonardoDiCaprio.png', 'Im_RobertDowneyJr.png', 'Im_BenAffleck.png', 'Im_OrlandoBloom.png', 'Im_MattDamon.png', 'Im_GeorgeClooney.png', 'Im_JustinTimberlake.png', 'Im_BradPitt.png'],same,1,0.7082803000230342,1,0,
EVES0409,0,neg,120,neg120_id13_im29.bmp_neg120_id20_im12.bmp,['Im_RyanGosling.png', 'Im_ElijahWood.png', 'Im_LeonardoDiCaprio.png', 'Im_RobertDowneyJr.png', 'Im_BenAffleck.png', 'Im_OrlandoBloom.png', 'Im_MattDamon.png', 'Im_GeorgeClooney.png', 'Im_JustinTimberlake.png', 'Im_BradPitt.png'],diff,1,0.40839570001116954,2,0,
EVES0409,0,neg,60,neg60_id16_im3.bmp_neg60_id16_im19.bmp,['Im_RyanGosling.png', 'Im_ElijahWood.png', 'Im_LeonardoDiCaprio.png', 'Im_RobertDowneyJr.png', 'Im_BenAffleck.png', 'Im_OrlandoBloom.png', 'Im_MattDamon.png', 'Im_GeorgeClooney.png', 'Im_JustinTimberlake.png', 'Im_BradPitt.png'],same,1,0.45827380000264384,3,0,
EVES0409,0,neg,30,neg30_id13_im10.bmp_neg30_id13_im15.bmp,['Im_RyanGosling.png', 'Im_ElijahWood.png', 'Im_LeonardoDiCaprio.png', 'Im_RobertDowneyJr.png', 'Im_BenAffleck.png', 'Im_OrlandoBloom.png', 'Im_MattDamon.png', 'Im_GeorgeClooney.png', 'Im_JustinTimberlake.png', 'Im_BradPitt.png'],same,1,0.5835536000085995,4,0,
EVES0409,0,neg,120,neg120_id10_im1.bmp_neg120_id20_im12.bmp,['Im_RyanGosling.png', 'Im_ElijahWood.png', 'Im_LeonardoDiCaprio.png', 'Im_RobertDowneyJr.png', 'Im_BenAffleck.png', 'Im_OrlandoBloom.png', 'Im_MattDamon.png', 'Im_GeorgeClooney.png', 'Im_JustinTimberlake.png', 'Im_BradPitt.png'],diff,1,1.1917010999750346,5,0,
EVES0409,0,neg,60,neg60_id20_im30.bmp_neg60_id16_im19.bmp,['Im_RyanGosling.png', 'Im_ElijahWood.png', 'Im_LeonardoDiCaprio.png', 'Im_RobertDowneyJr.png', 'Im_BenAffleck.png', 'Im_OrlandoBloom.png', 'Im_MattDamon.png', 'Im_GeorgeClooney.png', 'Im_JustinTimberlake.png', 'Im_BradPitt.png'],diff,1,0.575263000006089,6,0,
EVES0409,0,neg,0,neg0_id18_im11.bmp_neg0_id18_im19.bmp,['Im_RyanGosling.png', 'Im_ElijahWood.png', 'Im_LeonardoDiCaprio.png', 'Im_RobertDowneyJr.png', 'Im_BenAffleck.png', 'Im_OrlandoBloom.png', 'Im_MattDamon.png', 'Im_GeorgeClooney.png', 'Im_JustinTimberlake.png', 'Im_BradPitt.png'],same,1,0.49182399999699555,7,0,
EVES0409,0,neg,90,neg90_id16_im3.bmp_neg90_id20_im3.bmp,['Im_RyanGosling.png', 'Im_ElijahWood.png', 'Im_LeonardoDiCaprio.png', 'Im_RobertDowneyJr.png', 'Im_BenAffleck.png', 'Im_OrlandoBloom.png', 'Im_MattDamon.png', 'Im_GeorgeClooney.png', 'Im_JustinTimberlake.png', 'Im_BradPitt.png'],diff,1,0.5082964999892283,8,0,
EVES0409,0,neg,150,neg150_id10_im17.bmp_neg150_id10_im1.bmp,['Im_RyanGosling.png', 'Im_ElijahWood.png', 'Im_LeonardoDiCaprio.png', 'Im_RobertDowneyJr.png', 'Im_BenAffleck.png', 'Im_OrlandoBloom.png', 'Im_MattDamon.png', 'Im_GeorgeClooney.png', 'Im_JustinTimberlake.png', 'Im_BradPitt.png'],same,1,0.6752607999951579,9,0,
EVES0409,0,neg,150,neg150_id7_im14.bmp_neg150_id7_im26.bmp,['Im_RyanGosling.png', 'Im_ElijahWood.png', 'Im_LeonardoDiCaprio.png', 'Im_RobertDowneyJr.png', 'Im_BenAffleck.png', 'Im_OrlandoBloom.png', 'Im_MattDamon.png', 'Im_GeorgeClooney.png', 'Im_JustinTimberlake.png', 'Im_BradPitt.png'],same,1,0.7418767000199296,10,0,
EVES0409,0,neg,90,neg90_id14_im18.bmp_neg90_id14_im24.bmp,['Im_RyanGosling.png', 'Im_ElijahWood.png', 'Im_LeonardoDiCaprio.png', 'Im_RobertDowneyJr.png', 'Im_BenAffleck.png', 'Im_OrlandoBloom.png', 'Im_MattDamon.png', 'Im_GeorgeClooney.png', 'Im_JustinTimberlake.png', 'Im_BradPitt.png'],same,1,0.40007790000527166,11,0,
EVES0409,0,neg,fs,negfs_id6_im19.bmp_negfs_id14_im16.bmp,['Im_RyanGosling.png', 'Im_ElijahWood.png', 'Im_LeonardoDiCaprio.png', 'Im_RobertDowneyJr.png', 'Im_BenAffleck.png', 'Im_OrlandoBloom.png', 'Im_MattDamon.png', 'Im_GeorgeClooney.png', 'Im_JustinTimberlake.png', 'Im_BradPitt.png'],diff,1,0.4750610000046436,12,0,
EVES0409,0,neg,fs,negfs_id13_im29.bmp_negfs_id10_im18.bmp,['Im_RyanGosling.png', 'Im_ElijahWood.png', 'Im_LeonardoDiCaprio.png', 'Im_RobertDowneyJr.png', 'Im_BenAffleck.png', 'Im_OrlandoBloom.png', 'Im_MattDamon.png', 'Im_GeorgeClooney.png', 'Im_JustinTimberlake.png', 'Im_BradPitt.png'],diff,1,0.40836480000871234,13,0,
EVES0409,0,neg,30,neg30_id13_im29.bmp_neg30_id10_im18.bmp,['Im_RyanGosling.png', 'Im_ElijahWood.png', 'Im_LeonardoDiCaprio.png', 'Im_RobertDowneyJr.png', 'Im_BenAffleck.png', 'Im_OrlandoBloom.png', 'Im_MattDamon.png', 'Im_GeorgeClooney.png', 'Im_JustinTimberlake.png', 'Im_BradPitt.png'],diff,1,1.1753432000114117,14,0,
EVES0409,1,pos,150,pos150_id14_im24.bmp_pos150_id14_im18.bmp,['Im_RyanGosling.png', 'Im_ElijahWood.png', 'Im_LeonardoDiCaprio.png', 'Im_RobertDowneyJr.png', 'Im_BenAffleck.png', 'Im_OrlandoBloom.png', 'Im_MattDamon.png', 'Im_GeorgeClooney.png', 'Im_JustinTimberlake.png', 'Im_BradPitt.png'],same,1,0.6835920000157785,15,0,
EVES0409,1,pos,120,pos120_id3_im17.bmp_pos120_id18_im11.bmp,['Im_RyanGosling.png', 'Im_ElijahWood.png', 'Im_LeonardoDiCaprio.png', 'Im_RobertDowneyJr.png', 'Im_BenAffleck.png', 'Im_OrlandoBloom.png', 'Im_MattDamon.png', 'Im_GeorgeClooney.png', 'Im_JustinTimberlake.png', 'Im_BradPitt.png'],diff,1,0.7167475000023842,16,0,
EVES0409,1,pos,30,pos30_id10_im1.bmp_pos30_id10_im17.bmp,['Im_RyanGosling.png', 'Im_ElijahWood.png', 'Im_LeonardoDiCaprio.png', 'Im_RobertDowneyJr.png', 'Im_BenAffleck.png', 'Im_OrlandoBloom.png', 'Im_MattDamon.png', 'Im_GeorgeClooney.png', 'Im_JustinTimberlake.png', 'Im_BradPitt.png'],diff,0,0.8918065000034403,16,0,
EVES0409,1,pos,60,pos60_id14_im16.bmp_pos60_id14_im24.bmp,['Im_RyanGosling.png', 'Im_ElijahWood.png', 'Im_LeonardoDiCaprio.png', 'Im_RobertDowneyJr.png', 'Im_BenAffleck.png', 'Im_OrlandoBloom.png', 'Im_MattDamon.png', 'Im_GeorgeClooney.png', 'Im_JustinTimberlake.png', 'Im_BradPitt.png'],same,1,0.7668947000056505,17,0,
EVES0409,1,pos,120,pos120_id1_im24.bmp_pos120_id6_im18.bmp,['Im_RyanGosling.png', 'Im_ElijahWood.png', 'Im_LeonardoDiCaprio.png', 'Im_RobertDowneyJr.png', 'Im_BenAffleck.png', 'Im_OrlandoBloom.png', 'Im_MattDamon.png', 'Im_GeorgeClooney.png', 'Im_JustinTimberlake.png', 'Im_BradPitt.png'],diff,1,0.5168758000072557,18,0,
EVES0409,1,pos,0,pos0_id3_im6.bmp_pos0_id7_im14.bmp,['Im_RyanGosling.png', 'Im_ElijahWood.png', 'Im_LeonardoDiCaprio.png', 'Im_RobertDowneyJr.png', 'Im_BenAffleck.png', 'Im_OrlandoBloom.png', 'Im_MattDamon.png', 'Im_GeorgeClooney.png', 'Im_JustinTimberlake.png', 'Im_BradPitt.png'],diff,1,0.525306499999715,19,0,
EVES0409,1,pos,fs,posfs_id13_im10.bmp_posfs_id14_im18.bmp,['Im_RyanGosling.png', 'Im_ElijahWood.png', 'Im_LeonardoDiCaprio.png', 'Im_RobertDowneyJr.png', 'Im_BenAffleck.png', 'Im_OrlandoBloom.png', 'Im_MattDamon.png', 'Im_GeorgeClooney.png', 'Im_JustinTimberlake.png', 'Im_BradPitt.png'],diff,1,0.791758800012758,20,0,
EVES0409,1,pos,30,pos30_id1_im4.bmp_pos30_id1_im24.bmp,['Im_RyanGosling.png', 'Im_ElijahWood.png', 'Im_LeonardoDiCaprio.png', 'Im_RobertDowneyJr.png', 'Im_BenAffleck.png', 'Im_OrlandoBloom.png', 'Im_MattDamon.png', 'Im_GeorgeClooney.png', 'Im_JustinTimberlake.png', 'Im_BradPitt.png'],same,1,1.283497600001283,21,0,
EVES0409,1,pos,60,pos60_id18_im19.bmp_pos60_id18_im18.bmp,['Im_RyanGosling.png', 'Im_ElijahWood.png', 'Im_LeonardoDiCaprio.png', 'Im_RobertDowneyJr.png', 'Im_BenAffleck.png', 'Im_OrlandoBloom.png', 'Im_MattDamon.png', 'Im_GeorgeClooney.png', 'Im_JustinTimberlake.png', 'Im_BradPitt.png'],same,1,1.1503608000057284,22,0,
EVES0409,1,pos,150,pos150_id3_im8.bmp_pos150_id16_im3.bmp,['Im_RyanGosling.png', 'Im_ElijahWood.png', 'Im_LeonardoDiCaprio.png', 'Im_RobertDowneyJr.png', 'Im_BenAffleck.png', 'Im_OrlandoBloom.png', 'Im_MattDamon.png', 'Im_GeorgeClooney.png', 'Im_JustinTimberlake.png', 'Im_BradPitt.png'],diff,1,0.7416519999969751,23,0,
EVES0409,1,pos,90,pos90_id13_im10.bmp_pos90_id13_im29.bmp,['Im_RyanGosling.png', 'Im_ElijahWood.png', 'Im_LeonardoDiCaprio.png', 'Im_RobertDowneyJr.png', 'Im_BenAffleck.png', 'Im_OrlandoBloom.png', 'Im_MattDamon.png', 'Im_GeorgeClooney.png', 'Im_JustinTimberlake.png', 'Im_BradPitt.png'],same,1,1.1667067999951541,24,0,
EVES0409,1,pos,90,pos90_id18_im18.bmp_pos90_id18_im19.bmp,['Im_RyanGosling.png', 'Im_ElijahWood.png', 'Im_LeonardoDiCaprio.png', 'Im_RobertDowneyJr.png', 'Im_BenAffleck.png', 'Im_OrlandoBloom.png', 'Im_MattDamon.png', 'Im_GeorgeClooney.png', 'Im_JustinTimberlake.png', 'Im_BradPitt.png'],same,1,0.6167400999984238,25,0,
EVES0409,1,pos,0,pos0_id14_im18.bmp_pos0_id14_im16.bmp,['Im_RyanGosling.png', 'Im_ElijahWood.png', 'Im_LeonardoDiCaprio.png', 'Im_RobertDowneyJr.png', 'Im_BenAffleck.png', 'Im_OrlandoBloom.png', 'Im_MattDamon.png', 'Im_GeorgeClooney.png', 'Im_JustinTimberlake.png', 'Im_BradPitt.png'],diff,0,1.2581753999984358,25,0,
EVES0409,1,pos,fs,posfs_id7_im15.bmp_posfs_id1_im21.bmp,['Im_RyanGosling.png', 'Im_ElijahWood.png', 'Im_LeonardoDiCaprio.png', 'Im_RobertDowneyJr.png', 'Im_BenAffleck.png', 'Im_OrlandoBloom.png', 'Im_MattDamon.png', 'Im_GeorgeClooney.png', 'Im_JustinTimberlake.png', 'Im_BradPitt.png'],diff,1,0.4167316000093706,26,0,
EVES0409,2,inv,90,pos90_id3_im8.bmp_pos90_id3_im17.bmp,['Im_RyanGosling.png', 'Im_ElijahWood.png', 'Im_LeonardoDiCaprio.png', 'Im_RobertDowneyJr.png', 'Im_BenAffleck.png', 'Im_OrlandoBloom.png', 'Im_MattDamon.png', 'Im_GeorgeClooney.png', 'Im_JustinTimberlake.png', 'Im_BradPitt.png'],same,1,0.891978100000415,27,0,
EVES0409,2,inv,30,pos30_id1_im4.bmp_pos30_id1_im21.bmp,['Im_RyanGosling.png', 'Im_ElijahWood.png', 'Im_LeonardoDiCaprio.png', 'Im_RobertDowneyJr.png', 'Im_BenAffleck.png', 'Im_OrlandoBloom.png', 'Im_MattDamon.png', 'Im_GeorgeClooney.png', 'Im_JustinTimberlake.png', 'Im_BradPitt.png'],same,1,0.48382790002506226,28,0,
EVES0409,2,inv,0,pos0_id14_im18.bmp_pos0_id6_im18.bmp,['Im_RyanGosling.png', 'Im_ElijahWood.png', 'Im_LeonardoDiCaprio.png', 'Im_RobertDowneyJr.png', 'Im_BenAffleck.png', 'Im_OrlandoBloom.png', 'Im_MattDamon.png', 'Im_GeorgeClooney.png', 'Im_JustinTimberlake.png', 'Im_BradPitt.png'],diff,1,0.5584659999876749,29,0,
EVES0409,2,inv,120,pos120_id18_im11.bmp_pos120_id3_im17.bmp,['Im_RyanGosling.png', 'Im_ElijahWood.png', 'Im_LeonardoDiCaprio.png', 'Im_RobertDowneyJr.png', 'Im_BenAffleck.png', 'Im_OrlandoBloom.png', 'Im_MattDamon.png', 'Im_GeorgeClooney.png', 'Im_JustinTimberlake.png', 'Im_BradPitt.png'],diff,1,0.4168546000146307,30,0,
EVES0409,2,inv,120,pos120_id14_im18.bmp_pos120_id14_im16.bmp,['Im_RyanGosling.png', 'Im_ElijahWood.png', 'Im_LeonardoDiCaprio.png', 'Im_RobertDowneyJr.png', 'Im_BenAffleck.png', 'Im_OrlandoBloom.png', 'Im_MattDamon.png', 'Im_GeorgeClooney.png', 'Im_JustinTimberlake.png', 'Im_BradPitt.png'],same,1,0.5668919000017922,31,0,
EVES0409,2,inv,150,pos150_id14_im24.bmp_pos150_id18_im19.bmp,['Im_RyanGosling.png', 'Im_ElijahWood.png', 'Im_LeonardoDiCaprio.png', 'Im_RobertDowneyJr.png', 'Im_BenAffleck.png', 'Im_OrlandoBloom.png', 'Im_MattDamon.png', 'Im_GeorgeClooney.png', 'Im_JustinTimberlake.png', 'Im_BradPitt.png'],diff,1,0.8999006999947596,32,0,
EVES0409,2,inv,60,pos60_id13_im10.bmp_pos60_id13_im29.bmp,['Im_RyanGosling.png', 'Im_ElijahWood.png', 'Im_LeonardoDiCaprio.png', 'Im_RobertDowneyJr.png', 'Im_BenAffleck.png', 'Im_OrlandoBloom.png', 'Im_MattDamon.png', 'Im_GeorgeClooney.png', 'Im_JustinTimberlake.png', 'Im_BradPitt.png'],same,1,1.0253977999964263,33,0,
EVES0409,2,inv,fs,posfs_id3_im8.bmp_posfs_id3_im6.bmp,['Im_RyanGosling.png', 'Im_ElijahWood.png', 'Im_LeonardoDiCaprio.png', 'Im_RobertDowneyJr.png', 'Im_BenAffleck.png', 'Im_OrlandoBloom.png', 'Im_MattDamon.png', 'Im_GeorgeClooney.png', 'Im_JustinTimberlake.png', 'Im_BradPitt.png'],same,1,1.283361000008881,34,0,
EVES0409,2,inv,90,pos90_id1_im24.bmp_pos90_id1_im4.bmp,['Im_RyanGosling.png', 'Im_ElijahWood.png', 'Im_LeonardoDiCaprio.png', 'Im_RobertDowneyJr.png', 'Im_BenAffleck.png', 'Im_OrlandoBloom.png', 'Im_MattDamon.png', 'Im_GeorgeClooney.png', 'Im_JustinTimberlake.png', 'Im_BradPitt.png'],same,1,0.916957099980209,35,0,
EVES0409,2,inv,30,pos30_id16_im19.bmp_pos30_id16_im2.bmp,['Im_RyanGosling.png', 'Im_ElijahWood.png', 'Im_LeonardoDiCaprio.png', 'Im_RobertDowneyJr.png', 'Im_BenAffleck.png', 'Im_OrlandoBloom.png', 'Im_MattDamon.png', 'Im_GeorgeClooney.png', 'Im_JustinTimberlake.png', 'Im_BradPitt.png'],same,1,0.4251061000104528,36,0,
EVES0409,2,inv,60,pos60_id1_im4.bmp_pos60_id10_im18.bmp,['Im_RyanGosling.png', 'Im_ElijahWood.png', 'Im_LeonardoDiCaprio.png', 'Im_RobertDowneyJr.png', 'Im_BenAffleck.png', 'Im_OrlandoBloom.png', 'Im_MattDamon.png', 'Im_GeorgeClooney.png', 'Im_JustinTimberlake.png', 'Im_BradPitt.png'],diff,1,0.6417073000047822,37,0,
EVES0409,2,inv,150,pos150_id14_im16.bmp_pos150_id14_im18.bmp,['Im_RyanGosling.png', 'Im_ElijahWood.png', 'Im_LeonardoDiCaprio.png', 'Im_RobertDowneyJr.png', 'Im_BenAffleck.png', 'Im_OrlandoBloom.png', 'Im_MattDamon.png', 'Im_GeorgeClooney.png', 'Im_JustinTimberlake.png', 'Im_BradPitt.png'],same,1,0.9752606000110973,38,0,
EVES0409,2,inv,0,pos0_id14_im16.bmp_pos0_id14_im18.bmp,['Im_RyanGosling.png', 'Im_ElijahWood.png', 'Im_LeonardoDiCaprio.png', 'Im_RobertDowneyJr.png', 'Im_BenAffleck.png', 'Im_OrlandoBloom.png', 'Im_MattDamon.png', 'Im_GeorgeClooney.png', 'Im_JustinTimberlake.png', 'Im_BradPitt.png'],same,1,0.7919718000048306,39,0,
EVES0409,2,inv,fs,posfs_id3_im6.bmp_posfs_id7_im14.bmp,['Im_RyanGosling.png', 'Im_ElijahWood.png', 'Im_LeonardoDiCaprio.png', 'Im_RobertDowneyJr.png', 'Im_BenAffleck.png', 'Im_OrlandoBloom.png', 'Im_MattDamon.png', 'Im_GeorgeClooney.png', 'Im_JustinTimberlake.png', 'Im_BradPitt.png'],diff,1,0.5750820999965072,40,0,
EVES0409,3,inv,90,pos90_id1_im21.bmp_pos90_id1_im4.bmp,['Im_RyanGosling.png', 'Im_ElijahWood.png', 'Im_LeonardoDiCaprio.png', 'Im_RobertDowneyJr.png', 'Im_BenAffleck.png', 'Im_OrlandoBloom.png', 'Im_MattDamon.png', 'Im_GeorgeClooney.png', 'Im_JustinTimberlake.png', 'Im_BradPitt.png'],diff,0,0.5499983000045177,0,95.23809523809524,
EVES0409,3,inv,0,pos0_id3_im8.bmp_pos0_id3_im6.bmp,['Im_RyanGosling.png', 'Im_ElijahWood.png', 'Im_LeonardoDiCaprio.png', 'Im_RobertDowneyJr.png', 'Im_BenAffleck.png', 'Im_OrlandoBloom.png', 'Im_MattDamon.png', 'Im_GeorgeClooney.png', 'Im_JustinTimberlake.png', 'Im_BradPitt.png'],same,1,0.5917523999814875,1,95.23809523809524,
EVES0409,3,inv,150,pos150_id13_im29.bmp_pos150_id13_im10.bmp,['Im_RyanGosling.png', 'Im_ElijahWood.png', 'Im_LeonardoDiCaprio.png', 'Im_RobertDowneyJr.png', 'Im_BenAffleck.png', 'Im_OrlandoBloom.png', 'Im_MattDamon.png', 'Im_GeorgeClooney.png', 'Im_JustinTimberlake.png', 'Im_BradPitt.png'],same,1,0.4167357000114862,2,95.23809523809524,
EVES0409,3,inv,60,pos60_id18_im19.bmp_pos60_id14_im24.bmp,['Im_RyanGosling.png', 'Im_ElijahWood.png', 'Im_LeonardoDiCaprio.png', 'Im_RobertDowneyJr.png', 'Im_BenAffleck.png', 'Im_OrlandoBloom.png', 'Im_MattDamon.png', 'Im_GeorgeClooney.png', 'Im_JustinTimberlake.png', 'Im_BradPitt.png'],diff,1,0.5833082000026479,3,95.23809523809524,
EVES0409,3,inv,30,pos30_id10_im1.bmp_pos30_id20_im12.bmp,['Im_RyanGosling.png', 'Im_ElijahWood.png', 'Im_LeonardoDiCaprio.png', 'Im_RobertDowneyJr.png', 'Im_BenAffleck.png', 'Im_OrlandoBloom.png', 'Im_MattDamon.png', 'Im_GeorgeClooney.png', 'Im_JustinTimberlake.png', 'Im_BradPitt.png'],diff,1,1.258350199990673,4,95.23809523809524,
EVES0409,3,inv,150,pos150_id7_im26.bmp_pos150_id18_im18.bmp,['Im_RyanGosling.png', 'Im_ElijahWood.png', 'Im_LeonardoDiCaprio.png', 'Im_RobertDowneyJr.png', 'Im_BenAffleck.png', 'Im_OrlandoBloom.png', 'Im_MattDamon.png', 'Im_GeorgeClooney.png', 'Im_JustinTimberlake.png', 'Im_BradPitt.png'],diff,1,1.3002828999888152,5,95.23809523809524,
EVES0409,3,inv,90,pos90_id18_im19.bmp_pos90_id18_im11.bmp,['Im_RyanGosling.png', 'Im_ElijahWood.png', 'Im_LeonardoDiCaprio.png', 'Im_RobertDowneyJr.png', 'Im_BenAffleck.png', 'Im_OrlandoBloom.png', 'Im_MattDamon.png', 'Im_GeorgeClooney.png', 'Im_JustinTimberlake.png', 'Im_BradPitt.png'],same,1,0.7832415000011679,6,95.23809523809524,
EVES0409,3,inv,30,pos30_id13_im29.bmp_pos30_id10_im18.bmp,['Im_RyanGosling.png', 'Im_ElijahWood.png', 'Im_LeonardoDiCaprio.png', 'Im_RobertDowneyJr.png', 'Im_BenAffleck.png', 'Im_OrlandoBloom.png', 'Im_MattDamon.png', 'Im_GeorgeClooney.png', 'Im_JustinTimberlake.png', 'Im_BradPitt.png'],same,0,0.4836648000054993,6,95.23809523809524,
EVES0409,3,inv,60,pos60_id18_im11.bmp_pos60_id13_im15.bmp,['Im_RyanGosling.png', 'Im_ElijahWood.png', 'Im_LeonardoDiCaprio.png', 'Im_RobertDowneyJr.png', 'Im_BenAffleck.png', 'Im_OrlandoBloom.png', 'Im_MattDamon.png', 'Im_GeorgeClooney.png', 'Im_JustinTimberlake.png', 'Im_BradPitt.png'],same,0,0.4252510000078473,6,95.23809523809524,
EVES0409,3,inv,0,pos0_id6_im19.bmp_pos0_id14_im16.bmp,['Im_RyanGosling.png', 'Im_ElijahWood.png', 'Im_LeonardoDiCaprio.png', 'Im_RobertDowneyJr.png', 'Im_BenAffleck.png', 'Im_OrlandoBloom.png', 'Im_MattDamon.png', 'Im_GeorgeClooney.png', 'Im_JustinTimberlake.png', 'Im_BradPitt.png'],diff,1,0.7091766000085045,7,95.23809523809524,
EVES0409,3,inv,120,pos120_id20_im12.bmp_pos120_id10_im1.bmp,['Im_RyanGosling.png', 'Im_ElijahWood.png', 'Im_LeonardoDiCaprio.png', 'Im_RobertDowneyJr.png', 'Im_BenAffleck.png', 'Im_OrlandoBloom.png', 'Im_MattDamon.png', 'Im_GeorgeClooney.png', 'Im_JustinTimberlake.png', 'Im_BradPitt.png'],diff,1,0.6831571999937296,8,95.23809523809524,
EVES0409,3,inv,120,pos120_id14_im24.bmp_pos120_id14_im18.bmp,['Im_RyanGosling.png', 'Im_ElijahWood.png', 'Im_LeonardoDiCaprio.png', 'Im_RobertDowneyJr.png', 'Im_BenAffleck.png', 'Im_OrlandoBloom.png', 'Im_MattDamon.png', 'Im_GeorgeClooney.png', 'Im_JustinTimberlake.png', 'Im_BradPitt.png'],same,1,0.608433999994304,9,95.23809523809524,
EVES0409,3,inv,fs,posfs_id13_im10.bmp_posfs_id13_im29.bmp,['Im_RyanGosling.png', 'Im_ElijahWood.png', 'Im_LeonardoDiCaprio.png', 'Im_RobertDowneyJr.png', 'Im_BenAffleck.png', 'Im_OrlandoBloom.png', 'Im_MattDamon.png', 'Im_GeorgeClooney.png', 'Im_JustinTimberlake.png', 'Im_BradPitt.png'],same,1,0.6001337000052445,10,95.23809523809524,
EVES0409,3,inv,fs,posfs_id6_im12.bmp_posfs_id6_im19.bmp,['Im_RyanGosling.png', 'Im_ElijahWood.png', 'Im_LeonardoDiCaprio.png', 'Im_RobertDowneyJr.png', 'Im_BenAffleck.png', 'Im_OrlandoBloom.png', 'Im_MattDamon.png', 'Im_GeorgeClooney.png', 'Im_JustinTimberlake.png', 'Im_BradPitt.png'],same,1,0.9083361999946646,11,95.23809523809524,
EVES0409,4,neg,150,neg150_id16_im19.bmp_neg150_id16_im2.bmp,['Im_RyanGosling.png', 'Im_ElijahWood.png', 'Im_LeonardoDiCaprio.png', 'Im_RobertDowneyJr.png', 'Im_BenAffleck.png', 'Im_OrlandoBloom.png', 'Im_MattDamon.png', 'Im_GeorgeClooney.png', 'Im_JustinTimberlake.png', 'Im_BradPitt.png'],same,1,4.091922999999952,12,95.23809523809524,
EVES0409,4,neg,90,neg90_id10_im18.bmp_neg90_id10_im1.bmp,['Im_RyanGosling.png', 'Im_ElijahWood.png', 'Im_LeonardoDiCaprio.png', 'Im_RobertDowneyJr.png', 'Im_BenAffleck.png', 'Im_OrlandoBloom.png', 'Im_MattDamon.png', 'Im_GeorgeClooney.png', 'Im_JustinTimberlake.png', 'Im_BradPitt.png'],same,1,1.7083544000051916,13,95.23809523809524,
EVES0409,4,neg,60,neg60_id6_im12.bmp_neg60_id6_im18.bmp,['Im_RyanGosling.png', 'Im_ElijahWood.png', 'Im_LeonardoDiCaprio.png', 'Im_RobertDowneyJr.png', 'Im_BenAffleck.png', 'Im_OrlandoBloom.png', 'Im_MattDamon.png', 'Im_GeorgeClooney.png', 'Im_JustinTimberlake.png', 'Im_BradPitt.png'],same,1,0.9667630999756511,14,95.23809523809524,
EVES0409,4,neg,fs,negfs_id13_im10.bmp_negfs_id14_im18.bmp,['Im_RyanGosling.png', 'Im_ElijahWood.png', 'Im_LeonardoDiCaprio.png', 'Im_RobertDowneyJr.png', 'Im_BenAffleck.png', 'Im_OrlandoBloom.png', 'Im_MattDamon.png', 'Im_GeorgeClooney.png', 'Im_JustinTimberlake.png', 'Im_BradPitt.png'],diff,1,0.5833850000053644,15,95.23809523809524,
EVES0409,4,neg,30,neg30_id18_im11.bmp_neg30_id3_im17.bmp,['Im_RyanGosling.png', 'Im_ElijahWood.png', 'Im_LeonardoDiCaprio.png', 'Im_RobertDowneyJr.png', 'Im_BenAffleck.png', 'Im_OrlandoBloom.png', 'Im_MattDamon.png', 'Im_GeorgeClooney.png', 'Im_JustinTimberlake.png', 'Im_BradPitt.png'],diff,1,1.200141800014535,16,95.23809523809524,
EVES0409,4,neg,90,neg90_id10_im18.bmp_neg90_id1_im4.bmp,['Im_RyanGosling.png', 'Im_ElijahWood.png', 'Im_LeonardoDiCaprio.png', 'Im_RobertDowneyJr.png', 'Im_BenAffleck.png', 'Im_OrlandoBloom.png', 'Im_MattDamon.png', 'Im_GeorgeClooney.png', 'Im_JustinTimberlake.png', 'Im_BradPitt.png'],diff,1,0.45012260001385584,17,95.23809523809524,
EVES0409,4,neg,fs,negfs_id6_im19.bmp_negfs_id6_im18.bmp,['Im_RyanGosling.png', 'Im_ElijahWood.png', 'Im_LeonardoDiCaprio.png', 'Im_RobertDowneyJr.png', 'Im_BenAffleck.png', 'Im_OrlandoBloom.png', 'Im_MattDamon.png', 'Im_GeorgeClooney.png', 'Im_JustinTimberlake.png', 'Im_BradPitt.png'],same,1,1.0504210999934003,18,95.23809523809524,
EVES0409,4,neg,150,neg150_id3_im8.bmp_neg150_id16_im2.bmp,['Im_RyanGosling.png', 'Im_ElijahWood.png', 'Im_LeonardoDiCaprio.png', 'Im_RobertDowneyJr.png', 'Im_BenAffleck.png', 'Im_OrlandoBloom.png', 'Im_MattDamon.png', 'Im_GeorgeClooney.png', 'Im_JustinTimberlake.png', 'Im_BradPitt.png'],diff,1,0.6167203999939375,19,95.23809523809524,
EVES0409,4,neg,120,neg120_id1_im4.bmp_neg120_id10_im18.bmp,['Im_RyanGosling.png', 'Im_ElijahWood.png', 'Im_LeonardoDiCaprio.png', 'Im_RobertDowneyJr.png', 'Im_BenAffleck.png', 'Im_OrlandoBloom.png', 'Im_MattDamon.png', 'Im_GeorgeClooney.png', 'Im_JustinTimberlake.png', 'Im_BradPitt.png'],diff,1,0.5919501000025775,20,95.23809523809524,
EVES0409,4,neg,0,neg0_id18_im11.bmp_neg0_id3_im17.bmp,['Im_RyanGosling.png', 'Im_ElijahWood.png', 'Im_LeonardoDiCaprio.png', 'Im_RobertDowneyJr.png', 'Im_BenAffleck.png', 'Im_OrlandoBloom.png', 'Im_MattDamon.png', 'Im_GeorgeClooney.png', 'Im_JustinTimberlake.png', 'Im_BradPitt.png'],diff,1,0.449999399977969,21,95.23809523809524,
EVES0409,4,neg,60,neg60_id18_im19.bmp_neg60_id14_im24.bmp,['Im_RyanGosling.png', 'Im_ElijahWood.png', 'Im_LeonardoDiCaprio.png', 'Im_RobertDowneyJr.png', 'Im_BenAffleck.png', 'Im_OrlandoBloom.png', 'Im_MattDamon.png', 'Im_GeorgeClooney.png', 'Im_JustinTimberlake.png', 'Im_BradPitt.png'],diff,1,2.6667310999764595,22,95.23809523809524,
EVES0409,4,neg,120,neg120_id20_im30.bmp_neg120_id7_im26.bmp,['Im_RyanGosling.png', 'Im_ElijahWood.png', 'Im_LeonardoDiCaprio.png', 'Im_RobertDowneyJr.png', 'Im_BenAffleck.png', 'Im_OrlandoBloom.png', 'Im_MattDamon.png', 'Im_GeorgeClooney.png', 'Im_JustinTimberlake.png', 'Im_BradPitt.png'],diff,1,0.6833415000000969,23,95.23809523809524,
EVES0409,4,neg,0,neg0_id7_im26.bmp_neg0_id7_im15.bmp,['Im_RyanGosling.png', 'Im_ElijahWood.png', 'Im_LeonardoDiCaprio.png', 'Im_RobertDowneyJr.png', 'Im_BenAffleck.png', 'Im_OrlandoBloom.png', 'Im_MattDamon.png', 'Im_GeorgeClooney.png', 'Im_JustinTimberlake.png', 'Im_BradPitt.png'],same,1,0.5083637000061572,24,95.23809523809524,
EVES0409,4,neg,30,neg30_id13_im29.bmp_neg30_id20_im12.bmp,['Im_RyanGosling.png', 'Im_ElijahWood.png', 'Im_LeonardoDiCaprio.png', 'Im_RobertDowneyJr.png', 'Im_BenAffleck.png', 'Im_OrlandoBloom.png', 'Im_MattDamon.png', 'Im_GeorgeClooney.png', 'Im_JustinTimberlake.png', 'Im_BradPitt.png'],diff,1,1.1166427000134718,25,95.23809523809524,
EVES0409,5,pos,30,pos30_id20_im12.bmp_pos30_id20_im3.bmp,['Im_RyanGosling.png', 'Im_ElijahWood.png', 'Im_LeonardoDiCaprio.png', 'Im_RobertDowneyJr.png', 'Im_BenAffleck.png', 'Im_OrlandoBloom.png', 'Im_MattDamon.png', 'Im_GeorgeClooney.png', 'Im_JustinTimberlake.png', 'Im_BradPitt.png'],same,1,1.5168974999978673,26,95.23809523809524,
EVES0409,5,pos,fs,posfs_id10_im18.bmp_posfs_id1_im4.bmp,['Im_RyanGosling.png', 'Im_ElijahWood.png', 'Im_LeonardoDiCaprio.png', 'Im_RobertDowneyJr.png', 'Im_BenAffleck.png', 'Im_OrlandoBloom.png', 'Im_MattDamon.png', 'Im_GeorgeClooney.png', 'Im_JustinTimberlake.png', 'Im_BradPitt.png'],diff,1,1.016769399982877,27,95.23809523809524,
EVES0409,5,pos,90,pos90_id6_im19.bmp_pos90_id1_im24.bmp,['Im_RyanGosling.png', 'Im_ElijahWood.png', 'Im_LeonardoDiCaprio.png', 'Im_RobertDowneyJr.png', 'Im_BenAffleck.png', 'Im_OrlandoBloom.png', 'Im_MattDamon.png', 'Im_GeorgeClooney.png', 'Im_JustinTimberlake.png', 'Im_BradPitt.png'],diff,1,1.3003421000030357,28,95.23809523809524,
EVES0409,5,pos,120,pos120_id16_im19.bmp_pos120_id13_im15.bmp,['Im_RyanGosling.png', 'Im_ElijahWood.png', 'Im_LeonardoDiCaprio.png', 'Im_RobertDowneyJr.png', 'Im_BenAffleck.png', 'Im_OrlandoBloom.png', 'Im_MattDamon.png', 'Im_GeorgeClooney.png', 'Im_JustinTimberlake.png', 'Im_BradPitt.png'],diff,1,1.5417113000003155,29,95.23809523809524,
EVES0409,5,pos,90,pos90_id1_im4.bmp_pos90_id3_im6.bmp,['Im_RyanGosling.png', 'Im_ElijahWood.png', 'Im_LeonardoDiCaprio.png', 'Im_RobertDowneyJr.png', 'Im_BenAffleck.png', 'Im_OrlandoBloom.png', 'Im_MattDamon.png', 'Im_GeorgeClooney.png', 'Im_JustinTimberlake.png', 'Im_BradPitt.png'],diff,1,1.0253449000010733,30,95.23809523809524,
EVES0409,5,pos,30,pos30_id10_im1.bmp_pos30_id10_im18.bmp,['Im_RyanGosling.png', 'Im_ElijahWood.png', 'Im_LeonardoDiCaprio.png', 'Im_RobertDowneyJr.png', 'Im_BenAffleck.png', 'Im_OrlandoBloom.png', 'Im_MattDamon.png', 'Im_GeorgeClooney.png', 'Im_JustinTimberlake.png', 'Im_BradPitt.png'],diff,0,1.442185399995651,30,95.23809523809524,
EVES0409,5,pos,0,pos0_id20_im30.bmp_pos0_id16_im19.bmp,['Im_RyanGosling.png', 'Im_ElijahWood.png', 'Im_LeonardoDiCaprio.png', 'Im_RobertDowneyJr.png', 'Im_BenAffleck.png', 'Im_OrlandoBloom.png', 'Im_MattDamon.png', 'Im_GeorgeClooney.png', 'Im_JustinTimberlake.png', 'Im_BradPitt.png'],same,0,1.300253099994734,30,95.23809523809524,
EVES0409,5,pos,fs,posfs_id6_im12.bmp_posfs_id3_im17.bmp,['Im_RyanGosling.png', 'Im_ElijahWood.png', 'Im_LeonardoDiCaprio.png', 'Im_RobertDowneyJr.png', 'Im_BenAffleck.png', 'Im_OrlandoBloom.png', 'Im_MattDamon.png', 'Im_GeorgeClooney.png', 'Im_JustinTimberlake.png', 'Im_BradPitt.png'],diff,1,0.41667019997839816,31,95.23809523809524,
EVES0409,5,pos,120,pos120_id7_im26.bmp_pos120_id20_im30.bmp,['Im_RyanGosling.png', 'Im_ElijahWood.png', 'Im_LeonardoDiCaprio.png', 'Im_RobertDowneyJr.png', 'Im_BenAffleck.png', 'Im_OrlandoBloom.png', 'Im_MattDamon.png', 'Im_GeorgeClooney.png', 'Im_JustinTimberlake.png', 'Im_BradPitt.png'],diff,1,0.4250342000159435,32,95.23809523809524,
EVES0409,5,pos,60,pos60_id18_im19.bmp_pos60_id14_im24.bmp,['Im_RyanGosling.png', 'Im_ElijahWood.png', 'Im_LeonardoDiCaprio.png', 'Im_RobertDowneyJr.png', 'Im_BenAffleck.png', 'Im_OrlandoBloom.png', 'Im_MattDamon.png', 'Im_GeorgeClooney.png', 'Im_JustinTimberlake.png', 'Im_BradPitt.png'],diff,1,0.6420516999787651,33,95.23809523809524,
EVES0409,5,pos,0,pos0_id18_im18.bmp_pos0_id7_im26.bmp,['Im_RyanGosling.png', 'Im_ElijahWood.png', 'Im_LeonardoDiCaprio.png', 'Im_RobertDowneyJr.png', 'Im_BenAffleck.png', 'Im_OrlandoBloom.png', 'Im_MattDamon.png', 'Im_GeorgeClooney.png', 'Im_JustinTimberlake.png', 'Im_BradPitt.png'],diff,1,1.3335420000075828,34,95.23809523809524,
EVES0409,5,pos,150,pos150_id13_im10.bmp_pos150_id13_im15.bmp,['Im_RyanGosling.png', 'Im_ElijahWood.png', 'Im_LeonardoDiCaprio.png', 'Im_RobertDowneyJr.png', 'Im_BenAffleck.png', 'Im_OrlandoBloom.png', 'Im_MattDamon.png', 'Im_GeorgeClooney.png', 'Im_JustinTimberlake.png', 'Im_BradPitt.png'],same,1,0.49997929998789914,35,95.23809523809524,
EVES0409,5,pos,150,pos150_id13_im29.bmp_pos150_id13_im15.bmp,['Im_RyanGosling.png', 'Im_ElijahWood.png', 'Im_LeonardoDiCaprio.png', 'Im_RobertDowneyJr.png', 'Im_BenAffleck.png', 'Im_OrlandoBloom.png', 'Im_MattDamon.png', 'Im_GeorgeClooney.png', 'Im_JustinTimberlake.png', 'Im_BradPitt.png'],same,1,0.625188399979379,36,95.23809523809524,
EVES0409,5,pos,60,pos60_id1_im21.bmp_pos60_id1_im24.bmp,['Im_RyanGosling.png', 'Im_ElijahWood.png', 'Im_LeonardoDiCaprio.png', 'Im_RobertDowneyJr.png', 'Im_BenAffleck.png', 'Im_OrlandoBloom.png', 'Im_MattDamon.png', 'Im_GeorgeClooney.png', 'Im_JustinTimberlake.png', 'Im_BradPitt.png'],same,1,0.40837910000118427,37,95.23809523809524,
EVES0409,6,neg,0,neg0_id10_im18.bmp_neg0_id13_im29.bmp,['Im_RyanGosling.png', 'Im_ElijahWood.png', 'Im_LeonardoDiCaprio.png', 'Im_RobertDowneyJr.png', 'Im_BenAffleck.png', 'Im_OrlandoBloom.png', 'Im_MattDamon.png', 'Im_GeorgeClooney.png', 'Im_JustinTimberlake.png', 'Im_BradPitt.png'],diff,1,1.6087058999983128,1,88.0952380952381,
EVES0409,6,neg,fs,negfs_id14_im16.bmp_negfs_id14_im18.bmp,['Im_RyanGosling.png', 'Im_ElijahWood.png', 'Im_LeonardoDiCaprio.png', 'Im_RobertDowneyJr.png', 'Im_BenAffleck.png', 'Im_OrlandoBloom.png', 'Im_MattDamon.png', 'Im_GeorgeClooney.png', 'Im_JustinTimberlake.png', 'Im_BradPitt.png'],same,1,1.1333693000196945,2,88.0952380952381,
EVES0409,6,neg,30,neg30_id14_im16.bmp_neg30_id14_im18.bmp,['Im_RyanGosling.png', 'Im_ElijahWood.png', 'Im_LeonardoDiCaprio.png', 'Im_RobertDowneyJr.png', 'Im_BenAffleck.png', 'Im_OrlandoBloom.png', 'Im_MattDamon.png', 'Im_GeorgeClooney.png', 'Im_JustinTimberlake.png', 'Im_BradPitt.png'],diff,0,1.258537299989257,2,88.0952380952381,
EVES0409,6,neg,30,neg30_id1_im4.bmp_neg30_id10_im18.bmp,['Im_RyanGosling.png', 'Im_ElijahWood.png', 'Im_LeonardoDiCaprio.png', 'Im_RobertDowneyJr.png', 'Im_BenAffleck.png', 'Im_OrlandoBloom.png', 'Im_MattDamon.png', 'Im_GeorgeClooney.png', 'Im_JustinTimberlake.png', 'Im_BradPitt.png'],diff,1,0.42522470001131296,3,88.0952380952381,
EVES0409,6,neg,90,neg90_id18_im19.bmp_neg90_id18_im18.bmp,['Im_RyanGosling.png', 'Im_ElijahWood.png', 'Im_LeonardoDiCaprio.png', 'Im_RobertDowneyJr.png', 'Im_BenAffleck.png', 'Im_OrlandoBloom.png', 'Im_MattDamon.png', 'Im_GeorgeClooney.png', 'Im_JustinTimberlake.png', 'Im_BradPitt.png'],diff,0,1.458636099996511,3,88.0952380952381,
EVES0409,6,neg,60,neg60_id6_im19.bmp_neg60_id14_im16.bmp,['Im_RyanGosling.png', 'Im_ElijahWood.png', 'Im_LeonardoDiCaprio.png', 'Im_RobertDowneyJr.png', 'Im_BenAffleck.png', 'Im_OrlandoBloom.png', 'Im_MattDamon.png', 'Im_GeorgeClooney.png', 'Im_JustinTimberlake.png', 'Im_BradPitt.png'],diff,1,0.6167424000159372,4,88.0952380952381,
EVES0409,6,neg,60,neg60_id18_im11.bmp_neg60_id13_im15.bmp,['Im_RyanGosling.png', 'Im_ElijahWood.png', 'Im_LeonardoDiCaprio.png', 'Im_RobertDowneyJr.png', 'Im_BenAffleck.png', 'Im_OrlandoBloom.png', 'Im_MattDamon.png', 'Im_GeorgeClooney.png', 'Im_JustinTimberlake.png', 'Im_BradPitt.png'],diff,1,0.7916881999990437,5,88.0952380952381,
EVES0409,6,neg,fs,negfs_id18_im19.bmp_negfs_id18_im18.bmp,['Im_RyanGosling.png', 'Im_ElijahWood.png', 'Im_LeonardoDiCaprio.png', 'Im_RobertDowneyJr.png', 'Im_BenAffleck.png', 'Im_OrlandoBloom.png', 'Im_MattDamon.png', 'Im_GeorgeClooney.png', 'Im_JustinTimberlake.png', 'Im_BradPitt.png'],same,1,0.6998170000151731,6,88.0952380952381,
