Sujet,Trial,Condition,Filter,Imname,Actor0,Actor1,Actor2,Actor3,Actor4,Actor5,Actor6,Actor7,Actor8,Actor9,Answer,Accu,RT,Score,Scoreperc, 
FAAN2505,_,posfs_RyanReynolds_im17.bmp,RyanReynolds,PatrickDempsey,PatrickDempsey,ElijahWood,BenStiller,BradPitt,,,,,posfs_RyanReynolds_im17.bmp,3.5670020999987173,
FAAN2505,_,posfs_BradPitt_im14.bmp,BradPitt,MattDamon,MattDamon,DanielCraig,OrlandoBloom,LeonardoDiCaprio,,,,,posfs_BradPitt_im14.bmp,2.6825277999996615,
FAAN2505,_,posfs_HughJackman_im18.bmp,HughJackman,LeonardoDiCaprio,LeonardoDiCaprio,BradPitt,RyanGosling,DanielRadcliffe,,,,,posfs_HughJackman_im18.bmp,2.028165000001536,
FAAN2505,_,posfs_KeanuReeves_im10.bmp,KeanuReeves,MattDamon,MattDamon,OrlandoBloom,PatrickDempsey,LeonardoDiCaprio,,,,,posfs_KeanuReeves_im10.bmp,5.559919100000116,
FAAN2505,_,posfs_GeorgeClooney_im23.bmp,GeorgeClooney,BenAffleck,BenAffleck,MattDamon,OrlandoBloom,KeanuReeves,,,,,posfs_GeorgeClooney_im23.bmp,1.574548299999151,
FAAN2505,_,posfs_RobertPattinson_im4.bmp,RobertPattinson,DanielRadcliffe,DanielRadcliffe,RyanGosling,MattDamon,ElijahWood,,,,,posfs_RobertPattinson_im4.bmp,2.6285785999989457,
FAAN2505,_,posfs_LeonardoDiCaprio_im10.bmp,LeonardoDiCaprio,BenStiller,BenStiller,RyanGosling,PatrickDempsey,RobertPattinson,,,,,posfs_LeonardoDiCaprio_im10.bmp,2.2552892999992764,
FAAN2505,_,posfs_OrlandoBloom_im2.bmp,OrlandoBloom,BenAffleck,BenAffleck,RyanGosling,MattDamon,RobertDowneyJr,,,,,posfs_OrlandoBloom_im2.bmp,3.0518255999995745,
FAAN2505,_,posfs_RyanGosling_im30.bmp,RyanGosling,RyanReynolds,RyanReynolds,DanielCraig,PatrickDempsey,RobertPattinson,,,,,posfs_RyanGosling_im30.bmp,3.342562599998928,
FAAN2505,_,posfs_GeorgeClooney_im26.bmp,GeorgeClooney,LeonardoDiCaprio,LeonardoDiCaprio,RobertPattinson,BenAffleck,ElijahWood,,,,,posfs_GeorgeClooney_im26.bmp,2.134847400000581,
FAAN2505,_,posfs_GeorgeClooney_im15.bmp,GeorgeClooney,JustinTimberlake,JustinTimberlake,DanielRadcliffe,DanielCraig,BenAffleck,,,,,posfs_GeorgeClooney_im15.bmp,1.8870917000003828,
FAAN2505,_,posfs_KeanuReeves_im8.bmp,KeanuReeves,BenAffleck,BenAffleck,LeonardoDiCaprio,RyanGosling,GeorgeClooney,,,,,posfs_KeanuReeves_im8.bmp,2.113425499999721,
FAAN2505,_,posfs_RobertPattinson_im8.bmp,RobertPattinson,DanielRadcliffe,DanielRadcliffe,OrlandoBloom,MattDamon,RyanGosling,,,,,posfs_RobertPattinson_im8.bmp,1.6822114999995392,
FAAN2505,_,posfs_KeanuReeves_im2.bmp,KeanuReeves,HughJackman,HughJackman,GeorgeClooney,RobertPattinson,BenStiller,,,,,3,4.099904500000775,
FAAN2505,_,posfs_LeonardoDiCaprio_im15.bmp,LeonardoDiCaprio,RobertPattinson,RobertPattinson,DanielCraig,BradPitt,DanielRadcliffe,,,,,posfs_LeonardoDiCaprio_im15.bmp,1.6611222000010457,
FAAN2505,_,posfs_ElijahWood_im12.bmp,ElijahWood,DanielRadcliffe,DanielRadcliffe,RobertDowneyJr,GeorgeClooney,BenStiller,,,,,posfs_ElijahWood_im12.bmp,5.552190299998983,
FAAN2505,_,posfs_BenAffleck_im21.bmp,BenAffleck,RyanGosling,RyanGosling,GeorgeClooney,ElijahWood,BradPitt,,,,,posfs_BenAffleck_im21.bmp,2.575929599999654,
FAAN2505,_,posfs_JustinTimberlake_im4.bmp,JustinTimberlake,BenStiller,BenStiller,RobertDowneyJr,OrlandoBloom,PatrickDempsey,,,,,posfs_JustinTimberlake_im4.bmp,2.262740099999064,
FAAN2505,_,posfs_BenStiller_im16.bmp,BenStiller,KeanuReeves,KeanuReeves,MattDamon,JustinTimberlake,BenAffleck,,,,,posfs_BenStiller_im16.bmp,2.288157400000273,
FAAN2505,_,posfs_PatrickDempsey_im9.bmp,PatrickDempsey,HughJackman,HughJackman,RobertDowneyJr,KeanuReeves,BenAffleck,,,,,posfs_PatrickDempsey_im9.bmp,2.322428099998433,
FAAN2505,_,posfs_OrlandoBloom_im19.bmp,OrlandoBloom,ElijahWood,ElijahWood,DanielCraig,PatrickDempsey,LeonardoDiCaprio,,,,,posfs_OrlandoBloom_im19.bmp,3.683575800001563,
FAAN2505,_,posfs_GeorgeClooney_im14.bmp,GeorgeClooney,KeanuReeves,KeanuReeves,LeonardoDiCaprio,PatrickDempsey,RobertPattinson,,,,,posfs_GeorgeClooney_im14.bmp,1.8290448000007018,
FAAN2505,_,posfs_RyanGosling_im25.bmp,RyanGosling,DanielCraig,DanielCraig,KeanuReeves,BradPitt,MattDamon,,,,,posfs_RyanGosling_im25.bmp,2.0907583000007435,
FAAN2505,_,posfs_RobertDowneyJr_im18.bmp,RobertDowneyJr,MattDamon,MattDamon,BradPitt,GeorgeClooney,JustinTimberlake,,,,,posfs_RobertDowneyJr_im18.bmp,1.3082766999996238,
FAAN2505,_,posfs_RyanReynolds_im22.bmp,RyanReynolds,JustinTimberlake,JustinTimberlake,BradPitt,KeanuReeves,LeonardoDiCaprio,,,,,posfs_RyanReynolds_im22.bmp,1.7495218999993085,
FAAN2505,_,posfs_DanielRadcliffe_im20.bmp,DanielRadcliffe,GeorgeClooney,GeorgeClooney,ElijahWood,RobertPattinson,KeanuReeves,,,,,posfs_DanielRadcliffe_im20.bmp,1.53327790000003,
FAAN2505,_,posfs_MattDamon_im24.bmp,MattDamon,RobertDowneyJr,RobertDowneyJr,BradPitt,HughJackman,RobertPattinson,,,,,posfs_MattDamon_im24.bmp,2.061515800000052,
FAAN2505,_,posfs_BenStiller_im3.bmp,BenStiller,ElijahWood,ElijahWood,JustinTimberlake,BradPitt,RobertDowneyJr,,,,,posfs_BenStiller_im3.bmp,2.5919296000010945,
FAAN2505,_,posfs_DanielRadcliffe_im1.bmp,DanielRadcliffe,BradPitt,BradPitt,LeonardoDiCaprio,BenStiller,RobertPattinson,,,,,posfs_DanielRadcliffe_im1.bmp,1.4602059000008012,
FAAN2505,_,posfs_ElijahWood_im19.bmp,ElijahWood,PatrickDempsey,PatrickDempsey,RyanReynolds,BenAffleck,OrlandoBloom,,,,,posfs_ElijahWood_im19.bmp,3.0238540999998804,
FAAN2505,_,posfs_RyanGosling_im3.bmp,RyanGosling,RobertPattinson,RobertPattinson,PatrickDempsey,DanielCraig,JustinTimberlake,,,,,posfs_RyanGosling_im3.bmp,1.1403844000014942,
FAAN2505,_,posfs_DanielRadcliffe_im8.bmp,DanielRadcliffe,MattDamon,MattDamon,PatrickDempsey,RyanReynolds,RobertDowneyJr,,,,,posfs_DanielRadcliffe_im8.bmp,1.5875628000012512,
FAAN2505,_,posfs_MattDamon_im9.bmp,MattDamon,BradPitt,BradPitt,HughJackman,DanielCraig,LeonardoDiCaprio,,,,,posfs_MattDamon_im9.bmp,2.058134999999311,
FAAN2505,_,posfs_BradPitt_im6.bmp,BradPitt,RyanGosling,RyanGosling,RobertDowneyJr,OrlandoBloom,HughJackman,,,,,posfs_BradPitt_im6.bmp,1.5738781000000017,
FAAN2505,_,posfs_HughJackman_im21.bmp,HughJackman,OrlandoBloom,OrlandoBloom,GeorgeClooney,RyanGosling,BradPitt,,,,,posfs_HughJackman_im21.bmp,1.9560615999998845,
FAAN2505,_,posfs_DanielRadcliffe_im10.bmp,DanielRadcliffe,LeonardoDiCaprio,LeonardoDiCaprio,KeanuReeves,ElijahWood,MattDamon,,,,,posfs_DanielRadcliffe_im10.bmp,1.7463442999996914,
FAAN2505,_,posfs_RobertDowneyJr_im19.bmp,RobertDowneyJr,DanielRadcliffe,DanielRadcliffe,DanielCraig,PatrickDempsey,BenStiller,,,,,posfs_RobertDowneyJr_im19.bmp,3.7399081000003207,
FAAN2505,_,posfs_RobertPattinson_im30.bmp,RobertPattinson,DanielRadcliffe,DanielRadcliffe,DanielCraig,BenAffleck,JustinTimberlake,,,,,posfs_RobertPattinson_im30.bmp,2.5151931999989756,
FAAN2505,_,posfs_DanielCraig_im15.bmp,DanielCraig,BenAffleck,BenAffleck,MattDamon,BenStiller,HughJackman,,,,,posfs_DanielCraig_im15.bmp,1.9575084000007337,
FAAN2505,_,posfs_DanielCraig_im8.bmp,DanielCraig,RobertPattinson,RobertPattinson,BenAffleck,BenStiller,LeonardoDiCaprio,,,,,posfs_DanielCraig_im8.bmp,0.6358925000004092,
FAAN2505,_,posfs_RyanGosling_im12.bmp,RyanGosling,PatrickDempsey,PatrickDempsey,RyanReynolds,BradPitt,DanielCraig,,,,,posfs_RyanGosling_im12.bmp,2.991424800000459,
FAAN2505,_,posfs_PatrickDempsey_im14.bmp,PatrickDempsey,KeanuReeves,KeanuReeves,RobertDowneyJr,HughJackman,RyanReynolds,,,,,posfs_PatrickDempsey_im14.bmp,4.0597818000005645,
FAAN2505,_,posfs_PatrickDempsey_im8.bmp,PatrickDempsey,BenStiller,BenStiller,MattDamon,BradPitt,RyanGosling,,,,,posfs_PatrickDempsey_im8.bmp,2.6144328999998834,
FAAN2505,_,posfs_MattDamon_im18.bmp,MattDamon,DanielCraig,DanielCraig,PatrickDempsey,DanielRadcliffe,ElijahWood,,,,,posfs_MattDamon_im18.bmp,1.3713217999993503,
FAAN2505,_,posfs_BenAffleck_im4.bmp,BenAffleck,BenStiller,BenStiller,KeanuReeves,ElijahWood,PatrickDempsey,,,,,posfs_BenAffleck_im4.bmp,3.6499275999995007,
FAAN2505,_,posfs_RobertDowneyJr_im4.bmp,RobertDowneyJr,RyanGosling,RyanGosling,BradPitt,HughJackman,ElijahWood,,,,,posfs_RobertDowneyJr_im4.bmp,7.9171839999999065,
FAAN2505,_,posfs_LeonardoDiCaprio_im24.bmp,LeonardoDiCaprio,DanielCraig,DanielCraig,BradPitt,PatrickDempsey,RyanGosling,,,,,posfs_LeonardoDiCaprio_im24.bmp,4.205922200000714,
FAAN2505,_,posfs_DanielCraig_im7.bmp,DanielCraig,BenAffleck,BenAffleck,KeanuReeves,PatrickDempsey,DanielRadcliffe,,,,,posfs_DanielCraig_im7.bmp,1.5638712999989366,
FAAN2505,_,posfs_BradPitt_im8.bmp,BradPitt,BenStiller,BenStiller,BenAffleck,OrlandoBloom,RobertPattinson,,,,,posfs_BradPitt_im8.bmp,1.8507618000003276,
FAAN2505,_,posfs_LeonardoDiCaprio_im29.bmp,LeonardoDiCaprio,RobertDowneyJr,RobertDowneyJr,PatrickDempsey,OrlandoBloom,DanielCraig,,,,,posfs_LeonardoDiCaprio_im29.bmp,2.102811099999599,
FAAN2505,_,posfs_RyanReynolds_im16.bmp,RyanReynolds,OrlandoBloom,OrlandoBloom,RobertPattinson,RyanGosling,LeonardoDiCaprio,,,,,posfs_RyanReynolds_im16.bmp,1.8883029999997234,
FAAN2505,_,posfs_MattDamon_im16.bmp,MattDamon,LeonardoDiCaprio,LeonardoDiCaprio,RyanGosling,KeanuReeves,BenStiller,,,,,posfs_MattDamon_im16.bmp,2.33838040000046,
FAAN2505,_,posfs_RobertPattinson_im27.bmp,RobertPattinson,RyanReynolds,RyanReynolds,OrlandoBloom,MattDamon,KeanuReeves,,,,,posfs_RobertPattinson_im27.bmp,1.4731584000001021,
FAAN2505,_,posfs_RyanReynolds_im3.bmp,RyanReynolds,BenAffleck,BenAffleck,DanielCraig,MattDamon,OrlandoBloom,,,,,posfs_RyanReynolds_im3.bmp,2.68469929999992,
FAAN2505,_,posfs_BenAffleck_im24.bmp,BenAffleck,OrlandoBloom,OrlandoBloom,DanielRadcliffe,MattDamon,GeorgeClooney,,,,,posfs_BenAffleck_im24.bmp,1.6474032000005536,
FAAN2505,_,posfs_JustinTimberlake_im17.bmp,JustinTimberlake,MattDamon,MattDamon,LeonardoDiCaprio,ElijahWood,GeorgeClooney,,,,,4,13.585989600000175,
FAAN2505,_,posfs_HughJackman_im13.bmp,HughJackman,BradPitt,BradPitt,PatrickDempsey,MattDamon,RobertPattinson,,,,,posfs_HughJackman_im13.bmp,2.911999800000558,
FAAN2505,_,posfs_ElijahWood_im23.bmp,ElijahWood,BenAffleck,BenAffleck,RyanGosling,BenStiller,RobertDowneyJr,,,,,posfs_ElijahWood_im23.bmp,2.2578665999990335,
FAAN2505,_,posfs_JustinTimberlake_im1.bmp,JustinTimberlake,BenAffleck,BenAffleck,ElijahWood,PatrickDempsey,HughJackman,,,,,posfs_JustinTimberlake_im1.bmp,1.3165095999993355,
FAAN2505,_,posfs_DanielCraig_im20.bmp,DanielCraig,BenStiller,BenStiller,BradPitt,LeonardoDiCaprio,OrlandoBloom,,,,,posfs_DanielCraig_im20.bmp,2.101315699999759,
FAAN2505,_,posfs_RobertDowneyJr_im11.bmp,RobertDowneyJr,HughJackman,HughJackman,RyanGosling,JustinTimberlake,BenStiller,,,,,posfs_RobertDowneyJr_im11.bmp,1.2066102999997383,
FAAN2505,_,posfs_ElijahWood_im18.bmp,ElijahWood,PatrickDempsey,PatrickDempsey,JustinTimberlake,RobertPattinson,RobertDowneyJr,,,,,posfs_ElijahWood_im18.bmp,1.4365186999984871,
FAAN2505,_,posfs_HughJackman_im20.bmp,HughJackman,JustinTimberlake,JustinTimberlake,RyanReynolds,DanielCraig,OrlandoBloom,,,,,posfs_HughJackman_im20.bmp,2.4962876999998116,
FAAN2505,_,posfs_BradPitt_im17.bmp,BradPitt,PatrickDempsey,PatrickDempsey,LeonardoDiCaprio,JustinTimberlake,HughJackman,,,,,posfs_BradPitt_im17.bmp,1.2978488999997353,
FAAN2505,_,posfs_OrlandoBloom_im30.bmp,OrlandoBloom,JustinTimberlake,JustinTimberlake,BradPitt,KeanuReeves,RyanGosling,,,,,posfs_OrlandoBloom_im30.bmp,1.4036926000007952,
FAAN2505,_,posfs_JustinTimberlake_im18.bmp,JustinTimberlake,ElijahWood,ElijahWood,RyanGosling,DanielRadcliffe,LeonardoDiCaprio,,,,,posfs_JustinTimberlake_im18.bmp,1.9932616999994934,
FAAN2505,_,posfs_PatrickDempsey_im16.bmp,PatrickDempsey,BradPitt,BradPitt,DanielCraig,DanielRadcliffe,LeonardoDiCaprio,,,,,posfs_PatrickDempsey_im16.bmp,1.574952699998903,
FAAN2505,_,posfs_KeanuReeves_im1.bmp,KeanuReeves,LeonardoDiCaprio,LeonardoDiCaprio,BradPitt,JustinTimberlake,RobertPattinson,,,,,4,4.5820079000004625,
FAAN2505,_,posfs_OrlandoBloom_im3.bmp,OrlandoBloom,RobertPattinson,RobertPattinson,RyanReynolds,RyanGosling,RobertDowneyJr,,,,,posfs_OrlandoBloom_im3.bmp,1.3238633000000846,
FAAN2505,_,posfs_BenAffleck_im8.bmp,BenAffleck,OrlandoBloom,OrlandoBloom,RobertPattinson,RyanReynolds,MattDamon,,,,,posfs_BenAffleck_im8.bmp,3.7404256999998324,
FAAN2505,_,posfs_BenStiller_im7.bmp,BenStiller,LeonardoDiCaprio,LeonardoDiCaprio,RyanGosling,DanielCraig,PatrickDempsey,,,,,posfs_BenStiller_im7.bmp,2.1081544000007852,
FAAN2505,_,posfs_BenStiller_im2.bmp,BenStiller,RobertDowneyJr,RobertDowneyJr,GeorgeClooney,DanielCraig,RyanReynolds,,,,,posfs_BenStiller_im2.bmp,2.629826899999898,
FAAN2505,train,pos,fs,posfs_id8_im13.bmp_posfs_id18_im19.bmp,['Im_GeorgeClooney.png', 'Im_RyanReynolds.png', 'Im_BenAffleck.png', 'Im_LeonardoDiCaprio.png', 'Im_RobertDowneyJr.png', 'Im_RyanGosling.png', 'Im_HughJackman.png', 'Im_BenStiller.png', 'Im_RobertPattinson.png', 'Im_PatrickDempsey.png'],diff,1,2.0669581000001926,1,0,
FAAN2505,train,pos,fs,posfs_id19_im27.bmp_posfs_id19_im4.bmp,['Im_GeorgeClooney.png', 'Im_RyanReynolds.png', 'Im_BenAffleck.png', 'Im_LeonardoDiCaprio.png', 'Im_RobertDowneyJr.png', 'Im_RyanGosling.png', 'Im_HughJackman.png', 'Im_BenStiller.png', 'Im_RobertPattinson.png', 'Im_PatrickDempsey.png'],same,1,2.1581504000005225,2,0,
FAAN2505,train,pos,fs,posfs_id19_im4.bmp_posfs_id2_im3.bmp,['Im_GeorgeClooney.png', 'Im_RyanReynolds.png', 'Im_BenAffleck.png', 'Im_LeonardoDiCaprio.png', 'Im_RobertDowneyJr.png', 'Im_RyanGosling.png', 'Im_HughJackman.png', 'Im_BenStiller.png', 'Im_RobertPattinson.png', 'Im_PatrickDempsey.png'],diff,1,1.0497152999996615,3,0,
FAAN2505,train,pos,fs,posfs_id21_im22.bmp_posfs_id21_im17.bmp,['Im_GeorgeClooney.png', 'Im_RyanReynolds.png', 'Im_BenAffleck.png', 'Im_LeonardoDiCaprio.png', 'Im_RobertDowneyJr.png', 'Im_RyanGosling.png', 'Im_HughJackman.png', 'Im_BenStiller.png', 'Im_RobertPattinson.png', 'Im_PatrickDempsey.png'],same,1,1.7083421000006638,4,0,
FAAN2505,train,pos,fs,posfs_id20_im12.bmp_posfs_id20_im3.bmp,['Im_GeorgeClooney.png', 'Im_RyanReynolds.png', 'Im_BenAffleck.png', 'Im_LeonardoDiCaprio.png', 'Im_RobertDowneyJr.png', 'Im_RyanGosling.png', 'Im_HughJackman.png', 'Im_BenStiller.png', 'Im_RobertPattinson.png', 'Im_PatrickDempsey.png'],same,1,1.9167391000009957,5,0,
FAAN2505,train,pos,fs,posfs_id17_im9.bmp_posfs_id17_im14.bmp,['Im_GeorgeClooney.png', 'Im_RyanReynolds.png', 'Im_BenAffleck.png', 'Im_LeonardoDiCaprio.png', 'Im_RobertDowneyJr.png', 'Im_RyanGosling.png', 'Im_HughJackman.png', 'Im_BenStiller.png', 'Im_RobertPattinson.png', 'Im_PatrickDempsey.png'],same,1,1.2168533999993087,6,0,
FAAN2505,train,pos,fs,posfs_id1_im24.bmp_posfs_id8_im21.bmp,['Im_GeorgeClooney.png', 'Im_RyanReynolds.png', 'Im_BenAffleck.png', 'Im_LeonardoDiCaprio.png', 'Im_RobertDowneyJr.png', 'Im_RyanGosling.png', 'Im_HughJackman.png', 'Im_BenStiller.png', 'Im_RobertPattinson.png', 'Im_PatrickDempsey.png'],diff,1,0.9250374000002921,7,0,
FAAN2505,train,pos,fs,posfs_id21_im22.bmp_posfs_id19_im27.bmp,['Im_GeorgeClooney.png', 'Im_RyanReynolds.png', 'Im_BenAffleck.png', 'Im_LeonardoDiCaprio.png', 'Im_RobertDowneyJr.png', 'Im_RyanGosling.png', 'Im_HughJackman.png', 'Im_BenStiller.png', 'Im_RobertPattinson.png', 'Im_PatrickDempsey.png'],diff,1,1.2665103999988787,8,0,
FAAN2505,train,pos,fs,posfs_id20_im30.bmp_posfs_id2_im2.bmp,['Im_GeorgeClooney.png', 'Im_RyanReynolds.png', 'Im_BenAffleck.png', 'Im_LeonardoDiCaprio.png', 'Im_RobertDowneyJr.png', 'Im_RyanGosling.png', 'Im_HughJackman.png', 'Im_BenStiller.png', 'Im_RobertPattinson.png', 'Im_PatrickDempsey.png'],diff,1,1.0081946999998763,9,0,
FAAN2505,train,pos,fs,posfs_id13_im29.bmp_posfs_id13_im10.bmp,['Im_GeorgeClooney.png', 'Im_RyanReynolds.png', 'Im_BenAffleck.png', 'Im_LeonardoDiCaprio.png', 'Im_RobertDowneyJr.png', 'Im_RyanGosling.png', 'Im_HughJackman.png', 'Im_BenStiller.png', 'Im_RobertPattinson.png', 'Im_PatrickDempsey.png'],same,1,1.0332462999995187,10,0,
FAAN2505,train,pos,fs,posfs_id8_im20.bmp_posfs_id1_im24.bmp,['Im_GeorgeClooney.png', 'Im_RyanReynolds.png', 'Im_BenAffleck.png', 'Im_LeonardoDiCaprio.png', 'Im_RobertDowneyJr.png', 'Im_RyanGosling.png', 'Im_HughJackman.png', 'Im_BenStiller.png', 'Im_RobertPattinson.png', 'Im_PatrickDempsey.png'],diff,1,1.1834022000002733,11,0,
FAAN2505,train,pos,fs,posfs_id21_im16.bmp_posfs_id21_im17.bmp,['Im_GeorgeClooney.png', 'Im_RyanReynolds.png', 'Im_BenAffleck.png', 'Im_LeonardoDiCaprio.png', 'Im_RobertDowneyJr.png', 'Im_RyanGosling.png', 'Im_HughJackman.png', 'Im_BenStiller.png', 'Im_RobertPattinson.png', 'Im_PatrickDempsey.png'],same,1,1.2083576999993966,12,0,
FAAN2505,train,pos,fs,posfs_id20_im30.bmp_posfs_id13_im29.bmp,['Im_GeorgeClooney.png', 'Im_RyanReynolds.png', 'Im_BenAffleck.png', 'Im_LeonardoDiCaprio.png', 'Im_RobertDowneyJr.png', 'Im_RyanGosling.png', 'Im_HughJackman.png', 'Im_BenStiller.png', 'Im_RobertPattinson.png', 'Im_PatrickDempsey.png'],diff,1,0.9337004000008164,13,0,
FAAN2505,train,pos,fs,posfs_id1_im21.bmp_posfs_id2_im16.bmp,['Im_GeorgeClooney.png', 'Im_RyanReynolds.png', 'Im_BenAffleck.png', 'Im_LeonardoDiCaprio.png', 'Im_RobertDowneyJr.png', 'Im_RyanGosling.png', 'Im_HughJackman.png', 'Im_BenStiller.png', 'Im_RobertPattinson.png', 'Im_PatrickDempsey.png'],diff,1,1.6335591000006389,14,0,
FAAN2505,train,pos,fs,posfs_id7_im26.bmp_posfs_id20_im3.bmp,['Im_GeorgeClooney.png', 'Im_RyanReynolds.png', 'Im_BenAffleck.png', 'Im_LeonardoDiCaprio.png', 'Im_RobertDowneyJr.png', 'Im_RyanGosling.png', 'Im_HughJackman.png', 'Im_BenStiller.png', 'Im_RobertPattinson.png', 'Im_PatrickDempsey.png'],diff,1,2.5666235000007873,15,0,
FAAN2505,train,pos,fs,posfs_id17_im9.bmp_posfs_id17_im8.bmp,['Im_GeorgeClooney.png', 'Im_RyanReynolds.png', 'Im_BenAffleck.png', 'Im_LeonardoDiCaprio.png', 'Im_RobertDowneyJr.png', 'Im_RyanGosling.png', 'Im_HughJackman.png', 'Im_BenStiller.png', 'Im_RobertPattinson.png', 'Im_PatrickDempsey.png'],same,1,1.1748743999996805,16,0,
FAAN2505,train,pos,fs,posfs_id18_im11.bmp_posfs_id18_im19.bmp,['Im_GeorgeClooney.png', 'Im_RyanReynolds.png', 'Im_BenAffleck.png', 'Im_LeonardoDiCaprio.png', 'Im_RobertDowneyJr.png', 'Im_RyanGosling.png', 'Im_HughJackman.png', 'Im_BenStiller.png', 'Im_RobertPattinson.png', 'Im_PatrickDempsey.png'],same,1,1.3498959999997169,17,0,
FAAN2505,train,pos,fs,posfs_id13_im29.bmp_posfs_id17_im9.bmp,['Im_GeorgeClooney.png', 'Im_RyanReynolds.png', 'Im_BenAffleck.png', 'Im_LeonardoDiCaprio.png', 'Im_RobertDowneyJr.png', 'Im_RyanGosling.png', 'Im_HughJackman.png', 'Im_BenStiller.png', 'Im_RobertPattinson.png', 'Im_PatrickDempsey.png'],diff,1,1.5083875999989687,18,0,
FAAN2505,train,pos,fs,posfs_id2_im16.bmp_posfs_id2_im2.bmp,['Im_GeorgeClooney.png', 'Im_RyanReynolds.png', 'Im_BenAffleck.png', 'Im_LeonardoDiCaprio.png', 'Im_RobertDowneyJr.png', 'Im_RyanGosling.png', 'Im_HughJackman.png', 'Im_BenStiller.png', 'Im_RobertPattinson.png', 'Im_PatrickDempsey.png'],same,1,1.0249049000012747,19,0,
FAAN2505,train,pos,fs,posfs_id2_im2.bmp_posfs_id2_im3.bmp,['Im_GeorgeClooney.png', 'Im_RyanReynolds.png', 'Im_BenAffleck.png', 'Im_LeonardoDiCaprio.png', 'Im_RobertDowneyJr.png', 'Im_RyanGosling.png', 'Im_HughJackman.png', 'Im_BenStiller.png', 'Im_RobertPattinson.png', 'Im_PatrickDempsey.png'],diff,0,2.2416632999993453,19,0,
FAAN2505,train,neg,fs,negfs_id18_im18.bmp_negfs_id18_im19.bmp,['Im_GeorgeClooney.png', 'Im_RyanReynolds.png', 'Im_BenAffleck.png', 'Im_LeonardoDiCaprio.png', 'Im_RobertDowneyJr.png', 'Im_RyanGosling.png', 'Im_HughJackman.png', 'Im_BenStiller.png', 'Im_RobertPattinson.png', 'Im_PatrickDempsey.png'],same,1,1.6166902999993908,1,0,
FAAN2505,train,inv,fs,posfs_id20_im30.bmp_posfs_id13_im29.bmp,['Im_GeorgeClooney.png', 'Im_RyanReynolds.png', 'Im_BenAffleck.png', 'Im_LeonardoDiCaprio.png', 'Im_RobertDowneyJr.png', 'Im_RyanGosling.png', 'Im_HughJackman.png', 'Im_BenStiller.png', 'Im_RobertPattinson.png', 'Im_PatrickDempsey.png'],diff,1,0.6000010000007023,2,0,
FAAN2505,train,neg,fs,negfs_id18_im18.bmp_negfs_id17_im14.bmp,['Im_GeorgeClooney.png', 'Im_RyanReynolds.png', 'Im_BenAffleck.png', 'Im_LeonardoDiCaprio.png', 'Im_RobertDowneyJr.png', 'Im_RyanGosling.png', 'Im_HughJackman.png', 'Im_BenStiller.png', 'Im_RobertPattinson.png', 'Im_PatrickDempsey.png'],diff,1,1.2082523999997647,3,0,
FAAN2505,train,inv,fs,posfs_id8_im20.bmp_posfs_id1_im24.bmp,['Im_GeorgeClooney.png', 'Im_RyanReynolds.png', 'Im_BenAffleck.png', 'Im_LeonardoDiCaprio.png', 'Im_RobertDowneyJr.png', 'Im_RyanGosling.png', 'Im_HughJackman.png', 'Im_BenStiller.png', 'Im_RobertPattinson.png', 'Im_PatrickDempsey.png'],same,0,2.3167498000002524,3,0,
FAAN2505,train,inv,fs,posfs_id17_im9.bmp_posfs_id17_im8.bmp,['Im_GeorgeClooney.png', 'Im_RyanReynolds.png', 'Im_BenAffleck.png', 'Im_LeonardoDiCaprio.png', 'Im_RobertDowneyJr.png', 'Im_RyanGosling.png', 'Im_HughJackman.png', 'Im_BenStiller.png', 'Im_RobertPattinson.png', 'Im_PatrickDempsey.png'],same,1,1.7834074999991572,4,0,
FAAN2505,train,inv,fs,posfs_id21_im17.bmp_posfs_id21_im16.bmp,['Im_GeorgeClooney.png', 'Im_RyanReynolds.png', 'Im_BenAffleck.png', 'Im_LeonardoDiCaprio.png', 'Im_RobertDowneyJr.png', 'Im_RyanGosling.png', 'Im_HughJackman.png', 'Im_BenStiller.png', 'Im_RobertPattinson.png', 'Im_PatrickDempsey.png'],same,1,1.8250934999996389,5,0,
FAAN2505,train,inv,fs,posfs_id18_im11.bmp_posfs_id18_im19.bmp,['Im_GeorgeClooney.png', 'Im_RyanReynolds.png', 'Im_BenAffleck.png', 'Im_LeonardoDiCaprio.png', 'Im_RobertDowneyJr.png', 'Im_RyanGosling.png', 'Im_HughJackman.png', 'Im_BenStiller.png', 'Im_RobertPattinson.png', 'Im_PatrickDempsey.png'],same,1,2.2668215000012424,6,0,
FAAN2505,train,neg,fs,negfs_id2_im2.bmp_negfs_id8_im13.bmp,['Im_GeorgeClooney.png', 'Im_RyanReynolds.png', 'Im_BenAffleck.png', 'Im_LeonardoDiCaprio.png', 'Im_RobertDowneyJr.png', 'Im_RyanGosling.png', 'Im_HughJackman.png', 'Im_BenStiller.png', 'Im_RobertPattinson.png', 'Im_PatrickDempsey.png'],diff,1,0.9916317999995954,7,0,
FAAN2505,train,pos,fs,posfs_id20_im30.bmp_posfs_id2_im2.bmp,['Im_GeorgeClooney.png', 'Im_RyanReynolds.png', 'Im_BenAffleck.png', 'Im_LeonardoDiCaprio.png', 'Im_RobertDowneyJr.png', 'Im_RyanGosling.png', 'Im_HughJackman.png', 'Im_BenStiller.png', 'Im_RobertPattinson.png', 'Im_PatrickDempsey.png'],diff,1,0.600234300000011,8,0,
FAAN2505,train,inv,fs,posfs_id7_im14.bmp_posfs_id7_im26.bmp,['Im_GeorgeClooney.png', 'Im_RyanReynolds.png', 'Im_BenAffleck.png', 'Im_LeonardoDiCaprio.png', 'Im_RobertDowneyJr.png', 'Im_RyanGosling.png', 'Im_HughJackman.png', 'Im_BenStiller.png', 'Im_RobertPattinson.png', 'Im_PatrickDempsey.png'],same,1,0.6083854999997129,9,0,
FAAN2505,train,pos,fs,posfs_id8_im20.bmp_posfs_id8_im13.bmp,['Im_GeorgeClooney.png', 'Im_RyanReynolds.png', 'Im_BenAffleck.png', 'Im_LeonardoDiCaprio.png', 'Im_RobertDowneyJr.png', 'Im_RyanGosling.png', 'Im_HughJackman.png', 'Im_BenStiller.png', 'Im_RobertPattinson.png', 'Im_PatrickDempsey.png'],same,1,0.8592776999994385,10,0,
FAAN2505,train,neg,fs,negfs_id19_im27.bmp_negfs_id17_im8.bmp,['Im_GeorgeClooney.png', 'Im_RyanReynolds.png', 'Im_BenAffleck.png', 'Im_LeonardoDiCaprio.png', 'Im_RobertDowneyJr.png', 'Im_RyanGosling.png', 'Im_HughJackman.png', 'Im_BenStiller.png', 'Im_RobertPattinson.png', 'Im_PatrickDempsey.png'],diff,1,0.7834757000000536,11,0,
FAAN2505,train,pos,fs,posfs_id13_im15.bmp_posfs_id21_im17.bmp,['Im_GeorgeClooney.png', 'Im_RyanReynolds.png', 'Im_BenAffleck.png', 'Im_LeonardoDiCaprio.png', 'Im_RobertDowneyJr.png', 'Im_RyanGosling.png', 'Im_HughJackman.png', 'Im_BenStiller.png', 'Im_RobertPattinson.png', 'Im_PatrickDempsey.png'],diff,1,0.6086159000005864,12,0,
FAAN2505,train,inv,fs,posfs_id19_im8.bmp_posfs_id2_im3.bmp,['Im_GeorgeClooney.png', 'Im_RyanReynolds.png', 'Im_BenAffleck.png', 'Im_LeonardoDiCaprio.png', 'Im_RobertDowneyJr.png', 'Im_RyanGosling.png', 'Im_HughJackman.png', 'Im_BenStiller.png', 'Im_RobertPattinson.png', 'Im_PatrickDempsey.png'],diff,1,0.7002603999990242,13,0,
FAAN2505,train,pos,fs,posfs_id13_im10.bmp_posfs_id13_im15.bmp,['Im_GeorgeClooney.png', 'Im_RyanReynolds.png', 'Im_BenAffleck.png', 'Im_LeonardoDiCaprio.png', 'Im_RobertDowneyJr.png', 'Im_RyanGosling.png', 'Im_HughJackman.png', 'Im_BenStiller.png', 'Im_RobertPattinson.png', 'Im_PatrickDempsey.png'],same,1,0.6168821999999636,14,0,
FAAN2505,train,neg,fs,negfs_id20_im12.bmp_negfs_id20_im3.bmp,['Im_GeorgeClooney.png', 'Im_RyanReynolds.png', 'Im_BenAffleck.png', 'Im_LeonardoDiCaprio.png', 'Im_RobertDowneyJr.png', 'Im_RyanGosling.png', 'Im_HughJackman.png', 'Im_BenStiller.png', 'Im_RobertPattinson.png', 'Im_PatrickDempsey.png'],same,1,0.9334584999996878,15,0,
FAAN2505,train,pos,fs,posfs_id20_im3.bmp_posfs_id7_im26.bmp,['Im_GeorgeClooney.png', 'Im_RyanReynolds.png', 'Im_BenAffleck.png', 'Im_LeonardoDiCaprio.png', 'Im_RobertDowneyJr.png', 'Im_RyanGosling.png', 'Im_HughJackman.png', 'Im_BenStiller.png', 'Im_RobertPattinson.png', 'Im_PatrickDempsey.png'],diff,1,0.7169938999995793,16,0,
FAAN2505,train,pos,fs,posfs_id19_im8.bmp_posfs_id19_im4.bmp,['Im_GeorgeClooney.png', 'Im_RyanReynolds.png', 'Im_BenAffleck.png', 'Im_LeonardoDiCaprio.png', 'Im_RobertDowneyJr.png', 'Im_RyanGosling.png', 'Im_HughJackman.png', 'Im_BenStiller.png', 'Im_RobertPattinson.png', 'Im_PatrickDempsey.png'],same,1,0.6167314000012993,17,0,
FAAN2505,train,neg,fs,negfs_id1_im24.bmp_negfs_id8_im20.bmp,['Im_GeorgeClooney.png', 'Im_RyanReynolds.png', 'Im_BenAffleck.png', 'Im_LeonardoDiCaprio.png', 'Im_RobertDowneyJr.png', 'Im_RyanGosling.png', 'Im_HughJackman.png', 'Im_BenStiller.png', 'Im_RobertPattinson.png', 'Im_PatrickDempsey.png'],diff,1,0.6675451000010071,18,0,
FAAN2505,train,pos,fs,posfs_id2_im2.bmp_posfs_id2_im16.bmp,['Im_GeorgeClooney.png', 'Im_RyanReynolds.png', 'Im_BenAffleck.png', 'Im_LeonardoDiCaprio.png', 'Im_RobertDowneyJr.png', 'Im_RyanGosling.png', 'Im_HughJackman.png', 'Im_BenStiller.png', 'Im_RobertPattinson.png', 'Im_PatrickDempsey.png'],same,1,0.6833628000003955,19,0,
FAAN2505,train,neg,30,neg30_id17_im9.bmp_neg30_id21_im16.bmp,['Im_GeorgeClooney.png', 'Im_RyanReynolds.png', 'Im_BenAffleck.png', 'Im_LeonardoDiCaprio.png', 'Im_RobertDowneyJr.png', 'Im_RyanGosling.png', 'Im_HughJackman.png', 'Im_BenStiller.png', 'Im_RobertPattinson.png', 'Im_PatrickDempsey.png'],diff,1,4.000284800000372,1,0,
FAAN2505,train,neg,60,neg60_id2_im3.bmp_neg60_id2_im16.bmp,['Im_GeorgeClooney.png', 'Im_RyanReynolds.png', 'Im_BenAffleck.png', 'Im_LeonardoDiCaprio.png', 'Im_RobertDowneyJr.png', 'Im_RyanGosling.png', 'Im_HughJackman.png', 'Im_BenStiller.png', 'Im_RobertPattinson.png', 'Im_PatrickDempsey.png'],none,1,4.4250277999999525,1,0,
FAAN2505,train,neg,30,neg30_id8_im20.bmp_neg30_id8_im21.bmp,['Im_GeorgeClooney.png', 'Im_RyanReynolds.png', 'Im_BenAffleck.png', 'Im_LeonardoDiCaprio.png', 'Im_RobertDowneyJr.png', 'Im_RyanGosling.png', 'Im_HughJackman.png', 'Im_BenStiller.png', 'Im_RobertPattinson.png', 'Im_PatrickDempsey.png'],same,1,0.9417286000007152,2,0,
FAAN2505,train,neg,0,neg0_id17_im14.bmp_neg0_id18_im18.bmp,['Im_GeorgeClooney.png', 'Im_RyanReynolds.png', 'Im_BenAffleck.png', 'Im_LeonardoDiCaprio.png', 'Im_RobertDowneyJr.png', 'Im_RyanGosling.png', 'Im_HughJackman.png', 'Im_BenStiller.png', 'Im_RobertPattinson.png', 'Im_PatrickDempsey.png'],diff,1,1.1333577999994304,3,0,
FAAN2505,train,neg,150,neg150_id8_im21.bmp_neg150_id8_im20.bmp,['Im_GeorgeClooney.png', 'Im_RyanReynolds.png', 'Im_BenAffleck.png', 'Im_LeonardoDiCaprio.png', 'Im_RobertDowneyJr.png', 'Im_RyanGosling.png', 'Im_HughJackman.png', 'Im_BenStiller.png', 'Im_RobertPattinson.png', 'Im_PatrickDempsey.png'],same,1,0.7247559999996156,4,0,
FAAN2505,train,neg,0,neg0_id21_im17.bmp_neg0_id21_im16.bmp,['Im_GeorgeClooney.png', 'Im_RyanReynolds.png', 'Im_BenAffleck.png', 'Im_LeonardoDiCaprio.png', 'Im_RobertDowneyJr.png', 'Im_RyanGosling.png', 'Im_HughJackman.png', 'Im_BenStiller.png', 'Im_RobertPattinson.png', 'Im_PatrickDempsey.png'],same,1,1.6918717000007746,5,0,
FAAN2505,train,neg,90,neg90_id13_im29.bmp_neg90_id17_im9.bmp,['Im_GeorgeClooney.png', 'Im_RyanReynolds.png', 'Im_BenAffleck.png', 'Im_LeonardoDiCaprio.png', 'Im_RobertDowneyJr.png', 'Im_RyanGosling.png', 'Im_HughJackman.png', 'Im_BenStiller.png', 'Im_RobertPattinson.png', 'Im_PatrickDempsey.png'],diff,1,1.058559700000842,6,0,
FAAN2505,train,neg,150,neg150_id1_im24.bmp_neg150_id1_im4.bmp,['Im_GeorgeClooney.png', 'Im_RyanReynolds.png', 'Im_BenAffleck.png', 'Im_LeonardoDiCaprio.png', 'Im_RobertDowneyJr.png', 'Im_RyanGosling.png', 'Im_HughJackman.png', 'Im_BenStiller.png', 'Im_RobertPattinson.png', 'Im_PatrickDempsey.png'],same,1,0.7166942999992898,7,0,
FAAN2505,train,neg,60,neg60_id18_im19.bmp_neg60_id18_im11.bmp,['Im_GeorgeClooney.png', 'Im_RyanReynolds.png', 'Im_BenAffleck.png', 'Im_LeonardoDiCaprio.png', 'Im_RobertDowneyJr.png', 'Im_RyanGosling.png', 'Im_HughJackman.png', 'Im_BenStiller.png', 'Im_RobertPattinson.png', 'Im_PatrickDempsey.png'],same,1,0.8249826999999641,8,0,
FAAN2505,train,neg,fs,negfs_id1_im21.bmp_negfs_id1_im24.bmp,['Im_GeorgeClooney.png', 'Im_RyanReynolds.png', 'Im_BenAffleck.png', 'Im_LeonardoDiCaprio.png', 'Im_RobertDowneyJr.png', 'Im_RyanGosling.png', 'Im_HughJackman.png', 'Im_BenStiller.png', 'Im_RobertPattinson.png', 'Im_PatrickDempsey.png'],same,1,0.5418997000015224,9,0,
FAAN2505,train,neg,fs,negfs_id8_im21.bmp_negfs_id8_im20.bmp,['Im_GeorgeClooney.png', 'Im_RyanReynolds.png', 'Im_BenAffleck.png', 'Im_LeonardoDiCaprio.png', 'Im_RobertDowneyJr.png', 'Im_RyanGosling.png', 'Im_HughJackman.png', 'Im_BenStiller.png', 'Im_RobertPattinson.png', 'Im_PatrickDempsey.png'],same,1,0.6588978999989195,10,0,
FAAN2505,train,neg,120,neg120_id19_im4.bmp_neg120_id19_im27.bmp,['Im_GeorgeClooney.png', 'Im_RyanReynolds.png', 'Im_BenAffleck.png', 'Im_LeonardoDiCaprio.png', 'Im_RobertDowneyJr.png', 'Im_RyanGosling.png', 'Im_HughJackman.png', 'Im_BenStiller.png', 'Im_RobertPattinson.png', 'Im_PatrickDempsey.png'],same,1,0.9585534999987431,11,0,
FAAN2505,train,neg,90,neg90_id1_im4.bmp_neg90_id1_im21.bmp,['Im_GeorgeClooney.png', 'Im_RyanReynolds.png', 'Im_BenAffleck.png', 'Im_LeonardoDiCaprio.png', 'Im_RobertDowneyJr.png', 'Im_RyanGosling.png', 'Im_HughJackman.png', 'Im_BenStiller.png', 'Im_RobertPattinson.png', 'Im_PatrickDempsey.png'],same,1,0.717207599998801,12,0,
FAAN2505,train,neg,120,neg120_id1_im21.bmp_neg120_id1_im4.bmp,['Im_GeorgeClooney.png', 'Im_RyanReynolds.png', 'Im_BenAffleck.png', 'Im_LeonardoDiCaprio.png', 'Im_RobertDowneyJr.png', 'Im_RyanGosling.png', 'Im_HughJackman.png', 'Im_BenStiller.png', 'Im_RobertPattinson.png', 'Im_PatrickDempsey.png'],same,1,0.43343370000002324,13,0,
FAAN2505,train,pos,90,pos90_id18_im19.bmp_pos90_id8_im13.bmp,['Im_GeorgeClooney.png', 'Im_RyanReynolds.png', 'Im_BenAffleck.png', 'Im_LeonardoDiCaprio.png', 'Im_RobertDowneyJr.png', 'Im_RyanGosling.png', 'Im_HughJackman.png', 'Im_BenStiller.png', 'Im_RobertPattinson.png', 'Im_PatrickDempsey.png'],diff,1,0.467019400000936,14,0,
FAAN2505,train,pos,30,pos30_id2_im16.bmp_pos30_id2_im3.bmp,['Im_GeorgeClooney.png', 'Im_RyanReynolds.png', 'Im_BenAffleck.png', 'Im_LeonardoDiCaprio.png', 'Im_RobertDowneyJr.png', 'Im_RyanGosling.png', 'Im_HughJackman.png', 'Im_BenStiller.png', 'Im_RobertPattinson.png', 'Im_PatrickDempsey.png'],same,1,0.40821040000082576,15,0,
FAAN2505,train,pos,60,pos60_id7_im26.bmp_pos60_id7_im15.bmp,['Im_GeorgeClooney.png', 'Im_RyanReynolds.png', 'Im_BenAffleck.png', 'Im_LeonardoDiCaprio.png', 'Im_RobertDowneyJr.png', 'Im_RyanGosling.png', 'Im_HughJackman.png', 'Im_BenStiller.png', 'Im_RobertPattinson.png', 'Im_PatrickDempsey.png'],same,1,0.724735600000713,16,0,
FAAN2505,train,pos,fs,posfs_id18_im19.bmp_posfs_id18_im11.bmp,['Im_GeorgeClooney.png', 'Im_RyanReynolds.png', 'Im_BenAffleck.png', 'Im_LeonardoDiCaprio.png', 'Im_RobertDowneyJr.png', 'Im_RyanGosling.png', 'Im_HughJackman.png', 'Im_BenStiller.png', 'Im_RobertPattinson.png', 'Im_PatrickDempsey.png'],same,1,0.7335217999989254,17,0,
FAAN2505,train,pos,120,pos120_id1_im4.bmp_pos120_id18_im19.bmp,['Im_GeorgeClooney.png', 'Im_RyanReynolds.png', 'Im_BenAffleck.png', 'Im_LeonardoDiCaprio.png', 'Im_RobertDowneyJr.png', 'Im_RyanGosling.png', 'Im_HughJackman.png', 'Im_BenStiller.png', 'Im_RobertPattinson.png', 'Im_PatrickDempsey.png'],diff,1,0.5918759999985923,18,0,
FAAN2505,train,pos,150,pos150_id7_im15.bmp_pos150_id7_im14.bmp,['Im_GeorgeClooney.png', 'Im_RyanReynolds.png', 'Im_BenAffleck.png', 'Im_LeonardoDiCaprio.png', 'Im_RobertDowneyJr.png', 'Im_RyanGosling.png', 'Im_HughJackman.png', 'Im_BenStiller.png', 'Im_RobertPattinson.png', 'Im_PatrickDempsey.png'],same,1,1.833500599999752,19,0,
FAAN2505,train,pos,30,pos30_id13_im15.bmp_pos30_id13_im29.bmp,['Im_GeorgeClooney.png', 'Im_RyanReynolds.png', 'Im_BenAffleck.png', 'Im_LeonardoDiCaprio.png', 'Im_RobertDowneyJr.png', 'Im_RyanGosling.png', 'Im_HughJackman.png', 'Im_BenStiller.png', 'Im_RobertPattinson.png', 'Im_PatrickDempsey.png'],same,1,0.6666492000003927,20,0,
FAAN2505,train,pos,90,pos90_id7_im14.bmp_pos90_id2_im16.bmp,['Im_GeorgeClooney.png', 'Im_RyanReynolds.png', 'Im_BenAffleck.png', 'Im_LeonardoDiCaprio.png', 'Im_RobertDowneyJr.png', 'Im_RyanGosling.png', 'Im_HughJackman.png', 'Im_BenStiller.png', 'Im_RobertPattinson.png', 'Im_PatrickDempsey.png'],diff,1,0.6502399000000878,21,0,
FAAN2505,train,pos,120,pos120_id21_im17.bmp_pos120_id21_im16.bmp,['Im_GeorgeClooney.png', 'Im_RyanReynolds.png', 'Im_BenAffleck.png', 'Im_LeonardoDiCaprio.png', 'Im_RobertDowneyJr.png', 'Im_RyanGosling.png', 'Im_HughJackman.png', 'Im_BenStiller.png', 'Im_RobertPattinson.png', 'Im_PatrickDempsey.png'],same,1,0.8336268999992171,22,0,
FAAN2505,train,pos,150,pos150_id18_im18.bmp_pos150_id7_im15.bmp,['Im_GeorgeClooney.png', 'Im_RyanReynolds.png', 'Im_BenAffleck.png', 'Im_LeonardoDiCaprio.png', 'Im_RobertDowneyJr.png', 'Im_RyanGosling.png', 'Im_HughJackman.png', 'Im_BenStiller.png', 'Im_RobertPattinson.png', 'Im_PatrickDempsey.png'],diff,1,0.7669320000004518,23,0,
FAAN2505,train,pos,60,pos60_id20_im12.bmp_pos60_id20_im3.bmp,['Im_GeorgeClooney.png', 'Im_RyanReynolds.png', 'Im_BenAffleck.png', 'Im_LeonardoDiCaprio.png', 'Im_RobertDowneyJr.png', 'Im_RyanGosling.png', 'Im_HughJackman.png', 'Im_BenStiller.png', 'Im_RobertPattinson.png', 'Im_PatrickDempsey.png'],same,1,0.6430381999998644,24,0,
FAAN2505,train,pos,0,pos0_id20_im3.bmp_pos0_id20_im12.bmp,['Im_GeorgeClooney.png', 'Im_RyanReynolds.png', 'Im_BenAffleck.png', 'Im_LeonardoDiCaprio.png', 'Im_RobertDowneyJr.png', 'Im_RyanGosling.png', 'Im_HughJackman.png', 'Im_BenStiller.png', 'Im_RobertPattinson.png', 'Im_PatrickDempsey.png'],same,1,1.867173200000252,25,0,
FAAN2505,train,pos,0,pos0_id8_im21.bmp_pos0_id21_im22.bmp,['Im_GeorgeClooney.png', 'Im_RyanReynolds.png', 'Im_BenAffleck.png', 'Im_LeonardoDiCaprio.png', 'Im_RobertDowneyJr.png', 'Im_RyanGosling.png', 'Im_HughJackman.png', 'Im_BenStiller.png', 'Im_RobertPattinson.png', 'Im_PatrickDempsey.png'],diff,1,0.5585551999993186,26,0,
FAAN2505,train,pos,fs,posfs_id13_im29.bmp_posfs_id17_im9.bmp,['Im_GeorgeClooney.png', 'Im_RyanReynolds.png', 'Im_BenAffleck.png', 'Im_LeonardoDiCaprio.png', 'Im_RobertDowneyJr.png', 'Im_RyanGosling.png', 'Im_HughJackman.png', 'Im_BenStiller.png', 'Im_RobertPattinson.png', 'Im_PatrickDempsey.png'],diff,1,0.458192300000519,27,0,
FAAN2505,train,inv,30,pos30_id20_im12.bmp_pos30_id20_im3.bmp,['Im_GeorgeClooney.png', 'Im_RyanReynolds.png', 'Im_BenAffleck.png', 'Im_LeonardoDiCaprio.png', 'Im_RobertDowneyJr.png', 'Im_RyanGosling.png', 'Im_HughJackman.png', 'Im_BenStiller.png', 'Im_RobertPattinson.png', 'Im_PatrickDempsey.png'],same,1,1.1088534999998956,28,0,
FAAN2505,train,inv,60,pos60_id21_im22.bmp_pos60_id8_im21.bmp,['Im_GeorgeClooney.png', 'Im_RyanReynolds.png', 'Im_BenAffleck.png', 'Im_LeonardoDiCaprio.png', 'Im_RobertDowneyJr.png', 'Im_RyanGosling.png', 'Im_HughJackman.png', 'Im_BenStiller.png', 'Im_RobertPattinson.png', 'Im_PatrickDempsey.png'],diff,1,0.791824900001302,29,0,
FAAN2505,train,inv,120,pos120_id20_im3.bmp_pos120_id20_im12.bmp,['Im_GeorgeClooney.png', 'Im_RyanReynolds.png', 'Im_BenAffleck.png', 'Im_LeonardoDiCaprio.png', 'Im_RobertDowneyJr.png', 'Im_RyanGosling.png', 'Im_HughJackman.png', 'Im_BenStiller.png', 'Im_RobertPattinson.png', 'Im_PatrickDempsey.png'],same,1,0.541928700000426,30,0,
FAAN2505,train,inv,60,pos60_id20_im30.bmp_pos60_id2_im2.bmp,['Im_GeorgeClooney.png', 'Im_RyanReynolds.png', 'Im_BenAffleck.png', 'Im_LeonardoDiCaprio.png', 'Im_RobertDowneyJr.png', 'Im_RyanGosling.png', 'Im_HughJackman.png', 'Im_BenStiller.png', 'Im_RobertPattinson.png', 'Im_PatrickDempsey.png'],diff,1,0.7249663000002329,31,0,
FAAN2505,train,inv,30,pos30_id2_im3.bmp_pos30_id2_im16.bmp,['Im_GeorgeClooney.png', 'Im_RyanReynolds.png', 'Im_BenAffleck.png', 'Im_LeonardoDiCaprio.png', 'Im_RobertDowneyJr.png', 'Im_RyanGosling.png', 'Im_HughJackman.png', 'Im_BenStiller.png', 'Im_RobertPattinson.png', 'Im_PatrickDempsey.png'],diff,0,1.2583819000010408,31,0,
FAAN2505,train,inv,90,pos90_id2_im3.bmp_pos90_id2_im2.bmp,['Im_GeorgeClooney.png', 'Im_RyanReynolds.png', 'Im_BenAffleck.png', 'Im_LeonardoDiCaprio.png', 'Im_RobertDowneyJr.png', 'Im_RyanGosling.png', 'Im_HughJackman.png', 'Im_BenStiller.png', 'Im_RobertPattinson.png', 'Im_PatrickDempsey.png'],diff,0,0.9669899000000441,31,0,
FAAN2505,train,inv,fs,posfs_id18_im18.bmp_posfs_id7_im15.bmp,['Im_GeorgeClooney.png', 'Im_RyanReynolds.png', 'Im_BenAffleck.png', 'Im_LeonardoDiCaprio.png', 'Im_RobertDowneyJr.png', 'Im_RyanGosling.png', 'Im_HughJackman.png', 'Im_BenStiller.png', 'Im_RobertPattinson.png', 'Im_PatrickDempsey.png'],diff,1,0.45852819999890926,32,0,
FAAN2505,train,inv,150,pos150_id7_im14.bmp_pos150_id2_im16.bmp,['Im_GeorgeClooney.png', 'Im_RyanReynolds.png', 'Im_BenAffleck.png', 'Im_LeonardoDiCaprio.png', 'Im_RobertDowneyJr.png', 'Im_RyanGosling.png', 'Im_HughJackman.png', 'Im_BenStiller.png', 'Im_RobertPattinson.png', 'Im_PatrickDempsey.png'],diff,1,0.8833823000004486,33,0,
FAAN2505,train,inv,120,pos120_id20_im3.bmp_pos120_id20_im30.bmp,['Im_GeorgeClooney.png', 'Im_RyanReynolds.png', 'Im_BenAffleck.png', 'Im_LeonardoDiCaprio.png', 'Im_RobertDowneyJr.png', 'Im_RyanGosling.png', 'Im_HughJackman.png', 'Im_BenStiller.png', 'Im_RobertPattinson.png', 'Im_PatrickDempsey.png'],same,1,0.625530000001163,34,0,
FAAN2505,train,inv,fs,posfs_id19_im27.bmp_posfs_id21_im22.bmp,['Im_GeorgeClooney.png', 'Im_RyanReynolds.png', 'Im_BenAffleck.png', 'Im_LeonardoDiCaprio.png', 'Im_RobertDowneyJr.png', 'Im_RyanGosling.png', 'Im_HughJackman.png', 'Im_BenStiller.png', 'Im_RobertPattinson.png', 'Im_PatrickDempsey.png'],diff,1,0.44195199999921897,35,0,
FAAN2505,train,inv,90,pos90_id8_im13.bmp_pos90_id2_im2.bmp,['Im_GeorgeClooney.png', 'Im_RyanReynolds.png', 'Im_BenAffleck.png', 'Im_LeonardoDiCaprio.png', 'Im_RobertDowneyJr.png', 'Im_RyanGosling.png', 'Im_HughJackman.png', 'Im_BenStiller.png', 'Im_RobertPattinson.png', 'Im_PatrickDempsey.png'],diff,1,1.3918909000003623,36,0,
FAAN2505,train,inv,150,pos150_id18_im19.bmp_pos150_id8_im13.bmp,['Im_GeorgeClooney.png', 'Im_RyanReynolds.png', 'Im_BenAffleck.png', 'Im_LeonardoDiCaprio.png', 'Im_RobertDowneyJr.png', 'Im_RyanGosling.png', 'Im_HughJackman.png', 'Im_BenStiller.png', 'Im_RobertPattinson.png', 'Im_PatrickDempsey.png'],same,0,0.700054299999465,36,0,
FAAN2505,train,inv,0,pos0_id21_im22.bmp_pos0_id21_im16.bmp,['Im_GeorgeClooney.png', 'Im_RyanReynolds.png', 'Im_BenAffleck.png', 'Im_LeonardoDiCaprio.png', 'Im_RobertDowneyJr.png', 'Im_RyanGosling.png', 'Im_HughJackman.png', 'Im_BenStiller.png', 'Im_RobertPattinson.png', 'Im_PatrickDempsey.png'],same,1,0.675221400000737,37,0,
FAAN2505,train,inv,0,pos0_id2_im2.bmp_pos0_id20_im30.bmp,['Im_GeorgeClooney.png', 'Im_RyanReynolds.png', 'Im_BenAffleck.png', 'Im_LeonardoDiCaprio.png', 'Im_RobertDowneyJr.png', 'Im_RyanGosling.png', 'Im_HughJackman.png', 'Im_BenStiller.png', 'Im_RobertPattinson.png', 'Im_PatrickDempsey.png'],diff,1,1.8085872999999992,38,0,
FAAN2505,train,pos,120,pos120_id21_im16.bmp_pos120_id13_im10.bmp,['Im_GeorgeClooney.png', 'Im_RyanReynolds.png', 'Im_BenAffleck.png', 'Im_LeonardoDiCaprio.png', 'Im_RobertDowneyJr.png', 'Im_RyanGosling.png', 'Im_HughJackman.png', 'Im_BenStiller.png', 'Im_RobertPattinson.png', 'Im_PatrickDempsey.png'],diff,1,0.5086909999990894,1,90.47619047619048,
FAAN2505,train,pos,0,pos0_id18_im18.bmp_pos0_id7_im15.bmp,['Im_GeorgeClooney.png', 'Im_RyanReynolds.png', 'Im_BenAffleck.png', 'Im_LeonardoDiCaprio.png', 'Im_RobertDowneyJr.png', 'Im_RyanGosling.png', 'Im_HughJackman.png', 'Im_BenStiller.png', 'Im_RobertPattinson.png', 'Im_PatrickDempsey.png'],diff,1,0.5751482000014221,2,90.47619047619048,
FAAN2505,train,pos,150,pos150_id7_im14.bmp_pos150_id7_im26.bmp,['Im_GeorgeClooney.png', 'Im_RyanReynolds.png', 'Im_BenAffleck.png', 'Im_LeonardoDiCaprio.png', 'Im_RobertDowneyJr.png', 'Im_RyanGosling.png', 'Im_HughJackman.png', 'Im_BenStiller.png', 'Im_RobertPattinson.png', 'Im_PatrickDempsey.png'],same,1,0.4250487000008434,3,90.47619047619048,
FAAN2505,train,pos,60,pos60_id13_im10.bmp_pos60_id21_im16.bmp,['Im_GeorgeClooney.png', 'Im_RyanReynolds.png', 'Im_BenAffleck.png', 'Im_LeonardoDiCaprio.png', 'Im_RobertDowneyJr.png', 'Im_RyanGosling.png', 'Im_HughJackman.png', 'Im_BenStiller.png', 'Im_RobertPattinson.png', 'Im_PatrickDempsey.png'],diff,1,0.5418875000013941,4,90.47619047619048,
FAAN2505,train,pos,fs,posfs_id2_im2.bmp_posfs_id2_im16.bmp,['Im_GeorgeClooney.png', 'Im_RyanReynolds.png', 'Im_BenAffleck.png', 'Im_LeonardoDiCaprio.png', 'Im_RobertDowneyJr.png', 'Im_RyanGosling.png', 'Im_HughJackman.png', 'Im_BenStiller.png', 'Im_RobertPattinson.png', 'Im_PatrickDempsey.png'],same,1,0.42503190000024915,5,90.47619047619048,
FAAN2505,train,pos,90,pos90_id1_im4.bmp_pos90_id18_im19.bmp,['Im_GeorgeClooney.png', 'Im_RyanReynolds.png', 'Im_BenAffleck.png', 'Im_LeonardoDiCaprio.png', 'Im_RobertDowneyJr.png', 'Im_RyanGosling.png', 'Im_HughJackman.png', 'Im_BenStiller.png', 'Im_RobertPattinson.png', 'Im_PatrickDempsey.png'],same,0,1.3584467000000586,5,90.47619047619048,
FAAN2505,train,pos,150,pos150_id13_im10.bmp_pos150_id13_im29.bmp,['Im_GeorgeClooney.png', 'Im_RyanReynolds.png', 'Im_BenAffleck.png', 'Im_LeonardoDiCaprio.png', 'Im_RobertDowneyJr.png', 'Im_RyanGosling.png', 'Im_HughJackman.png', 'Im_BenStiller.png', 'Im_RobertPattinson.png', 'Im_PatrickDempsey.png'],same,1,1.1335509000000457,6,90.47619047619048,
FAAN2505,train,pos,60,pos60_id20_im30.bmp_pos60_id13_im29.bmp,['Im_GeorgeClooney.png', 'Im_RyanReynolds.png', 'Im_BenAffleck.png', 'Im_LeonardoDiCaprio.png', 'Im_RobertDowneyJr.png', 'Im_RyanGosling.png', 'Im_HughJackman.png', 'Im_BenStiller.png', 'Im_RobertPattinson.png', 'Im_PatrickDempsey.png'],diff,1,0.46679390000099374,7,90.47619047619048,
FAAN2505,train,pos,30,pos30_id21_im16.bmp_pos30_id13_im10.bmp,['Im_GeorgeClooney.png', 'Im_RyanReynolds.png', 'Im_BenAffleck.png', 'Im_LeonardoDiCaprio.png', 'Im_RobertDowneyJr.png', 'Im_RyanGosling.png', 'Im_HughJackman.png', 'Im_BenStiller.png', 'Im_RobertPattinson.png', 'Im_PatrickDempsey.png'],diff,1,0.4333816999987903,8,90.47619047619048,
FAAN2505,train,pos,90,pos90_id18_im18.bmp_pos90_id18_im11.bmp,['Im_GeorgeClooney.png', 'Im_RyanReynolds.png', 'Im_BenAffleck.png', 'Im_LeonardoDiCaprio.png', 'Im_RobertDowneyJr.png', 'Im_RyanGosling.png', 'Im_HughJackman.png', 'Im_BenStiller.png', 'Im_RobertPattinson.png', 'Im_PatrickDempsey.png'],same,1,0.8918463000009069,9,90.47619047619048,
FAAN2505,train,pos,30,pos30_id18_im18.bmp_pos30_id18_im19.bmp,['Im_GeorgeClooney.png', 'Im_RyanReynolds.png', 'Im_BenAffleck.png', 'Im_LeonardoDiCaprio.png', 'Im_RobertDowneyJr.png', 'Im_RyanGosling.png', 'Im_HughJackman.png', 'Im_BenStiller.png', 'Im_RobertPattinson.png', 'Im_PatrickDempsey.png'],same,1,0.758701499999006,10,90.47619047619048,
FAAN2505,train,pos,120,pos120_id18_im11.bmp_pos120_id18_im18.bmp,['Im_GeorgeClooney.png', 'Im_RyanReynolds.png', 'Im_BenAffleck.png', 'Im_LeonardoDiCaprio.png', 'Im_RobertDowneyJr.png', 'Im_RyanGosling.png', 'Im_HughJackman.png', 'Im_BenStiller.png', 'Im_RobertPattinson.png', 'Im_PatrickDempsey.png'],same,1,0.425130600000557,11,90.47619047619048,
FAAN2505,train,pos,fs,posfs_id2_im3.bmp_posfs_id2_im2.bmp,['Im_GeorgeClooney.png', 'Im_RyanReynolds.png', 'Im_BenAffleck.png', 'Im_LeonardoDiCaprio.png', 'Im_RobertDowneyJr.png', 'Im_RyanGosling.png', 'Im_HughJackman.png', 'Im_BenStiller.png', 'Im_RobertPattinson.png', 'Im_PatrickDempsey.png'],same,1,0.5332314999996015,12,90.47619047619048,
FAAN2505,train,pos,0,pos0_id13_im29.bmp_pos0_id17_im9.bmp,['Im_GeorgeClooney.png', 'Im_RyanReynolds.png', 'Im_BenAffleck.png', 'Im_LeonardoDiCaprio.png', 'Im_RobertDowneyJr.png', 'Im_RyanGosling.png', 'Im_HughJackman.png', 'Im_BenStiller.png', 'Im_RobertPattinson.png', 'Im_PatrickDempsey.png'],diff,1,0.40863790000003064,13,90.47619047619048,
FAAN2505,train,inv,120,pos120_id7_im26.bmp_pos120_id18_im11.bmp,['Im_GeorgeClooney.png', 'Im_RyanReynolds.png', 'Im_BenAffleck.png', 'Im_LeonardoDiCaprio.png', 'Im_RobertDowneyJr.png', 'Im_RyanGosling.png', 'Im_HughJackman.png', 'Im_BenStiller.png', 'Im_RobertPattinson.png', 'Im_PatrickDempsey.png'],diff,1,2.358638700001393,14,90.47619047619048,
FAAN2505,train,inv,fs,posfs_id8_im20.bmp_posfs_id1_im24.bmp,['Im_GeorgeClooney.png', 'Im_RyanReynolds.png', 'Im_BenAffleck.png', 'Im_LeonardoDiCaprio.png', 'Im_RobertDowneyJr.png', 'Im_RyanGosling.png', 'Im_HughJackman.png', 'Im_BenStiller.png', 'Im_RobertPattinson.png', 'Im_PatrickDempsey.png'],same,0,1.0750318999998854,14,90.47619047619048,
FAAN2505,train,inv,30,pos30_id20_im12.bmp_pos30_id20_im30.bmp,['Im_GeorgeClooney.png', 'Im_RyanReynolds.png', 'Im_BenAffleck.png', 'Im_LeonardoDiCaprio.png', 'Im_RobertDowneyJr.png', 'Im_RyanGosling.png', 'Im_HughJackman.png', 'Im_BenStiller.png', 'Im_RobertPattinson.png', 'Im_PatrickDempsey.png'],same,1,0.5671242999997048,15,90.47619047619048,
FAAN2505,train,inv,0,pos0_id19_im4.bmp_pos0_id13_im15.bmp,['Im_GeorgeClooney.png', 'Im_RyanReynolds.png', 'Im_BenAffleck.png', 'Im_LeonardoDiCaprio.png', 'Im_RobertDowneyJr.png', 'Im_RyanGosling.png', 'Im_HughJackman.png', 'Im_BenStiller.png', 'Im_RobertPattinson.png', 'Im_PatrickDempsey.png'],same,0,0.9259579999998095,15,90.47619047619048,
FAAN2505,train,inv,120,pos120_id8_im21.bmp_pos120_id8_im20.bmp,['Im_GeorgeClooney.png', 'Im_RyanReynolds.png', 'Im_BenAffleck.png', 'Im_LeonardoDiCaprio.png', 'Im_RobertDowneyJr.png', 'Im_RyanGosling.png', 'Im_HughJackman.png', 'Im_BenStiller.png', 'Im_RobertPattinson.png', 'Im_PatrickDempsey.png'],diff,0,0.8835792999998375,15,90.47619047619048,
FAAN2505,train,inv,fs,posfs_id20_im3.bmp_posfs_id20_im30.bmp,['Im_GeorgeClooney.png', 'Im_RyanReynolds.png', 'Im_BenAffleck.png', 'Im_LeonardoDiCaprio.png', 'Im_RobertDowneyJr.png', 'Im_RyanGosling.png', 'Im_HughJackman.png', 'Im_BenStiller.png', 'Im_RobertPattinson.png', 'Im_PatrickDempsey.png'],same,1,1.1835602000010113,16,90.47619047619048,
FAAN2505,train,inv,30,pos30_id21_im16.bmp_pos30_id21_im17.bmp,['Im_GeorgeClooney.png', 'Im_RyanReynolds.png', 'Im_BenAffleck.png', 'Im_LeonardoDiCaprio.png', 'Im_RobertDowneyJr.png', 'Im_RyanGosling.png', 'Im_HughJackman.png', 'Im_BenStiller.png', 'Im_RobertPattinson.png', 'Im_PatrickDempsey.png'],same,1,0.5918621000000712,17,90.47619047619048,
FAAN2505,train,inv,90,pos90_id7_im15.bmp_pos90_id7_im14.bmp,['Im_GeorgeClooney.png', 'Im_RyanReynolds.png', 'Im_BenAffleck.png', 'Im_LeonardoDiCaprio.png', 'Im_RobertDowneyJr.png', 'Im_RyanGosling.png', 'Im_HughJackman.png', 'Im_BenStiller.png', 'Im_RobertPattinson.png', 'Im_PatrickDempsey.png'],diff,0,1.5249284000001353,17,90.47619047619048,
FAAN2505,train,inv,60,pos60_id18_im11.bmp_pos60_id18_im18.bmp,['Im_GeorgeClooney.png', 'Im_RyanReynolds.png', 'Im_BenAffleck.png', 'Im_LeonardoDiCaprio.png', 'Im_RobertDowneyJr.png', 'Im_RyanGosling.png', 'Im_HughJackman.png', 'Im_BenStiller.png', 'Im_RobertPattinson.png', 'Im_PatrickDempsey.png'],same,1,1.8585286000015913,18,90.47619047619048,
FAAN2505,train,inv,90,pos90_id17_im9.bmp_pos90_id17_im8.bmp,['Im_GeorgeClooney.png', 'Im_RyanReynolds.png', 'Im_BenAffleck.png', 'Im_LeonardoDiCaprio.png', 'Im_RobertDowneyJr.png', 'Im_RyanGosling.png', 'Im_HughJackman.png', 'Im_BenStiller.png', 'Im_RobertPattinson.png', 'Im_PatrickDempsey.png'],same,1,1.5332591999995202,19,90.47619047619048,
FAAN2505,train,inv,0,pos0_id13_im29.bmp_pos0_id13_im15.bmp,['Im_GeorgeClooney.png', 'Im_RyanReynolds.png', 'Im_BenAffleck.png', 'Im_LeonardoDiCaprio.png', 'Im_RobertDowneyJr.png', 'Im_RyanGosling.png', 'Im_HughJackman.png', 'Im_BenStiller.png', 'Im_RobertPattinson.png', 'Im_PatrickDempsey.png'],diff,0,1.2750949000001128,19,90.47619047619048,
FAAN2505,train,inv,150,pos150_id17_im14.bmp_pos150_id17_im8.bmp,['Im_GeorgeClooney.png', 'Im_RyanReynolds.png', 'Im_BenAffleck.png', 'Im_LeonardoDiCaprio.png', 'Im_RobertDowneyJr.png', 'Im_RyanGosling.png', 'Im_HughJackman.png', 'Im_BenStiller.png', 'Im_RobertPattinson.png', 'Im_PatrickDempsey.png'],same,1,0.5666519000005792,20,90.47619047619048,
FAAN2505,train,inv,60,pos60_id19_im4.bmp_pos60_id2_im3.bmp,['Im_GeorgeClooney.png', 'Im_RyanReynolds.png', 'Im_BenAffleck.png', 'Im_LeonardoDiCaprio.png', 'Im_RobertDowneyJr.png', 'Im_RyanGosling.png', 'Im_HughJackman.png', 'Im_BenStiller.png', 'Im_RobertPattinson.png', 'Im_PatrickDempsey.png'],diff,1,0.57511599999998,21,90.47619047619048,
FAAN2505,train,inv,150,pos150_id2_im3.bmp_pos150_id2_im2.bmp,['Im_GeorgeClooney.png', 'Im_RyanReynolds.png', 'Im_BenAffleck.png', 'Im_LeonardoDiCaprio.png', 'Im_RobertDowneyJr.png', 'Im_RyanGosling.png', 'Im_HughJackman.png', 'Im_BenStiller.png', 'Im_RobertPattinson.png', 'Im_PatrickDempsey.png'],same,1,0.6259888999993564,22,90.47619047619048,
FAAN2505,train,neg,fs,negfs_id2_im2.bmp_negfs_id2_im3.bmp,['Im_GeorgeClooney.png', 'Im_RyanReynolds.png', 'Im_BenAffleck.png', 'Im_LeonardoDiCaprio.png', 'Im_RobertDowneyJr.png', 'Im_RyanGosling.png', 'Im_HughJackman.png', 'Im_BenStiller.png', 'Im_RobertPattinson.png', 'Im_PatrickDempsey.png'],same,1,0.8085561999996571,23,90.47619047619048,
FAAN2505,train,neg,120,neg120_id18_im11.bmp_neg120_id18_im19.bmp,['Im_GeorgeClooney.png', 'Im_RyanReynolds.png', 'Im_BenAffleck.png', 'Im_LeonardoDiCaprio.png', 'Im_RobertDowneyJr.png', 'Im_RyanGosling.png', 'Im_HughJackman.png', 'Im_BenStiller.png', 'Im_RobertPattinson.png', 'Im_PatrickDempsey.png'],diff,0,1.9915980999994645,23,90.47619047619048,
FAAN2505,train,neg,fs,negfs_id21_im17.bmp_negfs_id21_im22.bmp,['Im_GeorgeClooney.png', 'Im_RyanReynolds.png', 'Im_BenAffleck.png', 'Im_LeonardoDiCaprio.png', 'Im_RobertDowneyJr.png', 'Im_RyanGosling.png', 'Im_HughJackman.png', 'Im_BenStiller.png', 'Im_RobertPattinson.png', 'Im_PatrickDempsey.png'],diff,0,0.4084103999994113,23,90.47619047619048,
FAAN2505,train,neg,30,neg30_id17_im8.bmp_neg30_id1_im21.bmp,['Im_GeorgeClooney.png', 'Im_RyanReynolds.png', 'Im_BenAffleck.png', 'Im_LeonardoDiCaprio.png', 'Im_RobertDowneyJr.png', 'Im_RyanGosling.png', 'Im_HughJackman.png', 'Im_BenStiller.png', 'Im_RobertPattinson.png', 'Im_PatrickDempsey.png'],diff,1,0.4419242000003578,24,90.47619047619048,
FAAN2505,train,neg,0,neg0_id17_im9.bmp_neg0_id21_im16.bmp,['Im_GeorgeClooney.png', 'Im_RyanReynolds.png', 'Im_BenAffleck.png', 'Im_LeonardoDiCaprio.png', 'Im_RobertDowneyJr.png', 'Im_RyanGosling.png', 'Im_HughJackman.png', 'Im_BenStiller.png', 'Im_RobertPattinson.png', 'Im_PatrickDempsey.png'],diff,1,0.41683109999939916,25,90.47619047619048,
FAAN2505,train,neg,120,neg120_id20_im30.bmp_neg120_id20_im12.bmp,['Im_GeorgeClooney.png', 'Im_RyanReynolds.png', 'Im_BenAffleck.png', 'Im_LeonardoDiCaprio.png', 'Im_RobertDowneyJr.png', 'Im_RyanGosling.png', 'Im_HughJackman.png', 'Im_BenStiller.png', 'Im_RobertPattinson.png', 'Im_PatrickDempsey.png'],same,1,0.6586452999999892,26,90.47619047619048,
FAAN2505,train,neg,90,neg90_id21_im17.bmp_neg90_id13_im15.bmp,['Im_GeorgeClooney.png', 'Im_RyanReynolds.png', 'Im_BenAffleck.png', 'Im_LeonardoDiCaprio.png', 'Im_RobertDowneyJr.png', 'Im_RyanGosling.png', 'Im_HughJackman.png', 'Im_BenStiller.png', 'Im_RobertPattinson.png', 'Im_PatrickDempsey.png'],same,0,1.824950500000341,26,90.47619047619048,
FAAN2505,train,neg,30,neg30_id8_im13.bmp_neg30_id2_im2.bmp,['Im_GeorgeClooney.png', 'Im_RyanReynolds.png', 'Im_BenAffleck.png', 'Im_LeonardoDiCaprio.png', 'Im_RobertDowneyJr.png', 'Im_RyanGosling.png', 'Im_HughJackman.png', 'Im_BenStiller.png', 'Im_RobertPattinson.png', 'Im_PatrickDempsey.png'],diff,1,1.1003203000000212,27,90.47619047619048,
FAAN2505,train,neg,60,neg60_id7_im26.bmp_neg60_id18_im11.bmp,['Im_GeorgeClooney.png', 'Im_RyanReynolds.png', 'Im_BenAffleck.png', 'Im_LeonardoDiCaprio.png', 'Im_RobertDowneyJr.png', 'Im_RyanGosling.png', 'Im_HughJackman.png', 'Im_BenStiller.png', 'Im_RobertPattinson.png', 'Im_PatrickDempsey.png'],diff,1,0.8582695000004605,28,90.47619047619048,
FAAN2505,train,neg,150,neg150_id2_im3.bmp_neg150_id19_im4.bmp,['Im_GeorgeClooney.png', 'Im_RyanReynolds.png', 'Im_BenAffleck.png', 'Im_LeonardoDiCaprio.png', 'Im_RobertDowneyJr.png', 'Im_RyanGosling.png', 'Im_HughJackman.png', 'Im_BenStiller.png', 'Im_RobertPattinson.png', 'Im_PatrickDempsey.png'],diff,1,0.4752063000014459,29,90.47619047619048,
FAAN2505,train,neg,0,neg0_id17_im8.bmp_neg0_id17_im14.bmp,['Im_GeorgeClooney.png', 'Im_RyanReynolds.png', 'Im_BenAffleck.png', 'Im_LeonardoDiCaprio.png', 'Im_RobertDowneyJr.png', 'Im_RyanGosling.png', 'Im_HughJackman.png', 'Im_BenStiller.png', 'Im_RobertPattinson.png', 'Im_PatrickDempsey.png'],same,1,0.46657479999885254,30,90.47619047619048,
FAAN2505,train,neg,90,neg90_id18_im19.bmp_neg90_id18_im18.bmp,['Im_GeorgeClooney.png', 'Im_RyanReynolds.png', 'Im_BenAffleck.png', 'Im_LeonardoDiCaprio.png', 'Im_RobertDowneyJr.png', 'Im_RyanGosling.png', 'Im_HughJackman.png', 'Im_BenStiller.png', 'Im_RobertPattinson.png', 'Im_PatrickDempsey.png'],same,1,0.650049100000615,31,90.47619047619048,
FAAN2505,train,neg,150,neg150_id1_im21.bmp_neg150_id17_im8.bmp,['Im_GeorgeClooney.png', 'Im_RyanReynolds.png', 'Im_BenAffleck.png', 'Im_LeonardoDiCaprio.png', 'Im_RobertDowneyJr.png', 'Im_RyanGosling.png', 'Im_HughJackman.png', 'Im_BenStiller.png', 'Im_RobertPattinson.png', 'Im_PatrickDempsey.png'],diff,1,1.7749901999995927,32,90.47619047619048,
FAAN2505,train,neg,60,neg60_id17_im14.bmp_neg60_id1_im4.bmp,['Im_GeorgeClooney.png', 'Im_RyanReynolds.png', 'Im_BenAffleck.png', 'Im_LeonardoDiCaprio.png', 'Im_RobertDowneyJr.png', 'Im_RyanGosling.png', 'Im_HughJackman.png', 'Im_BenStiller.png', 'Im_RobertPattinson.png', 'Im_PatrickDempsey.png'],diff,1,0.6002856999984942,33,90.47619047619048,
FAAN2505,0,inv,fs,posfs_id20_im30.bmp_posfs_id13_im29.bmp,['Im_GeorgeClooney.png', 'Im_RyanReynolds.png', 'Im_BenAffleck.png', 'Im_LeonardoDiCaprio.png', 'Im_RobertDowneyJr.png', 'Im_RyanGosling.png', 'Im_HughJackman.png', 'Im_BenStiller.png', 'Im_RobertPattinson.png', 'Im_PatrickDempsey.png'],diff,1,0.6083671000014874,1,0,
FAAN2505,0,inv,0,pos0_id20_im12.bmp_pos0_id20_im3.bmp,['Im_GeorgeClooney.png', 'Im_RyanReynolds.png', 'Im_BenAffleck.png', 'Im_LeonardoDiCaprio.png', 'Im_RobertDowneyJr.png', 'Im_RyanGosling.png', 'Im_HughJackman.png', 'Im_BenStiller.png', 'Im_RobertPattinson.png', 'Im_PatrickDempsey.png'],same,1,0.9833904000006441,2,0,
FAAN2505,0,inv,150,pos150_id1_im24.bmp_pos150_id8_im21.bmp,['Im_GeorgeClooney.png', 'Im_RyanReynolds.png', 'Im_BenAffleck.png', 'Im_LeonardoDiCaprio.png', 'Im_RobertDowneyJr.png', 'Im_RyanGosling.png', 'Im_HughJackman.png', 'Im_BenStiller.png', 'Im_RobertPattinson.png', 'Im_PatrickDempsey.png'],diff,1,0.6752653000003193,3,0,
FAAN2505,0,inv,30,pos30_id20_im3.bmp_pos30_id7_im26.bmp,['Im_GeorgeClooney.png', 'Im_RyanReynolds.png', 'Im_BenAffleck.png', 'Im_LeonardoDiCaprio.png', 'Im_RobertDowneyJr.png', 'Im_RyanGosling.png', 'Im_HughJackman.png', 'Im_BenStiller.png', 'Im_RobertPattinson.png', 'Im_PatrickDempsey.png'],same,0,1.1668425000007119,3,0,
FAAN2505,0,inv,fs,posfs_id21_im16.bmp_posfs_id13_im10.bmp,['Im_GeorgeClooney.png', 'Im_RyanReynolds.png', 'Im_BenAffleck.png', 'Im_LeonardoDiCaprio.png', 'Im_RobertDowneyJr.png', 'Im_RyanGosling.png', 'Im_HughJackman.png', 'Im_BenStiller.png', 'Im_RobertPattinson.png', 'Im_PatrickDempsey.png'],diff,1,0.433361800000057,4,0,
FAAN2505,0,inv,90,pos90_id17_im14.bmp_pos90_id17_im8.bmp,['Im_GeorgeClooney.png', 'Im_RyanReynolds.png', 'Im_BenAffleck.png', 'Im_LeonardoDiCaprio.png', 'Im_RobertDowneyJr.png', 'Im_RyanGosling.png', 'Im_HughJackman.png', 'Im_BenStiller.png', 'Im_RobertPattinson.png', 'Im_PatrickDempsey.png'],same,1,0.46701459999894723,5,0,
FAAN2505,0,inv,90,pos90_id13_im29.bmp_pos90_id20_im30.bmp,['Im_GeorgeClooney.png', 'Im_RyanReynolds.png', 'Im_BenAffleck.png', 'Im_LeonardoDiCaprio.png', 'Im_RobertDowneyJr.png', 'Im_RyanGosling.png', 'Im_HughJackman.png', 'Im_BenStiller.png', 'Im_RobertPattinson.png', 'Im_PatrickDempsey.png'],same,0,1.3339166000005207,5,0,
FAAN2505,0,inv,120,pos120_id21_im22.bmp_pos120_id21_im16.bmp,['Im_GeorgeClooney.png', 'Im_RyanReynolds.png', 'Im_BenAffleck.png', 'Im_LeonardoDiCaprio.png', 'Im_RobertDowneyJr.png', 'Im_RyanGosling.png', 'Im_HughJackman.png', 'Im_BenStiller.png', 'Im_RobertPattinson.png', 'Im_PatrickDempsey.png'],same,1,0.49196280000069237,6,0,
FAAN2505,0,inv,60,pos60_id20_im3.bmp_pos60_id7_im26.bmp,['Im_GeorgeClooney.png', 'Im_RyanReynolds.png', 'Im_BenAffleck.png', 'Im_LeonardoDiCaprio.png', 'Im_RobertDowneyJr.png', 'Im_RyanGosling.png', 'Im_HughJackman.png', 'Im_BenStiller.png', 'Im_RobertPattinson.png', 'Im_PatrickDempsey.png'],diff,1,0.4082321999994747,7,0,
FAAN2505,0,inv,60,pos60_id20_im3.bmp_pos60_id20_im30.bmp,['Im_GeorgeClooney.png', 'Im_RyanReynolds.png', 'Im_BenAffleck.png', 'Im_LeonardoDiCaprio.png', 'Im_RobertDowneyJr.png', 'Im_RyanGosling.png', 'Im_HughJackman.png', 'Im_BenStiller.png', 'Im_RobertPattinson.png', 'Im_PatrickDempsey.png'],same,1,0.4333896000007371,8,0,
FAAN2505,0,inv,120,pos120_id18_im11.bmp_pos120_id20_im12.bmp,['Im_GeorgeClooney.png', 'Im_RyanReynolds.png', 'Im_BenAffleck.png', 'Im_LeonardoDiCaprio.png', 'Im_RobertDowneyJr.png', 'Im_RyanGosling.png', 'Im_HughJackman.png', 'Im_BenStiller.png', 'Im_RobertPattinson.png', 'Im_PatrickDempsey.png'],diff,1,0.5752302000000782,9,0,
FAAN2505,0,inv,0,pos0_id2_im2.bmp_pos0_id8_im13.bmp,['Im_GeorgeClooney.png', 'Im_RyanReynolds.png', 'Im_BenAffleck.png', 'Im_LeonardoDiCaprio.png', 'Im_RobertDowneyJr.png', 'Im_RyanGosling.png', 'Im_HughJackman.png', 'Im_BenStiller.png', 'Im_RobertPattinson.png', 'Im_PatrickDempsey.png'],diff,1,0.9250893999997061,10,0,
FAAN2505,0,inv,30,pos30_id8_im13.bmp_pos30_id8_im21.bmp,['Im_GeorgeClooney.png', 'Im_RyanReynolds.png', 'Im_BenAffleck.png', 'Im_LeonardoDiCaprio.png', 'Im_RobertDowneyJr.png', 'Im_RyanGosling.png', 'Im_HughJackman.png', 'Im_BenStiller.png', 'Im_RobertPattinson.png', 'Im_PatrickDempsey.png'],same,1,0.42511629999899014,11,0,
FAAN2505,0,inv,150,pos150_id8_im13.bmp_pos150_id8_im20.bmp,['Im_GeorgeClooney.png', 'Im_RyanReynolds.png', 'Im_BenAffleck.png', 'Im_LeonardoDiCaprio.png', 'Im_RobertDowneyJr.png', 'Im_RyanGosling.png', 'Im_HughJackman.png', 'Im_BenStiller.png', 'Im_RobertPattinson.png', 'Im_PatrickDempsey.png'],same,1,0.4251351999992039,12,0,
FAAN2505,1,pos,90,pos90_id8_im13.bmp_pos90_id8_im20.bmp,['Im_GeorgeClooney.png', 'Im_RyanReynolds.png', 'Im_BenAffleck.png', 'Im_LeonardoDiCaprio.png', 'Im_RobertDowneyJr.png', 'Im_RyanGosling.png', 'Im_HughJackman.png', 'Im_BenStiller.png', 'Im_RobertPattinson.png', 'Im_PatrickDempsey.png'],same,1,0.6083255000012286,13,0,
FAAN2505,1,pos,90,pos90_id8_im21.bmp_pos90_id8_im13.bmp,['Im_GeorgeClooney.png', 'Im_RyanReynolds.png', 'Im_BenAffleck.png', 'Im_LeonardoDiCaprio.png', 'Im_RobertDowneyJr.png', 'Im_RyanGosling.png', 'Im_HughJackman.png', 'Im_BenStiller.png', 'Im_RobertPattinson.png', 'Im_PatrickDempsey.png'],same,1,0.5002641999999469,14,0,
FAAN2505,1,pos,150,pos150_id17_im9.bmp_pos150_id17_im14.bmp,['Im_GeorgeClooney.png', 'Im_RyanReynolds.png', 'Im_BenAffleck.png', 'Im_LeonardoDiCaprio.png', 'Im_RobertDowneyJr.png', 'Im_RyanGosling.png', 'Im_HughJackman.png', 'Im_BenStiller.png', 'Im_RobertPattinson.png', 'Im_PatrickDempsey.png'],same,1,0.4334004000011191,15,0,
FAAN2505,1,pos,120,pos120_id13_im15.bmp_pos120_id13_im29.bmp,['Im_GeorgeClooney.png', 'Im_RyanReynolds.png', 'Im_BenAffleck.png', 'Im_LeonardoDiCaprio.png', 'Im_RobertDowneyJr.png', 'Im_RyanGosling.png', 'Im_HughJackman.png', 'Im_BenStiller.png', 'Im_RobertPattinson.png', 'Im_PatrickDempsey.png'],same,1,0.4166669999995065,16,0,
FAAN2505,1,pos,0,pos0_id18_im18.bmp_pos0_id18_im11.bmp,['Im_GeorgeClooney.png', 'Im_RyanReynolds.png', 'Im_BenAffleck.png', 'Im_LeonardoDiCaprio.png', 'Im_RobertDowneyJr.png', 'Im_RyanGosling.png', 'Im_HughJackman.png', 'Im_BenStiller.png', 'Im_RobertPattinson.png', 'Im_PatrickDempsey.png'],same,1,0.4752161000014894,17,0,
FAAN2505,1,pos,30,pos30_id18_im18.bmp_pos30_id7_im15.bmp,['Im_GeorgeClooney.png', 'Im_RyanReynolds.png', 'Im_BenAffleck.png', 'Im_LeonardoDiCaprio.png', 'Im_RobertDowneyJr.png', 'Im_RyanGosling.png', 'Im_HughJackman.png', 'Im_BenStiller.png', 'Im_RobertPattinson.png', 'Im_PatrickDempsey.png'],diff,1,0.48344450000149664,18,0,
FAAN2505,1,pos,120,pos120_id17_im14.bmp_pos120_id1_im4.bmp,['Im_GeorgeClooney.png', 'Im_RyanReynolds.png', 'Im_BenAffleck.png', 'Im_LeonardoDiCaprio.png', 'Im_RobertDowneyJr.png', 'Im_RyanGosling.png', 'Im_HughJackman.png', 'Im_BenStiller.png', 'Im_RobertPattinson.png', 'Im_PatrickDempsey.png'],diff,1,0.7666208999999071,19,0,
FAAN2505,1,pos,0,pos0_id7_im15.bmp_pos0_id20_im3.bmp,['Im_GeorgeClooney.png', 'Im_RyanReynolds.png', 'Im_BenAffleck.png', 'Im_LeonardoDiCaprio.png', 'Im_RobertDowneyJr.png', 'Im_RyanGosling.png', 'Im_HughJackman.png', 'Im_BenStiller.png', 'Im_RobertPattinson.png', 'Im_PatrickDempsey.png'],diff,1,0.4248897000015859,20,0,
FAAN2505,1,pos,fs,posfs_id18_im19.bmp_posfs_id8_im13.bmp,['Im_GeorgeClooney.png', 'Im_RyanReynolds.png', 'Im_BenAffleck.png', 'Im_LeonardoDiCaprio.png', 'Im_RobertDowneyJr.png', 'Im_RyanGosling.png', 'Im_HughJackman.png', 'Im_BenStiller.png', 'Im_RobertPattinson.png', 'Im_PatrickDempsey.png'],diff,1,1.7335923999999068,21,0,
FAAN2505,1,pos,60,pos60_id18_im11.bmp_pos60_id18_im18.bmp,['Im_GeorgeClooney.png', 'Im_RyanReynolds.png', 'Im_BenAffleck.png', 'Im_LeonardoDiCaprio.png', 'Im_RobertDowneyJr.png', 'Im_RyanGosling.png', 'Im_HughJackman.png', 'Im_BenStiller.png', 'Im_RobertPattinson.png', 'Im_PatrickDempsey.png'],same,1,0.6333059000007779,22,0,
FAAN2505,1,pos,60,pos60_id19_im8.bmp_pos60_id19_im4.bmp,['Im_GeorgeClooney.png', 'Im_RyanReynolds.png', 'Im_BenAffleck.png', 'Im_LeonardoDiCaprio.png', 'Im_RobertDowneyJr.png', 'Im_RyanGosling.png', 'Im_HughJackman.png', 'Im_BenStiller.png', 'Im_RobertPattinson.png', 'Im_PatrickDempsey.png'],same,1,0.4334226999999373,23,0,
FAAN2505,1,pos,fs,posfs_id19_im4.bmp_posfs_id19_im27.bmp,['Im_GeorgeClooney.png', 'Im_RyanReynolds.png', 'Im_BenAffleck.png', 'Im_LeonardoDiCaprio.png', 'Im_RobertDowneyJr.png', 'Im_RyanGosling.png', 'Im_HughJackman.png', 'Im_BenStiller.png', 'Im_RobertPattinson.png', 'Im_PatrickDempsey.png'],same,1,0.41674129999955767,24,0,
FAAN2505,1,pos,30,pos30_id21_im22.bmp_pos30_id19_im27.bmp,['Im_GeorgeClooney.png', 'Im_RyanReynolds.png', 'Im_BenAffleck.png', 'Im_LeonardoDiCaprio.png', 'Im_RobertDowneyJr.png', 'Im_RyanGosling.png', 'Im_HughJackman.png', 'Im_BenStiller.png', 'Im_RobertPattinson.png', 'Im_PatrickDempsey.png'],diff,1,0.4164827000004152,25,0,
FAAN2505,1,pos,150,pos150_id21_im17.bmp_pos150_id19_im8.bmp,['Im_GeorgeClooney.png', 'Im_RyanReynolds.png', 'Im_BenAffleck.png', 'Im_LeonardoDiCaprio.png', 'Im_RobertDowneyJr.png', 'Im_RyanGosling.png', 'Im_HughJackman.png', 'Im_BenStiller.png', 'Im_RobertPattinson.png', 'Im_PatrickDempsey.png'],diff,1,0.40835169999991194,26,0,
FAAN2505,2,neg,30,neg30_id18_im18.bmp_neg30_id18_im19.bmp,['Im_GeorgeClooney.png', 'Im_RyanReynolds.png', 'Im_BenAffleck.png', 'Im_LeonardoDiCaprio.png', 'Im_RobertDowneyJr.png', 'Im_RyanGosling.png', 'Im_HughJackman.png', 'Im_BenStiller.png', 'Im_RobertPattinson.png', 'Im_PatrickDempsey.png'],diff,0,1.4835769000001164,26,0,
FAAN2505,2,neg,150,neg150_id7_im14.bmp_neg150_id7_im15.bmp,['Im_GeorgeClooney.png', 'Im_RyanReynolds.png', 'Im_BenAffleck.png', 'Im_LeonardoDiCaprio.png', 'Im_RobertDowneyJr.png', 'Im_RyanGosling.png', 'Im_HughJackman.png', 'Im_BenStiller.png', 'Im_RobertPattinson.png', 'Im_PatrickDempsey.png'],same,1,0.4250850000007631,27,0,
FAAN2505,2,neg,0,neg0_id18_im18.bmp_neg0_id7_im15.bmp,['Im_GeorgeClooney.png', 'Im_RyanReynolds.png', 'Im_BenAffleck.png', 'Im_LeonardoDiCaprio.png', 'Im_RobertDowneyJr.png', 'Im_RyanGosling.png', 'Im_HughJackman.png', 'Im_BenStiller.png', 'Im_RobertPattinson.png', 'Im_PatrickDempsey.png'],same,0,0.6833095000001776,27,0,
FAAN2505,2,neg,120,neg120_id7_im14.bmp_neg120_id7_im26.bmp,['Im_GeorgeClooney.png', 'Im_RyanReynolds.png', 'Im_BenAffleck.png', 'Im_LeonardoDiCaprio.png', 'Im_RobertDowneyJr.png', 'Im_RyanGosling.png', 'Im_HughJackman.png', 'Im_BenStiller.png', 'Im_RobertPattinson.png', 'Im_PatrickDempsey.png'],same,1,0.5166900999993231,28,0,
FAAN2505,2,neg,120,neg120_id20_im12.bmp_neg120_id18_im11.bmp,['Im_GeorgeClooney.png', 'Im_RyanReynolds.png', 'Im_BenAffleck.png', 'Im_LeonardoDiCaprio.png', 'Im_RobertDowneyJr.png', 'Im_RyanGosling.png', 'Im_HughJackman.png', 'Im_BenStiller.png', 'Im_RobertPattinson.png', 'Im_PatrickDempsey.png'],diff,1,0.40841050000017276,29,0,
FAAN2505,2,neg,90,neg90_id21_im17.bmp_neg90_id21_im16.bmp,['Im_GeorgeClooney.png', 'Im_RyanReynolds.png', 'Im_BenAffleck.png', 'Im_LeonardoDiCaprio.png', 'Im_RobertDowneyJr.png', 'Im_RyanGosling.png', 'Im_HughJackman.png', 'Im_BenStiller.png', 'Im_RobertPattinson.png', 'Im_PatrickDempsey.png'],same,1,0.42503450000003795,30,0,
FAAN2505,2,neg,fs,negfs_id20_im3.bmp_negfs_id7_im15.bmp,['Im_GeorgeClooney.png', 'Im_RyanReynolds.png', 'Im_BenAffleck.png', 'Im_LeonardoDiCaprio.png', 'Im_RobertDowneyJr.png', 'Im_RyanGosling.png', 'Im_HughJackman.png', 'Im_BenStiller.png', 'Im_RobertPattinson.png', 'Im_PatrickDempsey.png'],diff,1,0.4250348000005033,31,0,
FAAN2505,2,neg,30,neg30_id7_im15.bmp_neg30_id7_im14.bmp,['Im_GeorgeClooney.png', 'Im_RyanReynolds.png', 'Im_BenAffleck.png', 'Im_LeonardoDiCaprio.png', 'Im_RobertDowneyJr.png', 'Im_RyanGosling.png', 'Im_HughJackman.png', 'Im_BenStiller.png', 'Im_RobertPattinson.png', 'Im_PatrickDempsey.png'],same,1,0.908389399999578,32,0,
FAAN2505,2,neg,fs,negfs_id7_im26.bmp_negfs_id20_im3.bmp,['Im_GeorgeClooney.png', 'Im_RyanReynolds.png', 'Im_BenAffleck.png', 'Im_LeonardoDiCaprio.png', 'Im_RobertDowneyJr.png', 'Im_RyanGosling.png', 'Im_HughJackman.png', 'Im_BenStiller.png', 'Im_RobertPattinson.png', 'Im_PatrickDempsey.png'],diff,1,0.4249701999997342,33,0,
FAAN2505,2,neg,60,neg60_id18_im11.bmp_neg60_id18_im18.bmp,['Im_GeorgeClooney.png', 'Im_RyanReynolds.png', 'Im_BenAffleck.png', 'Im_LeonardoDiCaprio.png', 'Im_RobertDowneyJr.png', 'Im_RyanGosling.png', 'Im_HughJackman.png', 'Im_BenStiller.png', 'Im_RobertPattinson.png', 'Im_PatrickDempsey.png'],same,1,0.6583986000005098,34,0,
FAAN2505,2,neg,150,neg150_id2_im2.bmp_neg150_id2_im16.bmp,['Im_GeorgeClooney.png', 'Im_RyanReynolds.png', 'Im_BenAffleck.png', 'Im_LeonardoDiCaprio.png', 'Im_RobertDowneyJr.png', 'Im_RyanGosling.png', 'Im_HughJackman.png', 'Im_BenStiller.png', 'Im_RobertPattinson.png', 'Im_PatrickDempsey.png'],same,1,1.0668260000002192,35,0,
FAAN2505,2,neg,0,neg0_id7_im15.bmp_neg0_id7_im26.bmp,['Im_GeorgeClooney.png', 'Im_RyanReynolds.png', 'Im_BenAffleck.png', 'Im_LeonardoDiCaprio.png', 'Im_RobertDowneyJr.png', 'Im_RyanGosling.png', 'Im_HughJackman.png', 'Im_BenStiller.png', 'Im_RobertPattinson.png', 'Im_PatrickDempsey.png'],same,1,0.4336390999997093,36,0,
FAAN2505,2,neg,90,neg90_id7_im14.bmp_neg90_id7_im26.bmp,['Im_GeorgeClooney.png', 'Im_RyanReynolds.png', 'Im_BenAffleck.png', 'Im_LeonardoDiCaprio.png', 'Im_RobertDowneyJr.png', 'Im_RyanGosling.png', 'Im_HughJackman.png', 'Im_BenStiller.png', 'Im_RobertPattinson.png', 'Im_PatrickDempsey.png'],same,1,0.4585115999998379,37,0,
FAAN2505,2,neg,60,neg60_id13_im10.bmp_neg60_id13_im15.bmp,['Im_GeorgeClooney.png', 'Im_RyanReynolds.png', 'Im_BenAffleck.png', 'Im_LeonardoDiCaprio.png', 'Im_RobertDowneyJr.png', 'Im_RyanGosling.png', 'Im_HughJackman.png', 'Im_BenStiller.png', 'Im_RobertPattinson.png', 'Im_PatrickDempsey.png'],same,1,0.4335078000003705,38,0,
FAAN2505,3,pos,0,pos0_id20_im30.bmp_pos0_id13_im29.bmp,['Im_GeorgeClooney.png', 'Im_RyanReynolds.png', 'Im_BenAffleck.png', 'Im_LeonardoDiCaprio.png', 'Im_RobertDowneyJr.png', 'Im_RyanGosling.png', 'Im_HughJackman.png', 'Im_BenStiller.png', 'Im_RobertPattinson.png', 'Im_PatrickDempsey.png'],diff,1,0.8416991000012786,1,90.47619047619048,
FAAN2505,3,pos,30,pos30_id21_im16.bmp_pos30_id17_im9.bmp,['Im_GeorgeClooney.png', 'Im_RyanReynolds.png', 'Im_BenAffleck.png', 'Im_LeonardoDiCaprio.png', 'Im_RobertDowneyJr.png', 'Im_RyanGosling.png', 'Im_HughJackman.png', 'Im_BenStiller.png', 'Im_RobertPattinson.png', 'Im_PatrickDempsey.png'],diff,1,0.42511449999983597,2,90.47619047619048,
FAAN2505,3,pos,90,pos90_id7_im14.bmp_pos90_id13_im10.bmp,['Im_GeorgeClooney.png', 'Im_RyanReynolds.png', 'Im_BenAffleck.png', 'Im_LeonardoDiCaprio.png', 'Im_RobertDowneyJr.png', 'Im_RyanGosling.png', 'Im_HughJackman.png', 'Im_BenStiller.png', 'Im_RobertPattinson.png', 'Im_PatrickDempsey.png'],diff,1,0.4249902000010479,3,90.47619047619048,
FAAN2505,3,pos,150,pos150_id17_im9.bmp_pos150_id13_im29.bmp,['Im_GeorgeClooney.png', 'Im_RyanReynolds.png', 'Im_BenAffleck.png', 'Im_LeonardoDiCaprio.png', 'Im_RobertDowneyJr.png', 'Im_RyanGosling.png', 'Im_HughJackman.png', 'Im_BenStiller.png', 'Im_RobertPattinson.png', 'Im_PatrickDempsey.png'],diff,1,0.41648260000147275,4,90.47619047619048,
FAAN2505,3,pos,fs,posfs_id2_im3.bmp_posfs_id19_im4.bmp,['Im_GeorgeClooney.png', 'Im_RyanReynolds.png', 'Im_BenAffleck.png', 'Im_LeonardoDiCaprio.png', 'Im_RobertDowneyJr.png', 'Im_RyanGosling.png', 'Im_HughJackman.png', 'Im_BenStiller.png', 'Im_RobertPattinson.png', 'Im_PatrickDempsey.png'],diff,1,0.4250601000003371,5,90.47619047619048,
FAAN2505,3,pos,0,pos0_id7_im14.bmp_pos0_id7_im15.bmp,['Im_GeorgeClooney.png', 'Im_RyanReynolds.png', 'Im_BenAffleck.png', 'Im_LeonardoDiCaprio.png', 'Im_RobertDowneyJr.png', 'Im_RyanGosling.png', 'Im_HughJackman.png', 'Im_BenStiller.png', 'Im_RobertPattinson.png', 'Im_PatrickDempsey.png'],same,1,0.42511840000042866,6,90.47619047619048,
FAAN2505,3,pos,120,pos120_id2_im3.bmp_pos120_id2_im2.bmp,['Im_GeorgeClooney.png', 'Im_RyanReynolds.png', 'Im_BenAffleck.png', 'Im_LeonardoDiCaprio.png', 'Im_RobertDowneyJr.png', 'Im_RyanGosling.png', 'Im_HughJackman.png', 'Im_BenStiller.png', 'Im_RobertPattinson.png', 'Im_PatrickDempsey.png'],same,1,0.6419589999986783,7,90.47619047619048,
FAAN2505,3,pos,60,pos60_id2_im3.bmp_pos60_id19_im8.bmp,['Im_GeorgeClooney.png', 'Im_RyanReynolds.png', 'Im_BenAffleck.png', 'Im_LeonardoDiCaprio.png', 'Im_RobertDowneyJr.png', 'Im_RyanGosling.png', 'Im_HughJackman.png', 'Im_BenStiller.png', 'Im_RobertPattinson.png', 'Im_PatrickDempsey.png'],diff,1,0.41674070000044594,8,90.47619047619048,
FAAN2505,3,pos,fs,posfs_id21_im17.bmp_posfs_id21_im22.bmp,['Im_GeorgeClooney.png', 'Im_RyanReynolds.png', 'Im_BenAffleck.png', 'Im_LeonardoDiCaprio.png', 'Im_RobertDowneyJr.png', 'Im_RyanGosling.png', 'Im_HughJackman.png', 'Im_BenStiller.png', 'Im_RobertPattinson.png', 'Im_PatrickDempsey.png'],same,1,0.40844819999983883,9,90.47619047619048,
FAAN2505,3,pos,60,pos60_id17_im14.bmp_pos60_id17_im9.bmp,['Im_GeorgeClooney.png', 'Im_RyanReynolds.png', 'Im_BenAffleck.png', 'Im_LeonardoDiCaprio.png', 'Im_RobertDowneyJr.png', 'Im_RyanGosling.png', 'Im_HughJackman.png', 'Im_BenStiller.png', 'Im_RobertPattinson.png', 'Im_PatrickDempsey.png'],same,1,0.6003393000009964,10,90.47619047619048,
FAAN2505,3,pos,90,pos90_id20_im30.bmp_pos90_id20_im12.bmp,['Im_GeorgeClooney.png', 'Im_RyanReynolds.png', 'Im_BenAffleck.png', 'Im_LeonardoDiCaprio.png', 'Im_RobertDowneyJr.png', 'Im_RyanGosling.png', 'Im_HughJackman.png', 'Im_BenStiller.png', 'Im_RobertPattinson.png', 'Im_PatrickDempsey.png'],same,1,0.40831339999931515,11,90.47619047619048,
FAAN2505,3,pos,30,pos30_id2_im3.bmp_pos30_id2_im2.bmp,['Im_GeorgeClooney.png', 'Im_RyanReynolds.png', 'Im_BenAffleck.png', 'Im_LeonardoDiCaprio.png', 'Im_RobertDowneyJr.png', 'Im_RyanGosling.png', 'Im_HughJackman.png', 'Im_BenStiller.png', 'Im_RobertPattinson.png', 'Im_PatrickDempsey.png'],diff,0,1.5833851999996114,11,90.47619047619048,
FAAN2505,3,pos,120,pos120_id18_im11.bmp_pos120_id20_im12.bmp,['Im_GeorgeClooney.png', 'Im_RyanReynolds.png', 'Im_BenAffleck.png', 'Im_LeonardoDiCaprio.png', 'Im_RobertDowneyJr.png', 'Im_RyanGosling.png', 'Im_HughJackman.png', 'Im_BenStiller.png', 'Im_RobertPattinson.png', 'Im_PatrickDempsey.png'],diff,1,0.41683980000016163,12,90.47619047619048,
FAAN2505,3,pos,150,pos150_id2_im16.bmp_pos150_id1_im21.bmp,['Im_GeorgeClooney.png', 'Im_RyanReynolds.png', 'Im_BenAffleck.png', 'Im_LeonardoDiCaprio.png', 'Im_RobertDowneyJr.png', 'Im_RyanGosling.png', 'Im_HughJackman.png', 'Im_BenStiller.png', 'Im_RobertPattinson.png', 'Im_PatrickDempsey.png'],diff,1,0.8667260000001988,13,90.47619047619048,
FAAN2505,4,neg,150,neg150_id7_im26.bmp_neg150_id7_im14.bmp,['Im_GeorgeClooney.png', 'Im_RyanReynolds.png', 'Im_BenAffleck.png', 'Im_LeonardoDiCaprio.png', 'Im_RobertDowneyJr.png', 'Im_RyanGosling.png', 'Im_HughJackman.png', 'Im_BenStiller.png', 'Im_RobertPattinson.png', 'Im_PatrickDempsey.png'],diff,0,0.9668655000004946,13,90.47619047619048,
FAAN2505,4,neg,0,neg0_id2_im3.bmp_neg0_id2_im16.bmp,['Im_GeorgeClooney.png', 'Im_RyanReynolds.png', 'Im_BenAffleck.png', 'Im_LeonardoDiCaprio.png', 'Im_RobertDowneyJr.png', 'Im_RyanGosling.png', 'Im_HughJackman.png', 'Im_BenStiller.png', 'Im_RobertPattinson.png', 'Im_PatrickDempsey.png'],same,1,0.5166943999993237,14,90.47619047619048,
FAAN2505,4,neg,120,neg120_id17_im9.bmp_neg120_id13_im29.bmp,['Im_GeorgeClooney.png', 'Im_RyanReynolds.png', 'Im_BenAffleck.png', 'Im_LeonardoDiCaprio.png', 'Im_RobertDowneyJr.png', 'Im_RyanGosling.png', 'Im_HughJackman.png', 'Im_BenStiller.png', 'Im_RobertPattinson.png', 'Im_PatrickDempsey.png'],diff,1,0.41643649999969057,15,90.47619047619048,
FAAN2505,4,neg,fs,negfs_id2_im3.bmp_negfs_id19_im4.bmp,['Im_GeorgeClooney.png', 'Im_RyanReynolds.png', 'Im_BenAffleck.png', 'Im_LeonardoDiCaprio.png', 'Im_RobertDowneyJr.png', 'Im_RyanGosling.png', 'Im_HughJackman.png', 'Im_BenStiller.png', 'Im_RobertPattinson.png', 'Im_PatrickDempsey.png'],diff,1,0.416713599999639,16,90.47619047619048,
FAAN2505,4,neg,fs,negfs_id17_im8.bmp_negfs_id19_im27.bmp,['Im_GeorgeClooney.png', 'Im_RyanReynolds.png', 'Im_BenAffleck.png', 'Im_LeonardoDiCaprio.png', 'Im_RobertDowneyJr.png', 'Im_RyanGosling.png', 'Im_HughJackman.png', 'Im_BenStiller.png', 'Im_RobertPattinson.png', 'Im_PatrickDempsey.png'],diff,1,0.4251206999997521,17,90.47619047619048,
FAAN2505,4,neg,30,neg30_id2_im3.bmp_neg30_id19_im8.bmp,['Im_GeorgeClooney.png', 'Im_RyanReynolds.png', 'Im_BenAffleck.png', 'Im_LeonardoDiCaprio.png', 'Im_RobertDowneyJr.png', 'Im_RyanGosling.png', 'Im_HughJackman.png', 'Im_BenStiller.png', 'Im_RobertPattinson.png', 'Im_PatrickDempsey.png'],diff,1,0.4166672999999719,18,90.47619047619048,
FAAN2505,4,neg,60,neg60_id21_im22.bmp_neg60_id19_im27.bmp,['Im_GeorgeClooney.png', 'Im_RyanReynolds.png', 'Im_BenAffleck.png', 'Im_LeonardoDiCaprio.png', 'Im_RobertDowneyJr.png', 'Im_RyanGosling.png', 'Im_HughJackman.png', 'Im_BenStiller.png', 'Im_RobertPattinson.png', 'Im_PatrickDempsey.png'],diff,1,0.4250905999997485,19,90.47619047619048,
FAAN2505,4,neg,120,neg120_id21_im17.bmp_neg120_id19_im8.bmp,['Im_GeorgeClooney.png', 'Im_RyanReynolds.png', 'Im_BenAffleck.png', 'Im_LeonardoDiCaprio.png', 'Im_RobertDowneyJr.png', 'Im_RyanGosling.png', 'Im_HughJackman.png', 'Im_BenStiller.png', 'Im_RobertPattinson.png', 'Im_PatrickDempsey.png'],diff,1,0.8668473999987327,20,90.47619047619048,
FAAN2505,4,neg,90,neg90_id19_im4.bmp_neg90_id19_im8.bmp,['Im_GeorgeClooney.png', 'Im_RyanReynolds.png', 'Im_BenAffleck.png', 'Im_LeonardoDiCaprio.png', 'Im_RobertDowneyJr.png', 'Im_RyanGosling.png', 'Im_HughJackman.png', 'Im_BenStiller.png', 'Im_RobertPattinson.png', 'Im_PatrickDempsey.png'],diff,0,0.49195160000090254,20,90.47619047619048,
FAAN2505,4,neg,0,neg0_id19_im8.bmp_neg0_id19_im4.bmp,['Im_GeorgeClooney.png', 'Im_RyanReynolds.png', 'Im_BenAffleck.png', 'Im_LeonardoDiCaprio.png', 'Im_RobertDowneyJr.png', 'Im_RyanGosling.png', 'Im_HughJackman.png', 'Im_BenStiller.png', 'Im_RobertPattinson.png', 'Im_PatrickDempsey.png'],diff,0,0.4085223000001861,20,90.47619047619048,
FAAN2505,4,neg,60,neg60_id8_im13.bmp_neg60_id8_im21.bmp,['Im_GeorgeClooney.png', 'Im_RyanReynolds.png', 'Im_BenAffleck.png', 'Im_LeonardoDiCaprio.png', 'Im_RobertDowneyJr.png', 'Im_RyanGosling.png', 'Im_HughJackman.png', 'Im_BenStiller.png', 'Im_RobertPattinson.png', 'Im_PatrickDempsey.png'],same,1,0.45035550000102376,21,90.47619047619048,
FAAN2505,4,neg,90,neg90_id20_im12.bmp_neg90_id20_im3.bmp,['Im_GeorgeClooney.png', 'Im_RyanReynolds.png', 'Im_BenAffleck.png', 'Im_LeonardoDiCaprio.png', 'Im_RobertDowneyJr.png', 'Im_RyanGosling.png', 'Im_HughJackman.png', 'Im_BenStiller.png', 'Im_RobertPattinson.png', 'Im_PatrickDempsey.png'],same,1,0.42519569999967644,22,90.47619047619048,
FAAN2505,4,neg,150,neg150_id21_im22.bmp_neg150_id19_im27.bmp,['Im_GeorgeClooney.png', 'Im_RyanReynolds.png', 'Im_BenAffleck.png', 'Im_LeonardoDiCaprio.png', 'Im_RobertDowneyJr.png', 'Im_RyanGosling.png', 'Im_HughJackman.png', 'Im_BenStiller.png', 'Im_RobertPattinson.png', 'Im_PatrickDempsey.png'],diff,1,0.5250312999996822,23,90.47619047619048,
FAAN2505,4,neg,30,neg30_id19_im27.bmp_neg30_id17_im8.bmp,['Im_GeorgeClooney.png', 'Im_RyanReynolds.png', 'Im_BenAffleck.png', 'Im_LeonardoDiCaprio.png', 'Im_RobertDowneyJr.png', 'Im_RyanGosling.png', 'Im_HughJackman.png', 'Im_BenStiller.png', 'Im_RobertPattinson.png', 'Im_PatrickDempsey.png'],diff,1,0.4252206000001024,24,90.47619047619048,
FAAN2505,5,inv,90,pos90_id21_im22.bmp_pos90_id21_im17.bmp,['Im_GeorgeClooney.png', 'Im_RyanReynolds.png', 'Im_BenAffleck.png', 'Im_LeonardoDiCaprio.png', 'Im_RobertDowneyJr.png', 'Im_RyanGosling.png', 'Im_HughJackman.png', 'Im_BenStiller.png', 'Im_RobertPattinson.png', 'Im_PatrickDempsey.png'],same,1,1.4000629000001936,25,90.47619047619048,
FAAN2505,5,inv,150,pos150_id21_im16.bmp_pos150_id13_im10.bmp,['Im_GeorgeClooney.png', 'Im_RyanReynolds.png', 'Im_BenAffleck.png', 'Im_LeonardoDiCaprio.png', 'Im_RobertDowneyJr.png', 'Im_RyanGosling.png', 'Im_HughJackman.png', 'Im_BenStiller.png', 'Im_RobertPattinson.png', 'Im_PatrickDempsey.png'],diff,1,0.5170150000012654,26,90.47619047619048,
FAAN2505,5,inv,0,pos0_id18_im18.bmp_pos0_id18_im19.bmp,['Im_GeorgeClooney.png', 'Im_RyanReynolds.png', 'Im_BenAffleck.png', 'Im_LeonardoDiCaprio.png', 'Im_RobertDowneyJr.png', 'Im_RyanGosling.png', 'Im_HughJackman.png', 'Im_BenStiller.png', 'Im_RobertPattinson.png', 'Im_PatrickDempsey.png'],same,1,0.7250034999997297,27,90.47619047619048,
FAAN2505,5,inv,120,pos120_id7_im15.bmp_pos120_id18_im18.bmp,['Im_GeorgeClooney.png', 'Im_RyanReynolds.png', 'Im_BenAffleck.png', 'Im_LeonardoDiCaprio.png', 'Im_RobertDowneyJr.png', 'Im_RyanGosling.png', 'Im_HughJackman.png', 'Im_BenStiller.png', 'Im_RobertPattinson.png', 'Im_PatrickDempsey.png'],diff,1,0.5166853999999148,28,90.47619047619048,
FAAN2505,5,inv,60,pos60_id18_im18.bmp_pos60_id18_im19.bmp,['Im_GeorgeClooney.png', 'Im_RyanReynolds.png', 'Im_BenAffleck.png', 'Im_LeonardoDiCaprio.png', 'Im_RobertDowneyJr.png', 'Im_RyanGosling.png', 'Im_HughJackman.png', 'Im_BenStiller.png', 'Im_RobertPattinson.png', 'Im_PatrickDempsey.png'],same,1,1.7916695000003529,29,90.47619047619048,
FAAN2505,5,inv,150,pos150_id7_im15.bmp_pos150_id20_im3.bmp,['Im_GeorgeClooney.png', 'Im_RyanReynolds.png', 'Im_BenAffleck.png', 'Im_LeonardoDiCaprio.png', 'Im_RobertDowneyJr.png', 'Im_RyanGosling.png', 'Im_HughJackman.png', 'Im_BenStiller.png', 'Im_RobertPattinson.png', 'Im_PatrickDempsey.png'],diff,1,0.4253138999993098,30,90.47619047619048,
FAAN2505,5,inv,120,pos120_id21_im22.bmp_pos120_id8_im21.bmp,['Im_GeorgeClooney.png', 'Im_RyanReynolds.png', 'Im_BenAffleck.png', 'Im_LeonardoDiCaprio.png', 'Im_RobertDowneyJr.png', 'Im_RyanGosling.png', 'Im_HughJackman.png', 'Im_BenStiller.png', 'Im_RobertPattinson.png', 'Im_PatrickDempsey.png'],diff,1,0.7002394999999524,31,90.47619047619048,
FAAN2505,5,inv,90,pos90_id21_im16.bmp_pos90_id13_im10.bmp,['Im_GeorgeClooney.png', 'Im_RyanReynolds.png', 'Im_BenAffleck.png', 'Im_LeonardoDiCaprio.png', 'Im_RobertDowneyJr.png', 'Im_RyanGosling.png', 'Im_HughJackman.png', 'Im_BenStiller.png', 'Im_RobertPattinson.png', 'Im_PatrickDempsey.png'],diff,1,0.7004845999999816,32,90.47619047619048,
FAAN2505,5,inv,fs,posfs_id13_im15.bmp_posfs_id13_im29.bmp,['Im_GeorgeClooney.png', 'Im_RyanReynolds.png', 'Im_BenAffleck.png', 'Im_LeonardoDiCaprio.png', 'Im_RobertDowneyJr.png', 'Im_RyanGosling.png', 'Im_HughJackman.png', 'Im_BenStiller.png', 'Im_RobertPattinson.png', 'Im_PatrickDempsey.png'],diff,0,0.6502967000014905,32,90.47619047619048,
FAAN2505,5,inv,30,pos30_id1_im4.bmp_pos30_id1_im21.bmp,['Im_GeorgeClooney.png', 'Im_RyanReynolds.png', 'Im_BenAffleck.png', 'Im_LeonardoDiCaprio.png', 'Im_RobertDowneyJr.png', 'Im_RyanGosling.png', 'Im_HughJackman.png', 'Im_BenStiller.png', 'Im_RobertPattinson.png', 'Im_PatrickDempsey.png'],same,1,0.6835768000000826,33,90.47619047619048,
FAAN2505,5,inv,fs,posfs_id18_im19.bmp_posfs_id18_im18.bmp,['Im_GeorgeClooney.png', 'Im_RyanReynolds.png', 'Im_BenAffleck.png', 'Im_LeonardoDiCaprio.png', 'Im_RobertDowneyJr.png', 'Im_RyanGosling.png', 'Im_HughJackman.png', 'Im_BenStiller.png', 'Im_RobertPattinson.png', 'Im_PatrickDempsey.png'],same,1,0.42524349999985134,34,90.47619047619048,
FAAN2505,5,inv,30,pos30_id13_im29.bmp_pos30_id17_im9.bmp,['Im_GeorgeClooney.png', 'Im_RyanReynolds.png', 'Im_BenAffleck.png', 'Im_LeonardoDiCaprio.png', 'Im_RobertDowneyJr.png', 'Im_RyanGosling.png', 'Im_HughJackman.png', 'Im_BenStiller.png', 'Im_RobertPattinson.png', 'Im_PatrickDempsey.png'],diff,1,0.7833532999993622,35,90.47619047619048,
FAAN2505,5,inv,60,pos60_id2_im16.bmp_pos60_id7_im14.bmp,['Im_GeorgeClooney.png', 'Im_RyanReynolds.png', 'Im_BenAffleck.png', 'Im_LeonardoDiCaprio.png', 'Im_RobertDowneyJr.png', 'Im_RyanGosling.png', 'Im_HughJackman.png', 'Im_BenStiller.png', 'Im_RobertPattinson.png', 'Im_PatrickDempsey.png'],diff,1,0.7668401999999332,36,90.47619047619048,
FAAN2505,5,inv,0,pos0_id1_im4.bmp_pos0_id17_im14.bmp,['Im_GeorgeClooney.png', 'Im_RyanReynolds.png', 'Im_BenAffleck.png', 'Im_LeonardoDiCaprio.png', 'Im_RobertDowneyJr.png', 'Im_RyanGosling.png', 'Im_HughJackman.png', 'Im_BenStiller.png', 'Im_RobertPattinson.png', 'Im_PatrickDempsey.png'],diff,1,0.4167137000004004,37,90.47619047619048,
FAAN2505,6,inv,60,pos60_id21_im22.bmp_pos60_id19_im27.bmp,['Im_GeorgeClooney.png', 'Im_RyanReynolds.png', 'Im_BenAffleck.png', 'Im_LeonardoDiCaprio.png', 'Im_RobertDowneyJr.png', 'Im_RyanGosling.png', 'Im_HughJackman.png', 'Im_BenStiller.png', 'Im_RobertPattinson.png', 'Im_PatrickDempsey.png'],diff,1,0.6417774999990797,1,88.0952380952381,
FAAN2505,6,inv,fs,posfs_id19_im8.bmp_posfs_id2_im3.bmp,['Im_GeorgeClooney.png', 'Im_RyanReynolds.png', 'Im_BenAffleck.png', 'Im_LeonardoDiCaprio.png', 'Im_RobertDowneyJr.png', 'Im_RyanGosling.png', 'Im_HughJackman.png', 'Im_BenStiller.png', 'Im_RobertPattinson.png', 'Im_PatrickDempsey.png'],diff,1,0.4166940999984945,2,88.0952380952381,
FAAN2505,6,inv,150,pos150_id7_im15.bmp_pos150_id18_im18.bmp,['Im_GeorgeClooney.png', 'Im_RyanReynolds.png', 'Im_BenAffleck.png', 'Im_LeonardoDiCaprio.png', 'Im_RobertDowneyJr.png', 'Im_RyanGosling.png', 'Im_HughJackman.png', 'Im_BenStiller.png', 'Im_RobertPattinson.png', 'Im_PatrickDempsey.png'],diff,1,0.42513620000136143,3,88.0952380952381,
FAAN2505,6,inv,fs,posfs_id8_im13.bmp_posfs_id8_im20.bmp,['Im_GeorgeClooney.png', 'Im_RyanReynolds.png', 'Im_BenAffleck.png', 'Im_LeonardoDiCaprio.png', 'Im_RobertDowneyJr.png', 'Im_RyanGosling.png', 'Im_HughJackman.png', 'Im_BenStiller.png', 'Im_RobertPattinson.png', 'Im_PatrickDempsey.png'],same,1,0.40833009999914793,4,88.0952380952381,
FAAN2505,6,inv,90,pos90_id2_im3.bmp_pos90_id19_im4.bmp,['Im_GeorgeClooney.png', 'Im_RyanReynolds.png', 'Im_BenAffleck.png', 'Im_LeonardoDiCaprio.png', 'Im_RobertDowneyJr.png', 'Im_RyanGosling.png', 'Im_HughJackman.png', 'Im_BenStiller.png', 'Im_RobertPattinson.png', 'Im_PatrickDempsey.png'],diff,1,0.41672319999997853,5,88.0952380952381,
FAAN2505,6,inv,0,pos0_id2_im2.bmp_pos0_id2_im3.bmp,['Im_GeorgeClooney.png', 'Im_RyanReynolds.png', 'Im_BenAffleck.png', 'Im_LeonardoDiCaprio.png', 'Im_RobertDowneyJr.png', 'Im_RyanGosling.png', 'Im_HughJackman.png', 'Im_BenStiller.png', 'Im_RobertPattinson.png', 'Im_PatrickDempsey.png'],same,1,0.5835996000005252,6,88.0952380952381,
FAAN2505,6,inv,120,pos120_id19_im27.bmp_pos120_id19_im8.bmp,['Im_GeorgeClooney.png', 'Im_RyanReynolds.png', 'Im_BenAffleck.png', 'Im_LeonardoDiCaprio.png', 'Im_RobertDowneyJr.png', 'Im_RyanGosling.png', 'Im_HughJackman.png', 'Im_BenStiller.png', 'Im_RobertPattinson.png', 'Im_PatrickDempsey.png'],same,1,0.5666903999990609,7,88.0952380952381,
FAAN2505,6,inv,60,pos60_id7_im15.bmp_pos60_id7_im26.bmp,['Im_GeorgeClooney.png', 'Im_RyanReynolds.png', 'Im_BenAffleck.png', 'Im_LeonardoDiCaprio.png', 'Im_RobertDowneyJr.png', 'Im_RyanGosling.png', 'Im_HughJackman.png', 'Im_BenStiller.png', 'Im_RobertPattinson.png', 'Im_PatrickDempsey.png'],same,1,0.9500583000008191,8,88.0952380952381,
FAAN2505,6,inv,90,pos90_id2_im16.bmp_pos90_id1_im21.bmp,['Im_GeorgeClooney.png', 'Im_RyanReynolds.png', 'Im_BenAffleck.png', 'Im_LeonardoDiCaprio.png', 'Im_RobertDowneyJr.png', 'Im_RyanGosling.png', 'Im_HughJackman.png', 'Im_BenStiller.png', 'Im_RobertPattinson.png', 'Im_PatrickDempsey.png'],diff,1,0.7333911999994598,9,88.0952380952381,
FAAN2505,6,inv,0,pos0_id1_im21.bmp_pos0_id2_im16.bmp,['Im_GeorgeClooney.png', 'Im_RyanReynolds.png', 'Im_BenAffleck.png', 'Im_LeonardoDiCaprio.png', 'Im_RobertDowneyJr.png', 'Im_RyanGosling.png', 'Im_HughJackman.png', 'Im_BenStiller.png', 'Im_RobertPattinson.png', 'Im_PatrickDempsey.png'],diff,1,0.7165408999990177,10,88.0952380952381,
FAAN2505,6,inv,120,pos120_id13_im10.bmp_pos120_id13_im15.bmp,['Im_GeorgeClooney.png', 'Im_RyanReynolds.png', 'Im_BenAffleck.png', 'Im_LeonardoDiCaprio.png', 'Im_RobertDowneyJr.png', 'Im_RyanGosling.png', 'Im_HughJackman.png', 'Im_BenStiller.png', 'Im_RobertPattinson.png', 'Im_PatrickDempsey.png'],same,1,0.983617799998683,11,88.0952380952381,
FAAN2505,6,inv,150,pos150_id17_im9.bmp_pos150_id17_im8.bmp,['Im_GeorgeClooney.png', 'Im_RyanReynolds.png', 'Im_BenAffleck.png', 'Im_LeonardoDiCaprio.png', 'Im_RobertDowneyJr.png', 'Im_RyanGosling.png', 'Im_HughJackman.png', 'Im_BenStiller.png', 'Im_RobertPattinson.png', 'Im_PatrickDempsey.png'],same,1,0.5834398000006331,12,88.0952380952381,
FAAN2505,6,inv,30,pos30_id13_im29.bmp_pos30_id13_im15.bmp,['Im_GeorgeClooney.png', 'Im_RyanReynolds.png', 'Im_BenAffleck.png', 'Im_LeonardoDiCaprio.png', 'Im_RobertDowneyJr.png', 'Im_RyanGosling.png', 'Im_HughJackman.png', 'Im_BenStiller.png', 'Im_RobertPattinson.png', 'Im_PatrickDempsey.png'],same,1,0.45855090000077325,13,88.0952380952381,
FAAN2505,6,inv,30,pos30_id20_im12.bmp_pos30_id18_im11.bmp,['Im_GeorgeClooney.png', 'Im_RyanReynolds.png', 'Im_BenAffleck.png', 'Im_LeonardoDiCaprio.png', 'Im_RobertDowneyJr.png', 'Im_RyanGosling.png', 'Im_HughJackman.png', 'Im_BenStiller.png', 'Im_RobertPattinson.png', 'Im_PatrickDempsey.png'],diff,1,1.0500466000012239,14,88.0952380952381,
FAAN2505,7,neg,0,neg0_id17_im9.bmp_neg0_id13_im29.bmp,['Im_GeorgeClooney.png', 'Im_RyanReynolds.png', 'Im_BenAffleck.png', 'Im_LeonardoDiCaprio.png', 'Im_RobertDowneyJr.png', 'Im_RyanGosling.png', 'Im_HughJackman.png', 'Im_BenStiller.png', 'Im_RobertPattinson.png', 'Im_PatrickDempsey.png'],diff,1,0.5919061999993573,15,88.0952380952381,
FAAN2505,7,neg,120,neg120_id1_im21.bmp_neg120_id1_im24.bmp,['Im_GeorgeClooney.png', 'Im_RyanReynolds.png', 'Im_BenAffleck.png', 'Im_LeonardoDiCaprio.png', 'Im_RobertDowneyJr.png', 'Im_RyanGosling.png', 'Im_HughJackman.png', 'Im_BenStiller.png', 'Im_RobertPattinson.png', 'Im_PatrickDempsey.png'],diff,0,0.8668491999997059,15,88.0952380952381,
FAAN2505,7,neg,60,neg60_id8_im13.bmp_neg60_id2_im2.bmp,['Im_GeorgeClooney.png', 'Im_RyanReynolds.png', 'Im_BenAffleck.png', 'Im_LeonardoDiCaprio.png', 'Im_RobertDowneyJr.png', 'Im_RyanGosling.png', 'Im_HughJackman.png', 'Im_BenStiller.png', 'Im_RobertPattinson.png', 'Im_PatrickDempsey.png'],diff,1,0.4917083000000275,16,88.0952380952381,
FAAN2505,7,neg,fs,negfs_id7_im14.bmp_negfs_id7_im26.bmp,['Im_GeorgeClooney.png', 'Im_RyanReynolds.png', 'Im_BenAffleck.png', 'Im_LeonardoDiCaprio.png', 'Im_RobertDowneyJr.png', 'Im_RyanGosling.png', 'Im_HughJackman.png', 'Im_BenStiller.png', 'Im_RobertPattinson.png', 'Im_PatrickDempsey.png'],same,1,0.4084514999995008,17,88.0952380952381,
FAAN2505,7,neg,60,neg60_id17_im8.bmp_neg60_id17_im14.bmp,['Im_GeorgeClooney.png', 'Im_RyanReynolds.png', 'Im_BenAffleck.png', 'Im_LeonardoDiCaprio.png', 'Im_RobertDowneyJr.png', 'Im_RyanGosling.png', 'Im_HughJackman.png', 'Im_BenStiller.png', 'Im_RobertPattinson.png', 'Im_PatrickDempsey.png'],same,1,1.4249915999989753,18,88.0952380952381,
FAAN2505,7,neg,150,neg150_id13_im10.bmp_neg150_id13_im15.bmp,['Im_GeorgeClooney.png', 'Im_RyanReynolds.png', 'Im_BenAffleck.png', 'Im_LeonardoDiCaprio.png', 'Im_RobertDowneyJr.png', 'Im_RyanGosling.png', 'Im_HughJackman.png', 'Im_BenStiller.png', 'Im_RobertPattinson.png', 'Im_PatrickDempsey.png'],same,1,0.41676710000137973,19,88.0952380952381,
FAAN2505,7,neg,90,neg90_id8_im20.bmp_neg90_id8_im21.bmp,['Im_GeorgeClooney.png', 'Im_RyanReynolds.png', 'Im_BenAffleck.png', 'Im_LeonardoDiCaprio.png', 'Im_RobertDowneyJr.png', 'Im_RyanGosling.png', 'Im_HughJackman.png', 'Im_BenStiller.png', 'Im_RobertPattinson.png', 'Im_PatrickDempsey.png'],same,1,1.1000973999998678,20,88.0952380952381,
FAAN2505,7,neg,120,neg120_id19_im27.bmp_neg120_id17_im8.bmp,['Im_GeorgeClooney.png', 'Im_RyanReynolds.png', 'Im_BenAffleck.png', 'Im_LeonardoDiCaprio.png', 'Im_RobertDowneyJr.png', 'Im_RyanGosling.png', 'Im_HughJackman.png', 'Im_BenStiller.png', 'Im_RobertPattinson.png', 'Im_PatrickDempsey.png'],same,0,0.7918068999988463,20,88.0952380952381,
FAAN2505,7,neg,30,neg30_id18_im11.bmp_neg30_id18_im19.bmp,['Im_GeorgeClooney.png', 'Im_RyanReynolds.png', 'Im_BenAffleck.png', 'Im_LeonardoDiCaprio.png', 'Im_RobertDowneyJr.png', 'Im_RyanGosling.png', 'Im_HughJackman.png', 'Im_BenStiller.png', 'Im_RobertPattinson.png', 'Im_PatrickDempsey.png'],diff,0,1.2500289999989036,20,88.0952380952381,
FAAN2505,7,neg,90,neg90_id13_im15.bmp_neg90_id13_im29.bmp,['Im_GeorgeClooney.png', 'Im_RyanReynolds.png', 'Im_BenAffleck.png', 'Im_LeonardoDiCaprio.png', 'Im_RobertDowneyJr.png', 'Im_RyanGosling.png', 'Im_HughJackman.png', 'Im_BenStiller.png', 'Im_RobertPattinson.png', 'Im_PatrickDempsey.png'],same,1,0.43347300000095856,21,88.0952380952381,
FAAN2505,7,neg,150,neg150_id1_im24.bmp_neg150_id8_im20.bmp,['Im_GeorgeClooney.png', 'Im_RyanReynolds.png', 'Im_BenAffleck.png', 'Im_LeonardoDiCaprio.png', 'Im_RobertDowneyJr.png', 'Im_RyanGosling.png', 'Im_HughJackman.png', 'Im_BenStiller.png', 'Im_RobertPattinson.png', 'Im_PatrickDempsey.png'],same,0,0.533385000000635,21,88.0952380952381,
FAAN2505,7,neg,30,neg30_id8_im13.bmp_neg30_id18_im19.bmp,['Im_GeorgeClooney.png', 'Im_RyanReynolds.png', 'Im_BenAffleck.png', 'Im_LeonardoDiCaprio.png', 'Im_RobertDowneyJr.png', 'Im_RyanGosling.png', 'Im_HughJackman.png', 'Im_BenStiller.png', 'Im_RobertPattinson.png', 'Im_PatrickDempsey.png'],diff,1,0.4249517999996897,22,88.0952380952381,
FAAN2505,7,neg,fs,negfs_id18_im18.bmp_negfs_id18_im19.bmp,['Im_GeorgeClooney.png', 'Im_RyanReynolds.png', 'Im_BenAffleck.png', 'Im_LeonardoDiCaprio.png', 'Im_RobertDowneyJr.png', 'Im_RyanGosling.png', 'Im_HughJackman.png', 'Im_BenStiller.png', 'Im_RobertPattinson.png', 'Im_PatrickDempsey.png'],same,1,1.7415781000017887,23,88.0952380952381,
FAAN2505,7,neg,0,neg0_id1_im24.bmp_neg0_id8_im21.bmp,['Im_GeorgeClooney.png', 'Im_RyanReynolds.png', 'Im_BenAffleck.png', 'Im_LeonardoDiCaprio.png', 'Im_RobertDowneyJr.png', 'Im_RyanGosling.png', 'Im_HughJackman.png', 'Im_BenStiller.png', 'Im_RobertPattinson.png', 'Im_PatrickDempsey.png'],diff,1,0.8167322000008426,24,88.0952380952381,
FAAN2505,8,pos,0,pos0_id20_im3.bmp_pos0_id7_im26.bmp,['Im_GeorgeClooney.png', 'Im_RyanReynolds.png', 'Im_BenAffleck.png', 'Im_LeonardoDiCaprio.png', 'Im_RobertDowneyJr.png', 'Im_RyanGosling.png', 'Im_HughJackman.png', 'Im_BenStiller.png', 'Im_RobertPattinson.png', 'Im_PatrickDempsey.png'],diff,1,0.42529670000112674,25,88.0952380952381,
FAAN2505,8,pos,150,pos150_id2_im2.bmp_pos150_id2_im3.bmp,['Im_GeorgeClooney.png', 'Im_RyanReynolds.png', 'Im_BenAffleck.png', 'Im_LeonardoDiCaprio.png', 'Im_RobertDowneyJr.png', 'Im_RyanGosling.png', 'Im_HughJackman.png', 'Im_BenStiller.png', 'Im_RobertPattinson.png', 'Im_PatrickDempsey.png'],same,1,0.48374519999924814,26,88.0952380952381,
FAAN2505,8,pos,120,pos120_id1_im4.bmp_pos120_id1_im21.bmp,['Im_GeorgeClooney.png', 'Im_RyanReynolds.png', 'Im_BenAffleck.png', 'Im_LeonardoDiCaprio.png', 'Im_RobertDowneyJr.png', 'Im_RyanGosling.png', 'Im_HughJackman.png', 'Im_BenStiller.png', 'Im_RobertPattinson.png', 'Im_PatrickDempsey.png'],same,1,0.43361619999996037,27,88.0952380952381,
FAAN2505,8,pos,fs,posfs_id17_im14.bmp_posfs_id17_im9.bmp,['Im_GeorgeClooney.png', 'Im_RyanReynolds.png', 'Im_BenAffleck.png', 'Im_LeonardoDiCaprio.png', 'Im_RobertDowneyJr.png', 'Im_RyanGosling.png', 'Im_HughJackman.png', 'Im_BenStiller.png', 'Im_RobertPattinson.png', 'Im_PatrickDempsey.png'],same,1,0.9166564999995899,28,88.0952380952381,
FAAN2505,8,pos,150,pos150_id13_im10.bmp_pos150_id7_im14.bmp,['Im_GeorgeClooney.png', 'Im_RyanReynolds.png', 'Im_BenAffleck.png', 'Im_LeonardoDiCaprio.png', 'Im_RobertDowneyJr.png', 'Im_RyanGosling.png', 'Im_HughJackman.png', 'Im_BenStiller.png', 'Im_RobertPattinson.png', 'Im_PatrickDempsey.png'],diff,1,0.6499093000002176,29,88.0952380952381,
FAAN2505,8,pos,60,pos60_id17_im14.bmp_pos60_id1_im4.bmp,['Im_GeorgeClooney.png', 'Im_RyanReynolds.png', 'Im_BenAffleck.png', 'Im_LeonardoDiCaprio.png', 'Im_RobertDowneyJr.png', 'Im_RyanGosling.png', 'Im_HughJackman.png', 'Im_BenStiller.png', 'Im_RobertPattinson.png', 'Im_PatrickDempsey.png'],diff,1,0.9083317000004172,30,88.0952380952381,
FAAN2505,8,pos,30,pos30_id13_im15.bmp_pos30_id13_im10.bmp,['Im_GeorgeClooney.png', 'Im_RyanReynolds.png', 'Im_BenAffleck.png', 'Im_LeonardoDiCaprio.png', 'Im_RobertDowneyJr.png', 'Im_RyanGosling.png', 'Im_HughJackman.png', 'Im_BenStiller.png', 'Im_RobertPattinson.png', 'Im_PatrickDempsey.png'],same,1,0.41669760000149836,31,88.0952380952381,
FAAN2505,8,pos,90,pos90_id19_im4.bmp_pos90_id19_im27.bmp,['Im_GeorgeClooney.png', 'Im_RyanReynolds.png', 'Im_BenAffleck.png', 'Im_LeonardoDiCaprio.png', 'Im_RobertDowneyJr.png', 'Im_RyanGosling.png', 'Im_HughJackman.png', 'Im_BenStiller.png', 'Im_RobertPattinson.png', 'Im_PatrickDempsey.png'],same,1,0.4084093000001303,32,88.0952380952381,
FAAN2505,8,pos,90,pos90_id1_im24.bmp_pos90_id1_im4.bmp,['Im_GeorgeClooney.png', 'Im_RyanReynolds.png', 'Im_BenAffleck.png', 'Im_LeonardoDiCaprio.png', 'Im_RobertDowneyJr.png', 'Im_RyanGosling.png', 'Im_HughJackman.png', 'Im_BenStiller.png', 'Im_RobertPattinson.png', 'Im_PatrickDempsey.png'],same,1,0.5166468999996141,33,88.0952380952381,
FAAN2505,8,pos,60,pos60_id19_im8.bmp_pos60_id21_im17.bmp,['Im_GeorgeClooney.png', 'Im_RyanReynolds.png', 'Im_BenAffleck.png', 'Im_LeonardoDiCaprio.png', 'Im_RobertDowneyJr.png', 'Im_RyanGosling.png', 'Im_HughJackman.png', 'Im_BenStiller.png', 'Im_RobertPattinson.png', 'Im_PatrickDempsey.png'],diff,1,0.4167588000000251,34,88.0952380952381,
FAAN2505,8,pos,0,pos0_id18_im18.bmp_pos0_id18_im19.bmp,['Im_GeorgeClooney.png', 'Im_RyanReynolds.png', 'Im_BenAffleck.png', 'Im_LeonardoDiCaprio.png', 'Im_RobertDowneyJr.png', 'Im_RyanGosling.png', 'Im_HughJackman.png', 'Im_BenStiller.png', 'Im_RobertPattinson.png', 'Im_PatrickDempsey.png'],same,1,1.9669469999989815,35,88.0952380952381,
FAAN2505,8,pos,30,pos30_id20_im3.bmp_pos30_id7_im15.bmp,['Im_GeorgeClooney.png', 'Im_RyanReynolds.png', 'Im_BenAffleck.png', 'Im_LeonardoDiCaprio.png', 'Im_RobertDowneyJr.png', 'Im_RyanGosling.png', 'Im_HughJackman.png', 'Im_BenStiller.png', 'Im_RobertPattinson.png', 'Im_PatrickDempsey.png'],diff,1,0.41673119999904884,36,88.0952380952381,
FAAN2505,8,pos,fs,posfs_id20_im12.bmp_posfs_id20_im3.bmp,['Im_GeorgeClooney.png', 'Im_RyanReynolds.png', 'Im_BenAffleck.png', 'Im_LeonardoDiCaprio.png', 'Im_RobertDowneyJr.png', 'Im_RyanGosling.png', 'Im_HughJackman.png', 'Im_BenStiller.png', 'Im_RobertPattinson.png', 'Im_PatrickDempsey.png'],same,1,0.4335092999990593,37,88.0952380952381,
FAAN2505,8,pos,120,pos120_id20_im30.bmp_pos120_id2_im2.bmp,['Im_GeorgeClooney.png', 'Im_RyanReynolds.png', 'Im_BenAffleck.png', 'Im_LeonardoDiCaprio.png', 'Im_RobertDowneyJr.png', 'Im_RyanGosling.png', 'Im_HughJackman.png', 'Im_BenStiller.png', 'Im_RobertPattinson.png', 'Im_PatrickDempsey.png'],diff,1,1.2086409999992611,38,88.0952380952381,
FAAN2505,9,inv,0,pos0_id18_im11.bmp_pos0_id18_im19.bmp,['Im_GeorgeClooney.png', 'Im_RyanReynolds.png', 'Im_BenAffleck.png', 'Im_LeonardoDiCaprio.png', 'Im_RobertDowneyJr.png', 'Im_RyanGosling.png', 'Im_HughJackman.png', 'Im_BenStiller.png', 'Im_RobertPattinson.png', 'Im_PatrickDempsey.png'],diff,0,0.9585666000002675,0,90.47619047619048,
FAAN2505,9,inv,90,pos90_id7_im15.bmp_pos90_id18_im18.bmp,['Im_GeorgeClooney.png', 'Im_RyanReynolds.png', 'Im_BenAffleck.png', 'Im_LeonardoDiCaprio.png', 'Im_RobertDowneyJr.png', 'Im_RyanGosling.png', 'Im_HughJackman.png', 'Im_BenStiller.png', 'Im_RobertPattinson.png', 'Im_PatrickDempsey.png'],diff,1,1.050191399999676,1,90.47619047619048,
FAAN2505,9,inv,150,pos150_id19_im27.bmp_pos150_id19_im4.bmp,['Im_GeorgeClooney.png', 'Im_RyanReynolds.png', 'Im_BenAffleck.png', 'Im_LeonardoDiCaprio.png', 'Im_RobertDowneyJr.png', 'Im_RyanGosling.png', 'Im_HughJackman.png', 'Im_BenStiller.png', 'Im_RobertPattinson.png', 'Im_PatrickDempsey.png'],same,1,0.4167615999995178,2,90.47619047619048,
FAAN2505,9,inv,120,pos120_id8_im13.bmp_pos120_id8_im21.bmp,['Im_GeorgeClooney.png', 'Im_RyanReynolds.png', 'Im_BenAffleck.png', 'Im_LeonardoDiCaprio.png', 'Im_RobertDowneyJr.png', 'Im_RyanGosling.png', 'Im_HughJackman.png', 'Im_BenStiller.png', 'Im_RobertPattinson.png', 'Im_PatrickDempsey.png'],same,1,0.4500126000002638,3,90.47619047619048,
FAAN2505,9,inv,90,pos90_id1_im24.bmp_pos90_id8_im20.bmp,['Im_GeorgeClooney.png', 'Im_RyanReynolds.png', 'Im_BenAffleck.png', 'Im_LeonardoDiCaprio.png', 'Im_RobertDowneyJr.png', 'Im_RyanGosling.png', 'Im_HughJackman.png', 'Im_BenStiller.png', 'Im_RobertPattinson.png', 'Im_PatrickDempsey.png'],same,0,0.858223100000032,3,90.47619047619048,
FAAN2505,9,inv,0,pos0_id17_im8.bmp_pos0_id17_im9.bmp,['Im_GeorgeClooney.png', 'Im_RyanReynolds.png', 'Im_BenAffleck.png', 'Im_LeonardoDiCaprio.png', 'Im_RobertDowneyJr.png', 'Im_RyanGosling.png', 'Im_HughJackman.png', 'Im_BenStiller.png', 'Im_RobertPattinson.png', 'Im_PatrickDempsey.png'],same,1,1.2669343000015942,4,90.47619047619048,
FAAN2505,9,inv,150,pos150_id21_im22.bmp_pos150_id21_im17.bmp,['Im_GeorgeClooney.png', 'Im_RyanReynolds.png', 'Im_BenAffleck.png', 'Im_LeonardoDiCaprio.png', 'Im_RobertDowneyJr.png', 'Im_RyanGosling.png', 'Im_HughJackman.png', 'Im_BenStiller.png', 'Im_RobertPattinson.png', 'Im_PatrickDempsey.png'],same,1,0.41673329999866837,5,90.47619047619048,
FAAN2505,9,inv,fs,posfs_id2_im2.bmp_posfs_id20_im30.bmp,['Im_GeorgeClooney.png', 'Im_RyanReynolds.png', 'Im_BenAffleck.png', 'Im_LeonardoDiCaprio.png', 'Im_RobertDowneyJr.png', 'Im_RyanGosling.png', 'Im_HughJackman.png', 'Im_BenStiller.png', 'Im_RobertPattinson.png', 'Im_PatrickDempsey.png'],diff,1,0.41669370000090566,6,90.47619047619048,
FAAN2505,9,inv,60,pos60_id13_im15.bmp_pos60_id19_im4.bmp,['Im_GeorgeClooney.png', 'Im_RyanReynolds.png', 'Im_BenAffleck.png', 'Im_LeonardoDiCaprio.png', 'Im_RobertDowneyJr.png', 'Im_RyanGosling.png', 'Im_HughJackman.png', 'Im_BenStiller.png', 'Im_RobertPattinson.png', 'Im_PatrickDempsey.png'],diff,1,0.550181499998871,7,90.47619047619048,
FAAN2505,9,inv,fs,posfs_id21_im16.bmp_posfs_id21_im17.bmp,['Im_GeorgeClooney.png', 'Im_RyanReynolds.png', 'Im_BenAffleck.png', 'Im_LeonardoDiCaprio.png', 'Im_RobertDowneyJr.png', 'Im_RyanGosling.png', 'Im_HughJackman.png', 'Im_BenStiller.png', 'Im_RobertPattinson.png', 'Im_PatrickDempsey.png'],same,1,0.5000206000004255,8,90.47619047619048,
