Sujet,Trial,Condition,Filter,Imname,Actor0,Actor1,Actor2,Actor3,Actor4,Actor5,Actor6,Actor7,Actor8,Actor9,Answer,Accu,RT,Score,Scoreperc, 
FRCH1902,train,pos,fs,posfs_id6_im18.bmp_posfs_id6_im19.bmp,['Im_GeorgeClooney.png', 'Im_DanielRadcliffe.png', 'Im_MattDamon.png', 'Im_ElijahWood.png', 'Im_LeonardoDiCaprio.png', 'Im_DanielCraig.png', 'Im_RobertPattinson.png', 'Im_RyanGosling.png', 'Im_BradPitt.png', 'Im_PatrickDempsey.png'],same,1,2.5001273000016226,1,0,
FRCH1902,train,pos,30,pos30_id5_im10.bmp_pos30_id5_im20.bmp,['Im_GeorgeClooney.png', 'Im_DanielRadcliffe.png', 'Im_MattDamon.png', 'Im_ElijahWood.png', 'Im_LeonardoDiCaprio.png', 'Im_DanielCraig.png', 'Im_RobertPattinson.png', 'Im_RyanGosling.png', 'Im_BradPitt.png', 'Im_PatrickDempsey.png'],same,1,0.4751190000006318,2,0,
FRCH1902,train,pos,0,pos0_id6_im12.bmp_pos0_id5_im1.bmp,['Im_GeorgeClooney.png', 'Im_DanielRadcliffe.png', 'Im_MattDamon.png', 'Im_ElijahWood.png', 'Im_LeonardoDiCaprio.png', 'Im_DanielCraig.png', 'Im_RobertPattinson.png', 'Im_RyanGosling.png', 'Im_BradPitt.png', 'Im_PatrickDempsey.png'],diff,1,0.7749812000001839,3,0,
FRCH1902,train,pos,120,pos120_id5_im20.bmp_pos120_id19_im4.bmp,['Im_GeorgeClooney.png', 'Im_DanielRadcliffe.png', 'Im_MattDamon.png', 'Im_ElijahWood.png', 'Im_LeonardoDiCaprio.png', 'Im_DanielCraig.png', 'Im_RobertPattinson.png', 'Im_RyanGosling.png', 'Im_BradPitt.png', 'Im_PatrickDempsey.png'],diff,1,0.4250523000009707,4,0,
FRCH1902,train,pos,120,pos120_id3_im6.bmp_pos120_id3_im8.bmp,['Im_GeorgeClooney.png', 'Im_DanielRadcliffe.png', 'Im_MattDamon.png', 'Im_ElijahWood.png', 'Im_LeonardoDiCaprio.png', 'Im_DanielCraig.png', 'Im_RobertPattinson.png', 'Im_RyanGosling.png', 'Im_BradPitt.png', 'Im_PatrickDempsey.png'],same,1,0.4250293999994028,5,0,
FRCH1902,train,pos,fs,posfs_id6_im12.bmp_posfs_id6_im18.bmp,['Im_GeorgeClooney.png', 'Im_DanielRadcliffe.png', 'Im_MattDamon.png', 'Im_ElijahWood.png', 'Im_LeonardoDiCaprio.png', 'Im_DanielCraig.png', 'Im_RobertPattinson.png', 'Im_RyanGosling.png', 'Im_BradPitt.png', 'Im_PatrickDempsey.png'],same,1,0.4251137999999628,6,0,
FRCH1902,train,pos,90,pos90_id6_im19.bmp_pos90_id17_im14.bmp,['Im_GeorgeClooney.png', 'Im_DanielRadcliffe.png', 'Im_MattDamon.png', 'Im_ElijahWood.png', 'Im_LeonardoDiCaprio.png', 'Im_DanielCraig.png', 'Im_RobertPattinson.png', 'Im_RyanGosling.png', 'Im_BradPitt.png', 'Im_PatrickDempsey.png'],diff,1,0.42482469999958994,7,0,
FRCH1902,train,pos,150,pos150_id6_im18.bmp_pos150_id6_im19.bmp,['Im_GeorgeClooney.png', 'Im_DanielRadcliffe.png', 'Im_MattDamon.png', 'Im_ElijahWood.png', 'Im_LeonardoDiCaprio.png', 'Im_DanielCraig.png', 'Im_RobertPattinson.png', 'Im_RyanGosling.png', 'Im_BradPitt.png', 'Im_PatrickDempsey.png'],same,1,0.42501739999897836,8,0,
FRCH1902,train,pos,30,pos30_id4_im20.bmp_pos30_id13_im15.bmp,['Im_GeorgeClooney.png', 'Im_DanielRadcliffe.png', 'Im_MattDamon.png', 'Im_ElijahWood.png', 'Im_LeonardoDiCaprio.png', 'Im_DanielCraig.png', 'Im_RobertPattinson.png', 'Im_RyanGosling.png', 'Im_BradPitt.png', 'Im_PatrickDempsey.png'],diff,1,0.41671990000031656,9,0,
FRCH1902,train,pos,60,pos60_id5_im20.bmp_pos60_id5_im10.bmp,['Im_GeorgeClooney.png', 'Im_DanielRadcliffe.png', 'Im_MattDamon.png', 'Im_ElijahWood.png', 'Im_LeonardoDiCaprio.png', 'Im_DanielCraig.png', 'Im_RobertPattinson.png', 'Im_RyanGosling.png', 'Im_BradPitt.png', 'Im_PatrickDempsey.png'],same,1,0.41643159999875934,10,0,
FRCH1902,train,pos,60,pos60_id4_im15.bmp_pos60_id4_im7.bmp,['Im_GeorgeClooney.png', 'Im_DanielRadcliffe.png', 'Im_MattDamon.png', 'Im_ElijahWood.png', 'Im_LeonardoDiCaprio.png', 'Im_DanielCraig.png', 'Im_RobertPattinson.png', 'Im_RyanGosling.png', 'Im_BradPitt.png', 'Im_PatrickDempsey.png'],same,1,0.42506239999966056,11,0,
FRCH1902,train,pos,0,pos0_id7_im15.bmp_pos0_id3_im17.bmp,['Im_GeorgeClooney.png', 'Im_DanielRadcliffe.png', 'Im_MattDamon.png', 'Im_ElijahWood.png', 'Im_LeonardoDiCaprio.png', 'Im_DanielCraig.png', 'Im_RobertPattinson.png', 'Im_RyanGosling.png', 'Im_BradPitt.png', 'Im_PatrickDempsey.png'],diff,1,0.4250482999996166,12,0,
FRCH1902,train,pos,150,pos150_id7_im15.bmp_pos150_id3_im17.bmp,['Im_GeorgeClooney.png', 'Im_DanielRadcliffe.png', 'Im_MattDamon.png', 'Im_ElijahWood.png', 'Im_LeonardoDiCaprio.png', 'Im_DanielCraig.png', 'Im_RobertPattinson.png', 'Im_RyanGosling.png', 'Im_BradPitt.png', 'Im_PatrickDempsey.png'],diff,1,0.725024500001382,13,0,
FRCH1902,train,pos,90,pos90_id14_im16.bmp_pos90_id14_im24.bmp,['Im_GeorgeClooney.png', 'Im_DanielRadcliffe.png', 'Im_MattDamon.png', 'Im_ElijahWood.png', 'Im_LeonardoDiCaprio.png', 'Im_DanielCraig.png', 'Im_RobertPattinson.png', 'Im_RyanGosling.png', 'Im_BradPitt.png', 'Im_PatrickDempsey.png'],same,1,0.40858959999968647,14,0,
FRCH1902,train,neg,90,neg90_id14_im24.bmp_neg90_id13_im29.bmp,['Im_GeorgeClooney.png', 'Im_DanielRadcliffe.png', 'Im_MattDamon.png', 'Im_ElijahWood.png', 'Im_LeonardoDiCaprio.png', 'Im_DanielCraig.png', 'Im_RobertPattinson.png', 'Im_RyanGosling.png', 'Im_BradPitt.png', 'Im_PatrickDempsey.png'],diff,1,0.7083442000002833,15,0,
FRCH1902,train,neg,fs,negfs_id17_im8.bmp_negfs_id17_im14.bmp,['Im_GeorgeClooney.png', 'Im_DanielRadcliffe.png', 'Im_MattDamon.png', 'Im_ElijahWood.png', 'Im_LeonardoDiCaprio.png', 'Im_DanielCraig.png', 'Im_RobertPattinson.png', 'Im_RyanGosling.png', 'Im_BradPitt.png', 'Im_PatrickDempsey.png'],same,1,0.42504400000143505,16,0,
FRCH1902,train,neg,30,neg30_id3_im6.bmp_neg30_id3_im17.bmp,['Im_GeorgeClooney.png', 'Im_DanielRadcliffe.png', 'Im_MattDamon.png', 'Im_ElijahWood.png', 'Im_LeonardoDiCaprio.png', 'Im_DanielCraig.png', 'Im_RobertPattinson.png', 'Im_RyanGosling.png', 'Im_BradPitt.png', 'Im_PatrickDempsey.png'],same,1,0.42506219999995665,17,0,
FRCH1902,train,neg,30,neg30_id17_im9.bmp_neg30_id7_im14.bmp,['Im_GeorgeClooney.png', 'Im_DanielRadcliffe.png', 'Im_MattDamon.png', 'Im_ElijahWood.png', 'Im_LeonardoDiCaprio.png', 'Im_DanielCraig.png', 'Im_RobertPattinson.png', 'Im_RyanGosling.png', 'Im_BradPitt.png', 'Im_PatrickDempsey.png'],diff,1,0.4167684999993071,18,0,
FRCH1902,train,neg,0,neg0_id17_im8.bmp_neg0_id14_im16.bmp,['Im_GeorgeClooney.png', 'Im_DanielRadcliffe.png', 'Im_MattDamon.png', 'Im_ElijahWood.png', 'Im_LeonardoDiCaprio.png', 'Im_DanielCraig.png', 'Im_RobertPattinson.png', 'Im_RyanGosling.png', 'Im_BradPitt.png', 'Im_PatrickDempsey.png'],diff,1,0.42504960000042047,19,0,
FRCH1902,train,neg,120,neg120_id19_im8.bmp_neg120_id5_im20.bmp,['Im_GeorgeClooney.png', 'Im_DanielRadcliffe.png', 'Im_MattDamon.png', 'Im_ElijahWood.png', 'Im_LeonardoDiCaprio.png', 'Im_DanielCraig.png', 'Im_RobertPattinson.png', 'Im_RyanGosling.png', 'Im_BradPitt.png', 'Im_PatrickDempsey.png'],diff,1,0.7919458999986091,20,0,
FRCH1902,train,neg,0,neg0_id13_im29.bmp_neg0_id13_im15.bmp,['Im_GeorgeClooney.png', 'Im_DanielRadcliffe.png', 'Im_MattDamon.png', 'Im_ElijahWood.png', 'Im_LeonardoDiCaprio.png', 'Im_DanielCraig.png', 'Im_RobertPattinson.png', 'Im_RyanGosling.png', 'Im_BradPitt.png', 'Im_PatrickDempsey.png'],diff,0,0.4083196000010503,20,0,
FRCH1902,train,neg,fs,negfs_id13_im29.bmp_negfs_id13_im10.bmp,['Im_GeorgeClooney.png', 'Im_DanielRadcliffe.png', 'Im_MattDamon.png', 'Im_ElijahWood.png', 'Im_LeonardoDiCaprio.png', 'Im_DanielCraig.png', 'Im_RobertPattinson.png', 'Im_RyanGosling.png', 'Im_BradPitt.png', 'Im_PatrickDempsey.png'],same,1,1.4916069999999308,21,0,
FRCH1902,train,neg,90,neg90_id4_im7.bmp_neg90_id7_im26.bmp,['Im_GeorgeClooney.png', 'Im_DanielRadcliffe.png', 'Im_MattDamon.png', 'Im_ElijahWood.png', 'Im_LeonardoDiCaprio.png', 'Im_DanielCraig.png', 'Im_RobertPattinson.png', 'Im_RyanGosling.png', 'Im_BradPitt.png', 'Im_PatrickDempsey.png'],diff,1,0.42499339999994845,22,0,
FRCH1902,train,neg,60,neg60_id6_im12.bmp_neg60_id5_im1.bmp,['Im_GeorgeClooney.png', 'Im_DanielRadcliffe.png', 'Im_MattDamon.png', 'Im_ElijahWood.png', 'Im_LeonardoDiCaprio.png', 'Im_DanielCraig.png', 'Im_RobertPattinson.png', 'Im_RyanGosling.png', 'Im_BradPitt.png', 'Im_PatrickDempsey.png'],same,0,0.4167336999998952,22,0,
FRCH1902,train,neg,150,neg150_id19_im27.bmp_neg150_id19_im8.bmp,['Im_GeorgeClooney.png', 'Im_DanielRadcliffe.png', 'Im_MattDamon.png', 'Im_ElijahWood.png', 'Im_LeonardoDiCaprio.png', 'Im_DanielCraig.png', 'Im_RobertPattinson.png', 'Im_RyanGosling.png', 'Im_BradPitt.png', 'Im_PatrickDempsey.png'],same,1,0.4083864000003814,23,0,
FRCH1902,train,neg,120,neg120_id17_im8.bmp_neg120_id6_im18.bmp,['Im_GeorgeClooney.png', 'Im_DanielRadcliffe.png', 'Im_MattDamon.png', 'Im_ElijahWood.png', 'Im_LeonardoDiCaprio.png', 'Im_DanielCraig.png', 'Im_RobertPattinson.png', 'Im_RyanGosling.png', 'Im_BradPitt.png', 'Im_PatrickDempsey.png'],diff,1,0.4083679999985179,24,0,
FRCH1902,train,neg,150,neg150_id19_im4.bmp_neg150_id5_im20.bmp,['Im_GeorgeClooney.png', 'Im_DanielRadcliffe.png', 'Im_MattDamon.png', 'Im_ElijahWood.png', 'Im_LeonardoDiCaprio.png', 'Im_DanielCraig.png', 'Im_RobertPattinson.png', 'Im_RyanGosling.png', 'Im_BradPitt.png', 'Im_PatrickDempsey.png'],same,0,0.4585616000003938,24,0,
FRCH1902,train,neg,60,neg60_id3_im8.bmp_neg60_id3_im17.bmp,['Im_GeorgeClooney.png', 'Im_DanielRadcliffe.png', 'Im_MattDamon.png', 'Im_ElijahWood.png', 'Im_LeonardoDiCaprio.png', 'Im_DanielCraig.png', 'Im_RobertPattinson.png', 'Im_RyanGosling.png', 'Im_BradPitt.png', 'Im_PatrickDempsey.png'],same,1,0.40830370000003313,25,0,
FRCH1902,train,pos,120,pos120_id17_im8.bmp_pos120_id17_im14.bmp,['Im_GeorgeClooney.png', 'Im_DanielRadcliffe.png', 'Im_MattDamon.png', 'Im_ElijahWood.png', 'Im_LeonardoDiCaprio.png', 'Im_DanielCraig.png', 'Im_RobertPattinson.png', 'Im_RyanGosling.png', 'Im_BradPitt.png', 'Im_PatrickDempsey.png'],same,1,0.4250525999996171,26,0,
FRCH1902,train,pos,0,pos0_id7_im15.bmp_pos0_id20_im3.bmp,['Im_GeorgeClooney.png', 'Im_DanielRadcliffe.png', 'Im_MattDamon.png', 'Im_ElijahWood.png', 'Im_LeonardoDiCaprio.png', 'Im_DanielCraig.png', 'Im_RobertPattinson.png', 'Im_RyanGosling.png', 'Im_BradPitt.png', 'Im_PatrickDempsey.png'],diff,1,0.42503880000003846,27,0,
FRCH1902,train,pos,150,pos150_id4_im7.bmp_pos150_id4_im15.bmp,['Im_GeorgeClooney.png', 'Im_DanielRadcliffe.png', 'Im_MattDamon.png', 'Im_ElijahWood.png', 'Im_LeonardoDiCaprio.png', 'Im_DanielCraig.png', 'Im_RobertPattinson.png', 'Im_RyanGosling.png', 'Im_BradPitt.png', 'Im_PatrickDempsey.png'],same,1,0.40853449999849545,28,0,
FRCH1902,train,pos,0,pos0_id17_im8.bmp_pos0_id17_im14.bmp,['Im_GeorgeClooney.png', 'Im_DanielRadcliffe.png', 'Im_MattDamon.png', 'Im_ElijahWood.png', 'Im_LeonardoDiCaprio.png', 'Im_DanielCraig.png', 'Im_RobertPattinson.png', 'Im_RyanGosling.png', 'Im_BradPitt.png', 'Im_PatrickDempsey.png'],same,1,0.4418950999988738,29,0,
FRCH1902,train,pos,60,pos60_id6_im18.bmp_pos60_id6_im19.bmp,['Im_GeorgeClooney.png', 'Im_DanielRadcliffe.png', 'Im_MattDamon.png', 'Im_ElijahWood.png', 'Im_LeonardoDiCaprio.png', 'Im_DanielCraig.png', 'Im_RobertPattinson.png', 'Im_RyanGosling.png', 'Im_BradPitt.png', 'Im_PatrickDempsey.png'],same,1,0.42498499999965134,30,0,
FRCH1902,train,pos,120,pos120_id13_im15.bmp_pos120_id19_im4.bmp,['Im_GeorgeClooney.png', 'Im_DanielRadcliffe.png', 'Im_MattDamon.png', 'Im_ElijahWood.png', 'Im_LeonardoDiCaprio.png', 'Im_DanielCraig.png', 'Im_RobertPattinson.png', 'Im_RyanGosling.png', 'Im_BradPitt.png', 'Im_PatrickDempsey.png'],diff,1,0.4252632999996422,31,0,
FRCH1902,train,pos,fs,posfs_id17_im8.bmp_posfs_id17_im9.bmp,['Im_GeorgeClooney.png', 'Im_DanielRadcliffe.png', 'Im_MattDamon.png', 'Im_ElijahWood.png', 'Im_LeonardoDiCaprio.png', 'Im_DanielCraig.png', 'Im_RobertPattinson.png', 'Im_RyanGosling.png', 'Im_BradPitt.png', 'Im_PatrickDempsey.png'],same,1,0.4083393000000797,32,0,
FRCH1902,train,pos,90,pos90_id7_im15.bmp_pos90_id7_im14.bmp,['Im_GeorgeClooney.png', 'Im_DanielRadcliffe.png', 'Im_MattDamon.png', 'Im_ElijahWood.png', 'Im_LeonardoDiCaprio.png', 'Im_DanielCraig.png', 'Im_RobertPattinson.png', 'Im_RyanGosling.png', 'Im_BradPitt.png', 'Im_PatrickDempsey.png'],same,1,0.4335062000009202,33,0,
FRCH1902,train,pos,90,pos90_id13_im10.bmp_pos90_id13_im15.bmp,['Im_GeorgeClooney.png', 'Im_DanielRadcliffe.png', 'Im_MattDamon.png', 'Im_ElijahWood.png', 'Im_LeonardoDiCaprio.png', 'Im_DanielCraig.png', 'Im_RobertPattinson.png', 'Im_RyanGosling.png', 'Im_BradPitt.png', 'Im_PatrickDempsey.png'],diff,0,0.40820259999964037,33,0,
FRCH1902,train,pos,60,pos60_id17_im8.bmp_pos60_id17_im9.bmp,['Im_GeorgeClooney.png', 'Im_DanielRadcliffe.png', 'Im_MattDamon.png', 'Im_ElijahWood.png', 'Im_LeonardoDiCaprio.png', 'Im_DanielCraig.png', 'Im_RobertPattinson.png', 'Im_RyanGosling.png', 'Im_BradPitt.png', 'Im_PatrickDempsey.png'],same,1,0.43341799999871,34,0,
FRCH1902,train,pos,30,pos30_id17_im14.bmp_pos30_id17_im9.bmp,['Im_GeorgeClooney.png', 'Im_DanielRadcliffe.png', 'Im_MattDamon.png', 'Im_ElijahWood.png', 'Im_LeonardoDiCaprio.png', 'Im_DanielCraig.png', 'Im_RobertPattinson.png', 'Im_RyanGosling.png', 'Im_BradPitt.png', 'Im_PatrickDempsey.png'],same,1,0.42503189999843016,35,0,
FRCH1902,train,pos,fs,posfs_id17_im14.bmp_posfs_id6_im19.bmp,['Im_GeorgeClooney.png', 'Im_DanielRadcliffe.png', 'Im_MattDamon.png', 'Im_ElijahWood.png', 'Im_LeonardoDiCaprio.png', 'Im_DanielCraig.png', 'Im_RobertPattinson.png', 'Im_RyanGosling.png', 'Im_BradPitt.png', 'Im_PatrickDempsey.png'],diff,1,0.42528779999884136,36,0,
FRCH1902,train,pos,150,pos150_id7_im14.bmp_pos150_id7_im26.bmp,['Im_GeorgeClooney.png', 'Im_DanielRadcliffe.png', 'Im_MattDamon.png', 'Im_ElijahWood.png', 'Im_LeonardoDiCaprio.png', 'Im_DanielCraig.png', 'Im_RobertPattinson.png', 'Im_RyanGosling.png', 'Im_BradPitt.png', 'Im_PatrickDempsey.png'],same,1,0.4084060999994108,37,0,
FRCH1902,train,pos,30,pos30_id17_im14.bmp_pos30_id3_im17.bmp,['Im_GeorgeClooney.png', 'Im_DanielRadcliffe.png', 'Im_MattDamon.png', 'Im_ElijahWood.png', 'Im_LeonardoDiCaprio.png', 'Im_DanielCraig.png', 'Im_RobertPattinson.png', 'Im_RyanGosling.png', 'Im_BradPitt.png', 'Im_PatrickDempsey.png'],diff,1,0.4167178999996395,38,0,
FRCH1902,train,inv,60,pos60_id3_im17.bmp_pos60_id3_im6.bmp,['Im_GeorgeClooney.png', 'Im_DanielRadcliffe.png', 'Im_MattDamon.png', 'Im_ElijahWood.png', 'Im_LeonardoDiCaprio.png', 'Im_DanielCraig.png', 'Im_RobertPattinson.png', 'Im_RyanGosling.png', 'Im_BradPitt.png', 'Im_PatrickDempsey.png'],diff,0,0.9166987999997218,0,90.47619047619048,
FRCH1902,train,inv,30,pos30_id5_im20.bmp_pos30_id19_im8.bmp,['Im_GeorgeClooney.png', 'Im_DanielRadcliffe.png', 'Im_MattDamon.png', 'Im_ElijahWood.png', 'Im_LeonardoDiCaprio.png', 'Im_DanielCraig.png', 'Im_RobertPattinson.png', 'Im_RyanGosling.png', 'Im_BradPitt.png', 'Im_PatrickDempsey.png'],diff,1,0.42503599999872677,1,90.47619047619048,
FRCH1902,train,inv,0,pos0_id3_im8.bmp_pos0_id13_im29.bmp,['Im_GeorgeClooney.png', 'Im_DanielRadcliffe.png', 'Im_MattDamon.png', 'Im_ElijahWood.png', 'Im_LeonardoDiCaprio.png', 'Im_DanielCraig.png', 'Im_RobertPattinson.png', 'Im_RyanGosling.png', 'Im_BradPitt.png', 'Im_PatrickDempsey.png'],diff,1,0.4748670000008133,2,90.47619047619048,
FRCH1902,train,inv,30,pos30_id13_im29.bmp_pos30_id13_im10.bmp,['Im_GeorgeClooney.png', 'Im_DanielRadcliffe.png', 'Im_MattDamon.png', 'Im_ElijahWood.png', 'Im_LeonardoDiCaprio.png', 'Im_DanielCraig.png', 'Im_RobertPattinson.png', 'Im_RyanGosling.png', 'Im_BradPitt.png', 'Im_PatrickDempsey.png'],same,1,0.41674349999993865,3,90.47619047619048,
FRCH1902,train,inv,90,pos90_id13_im29.bmp_pos90_id13_im10.bmp,['Im_GeorgeClooney.png', 'Im_DanielRadcliffe.png', 'Im_MattDamon.png', 'Im_ElijahWood.png', 'Im_LeonardoDiCaprio.png', 'Im_DanielCraig.png', 'Im_RobertPattinson.png', 'Im_RyanGosling.png', 'Im_BradPitt.png', 'Im_PatrickDempsey.png'],same,1,0.47503790000155277,4,90.47619047619048,
FRCH1902,train,inv,150,pos150_id20_im3.bmp_pos150_id7_im15.bmp,['Im_GeorgeClooney.png', 'Im_DanielRadcliffe.png', 'Im_MattDamon.png', 'Im_ElijahWood.png', 'Im_LeonardoDiCaprio.png', 'Im_DanielCraig.png', 'Im_RobertPattinson.png', 'Im_RyanGosling.png', 'Im_BradPitt.png', 'Im_PatrickDempsey.png'],diff,1,0.42524840000078257,5,90.47619047619048,
FRCH1902,train,inv,60,pos60_id13_im15.bmp_pos60_id19_im4.bmp,['Im_GeorgeClooney.png', 'Im_DanielRadcliffe.png', 'Im_MattDamon.png', 'Im_ElijahWood.png', 'Im_LeonardoDiCaprio.png', 'Im_DanielCraig.png', 'Im_RobertPattinson.png', 'Im_RyanGosling.png', 'Im_BradPitt.png', 'Im_PatrickDempsey.png'],diff,1,0.42503429999851505,6,90.47619047619048,
FRCH1902,train,inv,90,pos90_id4_im7.bmp_pos90_id19_im27.bmp,['Im_GeorgeClooney.png', 'Im_DanielRadcliffe.png', 'Im_MattDamon.png', 'Im_ElijahWood.png', 'Im_LeonardoDiCaprio.png', 'Im_DanielCraig.png', 'Im_RobertPattinson.png', 'Im_RyanGosling.png', 'Im_BradPitt.png', 'Im_PatrickDempsey.png'],diff,1,0.4250298999995721,7,90.47619047619048,
FRCH1902,train,inv,0,pos0_id5_im10.bmp_pos0_id7_im14.bmp,['Im_GeorgeClooney.png', 'Im_DanielRadcliffe.png', 'Im_MattDamon.png', 'Im_ElijahWood.png', 'Im_LeonardoDiCaprio.png', 'Im_DanielCraig.png', 'Im_RobertPattinson.png', 'Im_RyanGosling.png', 'Im_BradPitt.png', 'Im_PatrickDempsey.png'],diff,1,0.41673609999998007,8,90.47619047619048,
FRCH1902,train,inv,120,pos120_id13_im29.bmp_pos120_id13_im10.bmp,['Im_GeorgeClooney.png', 'Im_DanielRadcliffe.png', 'Im_MattDamon.png', 'Im_ElijahWood.png', 'Im_LeonardoDiCaprio.png', 'Im_DanielCraig.png', 'Im_RobertPattinson.png', 'Im_RyanGosling.png', 'Im_BradPitt.png', 'Im_PatrickDempsey.png'],same,1,0.416756800001167,9,90.47619047619048,
FRCH1902,train,inv,fs,posfs_id17_im14.bmp_posfs_id6_im19.bmp,['Im_GeorgeClooney.png', 'Im_DanielRadcliffe.png', 'Im_MattDamon.png', 'Im_ElijahWood.png', 'Im_LeonardoDiCaprio.png', 'Im_DanielCraig.png', 'Im_RobertPattinson.png', 'Im_RyanGosling.png', 'Im_BradPitt.png', 'Im_PatrickDempsey.png'],diff,1,0.5506695000003674,10,90.47619047619048,
FRCH1902,train,inv,120,pos120_id3_im8.bmp_pos120_id3_im6.bmp,['Im_GeorgeClooney.png', 'Im_DanielRadcliffe.png', 'Im_MattDamon.png', 'Im_ElijahWood.png', 'Im_LeonardoDiCaprio.png', 'Im_DanielCraig.png', 'Im_RobertPattinson.png', 'Im_RyanGosling.png', 'Im_BradPitt.png', 'Im_PatrickDempsey.png'],same,1,0.41672079999989364,11,90.47619047619048,
FRCH1902,train,inv,fs,posfs_id20_im30.bmp_posfs_id14_im16.bmp,['Im_GeorgeClooney.png', 'Im_DanielRadcliffe.png', 'Im_MattDamon.png', 'Im_ElijahWood.png', 'Im_LeonardoDiCaprio.png', 'Im_DanielCraig.png', 'Im_RobertPattinson.png', 'Im_RyanGosling.png', 'Im_BradPitt.png', 'Im_PatrickDempsey.png'],diff,1,0.49192199999924924,12,90.47619047619048,
FRCH1902,train,inv,150,pos150_id6_im12.bmp_pos150_id6_im19.bmp,['Im_GeorgeClooney.png', 'Im_DanielRadcliffe.png', 'Im_MattDamon.png', 'Im_ElijahWood.png', 'Im_LeonardoDiCaprio.png', 'Im_DanielCraig.png', 'Im_RobertPattinson.png', 'Im_RyanGosling.png', 'Im_BradPitt.png', 'Im_PatrickDempsey.png'],same,1,0.41672640000069805,13,90.47619047619048,
FRCH1902,train,neg,fs,negfs_id7_im15.bmp_negfs_id20_im3.bmp,['Im_GeorgeClooney.png', 'Im_DanielRadcliffe.png', 'Im_MattDamon.png', 'Im_ElijahWood.png', 'Im_LeonardoDiCaprio.png', 'Im_DanielCraig.png', 'Im_RobertPattinson.png', 'Im_RyanGosling.png', 'Im_BradPitt.png', 'Im_PatrickDempsey.png'],diff,1,0.42506760000105714,14,90.47619047619048,
FRCH1902,train,neg,0,neg0_id6_im18.bmp_neg0_id17_im8.bmp,['Im_GeorgeClooney.png', 'Im_DanielRadcliffe.png', 'Im_MattDamon.png', 'Im_ElijahWood.png', 'Im_LeonardoDiCaprio.png', 'Im_DanielCraig.png', 'Im_RobertPattinson.png', 'Im_RyanGosling.png', 'Im_BradPitt.png', 'Im_PatrickDempsey.png'],diff,1,0.4417740999997477,15,90.47619047619048,
FRCH1902,train,neg,90,neg90_id5_im10.bmp_neg90_id5_im20.bmp,['Im_GeorgeClooney.png', 'Im_DanielRadcliffe.png', 'Im_MattDamon.png', 'Im_ElijahWood.png', 'Im_LeonardoDiCaprio.png', 'Im_DanielCraig.png', 'Im_RobertPattinson.png', 'Im_RyanGosling.png', 'Im_BradPitt.png', 'Im_PatrickDempsey.png'],same,1,0.4251527999986138,16,90.47619047619048,
FRCH1902,train,neg,30,neg30_id5_im1.bmp_neg30_id5_im10.bmp,['Im_GeorgeClooney.png', 'Im_DanielRadcliffe.png', 'Im_MattDamon.png', 'Im_ElijahWood.png', 'Im_LeonardoDiCaprio.png', 'Im_DanielCraig.png', 'Im_RobertPattinson.png', 'Im_RyanGosling.png', 'Im_BradPitt.png', 'Im_PatrickDempsey.png'],same,1,0.41666450000047917,17,90.47619047619048,
FRCH1902,train,neg,150,neg150_id4_im15.bmp_neg150_id14_im24.bmp,['Im_GeorgeClooney.png', 'Im_DanielRadcliffe.png', 'Im_MattDamon.png', 'Im_ElijahWood.png', 'Im_LeonardoDiCaprio.png', 'Im_DanielCraig.png', 'Im_RobertPattinson.png', 'Im_RyanGosling.png', 'Im_BradPitt.png', 'Im_PatrickDempsey.png'],diff,1,0.5000352999995812,18,90.47619047619048,
FRCH1902,train,neg,120,neg120_id4_im20.bmp_neg120_id4_im15.bmp,['Im_GeorgeClooney.png', 'Im_DanielRadcliffe.png', 'Im_MattDamon.png', 'Im_ElijahWood.png', 'Im_LeonardoDiCaprio.png', 'Im_DanielCraig.png', 'Im_RobertPattinson.png', 'Im_RyanGosling.png', 'Im_BradPitt.png', 'Im_PatrickDempsey.png'],same,1,0.42503539999961504,19,90.47619047619048,
FRCH1902,train,neg,60,neg60_id14_im16.bmp_neg60_id17_im8.bmp,['Im_GeorgeClooney.png', 'Im_DanielRadcliffe.png', 'Im_MattDamon.png', 'Im_ElijahWood.png', 'Im_LeonardoDiCaprio.png', 'Im_DanielCraig.png', 'Im_RobertPattinson.png', 'Im_RyanGosling.png', 'Im_BradPitt.png', 'Im_PatrickDempsey.png'],diff,1,0.43337890000111656,20,90.47619047619048,
FRCH1902,train,neg,fs,negfs_id6_im12.bmp_negfs_id13_im10.bmp,['Im_GeorgeClooney.png', 'Im_DanielRadcliffe.png', 'Im_MattDamon.png', 'Im_ElijahWood.png', 'Im_LeonardoDiCaprio.png', 'Im_DanielCraig.png', 'Im_RobertPattinson.png', 'Im_RyanGosling.png', 'Im_BradPitt.png', 'Im_PatrickDempsey.png'],diff,1,0.42518569999992906,21,90.47619047619048,
FRCH1902,train,neg,30,neg30_id20_im12.bmp_neg30_id14_im18.bmp,['Im_GeorgeClooney.png', 'Im_DanielRadcliffe.png', 'Im_MattDamon.png', 'Im_ElijahWood.png', 'Im_LeonardoDiCaprio.png', 'Im_DanielCraig.png', 'Im_RobertPattinson.png', 'Im_RyanGosling.png', 'Im_BradPitt.png', 'Im_PatrickDempsey.png'],diff,1,0.5835764999992534,22,90.47619047619048,
FRCH1902,train,neg,60,neg60_id13_im15.bmp_neg60_id13_im29.bmp,['Im_GeorgeClooney.png', 'Im_DanielRadcliffe.png', 'Im_MattDamon.png', 'Im_ElijahWood.png', 'Im_LeonardoDiCaprio.png', 'Im_DanielCraig.png', 'Im_RobertPattinson.png', 'Im_RyanGosling.png', 'Im_BradPitt.png', 'Im_PatrickDempsey.png'],same,1,0.6916320000000269,23,90.47619047619048,
FRCH1902,train,neg,0,neg0_id13_im29.bmp_neg0_id13_im10.bmp,['Im_GeorgeClooney.png', 'Im_DanielRadcliffe.png', 'Im_MattDamon.png', 'Im_ElijahWood.png', 'Im_LeonardoDiCaprio.png', 'Im_DanielCraig.png', 'Im_RobertPattinson.png', 'Im_RyanGosling.png', 'Im_BradPitt.png', 'Im_PatrickDempsey.png'],diff,0,0.5000646999997116,23,90.47619047619048,
FRCH1902,train,neg,150,neg150_id6_im18.bmp_neg150_id3_im6.bmp,['Im_GeorgeClooney.png', 'Im_DanielRadcliffe.png', 'Im_MattDamon.png', 'Im_ElijahWood.png', 'Im_LeonardoDiCaprio.png', 'Im_DanielCraig.png', 'Im_RobertPattinson.png', 'Im_RyanGosling.png', 'Im_BradPitt.png', 'Im_PatrickDempsey.png'],diff,1,0.42506569999932253,24,90.47619047619048,
FRCH1902,train,neg,120,neg120_id3_im17.bmp_neg120_id3_im6.bmp,['Im_GeorgeClooney.png', 'Im_DanielRadcliffe.png', 'Im_MattDamon.png', 'Im_ElijahWood.png', 'Im_LeonardoDiCaprio.png', 'Im_DanielCraig.png', 'Im_RobertPattinson.png', 'Im_RyanGosling.png', 'Im_BradPitt.png', 'Im_PatrickDempsey.png'],same,1,0.47517449999941164,25,90.47619047619048,
FRCH1902,train,neg,90,neg90_id13_im15.bmp_neg90_id13_im29.bmp,['Im_GeorgeClooney.png', 'Im_DanielRadcliffe.png', 'Im_MattDamon.png', 'Im_ElijahWood.png', 'Im_LeonardoDiCaprio.png', 'Im_DanielCraig.png', 'Im_RobertPattinson.png', 'Im_RyanGosling.png', 'Im_BradPitt.png', 'Im_PatrickDempsey.png'],same,1,0.5420704999996815,26,90.47619047619048,
FRCH1902,train,pos,fs,posfs_id13_im29.bmp_posfs_id13_im10.bmp,['Im_GeorgeClooney.png', 'Im_DanielRadcliffe.png', 'Im_MattDamon.png', 'Im_ElijahWood.png', 'Im_LeonardoDiCaprio.png', 'Im_DanielCraig.png', 'Im_RobertPattinson.png', 'Im_RyanGosling.png', 'Im_BradPitt.png', 'Im_PatrickDempsey.png'],same,1,0.41689339999902586,27,90.47619047619048,
FRCH1902,train,pos,90,pos90_id19_im8.bmp_pos90_id19_im27.bmp,['Im_GeorgeClooney.png', 'Im_DanielRadcliffe.png', 'Im_MattDamon.png', 'Im_ElijahWood.png', 'Im_LeonardoDiCaprio.png', 'Im_DanielCraig.png', 'Im_RobertPattinson.png', 'Im_RyanGosling.png', 'Im_BradPitt.png', 'Im_PatrickDempsey.png'],same,1,0.42504209999970044,28,90.47619047619048,
FRCH1902,train,pos,90,pos90_id5_im1.bmp_pos90_id6_im12.bmp,['Im_GeorgeClooney.png', 'Im_DanielRadcliffe.png', 'Im_MattDamon.png', 'Im_ElijahWood.png', 'Im_LeonardoDiCaprio.png', 'Im_DanielCraig.png', 'Im_RobertPattinson.png', 'Im_RyanGosling.png', 'Im_BradPitt.png', 'Im_PatrickDempsey.png'],diff,1,0.43390089999957127,29,90.47619047619048,
FRCH1902,train,pos,60,pos60_id7_im14.bmp_pos60_id7_im15.bmp,['Im_GeorgeClooney.png', 'Im_DanielRadcliffe.png', 'Im_MattDamon.png', 'Im_ElijahWood.png', 'Im_LeonardoDiCaprio.png', 'Im_DanielCraig.png', 'Im_RobertPattinson.png', 'Im_RyanGosling.png', 'Im_BradPitt.png', 'Im_PatrickDempsey.png'],same,1,0.4250307000002067,30,90.47619047619048,
FRCH1902,train,pos,30,pos30_id17_im14.bmp_pos30_id17_im8.bmp,['Im_GeorgeClooney.png', 'Im_DanielRadcliffe.png', 'Im_MattDamon.png', 'Im_ElijahWood.png', 'Im_LeonardoDiCaprio.png', 'Im_DanielCraig.png', 'Im_RobertPattinson.png', 'Im_RyanGosling.png', 'Im_BradPitt.png', 'Im_PatrickDempsey.png'],same,1,0.4249945999999909,31,90.47619047619048,
FRCH1902,train,pos,30,pos30_id5_im1.bmp_pos30_id5_im10.bmp,['Im_GeorgeClooney.png', 'Im_DanielRadcliffe.png', 'Im_MattDamon.png', 'Im_ElijahWood.png', 'Im_LeonardoDiCaprio.png', 'Im_DanielCraig.png', 'Im_RobertPattinson.png', 'Im_RyanGosling.png', 'Im_BradPitt.png', 'Im_PatrickDempsey.png'],same,1,0.4166946999994252,32,90.47619047619048,
FRCH1902,train,pos,0,pos0_id13_im10.bmp_pos0_id13_im29.bmp,['Im_GeorgeClooney.png', 'Im_DanielRadcliffe.png', 'Im_MattDamon.png', 'Im_ElijahWood.png', 'Im_LeonardoDiCaprio.png', 'Im_DanielCraig.png', 'Im_RobertPattinson.png', 'Im_RyanGosling.png', 'Im_BradPitt.png', 'Im_PatrickDempsey.png'],same,1,0.541938400001527,33,90.47619047619048,
FRCH1902,train,pos,120,pos120_id6_im18.bmp_pos120_id3_im6.bmp,['Im_GeorgeClooney.png', 'Im_DanielRadcliffe.png', 'Im_MattDamon.png', 'Im_ElijahWood.png', 'Im_LeonardoDiCaprio.png', 'Im_DanielCraig.png', 'Im_RobertPattinson.png', 'Im_RyanGosling.png', 'Im_BradPitt.png', 'Im_PatrickDempsey.png'],diff,1,0.42487679999976535,34,90.47619047619048,
FRCH1902,train,pos,0,pos0_id5_im20.bmp_pos0_id5_im1.bmp,['Im_GeorgeClooney.png', 'Im_DanielRadcliffe.png', 'Im_MattDamon.png', 'Im_ElijahWood.png', 'Im_LeonardoDiCaprio.png', 'Im_DanielCraig.png', 'Im_RobertPattinson.png', 'Im_RyanGosling.png', 'Im_BradPitt.png', 'Im_PatrickDempsey.png'],same,1,0.4165004000005865,35,90.47619047619048,
FRCH1902,train,pos,fs,posfs_id14_im16.bmp_posfs_id17_im8.bmp,['Im_GeorgeClooney.png', 'Im_DanielRadcliffe.png', 'Im_MattDamon.png', 'Im_ElijahWood.png', 'Im_LeonardoDiCaprio.png', 'Im_DanielCraig.png', 'Im_RobertPattinson.png', 'Im_RyanGosling.png', 'Im_BradPitt.png', 'Im_PatrickDempsey.png'],diff,1,0.4249009999984992,36,90.47619047619048,
FRCH1902,train,pos,120,pos120_id14_im24.bmp_pos120_id14_im18.bmp,['Im_GeorgeClooney.png', 'Im_DanielRadcliffe.png', 'Im_MattDamon.png', 'Im_ElijahWood.png', 'Im_LeonardoDiCaprio.png', 'Im_DanielCraig.png', 'Im_RobertPattinson.png', 'Im_RyanGosling.png', 'Im_BradPitt.png', 'Im_PatrickDempsey.png'],same,1,0.41668570000001637,37,90.47619047619048,
FRCH1902,train,pos,150,pos150_id4_im15.bmp_pos150_id14_im24.bmp,['Im_GeorgeClooney.png', 'Im_DanielRadcliffe.png', 'Im_MattDamon.png', 'Im_ElijahWood.png', 'Im_LeonardoDiCaprio.png', 'Im_DanielCraig.png', 'Im_RobertPattinson.png', 'Im_RyanGosling.png', 'Im_BradPitt.png', 'Im_PatrickDempsey.png'],diff,1,0.4167197999995551,38,90.47619047619048,
FRCH1902,train,pos,60,pos60_id13_im15.bmp_pos60_id13_im10.bmp,['Im_GeorgeClooney.png', 'Im_DanielRadcliffe.png', 'Im_MattDamon.png', 'Im_ElijahWood.png', 'Im_LeonardoDiCaprio.png', 'Im_DanielCraig.png', 'Im_RobertPattinson.png', 'Im_RyanGosling.png', 'Im_BradPitt.png', 'Im_PatrickDempsey.png'],same,1,0.4331176999985473,39,90.47619047619048,
FRCH1902,train,pos,150,pos150_id13_im10.bmp_pos150_id13_im29.bmp,['Im_GeorgeClooney.png', 'Im_DanielRadcliffe.png', 'Im_MattDamon.png', 'Im_ElijahWood.png', 'Im_LeonardoDiCaprio.png', 'Im_DanielCraig.png', 'Im_RobertPattinson.png', 'Im_RyanGosling.png', 'Im_BradPitt.png', 'Im_PatrickDempsey.png'],same,1,0.8166937999994843,40,90.47619047619048,
FRCH1902,0,neg,120,neg120_id5_im20.bmp_neg120_id5_im1.bmp,['Im_GeorgeClooney.png', 'Im_DanielRadcliffe.png', 'Im_MattDamon.png', 'Im_ElijahWood.png', 'Im_LeonardoDiCaprio.png', 'Im_DanielCraig.png', 'Im_RobertPattinson.png', 'Im_RyanGosling.png', 'Im_BradPitt.png', 'Im_PatrickDempsey.png'],same,1,0.42510029999903054,1,0,
FRCH1902,0,neg,0,neg0_id19_im4.bmp_neg0_id13_im15.bmp,['Im_GeorgeClooney.png', 'Im_DanielRadcliffe.png', 'Im_MattDamon.png', 'Im_ElijahWood.png', 'Im_LeonardoDiCaprio.png', 'Im_DanielCraig.png', 'Im_RobertPattinson.png', 'Im_RyanGosling.png', 'Im_BradPitt.png', 'Im_PatrickDempsey.png'],diff,1,0.42510289999881934,2,0,
FRCH1902,0,neg,30,neg30_id20_im30.bmp_neg30_id14_im16.bmp,['Im_GeorgeClooney.png', 'Im_DanielRadcliffe.png', 'Im_MattDamon.png', 'Im_ElijahWood.png', 'Im_LeonardoDiCaprio.png', 'Im_DanielCraig.png', 'Im_RobertPattinson.png', 'Im_RyanGosling.png', 'Im_BradPitt.png', 'Im_PatrickDempsey.png'],diff,1,0.41672359999938635,3,0,
FRCH1902,0,neg,60,neg60_id17_im9.bmp_neg60_id17_im8.bmp,['Im_GeorgeClooney.png', 'Im_DanielRadcliffe.png', 'Im_MattDamon.png', 'Im_ElijahWood.png', 'Im_LeonardoDiCaprio.png', 'Im_DanielCraig.png', 'Im_RobertPattinson.png', 'Im_RyanGosling.png', 'Im_BradPitt.png', 'Im_PatrickDempsey.png'],same,1,0.4250663999991957,4,0,
FRCH1902,0,neg,150,neg150_id17_im9.bmp_neg150_id17_im8.bmp,['Im_GeorgeClooney.png', 'Im_DanielRadcliffe.png', 'Im_MattDamon.png', 'Im_ElijahWood.png', 'Im_LeonardoDiCaprio.png', 'Im_DanielCraig.png', 'Im_RobertPattinson.png', 'Im_RyanGosling.png', 'Im_BradPitt.png', 'Im_PatrickDempsey.png'],diff,0,0.4166967000001023,4,0,
FRCH1902,0,neg,fs,negfs_id14_im24.bmp_negfs_id13_im29.bmp,['Im_GeorgeClooney.png', 'Im_DanielRadcliffe.png', 'Im_MattDamon.png', 'Im_ElijahWood.png', 'Im_LeonardoDiCaprio.png', 'Im_DanielCraig.png', 'Im_RobertPattinson.png', 'Im_RyanGosling.png', 'Im_BradPitt.png', 'Im_PatrickDempsey.png'],same,0,0.425079899998309,4,0,
FRCH1902,0,neg,90,neg90_id3_im17.bmp_neg90_id17_im14.bmp,['Im_GeorgeClooney.png', 'Im_DanielRadcliffe.png', 'Im_MattDamon.png', 'Im_ElijahWood.png', 'Im_LeonardoDiCaprio.png', 'Im_DanielCraig.png', 'Im_RobertPattinson.png', 'Im_RyanGosling.png', 'Im_BradPitt.png', 'Im_PatrickDempsey.png'],diff,1,0.43344450000040524,5,0,
FRCH1902,0,neg,120,neg120_id5_im1.bmp_neg120_id5_im10.bmp,['Im_GeorgeClooney.png', 'Im_DanielRadcliffe.png', 'Im_MattDamon.png', 'Im_ElijahWood.png', 'Im_LeonardoDiCaprio.png', 'Im_DanielCraig.png', 'Im_RobertPattinson.png', 'Im_RyanGosling.png', 'Im_BradPitt.png', 'Im_PatrickDempsey.png'],same,1,0.41674349999993865,6,0,
FRCH1902,0,neg,fs,negfs_id7_im14.bmp_negfs_id7_im26.bmp,['Im_GeorgeClooney.png', 'Im_DanielRadcliffe.png', 'Im_MattDamon.png', 'Im_ElijahWood.png', 'Im_LeonardoDiCaprio.png', 'Im_DanielCraig.png', 'Im_RobertPattinson.png', 'Im_RyanGosling.png', 'Im_BradPitt.png', 'Im_PatrickDempsey.png'],same,1,0.4250787000000855,7,0,
FRCH1902,0,neg,60,neg60_id20_im3.bmp_neg60_id20_im30.bmp,['Im_GeorgeClooney.png', 'Im_DanielRadcliffe.png', 'Im_MattDamon.png', 'Im_ElijahWood.png', 'Im_LeonardoDiCaprio.png', 'Im_DanielCraig.png', 'Im_RobertPattinson.png', 'Im_RyanGosling.png', 'Im_BradPitt.png', 'Im_PatrickDempsey.png'],same,1,0.4751624000000447,8,0,
FRCH1902,0,neg,150,neg150_id17_im8.bmp_neg150_id17_im14.bmp,['Im_GeorgeClooney.png', 'Im_DanielRadcliffe.png', 'Im_MattDamon.png', 'Im_ElijahWood.png', 'Im_LeonardoDiCaprio.png', 'Im_DanielCraig.png', 'Im_RobertPattinson.png', 'Im_RyanGosling.png', 'Im_BradPitt.png', 'Im_PatrickDempsey.png'],diff,0,0.41676209999968705,8,0,
FRCH1902,0,neg,90,neg90_id14_im24.bmp_neg90_id14_im16.bmp,['Im_GeorgeClooney.png', 'Im_DanielRadcliffe.png', 'Im_MattDamon.png', 'Im_ElijahWood.png', 'Im_LeonardoDiCaprio.png', 'Im_DanielCraig.png', 'Im_RobertPattinson.png', 'Im_RyanGosling.png', 'Im_BradPitt.png', 'Im_PatrickDempsey.png'],same,1,0.44170970000050147,9,0,
FRCH1902,0,neg,0,neg0_id19_im4.bmp_neg0_id5_im20.bmp,['Im_GeorgeClooney.png', 'Im_DanielRadcliffe.png', 'Im_MattDamon.png', 'Im_ElijahWood.png', 'Im_LeonardoDiCaprio.png', 'Im_DanielCraig.png', 'Im_RobertPattinson.png', 'Im_RyanGosling.png', 'Im_BradPitt.png', 'Im_PatrickDempsey.png'],diff,1,0.41669809999984864,10,0,
FRCH1902,0,neg,30,neg30_id4_im20.bmp_neg30_id19_im8.bmp,['Im_GeorgeClooney.png', 'Im_DanielRadcliffe.png', 'Im_MattDamon.png', 'Im_ElijahWood.png', 'Im_LeonardoDiCaprio.png', 'Im_DanielCraig.png', 'Im_RobertPattinson.png', 'Im_RyanGosling.png', 'Im_BradPitt.png', 'Im_PatrickDempsey.png'],diff,1,0.4250716000005923,11,0,
FRCH1902,1,neg,90,neg90_id14_im18.bmp_neg90_id14_im24.bmp,['Im_GeorgeClooney.png', 'Im_DanielRadcliffe.png', 'Im_MattDamon.png', 'Im_ElijahWood.png', 'Im_LeonardoDiCaprio.png', 'Im_DanielCraig.png', 'Im_RobertPattinson.png', 'Im_RyanGosling.png', 'Im_BradPitt.png', 'Im_PatrickDempsey.png'],same,1,0.4251738999992085,12,0,
FRCH1902,1,neg,120,neg120_id6_im12.bmp_neg120_id13_im10.bmp,['Im_GeorgeClooney.png', 'Im_DanielRadcliffe.png', 'Im_MattDamon.png', 'Im_ElijahWood.png', 'Im_LeonardoDiCaprio.png', 'Im_DanielCraig.png', 'Im_RobertPattinson.png', 'Im_RyanGosling.png', 'Im_BradPitt.png', 'Im_PatrickDempsey.png'],diff,1,0.42506999999932304,13,0,
FRCH1902,1,neg,90,neg90_id14_im18.bmp_neg90_id19_im27.bmp,['Im_GeorgeClooney.png', 'Im_DanielRadcliffe.png', 'Im_MattDamon.png', 'Im_ElijahWood.png', 'Im_LeonardoDiCaprio.png', 'Im_DanielCraig.png', 'Im_RobertPattinson.png', 'Im_RyanGosling.png', 'Im_BradPitt.png', 'Im_PatrickDempsey.png'],diff,1,0.4084069999989879,14,0,
FRCH1902,1,neg,0,neg0_id5_im1.bmp_neg0_id5_im10.bmp,['Im_GeorgeClooney.png', 'Im_DanielRadcliffe.png', 'Im_MattDamon.png', 'Im_ElijahWood.png', 'Im_LeonardoDiCaprio.png', 'Im_DanielCraig.png', 'Im_RobertPattinson.png', 'Im_RyanGosling.png', 'Im_BradPitt.png', 'Im_PatrickDempsey.png'],same,1,0.42503170000054524,15,0,
FRCH1902,1,neg,0,neg0_id17_im14.bmp_neg0_id3_im17.bmp,['Im_GeorgeClooney.png', 'Im_DanielRadcliffe.png', 'Im_MattDamon.png', 'Im_ElijahWood.png', 'Im_LeonardoDiCaprio.png', 'Im_DanielCraig.png', 'Im_RobertPattinson.png', 'Im_RyanGosling.png', 'Im_BradPitt.png', 'Im_PatrickDempsey.png'],diff,1,0.4246851999996579,16,0,
FRCH1902,1,neg,60,neg60_id7_im26.bmp_neg60_id7_im15.bmp,['Im_GeorgeClooney.png', 'Im_DanielRadcliffe.png', 'Im_MattDamon.png', 'Im_ElijahWood.png', 'Im_LeonardoDiCaprio.png', 'Im_DanielCraig.png', 'Im_RobertPattinson.png', 'Im_RyanGosling.png', 'Im_BradPitt.png', 'Im_PatrickDempsey.png'],same,1,0.4166832999999315,17,0,
FRCH1902,1,neg,fs,negfs_id13_im15.bmp_negfs_id4_im20.bmp,['Im_GeorgeClooney.png', 'Im_DanielRadcliffe.png', 'Im_MattDamon.png', 'Im_ElijahWood.png', 'Im_LeonardoDiCaprio.png', 'Im_DanielCraig.png', 'Im_RobertPattinson.png', 'Im_RyanGosling.png', 'Im_BradPitt.png', 'Im_PatrickDempsey.png'],diff,1,0.4167785999998159,18,0,
FRCH1902,1,neg,120,neg120_id4_im7.bmp_neg120_id4_im20.bmp,['Im_GeorgeClooney.png', 'Im_DanielRadcliffe.png', 'Im_MattDamon.png', 'Im_ElijahWood.png', 'Im_LeonardoDiCaprio.png', 'Im_DanielCraig.png', 'Im_RobertPattinson.png', 'Im_RyanGosling.png', 'Im_BradPitt.png', 'Im_PatrickDempsey.png'],same,1,0.42516600000089966,19,0,
FRCH1902,1,neg,60,neg60_id14_im24.bmp_neg60_id14_im18.bmp,['Im_GeorgeClooney.png', 'Im_DanielRadcliffe.png', 'Im_MattDamon.png', 'Im_ElijahWood.png', 'Im_LeonardoDiCaprio.png', 'Im_DanielCraig.png', 'Im_RobertPattinson.png', 'Im_RyanGosling.png', 'Im_BradPitt.png', 'Im_PatrickDempsey.png'],same,1,0.4167189999989205,20,0,
FRCH1902,1,neg,30,neg30_id20_im30.bmp_neg30_id17_im9.bmp,['Im_GeorgeClooney.png', 'Im_DanielRadcliffe.png', 'Im_MattDamon.png', 'Im_ElijahWood.png', 'Im_LeonardoDiCaprio.png', 'Im_DanielCraig.png', 'Im_RobertPattinson.png', 'Im_RyanGosling.png', 'Im_BradPitt.png', 'Im_PatrickDempsey.png'],same,0,0.4667666999994253,20,0,
FRCH1902,1,neg,fs,negfs_id19_im4.bmp_negfs_id13_im15.bmp,['Im_GeorgeClooney.png', 'Im_DanielRadcliffe.png', 'Im_MattDamon.png', 'Im_ElijahWood.png', 'Im_LeonardoDiCaprio.png', 'Im_DanielCraig.png', 'Im_RobertPattinson.png', 'Im_RyanGosling.png', 'Im_BradPitt.png', 'Im_PatrickDempsey.png'],diff,1,0.4165835000003426,21,0,
FRCH1902,1,neg,150,neg150_id13_im29.bmp_neg150_id14_im24.bmp,['Im_GeorgeClooney.png', 'Im_DanielRadcliffe.png', 'Im_MattDamon.png', 'Im_ElijahWood.png', 'Im_LeonardoDiCaprio.png', 'Im_DanielCraig.png', 'Im_RobertPattinson.png', 'Im_RyanGosling.png', 'Im_BradPitt.png', 'Im_PatrickDempsey.png'],diff,1,0.7669482000001153,22,0,
FRCH1902,1,neg,150,neg150_id20_im30.bmp_neg150_id14_im16.bmp,['Im_GeorgeClooney.png', 'Im_DanielRadcliffe.png', 'Im_MattDamon.png', 'Im_ElijahWood.png', 'Im_LeonardoDiCaprio.png', 'Im_DanielCraig.png', 'Im_RobertPattinson.png', 'Im_RyanGosling.png', 'Im_BradPitt.png', 'Im_PatrickDempsey.png'],diff,1,0.4169428999994125,23,0,
FRCH1902,1,neg,30,neg30_id3_im8.bmp_neg30_id13_im29.bmp,['Im_GeorgeClooney.png', 'Im_DanielRadcliffe.png', 'Im_MattDamon.png', 'Im_ElijahWood.png', 'Im_LeonardoDiCaprio.png', 'Im_DanielCraig.png', 'Im_RobertPattinson.png', 'Im_RyanGosling.png', 'Im_BradPitt.png', 'Im_PatrickDempsey.png'],same,0,0.5500661000005493,23,0,
FRCH1902,2,inv,150,pos150_id19_im27.bmp_pos150_id19_im8.bmp,['Im_GeorgeClooney.png', 'Im_DanielRadcliffe.png', 'Im_MattDamon.png', 'Im_ElijahWood.png', 'Im_LeonardoDiCaprio.png', 'Im_DanielCraig.png', 'Im_RobertPattinson.png', 'Im_RyanGosling.png', 'Im_BradPitt.png', 'Im_PatrickDempsey.png'],same,1,0.41671879999921657,24,0,
FRCH1902,2,inv,120,pos120_id19_im27.bmp_pos120_id19_im4.bmp,['Im_GeorgeClooney.png', 'Im_DanielRadcliffe.png', 'Im_MattDamon.png', 'Im_ElijahWood.png', 'Im_LeonardoDiCaprio.png', 'Im_DanielCraig.png', 'Im_RobertPattinson.png', 'Im_RyanGosling.png', 'Im_BradPitt.png', 'Im_PatrickDempsey.png'],diff,0,0.48336790000030305,24,0,
FRCH1902,2,inv,fs,posfs_id14_im24.bmp_posfs_id13_im29.bmp,['Im_GeorgeClooney.png', 'Im_DanielRadcliffe.png', 'Im_MattDamon.png', 'Im_ElijahWood.png', 'Im_LeonardoDiCaprio.png', 'Im_DanielCraig.png', 'Im_RobertPattinson.png', 'Im_RyanGosling.png', 'Im_BradPitt.png', 'Im_PatrickDempsey.png'],diff,1,0.7001696999996057,25,0,
FRCH1902,2,inv,60,pos60_id19_im8.bmp_pos60_id19_im4.bmp,['Im_GeorgeClooney.png', 'Im_DanielRadcliffe.png', 'Im_MattDamon.png', 'Im_ElijahWood.png', 'Im_LeonardoDiCaprio.png', 'Im_DanielCraig.png', 'Im_RobertPattinson.png', 'Im_RyanGosling.png', 'Im_BradPitt.png', 'Im_PatrickDempsey.png'],same,1,0.4502240999991045,26,0,
FRCH1902,2,inv,30,pos30_id4_im15.bmp_pos30_id14_im24.bmp,['Im_GeorgeClooney.png', 'Im_DanielRadcliffe.png', 'Im_MattDamon.png', 'Im_ElijahWood.png', 'Im_LeonardoDiCaprio.png', 'Im_DanielCraig.png', 'Im_RobertPattinson.png', 'Im_RyanGosling.png', 'Im_BradPitt.png', 'Im_PatrickDempsey.png'],diff,1,0.425084099999367,27,0,
FRCH1902,2,inv,90,pos90_id7_im26.bmp_pos90_id7_im14.bmp,['Im_GeorgeClooney.png', 'Im_DanielRadcliffe.png', 'Im_MattDamon.png', 'Im_ElijahWood.png', 'Im_LeonardoDiCaprio.png', 'Im_DanielCraig.png', 'Im_RobertPattinson.png', 'Im_RyanGosling.png', 'Im_BradPitt.png', 'Im_PatrickDempsey.png'],diff,0,0.4251273999998375,27,0,
FRCH1902,2,inv,150,pos150_id17_im8.bmp_pos150_id6_im18.bmp,['Im_GeorgeClooney.png', 'Im_DanielRadcliffe.png', 'Im_MattDamon.png', 'Im_ElijahWood.png', 'Im_LeonardoDiCaprio.png', 'Im_DanielCraig.png', 'Im_RobertPattinson.png', 'Im_RyanGosling.png', 'Im_BradPitt.png', 'Im_PatrickDempsey.png'],diff,1,0.5169508999988466,28,0,
FRCH1902,2,inv,120,pos120_id17_im14.bmp_pos120_id17_im8.bmp,['Im_GeorgeClooney.png', 'Im_DanielRadcliffe.png', 'Im_MattDamon.png', 'Im_ElijahWood.png', 'Im_LeonardoDiCaprio.png', 'Im_DanielCraig.png', 'Im_RobertPattinson.png', 'Im_RyanGosling.png', 'Im_BradPitt.png', 'Im_PatrickDempsey.png'],same,1,0.7504010000011476,29,0,
FRCH1902,2,inv,fs,posfs_id5_im1.bmp_posfs_id20_im12.bmp,['Im_GeorgeClooney.png', 'Im_DanielRadcliffe.png', 'Im_MattDamon.png', 'Im_ElijahWood.png', 'Im_LeonardoDiCaprio.png', 'Im_DanielCraig.png', 'Im_RobertPattinson.png', 'Im_RyanGosling.png', 'Im_BradPitt.png', 'Im_PatrickDempsey.png'],diff,1,0.4167519999991782,30,0,
FRCH1902,2,inv,0,pos0_id14_im16.bmp_pos0_id17_im8.bmp,['Im_GeorgeClooney.png', 'Im_DanielRadcliffe.png', 'Im_MattDamon.png', 'Im_ElijahWood.png', 'Im_LeonardoDiCaprio.png', 'Im_DanielCraig.png', 'Im_RobertPattinson.png', 'Im_RyanGosling.png', 'Im_BradPitt.png', 'Im_PatrickDempsey.png'],diff,1,0.41660140000021784,31,0,
FRCH1902,2,inv,90,pos90_id14_im18.bmp_pos90_id14_im24.bmp,['Im_GeorgeClooney.png', 'Im_DanielRadcliffe.png', 'Im_MattDamon.png', 'Im_ElijahWood.png', 'Im_LeonardoDiCaprio.png', 'Im_DanielCraig.png', 'Im_RobertPattinson.png', 'Im_RyanGosling.png', 'Im_BradPitt.png', 'Im_PatrickDempsey.png'],same,1,0.4167519999991782,32,0,
FRCH1902,2,inv,30,pos30_id20_im30.bmp_pos30_id20_im12.bmp,['Im_GeorgeClooney.png', 'Im_DanielRadcliffe.png', 'Im_MattDamon.png', 'Im_ElijahWood.png', 'Im_LeonardoDiCaprio.png', 'Im_DanielCraig.png', 'Im_RobertPattinson.png', 'Im_RyanGosling.png', 'Im_BradPitt.png', 'Im_PatrickDempsey.png'],same,1,0.42530640000040876,33,0,
FRCH1902,2,inv,60,pos60_id4_im15.bmp_pos60_id4_im7.bmp,['Im_GeorgeClooney.png', 'Im_DanielRadcliffe.png', 'Im_MattDamon.png', 'Im_ElijahWood.png', 'Im_LeonardoDiCaprio.png', 'Im_DanielCraig.png', 'Im_RobertPattinson.png', 'Im_RyanGosling.png', 'Im_BradPitt.png', 'Im_PatrickDempsey.png'],same,1,0.4251325999994151,34,0,
FRCH1902,2,inv,0,pos0_id19_im4.bmp_pos0_id13_im15.bmp,['Im_GeorgeClooney.png', 'Im_DanielRadcliffe.png', 'Im_MattDamon.png', 'Im_ElijahWood.png', 'Im_LeonardoDiCaprio.png', 'Im_DanielCraig.png', 'Im_RobertPattinson.png', 'Im_RyanGosling.png', 'Im_BradPitt.png', 'Im_PatrickDempsey.png'],diff,1,0.41664940000009665,35,0,
FRCH1902,3,pos,120,pos120_id5_im20.bmp_pos120_id5_im1.bmp,['Im_GeorgeClooney.png', 'Im_DanielRadcliffe.png', 'Im_MattDamon.png', 'Im_ElijahWood.png', 'Im_LeonardoDiCaprio.png', 'Im_DanielCraig.png', 'Im_RobertPattinson.png', 'Im_RyanGosling.png', 'Im_BradPitt.png', 'Im_PatrickDempsey.png'],same,1,0.4250750000010157,1,83.33333333333333,
FRCH1902,3,pos,0,pos0_id17_im8.bmp_pos0_id17_im9.bmp,['Im_GeorgeClooney.png', 'Im_DanielRadcliffe.png', 'Im_MattDamon.png', 'Im_ElijahWood.png', 'Im_LeonardoDiCaprio.png', 'Im_DanielCraig.png', 'Im_RobertPattinson.png', 'Im_RyanGosling.png', 'Im_BradPitt.png', 'Im_PatrickDempsey.png'],same,1,0.42503059999944526,2,83.33333333333333,
FRCH1902,3,pos,30,pos30_id17_im8.bmp_pos30_id17_im9.bmp,['Im_GeorgeClooney.png', 'Im_DanielRadcliffe.png', 'Im_MattDamon.png', 'Im_ElijahWood.png', 'Im_LeonardoDiCaprio.png', 'Im_DanielCraig.png', 'Im_RobertPattinson.png', 'Im_RyanGosling.png', 'Im_BradPitt.png', 'Im_PatrickDempsey.png'],same,1,0.4167584999995597,3,83.33333333333333,
FRCH1902,3,pos,120,pos120_id4_im20.bmp_pos120_id4_im7.bmp,['Im_GeorgeClooney.png', 'Im_DanielRadcliffe.png', 'Im_MattDamon.png', 'Im_ElijahWood.png', 'Im_LeonardoDiCaprio.png', 'Im_DanielCraig.png', 'Im_RobertPattinson.png', 'Im_RyanGosling.png', 'Im_BradPitt.png', 'Im_PatrickDempsey.png'],same,1,0.4167297999993025,4,83.33333333333333,
FRCH1902,3,pos,30,pos30_id6_im12.bmp_pos30_id13_im10.bmp,['Im_GeorgeClooney.png', 'Im_DanielRadcliffe.png', 'Im_MattDamon.png', 'Im_ElijahWood.png', 'Im_LeonardoDiCaprio.png', 'Im_DanielCraig.png', 'Im_RobertPattinson.png', 'Im_RyanGosling.png', 'Im_BradPitt.png', 'Im_PatrickDempsey.png'],diff,1,0.4169697000015731,5,83.33333333333333,
FRCH1902,3,pos,150,pos150_id20_im12.bmp_pos150_id20_im30.bmp,['Im_GeorgeClooney.png', 'Im_DanielRadcliffe.png', 'Im_MattDamon.png', 'Im_ElijahWood.png', 'Im_LeonardoDiCaprio.png', 'Im_DanielCraig.png', 'Im_RobertPattinson.png', 'Im_RyanGosling.png', 'Im_BradPitt.png', 'Im_PatrickDempsey.png'],same,1,0.4253119999993942,6,83.33333333333333,
FRCH1902,3,pos,fs,posfs_id3_im8.bmp_posfs_id3_im17.bmp,['Im_GeorgeClooney.png', 'Im_DanielRadcliffe.png', 'Im_MattDamon.png', 'Im_ElijahWood.png', 'Im_LeonardoDiCaprio.png', 'Im_DanielCraig.png', 'Im_RobertPattinson.png', 'Im_RyanGosling.png', 'Im_BradPitt.png', 'Im_PatrickDempsey.png'],same,1,0.4248561000003974,7,83.33333333333333,
FRCH1902,3,pos,60,pos60_id14_im18.bmp_pos60_id19_im27.bmp,['Im_GeorgeClooney.png', 'Im_DanielRadcliffe.png', 'Im_MattDamon.png', 'Im_ElijahWood.png', 'Im_LeonardoDiCaprio.png', 'Im_DanielCraig.png', 'Im_RobertPattinson.png', 'Im_RyanGosling.png', 'Im_BradPitt.png', 'Im_PatrickDempsey.png'],diff,1,0.4251574999998411,8,83.33333333333333,
FRCH1902,3,pos,90,pos90_id13_im29.bmp_pos90_id3_im8.bmp,['Im_GeorgeClooney.png', 'Im_DanielRadcliffe.png', 'Im_MattDamon.png', 'Im_ElijahWood.png', 'Im_LeonardoDiCaprio.png', 'Im_DanielCraig.png', 'Im_RobertPattinson.png', 'Im_RyanGosling.png', 'Im_BradPitt.png', 'Im_PatrickDempsey.png'],diff,1,0.8250301999996736,9,83.33333333333333,
FRCH1902,3,pos,60,pos60_id7_im14.bmp_pos60_id7_im26.bmp,['Im_GeorgeClooney.png', 'Im_DanielRadcliffe.png', 'Im_MattDamon.png', 'Im_ElijahWood.png', 'Im_LeonardoDiCaprio.png', 'Im_DanielCraig.png', 'Im_RobertPattinson.png', 'Im_RyanGosling.png', 'Im_BradPitt.png', 'Im_PatrickDempsey.png'],same,1,0.42480559999967227,10,83.33333333333333,
FRCH1902,3,pos,fs,posfs_id4_im20.bmp_posfs_id4_im7.bmp,['Im_GeorgeClooney.png', 'Im_DanielRadcliffe.png', 'Im_MattDamon.png', 'Im_ElijahWood.png', 'Im_LeonardoDiCaprio.png', 'Im_DanielCraig.png', 'Im_RobertPattinson.png', 'Im_RyanGosling.png', 'Im_BradPitt.png', 'Im_PatrickDempsey.png'],same,1,0.4250753000014811,11,83.33333333333333,
FRCH1902,3,pos,0,pos0_id6_im12.bmp_pos0_id13_im10.bmp,['Im_GeorgeClooney.png', 'Im_DanielRadcliffe.png', 'Im_MattDamon.png', 'Im_ElijahWood.png', 'Im_LeonardoDiCaprio.png', 'Im_DanielCraig.png', 'Im_RobertPattinson.png', 'Im_RyanGosling.png', 'Im_BradPitt.png', 'Im_PatrickDempsey.png'],diff,1,0.4251029999995808,12,83.33333333333333,
FRCH1902,3,pos,150,pos150_id20_im3.bmp_pos150_id7_im26.bmp,['Im_GeorgeClooney.png', 'Im_DanielRadcliffe.png', 'Im_MattDamon.png', 'Im_ElijahWood.png', 'Im_LeonardoDiCaprio.png', 'Im_DanielCraig.png', 'Im_RobertPattinson.png', 'Im_RyanGosling.png', 'Im_BradPitt.png', 'Im_PatrickDempsey.png'],diff,1,0.4167098999987502,13,83.33333333333333,
FRCH1902,3,pos,90,pos90_id17_im9.bmp_pos90_id17_im8.bmp,['Im_GeorgeClooney.png', 'Im_DanielRadcliffe.png', 'Im_MattDamon.png', 'Im_ElijahWood.png', 'Im_LeonardoDiCaprio.png', 'Im_DanielCraig.png', 'Im_RobertPattinson.png', 'Im_RyanGosling.png', 'Im_BradPitt.png', 'Im_PatrickDempsey.png'],same,1,0.4250577999991947,14,83.33333333333333,
FRCH1902,4,pos,0,pos0_id17_im14.bmp_pos0_id17_im9.bmp,['Im_GeorgeClooney.png', 'Im_DanielRadcliffe.png', 'Im_MattDamon.png', 'Im_ElijahWood.png', 'Im_LeonardoDiCaprio.png', 'Im_DanielCraig.png', 'Im_RobertPattinson.png', 'Im_RyanGosling.png', 'Im_BradPitt.png', 'Im_PatrickDempsey.png'],same,1,0.41673070000069856,15,83.33333333333333,
FRCH1902,4,pos,60,pos60_id7_im14.bmp_pos60_id17_im9.bmp,['Im_GeorgeClooney.png', 'Im_DanielRadcliffe.png', 'Im_MattDamon.png', 'Im_ElijahWood.png', 'Im_LeonardoDiCaprio.png', 'Im_DanielCraig.png', 'Im_RobertPattinson.png', 'Im_RyanGosling.png', 'Im_BradPitt.png', 'Im_PatrickDempsey.png'],diff,1,0.4333826999991288,16,83.33333333333333,
FRCH1902,4,pos,fs,posfs_id5_im1.bmp_posfs_id6_im12.bmp,['Im_GeorgeClooney.png', 'Im_DanielRadcliffe.png', 'Im_MattDamon.png', 'Im_ElijahWood.png', 'Im_LeonardoDiCaprio.png', 'Im_DanielCraig.png', 'Im_RobertPattinson.png', 'Im_RyanGosling.png', 'Im_BradPitt.png', 'Im_PatrickDempsey.png'],diff,1,0.4333765000010317,17,83.33333333333333,
FRCH1902,4,pos,30,pos30_id3_im17.bmp_pos30_id3_im8.bmp,['Im_GeorgeClooney.png', 'Im_DanielRadcliffe.png', 'Im_MattDamon.png', 'Im_ElijahWood.png', 'Im_LeonardoDiCaprio.png', 'Im_DanielCraig.png', 'Im_RobertPattinson.png', 'Im_RyanGosling.png', 'Im_BradPitt.png', 'Im_PatrickDempsey.png'],same,1,0.40838350000012724,18,83.33333333333333,
FRCH1902,4,pos,120,pos120_id14_im24.bmp_pos120_id13_im29.bmp,['Im_GeorgeClooney.png', 'Im_DanielRadcliffe.png', 'Im_MattDamon.png', 'Im_ElijahWood.png', 'Im_LeonardoDiCaprio.png', 'Im_DanielCraig.png', 'Im_RobertPattinson.png', 'Im_RyanGosling.png', 'Im_BradPitt.png', 'Im_PatrickDempsey.png'],diff,1,0.6668083999993542,19,83.33333333333333,
FRCH1902,4,pos,fs,posfs_id20_im12.bmp_posfs_id5_im1.bmp,['Im_GeorgeClooney.png', 'Im_DanielRadcliffe.png', 'Im_MattDamon.png', 'Im_ElijahWood.png', 'Im_LeonardoDiCaprio.png', 'Im_DanielCraig.png', 'Im_RobertPattinson.png', 'Im_RyanGosling.png', 'Im_BradPitt.png', 'Im_PatrickDempsey.png'],diff,1,0.41676639999968756,20,83.33333333333333,
FRCH1902,4,pos,150,pos150_id7_im14.bmp_pos150_id5_im10.bmp,['Im_GeorgeClooney.png', 'Im_DanielRadcliffe.png', 'Im_MattDamon.png', 'Im_ElijahWood.png', 'Im_LeonardoDiCaprio.png', 'Im_DanielCraig.png', 'Im_RobertPattinson.png', 'Im_RyanGosling.png', 'Im_BradPitt.png', 'Im_PatrickDempsey.png'],diff,1,0.41669869999896036,21,83.33333333333333,
FRCH1902,4,pos,90,pos90_id6_im18.bmp_pos90_id3_im6.bmp,['Im_GeorgeClooney.png', 'Im_DanielRadcliffe.png', 'Im_MattDamon.png', 'Im_ElijahWood.png', 'Im_LeonardoDiCaprio.png', 'Im_DanielCraig.png', 'Im_RobertPattinson.png', 'Im_RyanGosling.png', 'Im_BradPitt.png', 'Im_PatrickDempsey.png'],diff,1,0.40829440000015893,22,83.33333333333333,
FRCH1902,4,pos,120,pos120_id20_im12.bmp_pos120_id5_im1.bmp,['Im_GeorgeClooney.png', 'Im_DanielRadcliffe.png', 'Im_MattDamon.png', 'Im_ElijahWood.png', 'Im_LeonardoDiCaprio.png', 'Im_DanielCraig.png', 'Im_RobertPattinson.png', 'Im_RyanGosling.png', 'Im_BradPitt.png', 'Im_PatrickDempsey.png'],diff,1,0.40839580000101705,23,83.33333333333333,
FRCH1902,4,pos,60,pos60_id14_im16.bmp_pos60_id20_im30.bmp,['Im_GeorgeClooney.png', 'Im_DanielRadcliffe.png', 'Im_MattDamon.png', 'Im_ElijahWood.png', 'Im_LeonardoDiCaprio.png', 'Im_DanielCraig.png', 'Im_RobertPattinson.png', 'Im_RyanGosling.png', 'Im_BradPitt.png', 'Im_PatrickDempsey.png'],diff,1,0.42506669999966107,24,83.33333333333333,
FRCH1902,4,pos,30,pos30_id19_im8.bmp_pos30_id4_im20.bmp,['Im_GeorgeClooney.png', 'Im_DanielRadcliffe.png', 'Im_MattDamon.png', 'Im_ElijahWood.png', 'Im_LeonardoDiCaprio.png', 'Im_DanielCraig.png', 'Im_RobertPattinson.png', 'Im_RyanGosling.png', 'Im_BradPitt.png', 'Im_PatrickDempsey.png'],diff,1,0.6335569000002579,25,83.33333333333333,
FRCH1902,4,pos,90,pos90_id14_im16.bmp_pos90_id17_im8.bmp,['Im_GeorgeClooney.png', 'Im_DanielRadcliffe.png', 'Im_MattDamon.png', 'Im_ElijahWood.png', 'Im_LeonardoDiCaprio.png', 'Im_DanielCraig.png', 'Im_RobertPattinson.png', 'Im_RyanGosling.png', 'Im_BradPitt.png', 'Im_PatrickDempsey.png'],diff,1,0.416734099999303,26,83.33333333333333,
FRCH1902,4,pos,0,pos0_id6_im18.bmp_pos0_id17_im8.bmp,['Im_GeorgeClooney.png', 'Im_DanielRadcliffe.png', 'Im_MattDamon.png', 'Im_ElijahWood.png', 'Im_LeonardoDiCaprio.png', 'Im_DanielCraig.png', 'Im_RobertPattinson.png', 'Im_RyanGosling.png', 'Im_BradPitt.png', 'Im_PatrickDempsey.png'],diff,1,0.4333500000011554,27,83.33333333333333,
FRCH1902,4,pos,150,pos150_id4_im15.bmp_pos150_id13_im10.bmp,['Im_GeorgeClooney.png', 'Im_DanielRadcliffe.png', 'Im_MattDamon.png', 'Im_ElijahWood.png', 'Im_LeonardoDiCaprio.png', 'Im_DanielCraig.png', 'Im_RobertPattinson.png', 'Im_RyanGosling.png', 'Im_BradPitt.png', 'Im_PatrickDempsey.png'],diff,1,0.4084072000005108,28,83.33333333333333,
FRCH1902,5,neg,30,neg30_id5_im10.bmp_neg30_id5_im20.bmp,['Im_GeorgeClooney.png', 'Im_DanielRadcliffe.png', 'Im_MattDamon.png', 'Im_ElijahWood.png', 'Im_LeonardoDiCaprio.png', 'Im_DanielCraig.png', 'Im_RobertPattinson.png', 'Im_RyanGosling.png', 'Im_BradPitt.png', 'Im_PatrickDempsey.png'],same,1,0.48356690000036906,29,83.33333333333333,
FRCH1902,5,neg,0,neg0_id13_im29.bmp_neg0_id14_im24.bmp,['Im_GeorgeClooney.png', 'Im_DanielRadcliffe.png', 'Im_MattDamon.png', 'Im_ElijahWood.png', 'Im_LeonardoDiCaprio.png', 'Im_DanielCraig.png', 'Im_RobertPattinson.png', 'Im_RyanGosling.png', 'Im_BradPitt.png', 'Im_PatrickDempsey.png'],same,0,0.583637900001122,29,83.33333333333333,
FRCH1902,5,neg,120,neg120_id17_im14.bmp_neg120_id3_im17.bmp,['Im_GeorgeClooney.png', 'Im_DanielRadcliffe.png', 'Im_MattDamon.png', 'Im_ElijahWood.png', 'Im_LeonardoDiCaprio.png', 'Im_DanielCraig.png', 'Im_RobertPattinson.png', 'Im_RyanGosling.png', 'Im_BradPitt.png', 'Im_PatrickDempsey.png'],diff,1,0.4250138999996125,30,83.33333333333333,
FRCH1902,5,neg,60,neg60_id19_im4.bmp_neg60_id13_im15.bmp,['Im_GeorgeClooney.png', 'Im_DanielRadcliffe.png', 'Im_MattDamon.png', 'Im_ElijahWood.png', 'Im_LeonardoDiCaprio.png', 'Im_DanielCraig.png', 'Im_RobertPattinson.png', 'Im_RyanGosling.png', 'Im_BradPitt.png', 'Im_PatrickDempsey.png'],diff,1,0.5748803000005864,31,83.33333333333333,
FRCH1902,5,neg,30,neg30_id7_im14.bmp_neg30_id7_im15.bmp,['Im_GeorgeClooney.png', 'Im_DanielRadcliffe.png', 'Im_MattDamon.png', 'Im_ElijahWood.png', 'Im_LeonardoDiCaprio.png', 'Im_DanielCraig.png', 'Im_RobertPattinson.png', 'Im_RyanGosling.png', 'Im_BradPitt.png', 'Im_PatrickDempsey.png'],same,1,0.41687500000080036,32,83.33333333333333,
FRCH1902,5,neg,150,neg150_id14_im24.bmp_neg150_id14_im18.bmp,['Im_GeorgeClooney.png', 'Im_DanielRadcliffe.png', 'Im_MattDamon.png', 'Im_ElijahWood.png', 'Im_LeonardoDiCaprio.png', 'Im_DanielCraig.png', 'Im_RobertPattinson.png', 'Im_RyanGosling.png', 'Im_BradPitt.png', 'Im_PatrickDempsey.png'],same,1,0.5088123000004998,33,83.33333333333333,
FRCH1902,5,neg,150,neg150_id14_im18.bmp_neg150_id14_im16.bmp,['Im_GeorgeClooney.png', 'Im_DanielRadcliffe.png', 'Im_MattDamon.png', 'Im_ElijahWood.png', 'Im_LeonardoDiCaprio.png', 'Im_DanielCraig.png', 'Im_RobertPattinson.png', 'Im_RyanGosling.png', 'Im_BradPitt.png', 'Im_PatrickDempsey.png'],same,1,0.46682789999977103,34,83.33333333333333,
FRCH1902,5,neg,fs,negfs_id19_im4.bmp_negfs_id19_im27.bmp,['Im_GeorgeClooney.png', 'Im_DanielRadcliffe.png', 'Im_MattDamon.png', 'Im_ElijahWood.png', 'Im_LeonardoDiCaprio.png', 'Im_DanielCraig.png', 'Im_RobertPattinson.png', 'Im_RyanGosling.png', 'Im_BradPitt.png', 'Im_PatrickDempsey.png'],same,1,0.41677139999956125,35,83.33333333333333,
FRCH1902,5,neg,fs,negfs_id19_im27.bmp_negfs_id14_im18.bmp,['Im_GeorgeClooney.png', 'Im_DanielRadcliffe.png', 'Im_MattDamon.png', 'Im_ElijahWood.png', 'Im_LeonardoDiCaprio.png', 'Im_DanielCraig.png', 'Im_RobertPattinson.png', 'Im_RyanGosling.png', 'Im_BradPitt.png', 'Im_PatrickDempsey.png'],diff,1,0.4168647999995301,36,83.33333333333333,
FRCH1902,5,neg,120,neg120_id6_im19.bmp_neg120_id17_im14.bmp,['Im_GeorgeClooney.png', 'Im_DanielRadcliffe.png', 'Im_MattDamon.png', 'Im_ElijahWood.png', 'Im_LeonardoDiCaprio.png', 'Im_DanielCraig.png', 'Im_RobertPattinson.png', 'Im_RyanGosling.png', 'Im_BradPitt.png', 'Im_PatrickDempsey.png'],diff,1,0.4167288999997254,37,83.33333333333333,
FRCH1902,5,neg,90,neg90_id5_im1.bmp_neg90_id5_im20.bmp,['Im_GeorgeClooney.png', 'Im_DanielRadcliffe.png', 'Im_MattDamon.png', 'Im_ElijahWood.png', 'Im_LeonardoDiCaprio.png', 'Im_DanielCraig.png', 'Im_RobertPattinson.png', 'Im_RyanGosling.png', 'Im_BradPitt.png', 'Im_PatrickDempsey.png'],same,1,0.45008659999984957,38,83.33333333333333,
FRCH1902,5,neg,90,neg90_id3_im8.bmp_neg90_id13_im29.bmp,['Im_GeorgeClooney.png', 'Im_DanielRadcliffe.png', 'Im_MattDamon.png', 'Im_ElijahWood.png', 'Im_LeonardoDiCaprio.png', 'Im_DanielCraig.png', 'Im_RobertPattinson.png', 'Im_RyanGosling.png', 'Im_BradPitt.png', 'Im_PatrickDempsey.png'],diff,1,0.74999360000038,39,83.33333333333333,
FRCH1902,5,neg,0,neg0_id14_im16.bmp_neg0_id14_im18.bmp,['Im_GeorgeClooney.png', 'Im_DanielRadcliffe.png', 'Im_MattDamon.png', 'Im_ElijahWood.png', 'Im_LeonardoDiCaprio.png', 'Im_DanielCraig.png', 'Im_RobertPattinson.png', 'Im_RyanGosling.png', 'Im_BradPitt.png', 'Im_PatrickDempsey.png'],same,1,0.4166769999992539,40,83.33333333333333,
FRCH1902,5,neg,60,neg60_id17_im9.bmp_neg60_id20_im30.bmp,['Im_GeorgeClooney.png', 'Im_DanielRadcliffe.png', 'Im_MattDamon.png', 'Im_ElijahWood.png', 'Im_LeonardoDiCaprio.png', 'Im_DanielCraig.png', 'Im_RobertPattinson.png', 'Im_RyanGosling.png', 'Im_BradPitt.png', 'Im_PatrickDempsey.png'],diff,1,0.42505030000029365,41,83.33333333333333,
FRCH1902,6,inv,30,pos30_id17_im14.bmp_pos30_id17_im8.bmp,['Im_GeorgeClooney.png', 'Im_DanielRadcliffe.png', 'Im_MattDamon.png', 'Im_ElijahWood.png', 'Im_LeonardoDiCaprio.png', 'Im_DanielCraig.png', 'Im_RobertPattinson.png', 'Im_RyanGosling.png', 'Im_BradPitt.png', 'Im_PatrickDempsey.png'],same,1,0.4166980000009062,1,97.61904761904762,
FRCH1902,6,inv,120,pos120_id5_im20.bmp_pos120_id5_im10.bmp,['Im_GeorgeClooney.png', 'Im_DanielRadcliffe.png', 'Im_MattDamon.png', 'Im_ElijahWood.png', 'Im_LeonardoDiCaprio.png', 'Im_DanielCraig.png', 'Im_RobertPattinson.png', 'Im_RyanGosling.png', 'Im_BradPitt.png', 'Im_PatrickDempsey.png'],same,1,0.41704009999921254,2,97.61904761904762,
FRCH1902,6,inv,30,pos30_id5_im20.bmp_pos30_id19_im4.bmp,['Im_GeorgeClooney.png', 'Im_DanielRadcliffe.png', 'Im_MattDamon.png', 'Im_ElijahWood.png', 'Im_LeonardoDiCaprio.png', 'Im_DanielCraig.png', 'Im_RobertPattinson.png', 'Im_RyanGosling.png', 'Im_BradPitt.png', 'Im_PatrickDempsey.png'],diff,1,0.4668563000013819,3,97.61904761904762,
FRCH1902,6,inv,150,pos150_id5_im20.bmp_pos150_id5_im10.bmp,['Im_GeorgeClooney.png', 'Im_DanielRadcliffe.png', 'Im_MattDamon.png', 'Im_ElijahWood.png', 'Im_LeonardoDiCaprio.png', 'Im_DanielCraig.png', 'Im_RobertPattinson.png', 'Im_RyanGosling.png', 'Im_BradPitt.png', 'Im_PatrickDempsey.png'],same,1,0.43447569999989355,4,97.61904761904762,
FRCH1902,6,inv,150,pos150_id17_im9.bmp_pos150_id17_im14.bmp,['Im_GeorgeClooney.png', 'Im_DanielRadcliffe.png', 'Im_MattDamon.png', 'Im_ElijahWood.png', 'Im_LeonardoDiCaprio.png', 'Im_DanielCraig.png', 'Im_RobertPattinson.png', 'Im_RyanGosling.png', 'Im_BradPitt.png', 'Im_PatrickDempsey.png'],same,1,0.5834193999999115,5,97.61904761904762,
FRCH1902,6,inv,120,pos120_id19_im8.bmp_pos120_id4_im20.bmp,['Im_GeorgeClooney.png', 'Im_DanielRadcliffe.png', 'Im_MattDamon.png', 'Im_ElijahWood.png', 'Im_LeonardoDiCaprio.png', 'Im_DanielCraig.png', 'Im_RobertPattinson.png', 'Im_RyanGosling.png', 'Im_BradPitt.png', 'Im_PatrickDempsey.png'],diff,1,0.4167063999993843,6,97.61904761904762,
FRCH1902,6,inv,0,pos0_id17_im9.bmp_pos0_id17_im14.bmp,['Im_GeorgeClooney.png', 'Im_DanielRadcliffe.png', 'Im_MattDamon.png', 'Im_ElijahWood.png', 'Im_LeonardoDiCaprio.png', 'Im_DanielCraig.png', 'Im_RobertPattinson.png', 'Im_RyanGosling.png', 'Im_BradPitt.png', 'Im_PatrickDempsey.png'],same,1,0.4250218000015593,7,97.61904761904762,
FRCH1902,6,inv,90,pos90_id6_im18.bmp_pos90_id6_im19.bmp,['Im_GeorgeClooney.png', 'Im_DanielRadcliffe.png', 'Im_MattDamon.png', 'Im_ElijahWood.png', 'Im_LeonardoDiCaprio.png', 'Im_DanielCraig.png', 'Im_RobertPattinson.png', 'Im_RyanGosling.png', 'Im_BradPitt.png', 'Im_PatrickDempsey.png'],same,1,0.46708980000039446,8,97.61904761904762,
FRCH1902,6,inv,60,pos60_id7_im14.bmp_pos60_id7_im26.bmp,['Im_GeorgeClooney.png', 'Im_DanielRadcliffe.png', 'Im_MattDamon.png', 'Im_ElijahWood.png', 'Im_LeonardoDiCaprio.png', 'Im_DanielCraig.png', 'Im_RobertPattinson.png', 'Im_RyanGosling.png', 'Im_BradPitt.png', 'Im_PatrickDempsey.png'],same,1,0.4333480999994208,9,97.61904761904762,
FRCH1902,6,inv,0,pos0_id17_im9.bmp_pos0_id20_im30.bmp,['Im_GeorgeClooney.png', 'Im_DanielRadcliffe.png', 'Im_MattDamon.png', 'Im_ElijahWood.png', 'Im_LeonardoDiCaprio.png', 'Im_DanielCraig.png', 'Im_RobertPattinson.png', 'Im_RyanGosling.png', 'Im_BradPitt.png', 'Im_PatrickDempsey.png'],same,0,0.41675230000328156,9,97.61904761904762,
FRCH1902,6,inv,fs,posfs_id3_im6.bmp_posfs_id3_im17.bmp,['Im_GeorgeClooney.png', 'Im_DanielRadcliffe.png', 'Im_MattDamon.png', 'Im_ElijahWood.png', 'Im_LeonardoDiCaprio.png', 'Im_DanielCraig.png', 'Im_RobertPattinson.png', 'Im_RyanGosling.png', 'Im_BradPitt.png', 'Im_PatrickDempsey.png'],same,1,0.42499820000011823,10,97.61904761904762,
FRCH1902,6,inv,60,pos60_id3_im8.bmp_pos60_id13_im29.bmp,['Im_GeorgeClooney.png', 'Im_DanielRadcliffe.png', 'Im_MattDamon.png', 'Im_ElijahWood.png', 'Im_LeonardoDiCaprio.png', 'Im_DanielCraig.png', 'Im_RobertPattinson.png', 'Im_RyanGosling.png', 'Im_BradPitt.png', 'Im_PatrickDempsey.png'],diff,1,0.5749107000010554,11,97.61904761904762,
FRCH1902,6,inv,fs,posfs_id4_im15.bmp_posfs_id4_im7.bmp,['Im_GeorgeClooney.png', 'Im_DanielRadcliffe.png', 'Im_MattDamon.png', 'Im_ElijahWood.png', 'Im_LeonardoDiCaprio.png', 'Im_DanielCraig.png', 'Im_RobertPattinson.png', 'Im_RyanGosling.png', 'Im_BradPitt.png', 'Im_PatrickDempsey.png'],same,1,0.40842239999983576,12,97.61904761904762,
FRCH1902,6,inv,90,pos90_id5_im1.bmp_pos90_id5_im20.bmp,['Im_GeorgeClooney.png', 'Im_DanielRadcliffe.png', 'Im_MattDamon.png', 'Im_ElijahWood.png', 'Im_LeonardoDiCaprio.png', 'Im_DanielCraig.png', 'Im_RobertPattinson.png', 'Im_RyanGosling.png', 'Im_BradPitt.png', 'Im_PatrickDempsey.png'],same,1,0.4085540000014589,13,97.61904761904762,
FRCH1902,7,pos,120,pos120_id13_im10.bmp_pos120_id6_im12.bmp,['Im_GeorgeClooney.png', 'Im_DanielRadcliffe.png', 'Im_MattDamon.png', 'Im_ElijahWood.png', 'Im_LeonardoDiCaprio.png', 'Im_DanielCraig.png', 'Im_RobertPattinson.png', 'Im_RyanGosling.png', 'Im_BradPitt.png', 'Im_PatrickDempsey.png'],diff,1,0.41674670000065817,14,97.61904761904762,
FRCH1902,7,pos,fs,posfs_id14_im24.bmp_posfs_id14_im16.bmp,['Im_GeorgeClooney.png', 'Im_DanielRadcliffe.png', 'Im_MattDamon.png', 'Im_ElijahWood.png', 'Im_LeonardoDiCaprio.png', 'Im_DanielCraig.png', 'Im_RobertPattinson.png', 'Im_RyanGosling.png', 'Im_BradPitt.png', 'Im_PatrickDempsey.png'],same,1,0.4083522999972047,15,97.61904761904762,
FRCH1902,7,pos,150,pos150_id7_im26.bmp_pos150_id7_im15.bmp,['Im_GeorgeClooney.png', 'Im_DanielRadcliffe.png', 'Im_MattDamon.png', 'Im_ElijahWood.png', 'Im_LeonardoDiCaprio.png', 'Im_DanielCraig.png', 'Im_RobertPattinson.png', 'Im_RyanGosling.png', 'Im_BradPitt.png', 'Im_PatrickDempsey.png'],same,1,1.275073799999518,16,97.61904761904762,
FRCH1902,7,pos,0,pos0_id7_im14.bmp_pos0_id17_im9.bmp,['Im_GeorgeClooney.png', 'Im_DanielRadcliffe.png', 'Im_MattDamon.png', 'Im_ElijahWood.png', 'Im_LeonardoDiCaprio.png', 'Im_DanielCraig.png', 'Im_RobertPattinson.png', 'Im_RyanGosling.png', 'Im_BradPitt.png', 'Im_PatrickDempsey.png'],diff,1,0.4249286000012944,17,97.61904761904762,
FRCH1902,7,pos,30,pos30_id14_im24.bmp_pos30_id13_im29.bmp,['Im_GeorgeClooney.png', 'Im_DanielRadcliffe.png', 'Im_MattDamon.png', 'Im_ElijahWood.png', 'Im_LeonardoDiCaprio.png', 'Im_DanielCraig.png', 'Im_RobertPattinson.png', 'Im_RyanGosling.png', 'Im_BradPitt.png', 'Im_PatrickDempsey.png'],same,0,0.4167018999978609,17,97.61904761904762,
FRCH1902,7,pos,120,pos120_id14_im16.bmp_pos120_id17_im8.bmp,['Im_GeorgeClooney.png', 'Im_DanielRadcliffe.png', 'Im_MattDamon.png', 'Im_ElijahWood.png', 'Im_LeonardoDiCaprio.png', 'Im_DanielCraig.png', 'Im_RobertPattinson.png', 'Im_RyanGosling.png', 'Im_BradPitt.png', 'Im_PatrickDempsey.png'],diff,1,0.4250257999992755,18,97.61904761904762,
FRCH1902,7,pos,0,pos0_id19_im8.bmp_pos0_id4_im20.bmp,['Im_GeorgeClooney.png', 'Im_DanielRadcliffe.png', 'Im_MattDamon.png', 'Im_ElijahWood.png', 'Im_LeonardoDiCaprio.png', 'Im_DanielCraig.png', 'Im_RobertPattinson.png', 'Im_RyanGosling.png', 'Im_BradPitt.png', 'Im_PatrickDempsey.png'],diff,1,0.40840659999958007,19,97.61904761904762,
FRCH1902,7,pos,60,pos60_id20_im3.bmp_pos60_id7_im26.bmp,['Im_GeorgeClooney.png', 'Im_DanielRadcliffe.png', 'Im_MattDamon.png', 'Im_ElijahWood.png', 'Im_LeonardoDiCaprio.png', 'Im_DanielCraig.png', 'Im_RobertPattinson.png', 'Im_RyanGosling.png', 'Im_BradPitt.png', 'Im_PatrickDempsey.png'],diff,1,0.41676619999998366,20,97.61904761904762,
FRCH1902,7,pos,150,pos150_id4_im20.bmp_pos150_id4_im7.bmp,['Im_GeorgeClooney.png', 'Im_DanielRadcliffe.png', 'Im_MattDamon.png', 'Im_ElijahWood.png', 'Im_LeonardoDiCaprio.png', 'Im_DanielCraig.png', 'Im_RobertPattinson.png', 'Im_RyanGosling.png', 'Im_BradPitt.png', 'Im_PatrickDempsey.png'],same,1,0.4250492999999551,21,97.61904761904762,
FRCH1902,7,pos,fs,posfs_id17_im14.bmp_posfs_id3_im17.bmp,['Im_GeorgeClooney.png', 'Im_DanielRadcliffe.png', 'Im_MattDamon.png', 'Im_ElijahWood.png', 'Im_LeonardoDiCaprio.png', 'Im_DanielCraig.png', 'Im_RobertPattinson.png', 'Im_RyanGosling.png', 'Im_BradPitt.png', 'Im_PatrickDempsey.png'],diff,1,0.4251784000007319,22,97.61904761904762,
FRCH1902,7,pos,90,pos90_id4_im15.bmp_pos90_id4_im7.bmp,['Im_GeorgeClooney.png', 'Im_DanielRadcliffe.png', 'Im_MattDamon.png', 'Im_ElijahWood.png', 'Im_LeonardoDiCaprio.png', 'Im_DanielCraig.png', 'Im_RobertPattinson.png', 'Im_RyanGosling.png', 'Im_BradPitt.png', 'Im_PatrickDempsey.png'],same,1,0.4250698999967426,23,97.61904761904762,
FRCH1902,7,pos,90,pos90_id6_im18.bmp_pos90_id6_im19.bmp,['Im_GeorgeClooney.png', 'Im_DanielRadcliffe.png', 'Im_MattDamon.png', 'Im_ElijahWood.png', 'Im_LeonardoDiCaprio.png', 'Im_DanielCraig.png', 'Im_RobertPattinson.png', 'Im_RyanGosling.png', 'Im_BradPitt.png', 'Im_PatrickDempsey.png'],same,1,0.4168196999999054,24,97.61904761904762,
FRCH1902,7,pos,60,pos60_id3_im6.bmp_pos60_id6_im18.bmp,['Im_GeorgeClooney.png', 'Im_DanielRadcliffe.png', 'Im_MattDamon.png', 'Im_ElijahWood.png', 'Im_LeonardoDiCaprio.png', 'Im_DanielCraig.png', 'Im_RobertPattinson.png', 'Im_RyanGosling.png', 'Im_BradPitt.png', 'Im_PatrickDempsey.png'],diff,1,0.4169856999978947,25,97.61904761904762,
FRCH1902,7,pos,30,pos30_id20_im3.bmp_pos30_id7_im26.bmp,['Im_GeorgeClooney.png', 'Im_DanielRadcliffe.png', 'Im_MattDamon.png', 'Im_ElijahWood.png', 'Im_LeonardoDiCaprio.png', 'Im_DanielCraig.png', 'Im_RobertPattinson.png', 'Im_RyanGosling.png', 'Im_BradPitt.png', 'Im_PatrickDempsey.png'],diff,1,0.42504279999775463,26,97.61904761904762,
FRCH1902,8,neg,30,neg30_id5_im10.bmp_neg30_id3_im8.bmp,['Im_GeorgeClooney.png', 'Im_DanielRadcliffe.png', 'Im_MattDamon.png', 'Im_ElijahWood.png', 'Im_LeonardoDiCaprio.png', 'Im_DanielCraig.png', 'Im_RobertPattinson.png', 'Im_RyanGosling.png', 'Im_BradPitt.png', 'Im_PatrickDempsey.png'],diff,1,0.41670689999955357,27,97.61904761904762,
FRCH1902,8,neg,120,neg120_id20_im12.bmp_neg120_id20_im3.bmp,['Im_GeorgeClooney.png', 'Im_DanielRadcliffe.png', 'Im_MattDamon.png', 'Im_ElijahWood.png', 'Im_LeonardoDiCaprio.png', 'Im_DanielCraig.png', 'Im_RobertPattinson.png', 'Im_RyanGosling.png', 'Im_BradPitt.png', 'Im_PatrickDempsey.png'],same,1,0.42502799999783747,28,97.61904761904762,
FRCH1902,8,neg,90,neg90_id20_im30.bmp_neg90_id14_im16.bmp,['Im_GeorgeClooney.png', 'Im_DanielRadcliffe.png', 'Im_MattDamon.png', 'Im_ElijahWood.png', 'Im_LeonardoDiCaprio.png', 'Im_DanielCraig.png', 'Im_RobertPattinson.png', 'Im_RyanGosling.png', 'Im_BradPitt.png', 'Im_PatrickDempsey.png'],diff,1,0.4167388999994728,29,97.61904761904762,
FRCH1902,8,neg,0,neg0_id4_im20.bmp_neg0_id19_im8.bmp,['Im_GeorgeClooney.png', 'Im_DanielRadcliffe.png', 'Im_MattDamon.png', 'Im_ElijahWood.png', 'Im_LeonardoDiCaprio.png', 'Im_DanielCraig.png', 'Im_RobertPattinson.png', 'Im_RyanGosling.png', 'Im_BradPitt.png', 'Im_PatrickDempsey.png'],diff,1,0.41673530000116443,30,97.61904761904762,
FRCH1902,8,neg,90,neg90_id7_im14.bmp_neg90_id7_im15.bmp,['Im_GeorgeClooney.png', 'Im_DanielRadcliffe.png', 'Im_MattDamon.png', 'Im_ElijahWood.png', 'Im_LeonardoDiCaprio.png', 'Im_DanielCraig.png', 'Im_RobertPattinson.png', 'Im_RyanGosling.png', 'Im_BradPitt.png', 'Im_PatrickDempsey.png'],diff,0,0.4167769000014232,30,97.61904761904762,
FRCH1902,8,neg,150,neg150_id17_im9.bmp_neg150_id17_im14.bmp,['Im_GeorgeClooney.png', 'Im_DanielRadcliffe.png', 'Im_MattDamon.png', 'Im_ElijahWood.png', 'Im_LeonardoDiCaprio.png', 'Im_DanielCraig.png', 'Im_RobertPattinson.png', 'Im_RyanGosling.png', 'Im_BradPitt.png', 'Im_PatrickDempsey.png'],same,1,0.4166590000022552,31,97.61904761904762,
FRCH1902,8,neg,fs,negfs_id19_im27.bmp_negfs_id19_im8.bmp,['Im_GeorgeClooney.png', 'Im_DanielRadcliffe.png', 'Im_MattDamon.png', 'Im_ElijahWood.png', 'Im_LeonardoDiCaprio.png', 'Im_DanielCraig.png', 'Im_RobertPattinson.png', 'Im_RyanGosling.png', 'Im_BradPitt.png', 'Im_PatrickDempsey.png'],same,1,0.41664590000073076,32,97.61904761904762,
FRCH1902,8,neg,120,neg120_id17_im9.bmp_neg120_id20_im30.bmp,['Im_GeorgeClooney.png', 'Im_DanielRadcliffe.png', 'Im_MattDamon.png', 'Im_ElijahWood.png', 'Im_LeonardoDiCaprio.png', 'Im_DanielCraig.png', 'Im_RobertPattinson.png', 'Im_RyanGosling.png', 'Im_BradPitt.png', 'Im_PatrickDempsey.png'],diff,1,0.8751702999979898,33,97.61904761904762,
FRCH1902,8,neg,fs,negfs_id17_im8.bmp_negfs_id17_im9.bmp,['Im_GeorgeClooney.png', 'Im_DanielRadcliffe.png', 'Im_MattDamon.png', 'Im_ElijahWood.png', 'Im_LeonardoDiCaprio.png', 'Im_DanielCraig.png', 'Im_RobertPattinson.png', 'Im_RyanGosling.png', 'Im_BradPitt.png', 'Im_PatrickDempsey.png'],same,1,0.4250910000009753,34,97.61904761904762,
FRCH1902,8,neg,0,neg0_id4_im15.bmp_neg0_id4_im7.bmp,['Im_GeorgeClooney.png', 'Im_DanielRadcliffe.png', 'Im_MattDamon.png', 'Im_ElijahWood.png', 'Im_LeonardoDiCaprio.png', 'Im_DanielCraig.png', 'Im_RobertPattinson.png', 'Im_RyanGosling.png', 'Im_BradPitt.png', 'Im_PatrickDempsey.png'],same,1,0.4331354999994801,35,97.61904761904762,
FRCH1902,8,neg,30,neg30_id13_im10.bmp_neg30_id13_im29.bmp,['Im_GeorgeClooney.png', 'Im_DanielRadcliffe.png', 'Im_MattDamon.png', 'Im_ElijahWood.png', 'Im_LeonardoDiCaprio.png', 'Im_DanielCraig.png', 'Im_RobertPattinson.png', 'Im_RyanGosling.png', 'Im_BradPitt.png', 'Im_PatrickDempsey.png'],diff,0,1.0751901999974507,35,97.61904761904762,
FRCH1902,8,neg,60,neg60_id13_im10.bmp_neg60_id4_im15.bmp,['Im_GeorgeClooney.png', 'Im_DanielRadcliffe.png', 'Im_MattDamon.png', 'Im_ElijahWood.png', 'Im_LeonardoDiCaprio.png', 'Im_DanielCraig.png', 'Im_RobertPattinson.png', 'Im_RyanGosling.png', 'Im_BradPitt.png', 'Im_PatrickDempsey.png'],diff,1,0.7252713000016229,36,97.61904761904762,
FRCH1902,8,neg,150,neg150_id14_im18.bmp_neg150_id19_im27.bmp,['Im_GeorgeClooney.png', 'Im_DanielRadcliffe.png', 'Im_MattDamon.png', 'Im_ElijahWood.png', 'Im_LeonardoDiCaprio.png', 'Im_DanielCraig.png', 'Im_RobertPattinson.png', 'Im_RyanGosling.png', 'Im_BradPitt.png', 'Im_PatrickDempsey.png'],diff,1,0.4580978000012692,37,97.61904761904762,
FRCH1902,8,neg,60,neg60_id19_im27.bmp_neg60_id14_im18.bmp,['Im_GeorgeClooney.png', 'Im_DanielRadcliffe.png', 'Im_MattDamon.png', 'Im_ElijahWood.png', 'Im_LeonardoDiCaprio.png', 'Im_DanielCraig.png', 'Im_RobertPattinson.png', 'Im_RyanGosling.png', 'Im_BradPitt.png', 'Im_PatrickDempsey.png'],diff,1,0.41686920000211103,38,97.61904761904762,
FRCH1902,9,inv,150,pos150_id6_im19.bmp_pos150_id17_im14.bmp,['Im_GeorgeClooney.png', 'Im_DanielRadcliffe.png', 'Im_MattDamon.png', 'Im_ElijahWood.png', 'Im_LeonardoDiCaprio.png', 'Im_DanielCraig.png', 'Im_RobertPattinson.png', 'Im_RyanGosling.png', 'Im_BradPitt.png', 'Im_PatrickDempsey.png'],diff,1,0.4167379999998957,1,90.47619047619048,
FRCH1902,9,inv,60,pos60_id13_im29.bmp_pos60_id13_im15.bmp,['Im_GeorgeClooney.png', 'Im_DanielRadcliffe.png', 'Im_MattDamon.png', 'Im_ElijahWood.png', 'Im_LeonardoDiCaprio.png', 'Im_DanielCraig.png', 'Im_RobertPattinson.png', 'Im_RyanGosling.png', 'Im_BradPitt.png', 'Im_PatrickDempsey.png'],same,1,0.4169432000016968,2,90.47619047619048,
FRCH1902,9,inv,fs,posfs_id3_im17.bmp_posfs_id7_im15.bmp,['Im_GeorgeClooney.png', 'Im_DanielRadcliffe.png', 'Im_MattDamon.png', 'Im_ElijahWood.png', 'Im_LeonardoDiCaprio.png', 'Im_DanielCraig.png', 'Im_RobertPattinson.png', 'Im_RyanGosling.png', 'Im_BradPitt.png', 'Im_PatrickDempsey.png'],diff,1,0.5668250999988231,3,90.47619047619048,
FRCH1902,9,inv,150,pos150_id14_im18.bmp_pos150_id14_im24.bmp,['Im_GeorgeClooney.png', 'Im_DanielRadcliffe.png', 'Im_MattDamon.png', 'Im_ElijahWood.png', 'Im_LeonardoDiCaprio.png', 'Im_DanielCraig.png', 'Im_RobertPattinson.png', 'Im_RyanGosling.png', 'Im_BradPitt.png', 'Im_PatrickDempsey.png'],same,1,0.5502754000008281,4,90.47619047619048,
FRCH1902,9,inv,fs,posfs_id7_im14.bmp_posfs_id7_im26.bmp,['Im_GeorgeClooney.png', 'Im_DanielRadcliffe.png', 'Im_MattDamon.png', 'Im_ElijahWood.png', 'Im_LeonardoDiCaprio.png', 'Im_DanielCraig.png', 'Im_RobertPattinson.png', 'Im_RyanGosling.png', 'Im_BradPitt.png', 'Im_PatrickDempsey.png'],same,1,0.41731549999894924,5,90.47619047619048,
FRCH1902,9,inv,120,pos120_id17_im9.bmp_pos120_id17_im14.bmp,['Im_GeorgeClooney.png', 'Im_DanielRadcliffe.png', 'Im_MattDamon.png', 'Im_ElijahWood.png', 'Im_LeonardoDiCaprio.png', 'Im_DanielCraig.png', 'Im_RobertPattinson.png', 'Im_RyanGosling.png', 'Im_BradPitt.png', 'Im_PatrickDempsey.png'],same,1,0.42504099999860046,6,90.47619047619048,
FRCH1902,9,inv,0,pos0_id13_im10.bmp_pos0_id4_im15.bmp,['Im_GeorgeClooney.png', 'Im_DanielRadcliffe.png', 'Im_MattDamon.png', 'Im_ElijahWood.png', 'Im_LeonardoDiCaprio.png', 'Im_DanielCraig.png', 'Im_RobertPattinson.png', 'Im_RyanGosling.png', 'Im_BradPitt.png', 'Im_PatrickDempsey.png'],diff,1,0.4084865000004356,7,90.47619047619048,
FRCH1902,9,inv,90,pos90_id20_im30.bmp_pos90_id17_im9.bmp,['Im_GeorgeClooney.png', 'Im_DanielRadcliffe.png', 'Im_MattDamon.png', 'Im_ElijahWood.png', 'Im_LeonardoDiCaprio.png', 'Im_DanielCraig.png', 'Im_RobertPattinson.png', 'Im_RyanGosling.png', 'Im_BradPitt.png', 'Im_PatrickDempsey.png'],diff,1,0.8166925000004994,8,90.47619047619048,
FRCH1902,9,inv,90,pos90_id20_im30.bmp_pos90_id20_im12.bmp,['Im_GeorgeClooney.png', 'Im_DanielRadcliffe.png', 'Im_MattDamon.png', 'Im_ElijahWood.png', 'Im_LeonardoDiCaprio.png', 'Im_DanielCraig.png', 'Im_RobertPattinson.png', 'Im_RyanGosling.png', 'Im_BradPitt.png', 'Im_PatrickDempsey.png'],same,1,0.4251149000010628,9,90.47619047619048,
FRCH1902,9,inv,60,pos60_id20_im3.bmp_pos60_id7_im26.bmp,['Im_GeorgeClooney.png', 'Im_DanielRadcliffe.png', 'Im_MattDamon.png', 'Im_ElijahWood.png', 'Im_LeonardoDiCaprio.png', 'Im_DanielCraig.png', 'Im_RobertPattinson.png', 'Im_RyanGosling.png', 'Im_BradPitt.png', 'Im_PatrickDempsey.png'],same,0,0.42504679999910877,9,90.47619047619048,
FRCH1902,9,inv,30,pos30_id6_im18.bmp_pos30_id6_im19.bmp,['Im_GeorgeClooney.png', 'Im_DanielRadcliffe.png', 'Im_MattDamon.png', 'Im_ElijahWood.png', 'Im_LeonardoDiCaprio.png', 'Im_DanielCraig.png', 'Im_RobertPattinson.png', 'Im_RyanGosling.png', 'Im_BradPitt.png', 'Im_PatrickDempsey.png'],same,1,0.42503429999851505,10,90.47619047619048,
FRCH1902,9,inv,30,pos30_id3_im17.bmp_pos30_id3_im6.bmp,['Im_GeorgeClooney.png', 'Im_DanielRadcliffe.png', 'Im_MattDamon.png', 'Im_ElijahWood.png', 'Im_LeonardoDiCaprio.png', 'Im_DanielCraig.png', 'Im_RobertPattinson.png', 'Im_RyanGosling.png', 'Im_BradPitt.png', 'Im_PatrickDempsey.png'],same,1,0.4166810999995505,11,90.47619047619048,
FRCH1902,9,inv,0,pos0_id4_im15.bmp_pos0_id14_im24.bmp,['Im_GeorgeClooney.png', 'Im_DanielRadcliffe.png', 'Im_MattDamon.png', 'Im_ElijahWood.png', 'Im_LeonardoDiCaprio.png', 'Im_DanielCraig.png', 'Im_RobertPattinson.png', 'Im_RyanGosling.png', 'Im_BradPitt.png', 'Im_PatrickDempsey.png'],diff,1,0.41676340000049095,12,90.47619047619048,
FRCH1902,9,inv,120,pos120_id4_im7.bmp_pos120_id4_im20.bmp,['Im_GeorgeClooney.png', 'Im_DanielRadcliffe.png', 'Im_MattDamon.png', 'Im_ElijahWood.png', 'Im_LeonardoDiCaprio.png', 'Im_DanielCraig.png', 'Im_RobertPattinson.png', 'Im_RyanGosling.png', 'Im_BradPitt.png', 'Im_PatrickDempsey.png'],same,1,0.45007690000056755,13,90.47619047619048,
FRCH1902,10,pos,0,pos0_id4_im20.bmp_pos0_id4_im7.bmp,['Im_GeorgeClooney.png', 'Im_DanielRadcliffe.png', 'Im_MattDamon.png', 'Im_ElijahWood.png', 'Im_LeonardoDiCaprio.png', 'Im_DanielCraig.png', 'Im_RobertPattinson.png', 'Im_RyanGosling.png', 'Im_BradPitt.png', 'Im_PatrickDempsey.png'],same,1,0.43350719999943976,14,90.47619047619048,
FRCH1902,10,pos,0,pos0_id4_im7.bmp_pos0_id4_im15.bmp,['Im_GeorgeClooney.png', 'Im_DanielRadcliffe.png', 'Im_MattDamon.png', 'Im_ElijahWood.png', 'Im_LeonardoDiCaprio.png', 'Im_DanielCraig.png', 'Im_RobertPattinson.png', 'Im_RyanGosling.png', 'Im_BradPitt.png', 'Im_PatrickDempsey.png'],same,1,0.9585942000012437,15,90.47619047619048,
FRCH1902,10,pos,60,pos60_id13_im29.bmp_pos60_id14_im24.bmp,['Im_GeorgeClooney.png', 'Im_DanielRadcliffe.png', 'Im_MattDamon.png', 'Im_ElijahWood.png', 'Im_LeonardoDiCaprio.png', 'Im_DanielCraig.png', 'Im_RobertPattinson.png', 'Im_RyanGosling.png', 'Im_BradPitt.png', 'Im_PatrickDempsey.png'],diff,1,0.4500539000000572,16,90.47619047619048,
FRCH1902,10,pos,120,pos120_id19_im27.bmp_pos120_id19_im4.bmp,['Im_GeorgeClooney.png', 'Im_DanielRadcliffe.png', 'Im_MattDamon.png', 'Im_ElijahWood.png', 'Im_LeonardoDiCaprio.png', 'Im_DanielCraig.png', 'Im_RobertPattinson.png', 'Im_RyanGosling.png', 'Im_BradPitt.png', 'Im_PatrickDempsey.png'],same,1,0.43333350000102655,17,90.47619047619048,
FRCH1902,10,pos,150,pos150_id19_im4.bmp_pos150_id13_im15.bmp,['Im_GeorgeClooney.png', 'Im_DanielRadcliffe.png', 'Im_MattDamon.png', 'Im_ElijahWood.png', 'Im_LeonardoDiCaprio.png', 'Im_DanielCraig.png', 'Im_RobertPattinson.png', 'Im_RyanGosling.png', 'Im_BradPitt.png', 'Im_PatrickDempsey.png'],diff,1,0.4167353999982879,18,90.47619047619048,
FRCH1902,10,pos,120,pos120_id7_im15.bmp_pos120_id20_im3.bmp,['Im_GeorgeClooney.png', 'Im_DanielRadcliffe.png', 'Im_MattDamon.png', 'Im_ElijahWood.png', 'Im_LeonardoDiCaprio.png', 'Im_DanielCraig.png', 'Im_RobertPattinson.png', 'Im_RyanGosling.png', 'Im_BradPitt.png', 'Im_PatrickDempsey.png'],diff,1,0.4166808999980276,19,90.47619047619048,
FRCH1902,10,pos,30,pos30_id13_im10.bmp_pos30_id13_im29.bmp,['Im_GeorgeClooney.png', 'Im_DanielRadcliffe.png', 'Im_MattDamon.png', 'Im_ElijahWood.png', 'Im_LeonardoDiCaprio.png', 'Im_DanielCraig.png', 'Im_RobertPattinson.png', 'Im_RyanGosling.png', 'Im_BradPitt.png', 'Im_PatrickDempsey.png'],same,1,0.41702209999857587,20,90.47619047619048,
FRCH1902,10,pos,30,pos30_id7_im15.bmp_pos30_id3_im17.bmp,['Im_GeorgeClooney.png', 'Im_DanielRadcliffe.png', 'Im_MattDamon.png', 'Im_ElijahWood.png', 'Im_LeonardoDiCaprio.png', 'Im_DanielCraig.png', 'Im_RobertPattinson.png', 'Im_RyanGosling.png', 'Im_BradPitt.png', 'Im_PatrickDempsey.png'],diff,1,0.4168127999982971,21,90.47619047619048,
FRCH1902,10,pos,90,pos90_id19_im8.bmp_pos90_id19_im4.bmp,['Im_GeorgeClooney.png', 'Im_DanielRadcliffe.png', 'Im_MattDamon.png', 'Im_ElijahWood.png', 'Im_LeonardoDiCaprio.png', 'Im_DanielCraig.png', 'Im_RobertPattinson.png', 'Im_RyanGosling.png', 'Im_BradPitt.png', 'Im_PatrickDempsey.png'],same,1,0.4249290000007022,22,90.47619047619048,
FRCH1902,10,pos,fs,posfs_id19_im8.bmp_posfs_id19_im4.bmp,['Im_GeorgeClooney.png', 'Im_DanielRadcliffe.png', 'Im_MattDamon.png', 'Im_ElijahWood.png', 'Im_LeonardoDiCaprio.png', 'Im_DanielCraig.png', 'Im_RobertPattinson.png', 'Im_RyanGosling.png', 'Im_BradPitt.png', 'Im_PatrickDempsey.png'],same,1,0.42472689999704016,23,90.47619047619048,
FRCH1902,10,pos,fs,posfs_id13_im10.bmp_posfs_id6_im12.bmp,['Im_GeorgeClooney.png', 'Im_DanielRadcliffe.png', 'Im_MattDamon.png', 'Im_ElijahWood.png', 'Im_LeonardoDiCaprio.png', 'Im_DanielCraig.png', 'Im_RobertPattinson.png', 'Im_RyanGosling.png', 'Im_BradPitt.png', 'Im_PatrickDempsey.png'],diff,1,0.4169135999982245,24,90.47619047619048,
FRCH1902,10,pos,150,pos150_id13_im15.bmp_pos150_id13_im29.bmp,['Im_GeorgeClooney.png', 'Im_DanielRadcliffe.png', 'Im_MattDamon.png', 'Im_ElijahWood.png', 'Im_LeonardoDiCaprio.png', 'Im_DanielCraig.png', 'Im_RobertPattinson.png', 'Im_RyanGosling.png', 'Im_BradPitt.png', 'Im_PatrickDempsey.png'],same,1,0.574943899999198,25,90.47619047619048,
FRCH1902,10,pos,90,pos90_id20_im3.bmp_pos90_id20_im12.bmp,['Im_GeorgeClooney.png', 'Im_DanielRadcliffe.png', 'Im_MattDamon.png', 'Im_ElijahWood.png', 'Im_LeonardoDiCaprio.png', 'Im_DanielCraig.png', 'Im_RobertPattinson.png', 'Im_RyanGosling.png', 'Im_BradPitt.png', 'Im_PatrickDempsey.png'],same,1,0.4249058999994304,26,90.47619047619048,
FRCH1902,10,pos,60,pos60_id3_im17.bmp_pos60_id7_im15.bmp,['Im_GeorgeClooney.png', 'Im_DanielRadcliffe.png', 'Im_MattDamon.png', 'Im_ElijahWood.png', 'Im_LeonardoDiCaprio.png', 'Im_DanielCraig.png', 'Im_RobertPattinson.png', 'Im_RyanGosling.png', 'Im_BradPitt.png', 'Im_PatrickDempsey.png'],diff,1,0.8418772000004537,27,90.47619047619048,
FRCH1902,11,neg,fs,negfs_id6_im19.bmp_negfs_id6_im18.bmp,['Im_GeorgeClooney.png', 'Im_DanielRadcliffe.png', 'Im_MattDamon.png', 'Im_ElijahWood.png', 'Im_LeonardoDiCaprio.png', 'Im_DanielCraig.png', 'Im_RobertPattinson.png', 'Im_RyanGosling.png', 'Im_BradPitt.png', 'Im_PatrickDempsey.png'],same,1,0.41668550000031246,28,90.47619047619048,
FRCH1902,11,neg,60,neg60_id4_im20.bmp_neg60_id19_im8.bmp,['Im_GeorgeClooney.png', 'Im_DanielRadcliffe.png', 'Im_MattDamon.png', 'Im_ElijahWood.png', 'Im_LeonardoDiCaprio.png', 'Im_DanielCraig.png', 'Im_RobertPattinson.png', 'Im_RyanGosling.png', 'Im_BradPitt.png', 'Im_PatrickDempsey.png'],diff,1,0.42485319999832427,29,90.47619047619048,
FRCH1902,11,neg,90,neg90_id17_im8.bmp_neg90_id6_im18.bmp,['Im_GeorgeClooney.png', 'Im_DanielRadcliffe.png', 'Im_MattDamon.png', 'Im_ElijahWood.png', 'Im_LeonardoDiCaprio.png', 'Im_DanielCraig.png', 'Im_RobertPattinson.png', 'Im_RyanGosling.png', 'Im_BradPitt.png', 'Im_PatrickDempsey.png'],same,0,0.4249766999964777,29,90.47619047619048,
FRCH1902,11,neg,60,neg60_id20_im12.bmp_neg60_id20_im3.bmp,['Im_GeorgeClooney.png', 'Im_DanielRadcliffe.png', 'Im_MattDamon.png', 'Im_ElijahWood.png', 'Im_LeonardoDiCaprio.png', 'Im_DanielCraig.png', 'Im_RobertPattinson.png', 'Im_RyanGosling.png', 'Im_BradPitt.png', 'Im_PatrickDempsey.png'],same,1,0.43367460000081337,30,90.47619047619048,
FRCH1902,11,neg,150,neg150_id20_im12.bmp_neg150_id14_im18.bmp,['Im_GeorgeClooney.png', 'Im_DanielRadcliffe.png', 'Im_MattDamon.png', 'Im_ElijahWood.png', 'Im_LeonardoDiCaprio.png', 'Im_DanielCraig.png', 'Im_RobertPattinson.png', 'Im_RyanGosling.png', 'Im_BradPitt.png', 'Im_PatrickDempsey.png'],diff,1,0.41674549999879673,31,90.47619047619048,
FRCH1902,11,neg,0,neg0_id20_im30.bmp_neg0_id14_im16.bmp,['Im_GeorgeClooney.png', 'Im_DanielRadcliffe.png', 'Im_MattDamon.png', 'Im_ElijahWood.png', 'Im_LeonardoDiCaprio.png', 'Im_DanielCraig.png', 'Im_RobertPattinson.png', 'Im_RyanGosling.png', 'Im_BradPitt.png', 'Im_PatrickDempsey.png'],diff,1,0.4334238000010373,32,90.47619047619048,
FRCH1902,11,neg,30,neg30_id7_im26.bmp_neg30_id20_im3.bmp,['Im_GeorgeClooney.png', 'Im_DanielRadcliffe.png', 'Im_MattDamon.png', 'Im_ElijahWood.png', 'Im_LeonardoDiCaprio.png', 'Im_DanielCraig.png', 'Im_RobertPattinson.png', 'Im_RyanGosling.png', 'Im_BradPitt.png', 'Im_PatrickDempsey.png'],diff,1,0.433419099997991,33,90.47619047619048,
FRCH1902,11,neg,30,neg30_id6_im12.bmp_neg30_id5_im1.bmp,['Im_GeorgeClooney.png', 'Im_DanielRadcliffe.png', 'Im_MattDamon.png', 'Im_ElijahWood.png', 'Im_LeonardoDiCaprio.png', 'Im_DanielCraig.png', 'Im_RobertPattinson.png', 'Im_RyanGosling.png', 'Im_BradPitt.png', 'Im_PatrickDempsey.png'],same,0,0.4251714999991236,33,90.47619047619048,
FRCH1902,11,neg,120,neg120_id20_im30.bmp_neg120_id20_im3.bmp,['Im_GeorgeClooney.png', 'Im_DanielRadcliffe.png', 'Im_MattDamon.png', 'Im_ElijahWood.png', 'Im_LeonardoDiCaprio.png', 'Im_DanielCraig.png', 'Im_RobertPattinson.png', 'Im_RyanGosling.png', 'Im_BradPitt.png', 'Im_PatrickDempsey.png'],same,1,0.4251607999976841,34,90.47619047619048,
FRCH1902,11,neg,150,neg150_id20_im3.bmp_neg150_id20_im30.bmp,['Im_GeorgeClooney.png', 'Im_DanielRadcliffe.png', 'Im_MattDamon.png', 'Im_ElijahWood.png', 'Im_LeonardoDiCaprio.png', 'Im_DanielCraig.png', 'Im_RobertPattinson.png', 'Im_RyanGosling.png', 'Im_BradPitt.png', 'Im_PatrickDempsey.png'],same,1,0.5170634999994945,35,90.47619047619048,
FRCH1902,11,neg,0,neg0_id13_im29.bmp_neg0_id3_im8.bmp,['Im_GeorgeClooney.png', 'Im_DanielRadcliffe.png', 'Im_MattDamon.png', 'Im_ElijahWood.png', 'Im_LeonardoDiCaprio.png', 'Im_DanielCraig.png', 'Im_RobertPattinson.png', 'Im_RyanGosling.png', 'Im_BradPitt.png', 'Im_PatrickDempsey.png'],diff,1,0.4164769000017259,36,90.47619047619048,
FRCH1902,11,neg,90,neg90_id14_im24.bmp_neg90_id4_im15.bmp,['Im_GeorgeClooney.png', 'Im_DanielRadcliffe.png', 'Im_MattDamon.png', 'Im_ElijahWood.png', 'Im_LeonardoDiCaprio.png', 'Im_DanielCraig.png', 'Im_RobertPattinson.png', 'Im_RyanGosling.png', 'Im_BradPitt.png', 'Im_PatrickDempsey.png'],diff,1,0.5335635999981605,37,90.47619047619048,
FRCH1902,11,neg,fs,negfs_id4_im20.bmp_negfs_id4_im7.bmp,['Im_GeorgeClooney.png', 'Im_DanielRadcliffe.png', 'Im_MattDamon.png', 'Im_ElijahWood.png', 'Im_LeonardoDiCaprio.png', 'Im_DanielCraig.png', 'Im_RobertPattinson.png', 'Im_RyanGosling.png', 'Im_BradPitt.png', 'Im_PatrickDempsey.png'],same,1,0.416769799998292,38,90.47619047619048,
FRCH1902,11,neg,120,neg120_id6_im12.bmp_neg120_id6_im19.bmp,['Im_GeorgeClooney.png', 'Im_DanielRadcliffe.png', 'Im_MattDamon.png', 'Im_ElijahWood.png', 'Im_LeonardoDiCaprio.png', 'Im_DanielCraig.png', 'Im_RobertPattinson.png', 'Im_RyanGosling.png', 'Im_BradPitt.png', 'Im_PatrickDempsey.png'],same,1,0.41697329999806243,39,90.47619047619048,
FRCH1902,12,inv,0,pos0_id17_im9.bmp_pos0_id7_im14.bmp,['Im_GeorgeClooney.png', 'Im_DanielRadcliffe.png', 'Im_MattDamon.png', 'Im_ElijahWood.png', 'Im_LeonardoDiCaprio.png', 'Im_DanielCraig.png', 'Im_RobertPattinson.png', 'Im_RyanGosling.png', 'Im_BradPitt.png', 'Im_PatrickDempsey.png'],diff,1,0.4251154999983555,1,92.85714285714286,
FRCH1902,12,inv,30,pos30_id6_im12.bmp_pos30_id6_im19.bmp,['Im_GeorgeClooney.png', 'Im_DanielRadcliffe.png', 'Im_MattDamon.png', 'Im_ElijahWood.png', 'Im_LeonardoDiCaprio.png', 'Im_DanielCraig.png', 'Im_RobertPattinson.png', 'Im_RyanGosling.png', 'Im_BradPitt.png', 'Im_PatrickDempsey.png'],same,1,0.43356849999690894,2,92.85714285714286,
FRCH1902,12,inv,120,pos120_id13_im15.bmp_pos120_id19_im4.bmp,['Im_GeorgeClooney.png', 'Im_DanielRadcliffe.png', 'Im_MattDamon.png', 'Im_ElijahWood.png', 'Im_LeonardoDiCaprio.png', 'Im_DanielCraig.png', 'Im_RobertPattinson.png', 'Im_RyanGosling.png', 'Im_BradPitt.png', 'Im_PatrickDempsey.png'],diff,1,0.416734099999303,3,92.85714285714286,
FRCH1902,12,inv,90,pos90_id13_im29.bmp_pos90_id13_im15.bmp,['Im_GeorgeClooney.png', 'Im_DanielRadcliffe.png', 'Im_MattDamon.png', 'Im_ElijahWood.png', 'Im_LeonardoDiCaprio.png', 'Im_DanielCraig.png', 'Im_RobertPattinson.png', 'Im_RyanGosling.png', 'Im_BradPitt.png', 'Im_PatrickDempsey.png'],same,1,0.4168086999998195,4,92.85714285714286,
FRCH1902,12,inv,30,pos30_id4_im7.bmp_pos30_id7_im26.bmp,['Im_GeorgeClooney.png', 'Im_DanielRadcliffe.png', 'Im_MattDamon.png', 'Im_ElijahWood.png', 'Im_LeonardoDiCaprio.png', 'Im_DanielCraig.png', 'Im_RobertPattinson.png', 'Im_RyanGosling.png', 'Im_BradPitt.png', 'Im_PatrickDempsey.png'],diff,1,0.41667409999718075,5,92.85714285714286,
FRCH1902,12,inv,60,pos60_id17_im8.bmp_pos60_id14_im16.bmp,['Im_GeorgeClooney.png', 'Im_DanielRadcliffe.png', 'Im_MattDamon.png', 'Im_ElijahWood.png', 'Im_LeonardoDiCaprio.png', 'Im_DanielCraig.png', 'Im_RobertPattinson.png', 'Im_RyanGosling.png', 'Im_BradPitt.png', 'Im_PatrickDempsey.png'],diff,1,0.41682419999779086,6,92.85714285714286,
FRCH1902,12,inv,0,pos0_id19_im27.bmp_pos0_id19_im8.bmp,['Im_GeorgeClooney.png', 'Im_DanielRadcliffe.png', 'Im_MattDamon.png', 'Im_ElijahWood.png', 'Im_LeonardoDiCaprio.png', 'Im_DanielCraig.png', 'Im_RobertPattinson.png', 'Im_RyanGosling.png', 'Im_BradPitt.png', 'Im_PatrickDempsey.png'],same,1,0.42503880000003846,7,92.85714285714286,
FRCH1902,12,inv,fs,posfs_id13_im29.bmp_posfs_id13_im15.bmp,['Im_GeorgeClooney.png', 'Im_DanielRadcliffe.png', 'Im_MattDamon.png', 'Im_ElijahWood.png', 'Im_LeonardoDiCaprio.png', 'Im_DanielCraig.png', 'Im_RobertPattinson.png', 'Im_RyanGosling.png', 'Im_BradPitt.png', 'Im_PatrickDempsey.png'],diff,0,1.1500453999979072,7,92.85714285714286,
FRCH1902,12,inv,120,pos120_id13_im10.bmp_pos120_id13_im15.bmp,['Im_GeorgeClooney.png', 'Im_DanielRadcliffe.png', 'Im_MattDamon.png', 'Im_ElijahWood.png', 'Im_LeonardoDiCaprio.png', 'Im_DanielCraig.png', 'Im_RobertPattinson.png', 'Im_RyanGosling.png', 'Im_BradPitt.png', 'Im_PatrickDempsey.png'],same,1,0.533670599998004,8,92.85714285714286,
FRCH1902,12,inv,90,pos90_id6_im19.bmp_pos90_id3_im6.bmp,['Im_GeorgeClooney.png', 'Im_DanielRadcliffe.png', 'Im_MattDamon.png', 'Im_ElijahWood.png', 'Im_LeonardoDiCaprio.png', 'Im_DanielCraig.png', 'Im_RobertPattinson.png', 'Im_RyanGosling.png', 'Im_BradPitt.png', 'Im_PatrickDempsey.png'],diff,1,0.4166810999995505,9,92.85714285714286,
FRCH1902,12,inv,150,pos150_id13_im10.bmp_pos150_id4_im15.bmp,['Im_GeorgeClooney.png', 'Im_DanielRadcliffe.png', 'Im_MattDamon.png', 'Im_ElijahWood.png', 'Im_LeonardoDiCaprio.png', 'Im_DanielCraig.png', 'Im_RobertPattinson.png', 'Im_RyanGosling.png', 'Im_BradPitt.png', 'Im_PatrickDempsey.png'],diff,1,0.41674150000108057,10,92.85714285714286,
FRCH1902,12,inv,60,pos60_id14_im16.bmp_pos60_id20_im30.bmp,['Im_GeorgeClooney.png', 'Im_DanielRadcliffe.png', 'Im_MattDamon.png', 'Im_ElijahWood.png', 'Im_LeonardoDiCaprio.png', 'Im_DanielCraig.png', 'Im_RobertPattinson.png', 'Im_RyanGosling.png', 'Im_BradPitt.png', 'Im_PatrickDempsey.png'],diff,1,0.41677220000201487,11,92.85714285714286,
FRCH1902,12,inv,150,pos150_id5_im1.bmp_pos150_id5_im10.bmp,['Im_GeorgeClooney.png', 'Im_DanielRadcliffe.png', 'Im_MattDamon.png', 'Im_ElijahWood.png', 'Im_LeonardoDiCaprio.png', 'Im_DanielCraig.png', 'Im_RobertPattinson.png', 'Im_RyanGosling.png', 'Im_BradPitt.png', 'Im_PatrickDempsey.png'],same,1,0.417166700000962,12,92.85714285714286,
FRCH1902,12,inv,fs,posfs_id17_im8.bmp_posfs_id17_im14.bmp,['Im_GeorgeClooney.png', 'Im_DanielRadcliffe.png', 'Im_MattDamon.png', 'Im_ElijahWood.png', 'Im_LeonardoDiCaprio.png', 'Im_DanielCraig.png', 'Im_RobertPattinson.png', 'Im_RyanGosling.png', 'Im_BradPitt.png', 'Im_PatrickDempsey.png'],same,1,0.4167885999995633,13,92.85714285714286,
FRCH1902,13,neg,150,neg150_id19_im8.bmp_neg150_id19_im4.bmp,['Im_GeorgeClooney.png', 'Im_DanielRadcliffe.png', 'Im_MattDamon.png', 'Im_ElijahWood.png', 'Im_LeonardoDiCaprio.png', 'Im_DanielCraig.png', 'Im_RobertPattinson.png', 'Im_RyanGosling.png', 'Im_BradPitt.png', 'Im_PatrickDempsey.png'],diff,0,0.6002722000012,13,92.85714285714286,
FRCH1902,13,neg,0,neg0_id4_im20.bmp_neg0_id4_im7.bmp,['Im_GeorgeClooney.png', 'Im_DanielRadcliffe.png', 'Im_MattDamon.png', 'Im_ElijahWood.png', 'Im_LeonardoDiCaprio.png', 'Im_DanielCraig.png', 'Im_RobertPattinson.png', 'Im_RyanGosling.png', 'Im_BradPitt.png', 'Im_PatrickDempsey.png'],same,1,0.41675219999888213,14,92.85714285714286,
FRCH1902,13,neg,90,neg90_id4_im7.bmp_neg90_id4_im15.bmp,['Im_GeorgeClooney.png', 'Im_DanielRadcliffe.png', 'Im_MattDamon.png', 'Im_ElijahWood.png', 'Im_LeonardoDiCaprio.png', 'Im_DanielCraig.png', 'Im_RobertPattinson.png', 'Im_RyanGosling.png', 'Im_BradPitt.png', 'Im_PatrickDempsey.png'],same,1,0.41666000000259373,15,92.85714285714286,
FRCH1902,13,neg,fs,negfs_id14_im16.bmp_negfs_id14_im24.bmp,['Im_GeorgeClooney.png', 'Im_DanielRadcliffe.png', 'Im_MattDamon.png', 'Im_ElijahWood.png', 'Im_LeonardoDiCaprio.png', 'Im_DanielCraig.png', 'Im_RobertPattinson.png', 'Im_RyanGosling.png', 'Im_BradPitt.png', 'Im_PatrickDempsey.png'],same,1,0.5833442999974068,16,92.85714285714286,
FRCH1902,13,neg,fs,negfs_id17_im9.bmp_negfs_id20_im30.bmp,['Im_GeorgeClooney.png', 'Im_DanielRadcliffe.png', 'Im_MattDamon.png', 'Im_ElijahWood.png', 'Im_LeonardoDiCaprio.png', 'Im_DanielCraig.png', 'Im_RobertPattinson.png', 'Im_RyanGosling.png', 'Im_BradPitt.png', 'Im_PatrickDempsey.png'],same,0,0.8250532999991265,16,92.85714285714286,
FRCH1902,13,neg,120,neg120_id13_im10.bmp_neg120_id4_im15.bmp,['Im_GeorgeClooney.png', 'Im_DanielRadcliffe.png', 'Im_MattDamon.png', 'Im_ElijahWood.png', 'Im_LeonardoDiCaprio.png', 'Im_DanielCraig.png', 'Im_RobertPattinson.png', 'Im_RyanGosling.png', 'Im_BradPitt.png', 'Im_PatrickDempsey.png'],diff,1,0.425052799997502,17,92.85714285714286,
FRCH1902,13,neg,150,neg150_id5_im20.bmp_neg150_id19_im8.bmp,['Im_GeorgeClooney.png', 'Im_DanielRadcliffe.png', 'Im_MattDamon.png', 'Im_ElijahWood.png', 'Im_LeonardoDiCaprio.png', 'Im_DanielCraig.png', 'Im_RobertPattinson.png', 'Im_RyanGosling.png', 'Im_BradPitt.png', 'Im_PatrickDempsey.png'],diff,1,0.4083470000005036,18,92.85714285714286,
FRCH1902,13,neg,0,neg0_id7_im14.bmp_neg0_id17_im9.bmp,['Im_GeorgeClooney.png', 'Im_DanielRadcliffe.png', 'Im_MattDamon.png', 'Im_ElijahWood.png', 'Im_LeonardoDiCaprio.png', 'Im_DanielCraig.png', 'Im_RobertPattinson.png', 'Im_RyanGosling.png', 'Im_BradPitt.png', 'Im_PatrickDempsey.png'],diff,1,0.45812519999890355,19,92.85714285714286,
FRCH1902,13,neg,60,neg60_id14_im16.bmp_neg60_id14_im24.bmp,['Im_GeorgeClooney.png', 'Im_DanielRadcliffe.png', 'Im_MattDamon.png', 'Im_ElijahWood.png', 'Im_LeonardoDiCaprio.png', 'Im_DanielCraig.png', 'Im_RobertPattinson.png', 'Im_RyanGosling.png', 'Im_BradPitt.png', 'Im_PatrickDempsey.png'],same,1,0.42504790000020876,20,92.85714285714286,
FRCH1902,13,neg,60,neg60_id5_im20.bmp_neg60_id5_im1.bmp,['Im_GeorgeClooney.png', 'Im_DanielRadcliffe.png', 'Im_MattDamon.png', 'Im_ElijahWood.png', 'Im_LeonardoDiCaprio.png', 'Im_DanielCraig.png', 'Im_RobertPattinson.png', 'Im_RyanGosling.png', 'Im_BradPitt.png', 'Im_PatrickDempsey.png'],same,1,0.550057000000379,21,92.85714285714286,
FRCH1902,13,neg,120,neg120_id13_im10.bmp_neg120_id13_im29.bmp,['Im_GeorgeClooney.png', 'Im_DanielRadcliffe.png', 'Im_MattDamon.png', 'Im_ElijahWood.png', 'Im_LeonardoDiCaprio.png', 'Im_DanielCraig.png', 'Im_RobertPattinson.png', 'Im_RyanGosling.png', 'Im_BradPitt.png', 'Im_PatrickDempsey.png'],same,1,0.6000996999973722,22,92.85714285714286,
FRCH1902,13,neg,90,neg90_id4_im15.bmp_neg90_id4_im20.bmp,['Im_GeorgeClooney.png', 'Im_DanielRadcliffe.png', 'Im_MattDamon.png', 'Im_ElijahWood.png', 'Im_LeonardoDiCaprio.png', 'Im_DanielCraig.png', 'Im_RobertPattinson.png', 'Im_RyanGosling.png', 'Im_BradPitt.png', 'Im_PatrickDempsey.png'],same,1,0.6500562999972317,23,92.85714285714286,
FRCH1902,13,neg,30,neg30_id4_im15.bmp_neg30_id14_im24.bmp,['Im_GeorgeClooney.png', 'Im_DanielRadcliffe.png', 'Im_MattDamon.png', 'Im_ElijahWood.png', 'Im_LeonardoDiCaprio.png', 'Im_DanielCraig.png', 'Im_RobertPattinson.png', 'Im_RyanGosling.png', 'Im_BradPitt.png', 'Im_PatrickDempsey.png'],diff,1,0.6083862999985286,24,92.85714285714286,
FRCH1902,13,neg,30,neg30_id3_im17.bmp_neg30_id3_im8.bmp,['Im_GeorgeClooney.png', 'Im_DanielRadcliffe.png', 'Im_MattDamon.png', 'Im_ElijahWood.png', 'Im_LeonardoDiCaprio.png', 'Im_DanielCraig.png', 'Im_RobertPattinson.png', 'Im_RyanGosling.png', 'Im_BradPitt.png', 'Im_PatrickDempsey.png'],same,1,0.7000661000020045,25,92.85714285714286,
FRCH1902,14,pos,120,pos120_id4_im20.bmp_pos120_id19_im8.bmp,['Im_GeorgeClooney.png', 'Im_DanielRadcliffe.png', 'Im_MattDamon.png', 'Im_ElijahWood.png', 'Im_LeonardoDiCaprio.png', 'Im_DanielCraig.png', 'Im_RobertPattinson.png', 'Im_RyanGosling.png', 'Im_BradPitt.png', 'Im_PatrickDempsey.png'],diff,1,0.41668789999675937,26,92.85714285714286,
FRCH1902,14,pos,90,pos90_id6_im19.bmp_pos90_id3_im6.bmp,['Im_GeorgeClooney.png', 'Im_DanielRadcliffe.png', 'Im_MattDamon.png', 'Im_ElijahWood.png', 'Im_LeonardoDiCaprio.png', 'Im_DanielCraig.png', 'Im_RobertPattinson.png', 'Im_RyanGosling.png', 'Im_BradPitt.png', 'Im_PatrickDempsey.png'],diff,1,0.4167377000012493,27,92.85714285714286,
FRCH1902,14,pos,30,pos30_id20_im12.bmp_pos30_id20_im3.bmp,['Im_GeorgeClooney.png', 'Im_DanielRadcliffe.png', 'Im_MattDamon.png', 'Im_ElijahWood.png', 'Im_LeonardoDiCaprio.png', 'Im_DanielCraig.png', 'Im_RobertPattinson.png', 'Im_RyanGosling.png', 'Im_BradPitt.png', 'Im_PatrickDempsey.png'],same,1,0.425085200000467,28,92.85714285714286,
FRCH1902,14,pos,0,pos0_id3_im6.bmp_pos0_id3_im8.bmp,['Im_GeorgeClooney.png', 'Im_DanielRadcliffe.png', 'Im_MattDamon.png', 'Im_ElijahWood.png', 'Im_LeonardoDiCaprio.png', 'Im_DanielCraig.png', 'Im_RobertPattinson.png', 'Im_RyanGosling.png', 'Im_BradPitt.png', 'Im_PatrickDempsey.png'],same,1,0.41656719999809866,29,92.85714285714286,
FRCH1902,14,pos,60,pos60_id5_im20.bmp_pos60_id19_im8.bmp,['Im_GeorgeClooney.png', 'Im_DanielRadcliffe.png', 'Im_MattDamon.png', 'Im_ElijahWood.png', 'Im_LeonardoDiCaprio.png', 'Im_DanielCraig.png', 'Im_RobertPattinson.png', 'Im_RyanGosling.png', 'Im_BradPitt.png', 'Im_PatrickDempsey.png'],diff,1,0.4167831999984628,30,92.85714285714286,
FRCH1902,14,pos,150,pos150_id14_im24.bmp_pos150_id14_im16.bmp,['Im_GeorgeClooney.png', 'Im_DanielRadcliffe.png', 'Im_MattDamon.png', 'Im_ElijahWood.png', 'Im_LeonardoDiCaprio.png', 'Im_DanielCraig.png', 'Im_RobertPattinson.png', 'Im_RyanGosling.png', 'Im_BradPitt.png', 'Im_PatrickDempsey.png'],same,1,0.4168112999977893,31,92.85714285714286,
FRCH1902,14,pos,fs,posfs_id6_im12.bmp_posfs_id6_im19.bmp,['Im_GeorgeClooney.png', 'Im_DanielRadcliffe.png', 'Im_MattDamon.png', 'Im_ElijahWood.png', 'Im_LeonardoDiCaprio.png', 'Im_DanielCraig.png', 'Im_RobertPattinson.png', 'Im_RyanGosling.png', 'Im_BradPitt.png', 'Im_PatrickDempsey.png'],same,1,0.41669139999794425,32,92.85714285714286,
FRCH1902,14,pos,120,pos120_id3_im17.bmp_pos120_id3_im6.bmp,['Im_GeorgeClooney.png', 'Im_DanielRadcliffe.png', 'Im_MattDamon.png', 'Im_ElijahWood.png', 'Im_LeonardoDiCaprio.png', 'Im_DanielCraig.png', 'Im_RobertPattinson.png', 'Im_RyanGosling.png', 'Im_BradPitt.png', 'Im_PatrickDempsey.png'],same,1,0.40837680000186083,33,92.85714285714286,
FRCH1902,14,pos,150,pos150_id6_im19.bmp_pos150_id6_im12.bmp,['Im_GeorgeClooney.png', 'Im_DanielRadcliffe.png', 'Im_MattDamon.png', 'Im_ElijahWood.png', 'Im_LeonardoDiCaprio.png', 'Im_DanielCraig.png', 'Im_RobertPattinson.png', 'Im_RyanGosling.png', 'Im_BradPitt.png', 'Im_PatrickDempsey.png'],same,1,0.616721400001552,34,92.85714285714286,
FRCH1902,14,pos,0,pos0_id19_im27.bmp_pos0_id14_im18.bmp,['Im_GeorgeClooney.png', 'Im_DanielRadcliffe.png', 'Im_MattDamon.png', 'Im_ElijahWood.png', 'Im_LeonardoDiCaprio.png', 'Im_DanielCraig.png', 'Im_RobertPattinson.png', 'Im_RyanGosling.png', 'Im_BradPitt.png', 'Im_PatrickDempsey.png'],diff,1,0.42510349999793107,35,92.85714285714286,
FRCH1902,14,pos,30,pos30_id7_im14.bmp_pos30_id7_im26.bmp,['Im_GeorgeClooney.png', 'Im_DanielRadcliffe.png', 'Im_MattDamon.png', 'Im_ElijahWood.png', 'Im_LeonardoDiCaprio.png', 'Im_DanielCraig.png', 'Im_RobertPattinson.png', 'Im_RyanGosling.png', 'Im_BradPitt.png', 'Im_PatrickDempsey.png'],same,1,0.4250548999989405,36,92.85714285714286,
FRCH1902,14,pos,fs,posfs_id19_im4.bmp_posfs_id5_im20.bmp,['Im_GeorgeClooney.png', 'Im_DanielRadcliffe.png', 'Im_MattDamon.png', 'Im_ElijahWood.png', 'Im_LeonardoDiCaprio.png', 'Im_DanielCraig.png', 'Im_RobertPattinson.png', 'Im_RyanGosling.png', 'Im_BradPitt.png', 'Im_PatrickDempsey.png'],diff,1,0.4250782999988587,37,92.85714285714286,
FRCH1902,14,pos,90,pos90_id6_im19.bmp_pos90_id6_im12.bmp,['Im_GeorgeClooney.png', 'Im_DanielRadcliffe.png', 'Im_MattDamon.png', 'Im_ElijahWood.png', 'Im_LeonardoDiCaprio.png', 'Im_DanielCraig.png', 'Im_RobertPattinson.png', 'Im_RyanGosling.png', 'Im_BradPitt.png', 'Im_PatrickDempsey.png'],same,1,0.7750062000013713,38,92.85714285714286,
FRCH1902,14,pos,60,pos60_id4_im20.bmp_pos60_id4_im7.bmp,['Im_GeorgeClooney.png', 'Im_DanielRadcliffe.png', 'Im_MattDamon.png', 'Im_ElijahWood.png', 'Im_LeonardoDiCaprio.png', 'Im_DanielCraig.png', 'Im_RobertPattinson.png', 'Im_RyanGosling.png', 'Im_BradPitt.png', 'Im_PatrickDempsey.png'],same,1,0.4166689999983646,39,92.85714285714286,
FRCH1902,15,inv,30,pos30_id7_im14.bmp_pos30_id7_im15.bmp,['Im_GeorgeClooney.png', 'Im_DanielRadcliffe.png', 'Im_MattDamon.png', 'Im_ElijahWood.png', 'Im_LeonardoDiCaprio.png', 'Im_DanielCraig.png', 'Im_RobertPattinson.png', 'Im_RyanGosling.png', 'Im_BradPitt.png', 'Im_PatrickDempsey.png'],diff,0,0.5086513999995077,0,92.85714285714286,
FRCH1902,15,inv,120,pos120_id7_im14.bmp_pos120_id17_im9.bmp,['Im_GeorgeClooney.png', 'Im_DanielRadcliffe.png', 'Im_MattDamon.png', 'Im_ElijahWood.png', 'Im_LeonardoDiCaprio.png', 'Im_DanielCraig.png', 'Im_RobertPattinson.png', 'Im_RyanGosling.png', 'Im_BradPitt.png', 'Im_PatrickDempsey.png'],diff,1,0.4250343999992765,1,92.85714285714286,
FRCH1902,15,inv,30,pos30_id7_im15.bmp_pos30_id7_im26.bmp,['Im_GeorgeClooney.png', 'Im_DanielRadcliffe.png', 'Im_MattDamon.png', 'Im_ElijahWood.png', 'Im_LeonardoDiCaprio.png', 'Im_DanielCraig.png', 'Im_RobertPattinson.png', 'Im_RyanGosling.png', 'Im_BradPitt.png', 'Im_PatrickDempsey.png'],same,1,0.41700289999789675,2,92.85714285714286,
