Sujet,Trial,Condition,Filter,Imname,Actor0,Actor1,Actor2,Actor3,Actor4,Actor5,Actor6,Actor7,Actor8,Actor9,Answer,Accu,RT,Score,Scoreperc, 
FRCH1902,_,posfs_KeanuReeves_im1.bmp,KeanuReeves,LeonardoDiCaprio,LeonardoDiCaprio,BradPitt,JustinTimberlake,RobertPattinson,,,,,1,4.119463600000017,
FRCH1902,_,posfs_RobertPattinson_im8.bmp,RobertPattinson,DanielRadcliffe,DanielRadcliffe,OrlandoBloom,MattDamon,RyanGosling,,,,,posfs_RobertPattinson_im8.bmp,2.4647096999979112,
FRCH1902,_,posfs_HughJackman_im20.bmp,HughJackman,JustinTimberlake,JustinTimberlake,RyanReynolds,DanielCraig,OrlandoBloom,,,,,1,7.668358200000512,
FRCH1902,_,posfs_HughJackman_im18.bmp,HughJackman,LeonardoDiCaprio,LeonardoDiCaprio,BradPitt,RyanGosling,DanielRadcliffe,,,,,4,1.2950302000026568,
FRCH1902,_,posfs_ElijahWood_im18.bmp,ElijahWood,PatrickDempsey,PatrickDempsey,JustinTimberlake,RobertPattinson,RobertDowneyJr,,,,,posfs_ElijahWood_im18.bmp,6.776777000002767,
FRCH1902,_,posfs_RobertPattinson_im4.bmp,RobertPattinson,DanielRadcliffe,DanielRadcliffe,RyanGosling,MattDamon,ElijahWood,,,,,posfs_RobertPattinson_im4.bmp,3.0716958999983035,
FRCH1902,_,posfs_PatrickDempsey_im9.bmp,PatrickDempsey,HughJackman,HughJackman,RobertDowneyJr,KeanuReeves,BenAffleck,,,,,posfs_PatrickDempsey_im9.bmp,3.282651099998475,
FRCH1902,_,posfs_RyanReynolds_im16.bmp,RyanReynolds,OrlandoBloom,OrlandoBloom,RobertPattinson,RyanGosling,LeonardoDiCaprio,,,,,4,1.7809011999997892,
FRCH1902,_,posfs_PatrickDempsey_im14.bmp,PatrickDempsey,KeanuReeves,KeanuReeves,RobertDowneyJr,HughJackman,RyanReynolds,,,,,3,6.9072505999974965,
FRCH1902,_,posfs_RobertPattinson_im30.bmp,RobertPattinson,DanielRadcliffe,DanielRadcliffe,DanielCraig,BenAffleck,JustinTimberlake,,,,,posfs_RobertPattinson_im30.bmp,2.1001310999999987,
FRCH1902,_,posfs_BradPitt_im8.bmp,BradPitt,BenStiller,BenStiller,BenAffleck,OrlandoBloom,RobertPattinson,,,,,posfs_BradPitt_im8.bmp,3.966699900000094,
FRCH1902,_,posfs_PatrickDempsey_im16.bmp,PatrickDempsey,BradPitt,BradPitt,DanielCraig,DanielRadcliffe,LeonardoDiCaprio,,,,,1,4.109269299999141,
FRCH1902,_,posfs_RyanGosling_im30.bmp,RyanGosling,RyanReynolds,RyanReynolds,DanielCraig,PatrickDempsey,RobertPattinson,,,,,0,3.1428384999999253,
FRCH1902,_,posfs_BradPitt_im6.bmp,BradPitt,RyanGosling,RyanGosling,RobertDowneyJr,OrlandoBloom,HughJackman,,,,,posfs_BradPitt_im6.bmp,3.440038100001402,
FRCH1902,_,posfs_BenStiller_im3.bmp,BenStiller,ElijahWood,ElijahWood,JustinTimberlake,BradPitt,RobertDowneyJr,,,,,4,1.1564093999986653,
FRCH1902,_,posfs_KeanuReeves_im2.bmp,KeanuReeves,HughJackman,HughJackman,GeorgeClooney,RobertPattinson,BenStiller,,,,,4,5.075981900001352,
FRCH1902,_,posfs_RyanGosling_im25.bmp,RyanGosling,DanielCraig,DanielCraig,KeanuReeves,BradPitt,MattDamon,,,,,posfs_RyanGosling_im25.bmp,5.823358699999517,
FRCH1902,_,posfs_ElijahWood_im23.bmp,ElijahWood,BenAffleck,BenAffleck,RyanGosling,BenStiller,RobertDowneyJr,,,,,posfs_ElijahWood_im23.bmp,2.1390504999981204,
FRCH1902,_,posfs_OrlandoBloom_im3.bmp,OrlandoBloom,RobertPattinson,RobertPattinson,RyanReynolds,RyanGosling,RobertDowneyJr,,,,,4,1.9236515000011423,
FRCH1902,_,posfs_DanielCraig_im7.bmp,DanielCraig,BenAffleck,BenAffleck,KeanuReeves,PatrickDempsey,DanielRadcliffe,,,,,3,4.964389499997196,
FRCH1902,_,posfs_BenStiller_im7.bmp,BenStiller,LeonardoDiCaprio,LeonardoDiCaprio,RyanGosling,DanielCraig,PatrickDempsey,,,,,4,0.9870449999980337,
FRCH1902,_,posfs_KeanuReeves_im10.bmp,KeanuReeves,MattDamon,MattDamon,OrlandoBloom,PatrickDempsey,LeonardoDiCaprio,,,,,1,5.352987599999324,
FRCH1902,_,posfs_KeanuReeves_im8.bmp,KeanuReeves,BenAffleck,BenAffleck,LeonardoDiCaprio,RyanGosling,GeorgeClooney,,,,,4,1.4090456999983871,
FRCH1902,_,posfs_MattDamon_im9.bmp,MattDamon,BradPitt,BradPitt,HughJackman,DanielCraig,LeonardoDiCaprio,,,,,3,2.8062548999987484,
FRCH1902,_,posfs_DanielRadcliffe_im10.bmp,DanielRadcliffe,LeonardoDiCaprio,LeonardoDiCaprio,KeanuReeves,ElijahWood,MattDamon,,,,,posfs_DanielRadcliffe_im10.bmp,10.115634900001169,
FRCH1902,_,posfs_MattDamon_im18.bmp,MattDamon,DanielCraig,DanielCraig,PatrickDempsey,DanielRadcliffe,ElijahWood,,,,,4,0.836885999997321,
FRCH1902,_,posfs_BenStiller_im16.bmp,BenStiller,KeanuReeves,KeanuReeves,MattDamon,JustinTimberlake,BenAffleck,,,,,3,6.729673599998932,
FRCH1902,_,posfs_RobertPattinson_im27.bmp,RobertPattinson,RyanReynolds,RyanReynolds,OrlandoBloom,MattDamon,KeanuReeves,,,,,posfs_RobertPattinson_im27.bmp,3.722022999998444,
FRCH1902,_,posfs_RyanGosling_im3.bmp,RyanGosling,RobertPattinson,RobertPattinson,PatrickDempsey,DanielCraig,JustinTimberlake,,,,,posfs_RyanGosling_im3.bmp,6.242781200002355,
FRCH1902,_,posfs_RobertDowneyJr_im19.bmp,RobertDowneyJr,DanielRadcliffe,DanielRadcliffe,DanielCraig,PatrickDempsey,BenStiller,,,,,4,0.9109131000004709,
FRCH1902,_,posfs_OrlandoBloom_im19.bmp,OrlandoBloom,ElijahWood,ElijahWood,DanielCraig,PatrickDempsey,LeonardoDiCaprio,,,,,4,0.7921857000001182,
FRCH1902,_,posfs_BenAffleck_im4.bmp,BenAffleck,BenStiller,BenStiller,KeanuReeves,ElijahWood,PatrickDempsey,,,,,4,1.3024146999996447,
FRCH1902,_,posfs_RobertDowneyJr_im18.bmp,RobertDowneyJr,MattDamon,MattDamon,BradPitt,GeorgeClooney,JustinTimberlake,,,,,4,1.5597249999991618,
FRCH1902,_,posfs_OrlandoBloom_im2.bmp,OrlandoBloom,BenAffleck,BenAffleck,RyanGosling,MattDamon,RobertDowneyJr,,,,,2,3.0871894000010798,
FRCH1902,_,posfs_RyanGosling_im12.bmp,RyanGosling,PatrickDempsey,PatrickDempsey,RyanReynolds,BradPitt,DanielCraig,,,,,posfs_RyanGosling_im12.bmp,4.969904699999461,
FRCH1902,_,posfs_ElijahWood_im12.bmp,ElijahWood,DanielRadcliffe,DanielRadcliffe,RobertDowneyJr,GeorgeClooney,BenStiller,,,,,posfs_ElijahWood_im12.bmp,2.5769747000013012,
FRCH1902,_,posfs_JustinTimberlake_im1.bmp,JustinTimberlake,BenAffleck,BenAffleck,ElijahWood,PatrickDempsey,HughJackman,,,,,4,4.8233984999969834,
FRCH1902,_,posfs_HughJackman_im13.bmp,HughJackman,BradPitt,BradPitt,PatrickDempsey,MattDamon,RobertPattinson,,,,,posfs_HughJackman_im13.bmp,3.973029000000679,
FRCH1902,_,posfs_DanielRadcliffe_im20.bmp,DanielRadcliffe,GeorgeClooney,GeorgeClooney,ElijahWood,RobertPattinson,KeanuReeves,,,,,posfs_DanielRadcliffe_im20.bmp,4.1552537999996275,
FRCH1902,_,posfs_LeonardoDiCaprio_im10.bmp,LeonardoDiCaprio,BenStiller,BenStiller,RyanGosling,PatrickDempsey,RobertPattinson,,,,,posfs_LeonardoDiCaprio_im10.bmp,1.2431472999996913,
FRCH1902,_,posfs_GeorgeClooney_im23.bmp,GeorgeClooney,BenAffleck,BenAffleck,MattDamon,OrlandoBloom,KeanuReeves,,,,,posfs_GeorgeClooney_im23.bmp,1.2399824999993143,
FRCH1902,_,posfs_DanielRadcliffe_im1.bmp,DanielRadcliffe,BradPitt,BradPitt,LeonardoDiCaprio,BenStiller,RobertPattinson,,,,,posfs_DanielRadcliffe_im1.bmp,2.2997924000010244,
FRCH1902,_,posfs_RyanReynolds_im3.bmp,RyanReynolds,BenAffleck,BenAffleck,DanielCraig,MattDamon,OrlandoBloom,,,,,4,0.764281600000686,
FRCH1902,_,posfs_PatrickDempsey_im8.bmp,PatrickDempsey,BenStiller,BenStiller,MattDamon,BradPitt,RyanGosling,,,,,1,4.05216510000173,
FRCH1902,_,posfs_DanielCraig_im15.bmp,DanielCraig,BenAffleck,BenAffleck,MattDamon,BenStiller,HughJackman,,,,,4,3.471951600000466,
FRCH1902,_,posfs_LeonardoDiCaprio_im29.bmp,LeonardoDiCaprio,RobertDowneyJr,RobertDowneyJr,PatrickDempsey,OrlandoBloom,DanielCraig,,,,,posfs_LeonardoDiCaprio_im29.bmp,1.2666172999997798,
FRCH1902,_,posfs_MattDamon_im16.bmp,MattDamon,LeonardoDiCaprio,LeonardoDiCaprio,RyanGosling,KeanuReeves,BenStiller,,,,,2,3.0381173999994644,
FRCH1902,_,posfs_JustinTimberlake_im4.bmp,JustinTimberlake,BenStiller,BenStiller,RobertDowneyJr,OrlandoBloom,PatrickDempsey,,,,,posfs_JustinTimberlake_im4.bmp,1.522933500000363,
FRCH1902,_,posfs_GeorgeClooney_im15.bmp,GeorgeClooney,JustinTimberlake,JustinTimberlake,DanielRadcliffe,DanielCraig,BenAffleck,,,,,posfs_GeorgeClooney_im15.bmp,1.3639646000010544,
FRCH1902,_,posfs_OrlandoBloom_im30.bmp,OrlandoBloom,JustinTimberlake,JustinTimberlake,BradPitt,KeanuReeves,RyanGosling,,,,,4,0.9317613999992318,
FRCH1902,_,posfs_RyanReynolds_im17.bmp,RyanReynolds,PatrickDempsey,PatrickDempsey,ElijahWood,BenStiller,BradPitt,,,,,2,4.028785399998014,
FRCH1902,_,posfs_MattDamon_im24.bmp,MattDamon,RobertDowneyJr,RobertDowneyJr,BradPitt,HughJackman,RobertPattinson,,,,,4,1.2978851000007126,
FRCH1902,_,posfs_RobertDowneyJr_im4.bmp,RobertDowneyJr,RyanGosling,RyanGosling,BradPitt,HughJackman,ElijahWood,,,,,4,0.8680284000001848,
FRCH1902,_,posfs_RobertDowneyJr_im11.bmp,RobertDowneyJr,HughJackman,HughJackman,RyanGosling,JustinTimberlake,BenStiller,,,,,4,6.590884500001266,
FRCH1902,_,posfs_GeorgeClooney_im26.bmp,GeorgeClooney,LeonardoDiCaprio,LeonardoDiCaprio,RobertPattinson,BenAffleck,ElijahWood,,,,,posfs_GeorgeClooney_im26.bmp,3.0364817999980005,
FRCH1902,_,posfs_DanielRadcliffe_im8.bmp,DanielRadcliffe,MattDamon,MattDamon,PatrickDempsey,RyanReynolds,RobertDowneyJr,,,,,posfs_DanielRadcliffe_im8.bmp,4.737022299999808,
FRCH1902,_,posfs_ElijahWood_im19.bmp,ElijahWood,PatrickDempsey,PatrickDempsey,RyanReynolds,BenAffleck,OrlandoBloom,,,,,posfs_ElijahWood_im19.bmp,2.20177760000297,
FRCH1902,_,posfs_BenAffleck_im8.bmp,BenAffleck,OrlandoBloom,OrlandoBloom,RobertPattinson,RyanReynolds,MattDamon,,,,,4,1.7121355999988737,
FRCH1902,_,posfs_JustinTimberlake_im17.bmp,JustinTimberlake,MattDamon,MattDamon,LeonardoDiCaprio,ElijahWood,GeorgeClooney,,,,,posfs_JustinTimberlake_im17.bmp,1.1538436000009824,
FRCH1902,_,posfs_RyanReynolds_im22.bmp,RyanReynolds,JustinTimberlake,JustinTimberlake,BradPitt,KeanuReeves,LeonardoDiCaprio,,,,,4,0.9617699000009452,
FRCH1902,_,posfs_BradPitt_im17.bmp,BradPitt,PatrickDempsey,PatrickDempsey,LeonardoDiCaprio,JustinTimberlake,HughJackman,,,,,posfs_BradPitt_im17.bmp,8.457983699998294,
FRCH1902,_,posfs_HughJackman_im21.bmp,HughJackman,OrlandoBloom,OrlandoBloom,GeorgeClooney,RyanGosling,BradPitt,,,,,4,1.093548600001668,
FRCH1902,_,posfs_BenAffleck_im21.bmp,BenAffleck,RyanGosling,RyanGosling,GeorgeClooney,ElijahWood,BradPitt,,,,,4,1.0639501000005112,
FRCH1902,_,posfs_LeonardoDiCaprio_im15.bmp,LeonardoDiCaprio,RobertPattinson,RobertPattinson,DanielCraig,BradPitt,DanielRadcliffe,,,,,posfs_LeonardoDiCaprio_im15.bmp,2.668087199999718,
FRCH1902,_,posfs_LeonardoDiCaprio_im24.bmp,LeonardoDiCaprio,DanielCraig,DanielCraig,BradPitt,PatrickDempsey,RyanGosling,,,,,posfs_LeonardoDiCaprio_im24.bmp,1.7266137999977218,
FRCH1902,_,posfs_DanielCraig_im8.bmp,DanielCraig,RobertPattinson,RobertPattinson,BenAffleck,BenStiller,LeonardoDiCaprio,,,,,0,3.1026535000019067,
FRCH1902,_,posfs_GeorgeClooney_im14.bmp,GeorgeClooney,KeanuReeves,KeanuReeves,LeonardoDiCaprio,PatrickDempsey,RobertPattinson,,,,,posfs_GeorgeClooney_im14.bmp,2.361056199999439,
FRCH1902,_,posfs_JustinTimberlake_im18.bmp,JustinTimberlake,ElijahWood,ElijahWood,RyanGosling,DanielRadcliffe,LeonardoDiCaprio,,,,,1,6.920440099998814,
FRCH1902,_,posfs_BenAffleck_im24.bmp,BenAffleck,OrlandoBloom,OrlandoBloom,DanielRadcliffe,MattDamon,GeorgeClooney,,,,,4,0.7773403999999573,
FRCH1902,_,posfs_BenStiller_im2.bmp,BenStiller,RobertDowneyJr,RobertDowneyJr,GeorgeClooney,DanielCraig,RyanReynolds,,,,,4,0.6484371000005922,
FRCH1902,_,posfs_DanielCraig_im20.bmp,DanielCraig,BenStiller,BenStiller,BradPitt,LeonardoDiCaprio,OrlandoBloom,,,,,4,3.0763589999987744,
FRCH1902,_,posfs_BradPitt_im14.bmp,BradPitt,MattDamon,MattDamon,DanielCraig,OrlandoBloom,LeonardoDiCaprio,,,,,posfs_BradPitt_im14.bmp,1.143927100001747,
FRCH1902,train,pos,fs,posfs_id14_im18.bmp_posfs_id14_im24.bmp,['Im_RyanGosling.png', 'Im_RobertPattinson.png', 'Im_LeonardoDiCaprio.png', 'Im_BradPitt.png', 'Im_ElijahWood.png', 'Im_PatrickDempsey.png', 'Im_DanielRadcliffe.png', 'Im_GeorgeClooney.png', 'Im_DanielCraig.png', 'Im_MattDamon.png'],same,1,1.2332373999997799,1,0,
FRCH1902,train,pos,fs,posfs_id7_im15.bmp_posfs_id20_im3.bmp,['Im_RyanGosling.png', 'Im_RobertPattinson.png', 'Im_LeonardoDiCaprio.png', 'Im_BradPitt.png', 'Im_ElijahWood.png', 'Im_PatrickDempsey.png', 'Im_DanielRadcliffe.png', 'Im_GeorgeClooney.png', 'Im_DanielCraig.png', 'Im_MattDamon.png'],diff,1,0.8416729000018677,2,0,
FRCH1902,train,pos,fs,posfs_id17_im8.bmp_posfs_id6_im18.bmp,['Im_RyanGosling.png', 'Im_RobertPattinson.png', 'Im_LeonardoDiCaprio.png', 'Im_BradPitt.png', 'Im_ElijahWood.png', 'Im_PatrickDempsey.png', 'Im_DanielRadcliffe.png', 'Im_GeorgeClooney.png', 'Im_DanielCraig.png', 'Im_MattDamon.png'],diff,1,0.8416867000014463,3,0,
FRCH1902,train,pos,fs,posfs_id13_im15.bmp_posfs_id4_im20.bmp,['Im_RyanGosling.png', 'Im_RobertPattinson.png', 'Im_LeonardoDiCaprio.png', 'Im_BradPitt.png', 'Im_ElijahWood.png', 'Im_PatrickDempsey.png', 'Im_DanielRadcliffe.png', 'Im_GeorgeClooney.png', 'Im_DanielCraig.png', 'Im_MattDamon.png'],diff,1,0.7334733999996388,4,0,
FRCH1902,train,pos,fs,posfs_id14_im24.bmp_posfs_id4_im15.bmp,['Im_RyanGosling.png', 'Im_RobertPattinson.png', 'Im_LeonardoDiCaprio.png', 'Im_BradPitt.png', 'Im_ElijahWood.png', 'Im_PatrickDempsey.png', 'Im_DanielRadcliffe.png', 'Im_GeorgeClooney.png', 'Im_DanielCraig.png', 'Im_MattDamon.png'],diff,1,0.9502840999994078,5,0,
FRCH1902,train,pos,fs,posfs_id4_im15.bmp_posfs_id4_im7.bmp,['Im_RyanGosling.png', 'Im_RobertPattinson.png', 'Im_LeonardoDiCaprio.png', 'Im_BradPitt.png', 'Im_ElijahWood.png', 'Im_PatrickDempsey.png', 'Im_DanielRadcliffe.png', 'Im_GeorgeClooney.png', 'Im_DanielCraig.png', 'Im_MattDamon.png'],same,1,0.8417527999990853,6,0,
FRCH1902,train,pos,fs,posfs_id5_im10.bmp_posfs_id5_im20.bmp,['Im_RyanGosling.png', 'Im_RobertPattinson.png', 'Im_LeonardoDiCaprio.png', 'Im_BradPitt.png', 'Im_ElijahWood.png', 'Im_PatrickDempsey.png', 'Im_DanielRadcliffe.png', 'Im_GeorgeClooney.png', 'Im_DanielCraig.png', 'Im_MattDamon.png'],same,1,0.9335222000008798,7,0,
FRCH1902,train,pos,fs,posfs_id5_im1.bmp_posfs_id5_im20.bmp,['Im_RyanGosling.png', 'Im_RobertPattinson.png', 'Im_LeonardoDiCaprio.png', 'Im_BradPitt.png', 'Im_ElijahWood.png', 'Im_PatrickDempsey.png', 'Im_DanielRadcliffe.png', 'Im_GeorgeClooney.png', 'Im_DanielCraig.png', 'Im_MattDamon.png'],same,1,0.8751966000018001,8,0,
FRCH1902,train,pos,fs,posfs_id13_im15.bmp_posfs_id13_im29.bmp,['Im_RyanGosling.png', 'Im_RobertPattinson.png', 'Im_LeonardoDiCaprio.png', 'Im_BradPitt.png', 'Im_ElijahWood.png', 'Im_PatrickDempsey.png', 'Im_DanielRadcliffe.png', 'Im_GeorgeClooney.png', 'Im_DanielCraig.png', 'Im_MattDamon.png'],same,1,0.975159600002371,9,0,
FRCH1902,train,pos,fs,posfs_id19_im27.bmp_posfs_id19_im8.bmp,['Im_RyanGosling.png', 'Im_RobertPattinson.png', 'Im_LeonardoDiCaprio.png', 'Im_BradPitt.png', 'Im_ElijahWood.png', 'Im_PatrickDempsey.png', 'Im_DanielRadcliffe.png', 'Im_GeorgeClooney.png', 'Im_DanielCraig.png', 'Im_MattDamon.png'],same,1,0.8582418000005418,10,0,
FRCH1902,train,pos,fs,posfs_id7_im15.bmp_posfs_id7_im26.bmp,['Im_RyanGosling.png', 'Im_RobertPattinson.png', 'Im_LeonardoDiCaprio.png', 'Im_BradPitt.png', 'Im_ElijahWood.png', 'Im_PatrickDempsey.png', 'Im_DanielRadcliffe.png', 'Im_GeorgeClooney.png', 'Im_DanielCraig.png', 'Im_MattDamon.png'],same,1,0.7416005000013683,11,0,
FRCH1902,train,pos,fs,posfs_id19_im27.bmp_posfs_id14_im18.bmp,['Im_RyanGosling.png', 'Im_RobertPattinson.png', 'Im_LeonardoDiCaprio.png', 'Im_BradPitt.png', 'Im_ElijahWood.png', 'Im_PatrickDempsey.png', 'Im_DanielRadcliffe.png', 'Im_GeorgeClooney.png', 'Im_DanielCraig.png', 'Im_MattDamon.png'],diff,1,0.8002033999982814,12,0,
FRCH1902,train,pos,fs,posfs_id4_im20.bmp_posfs_id19_im8.bmp,['Im_RyanGosling.png', 'Im_RobertPattinson.png', 'Im_LeonardoDiCaprio.png', 'Im_BradPitt.png', 'Im_ElijahWood.png', 'Im_PatrickDempsey.png', 'Im_DanielRadcliffe.png', 'Im_GeorgeClooney.png', 'Im_DanielCraig.png', 'Im_MattDamon.png'],diff,1,0.8501771000010194,13,0,
FRCH1902,train,pos,fs,posfs_id19_im8.bmp_posfs_id5_im20.bmp,['Im_RyanGosling.png', 'Im_RobertPattinson.png', 'Im_LeonardoDiCaprio.png', 'Im_BradPitt.png', 'Im_ElijahWood.png', 'Im_PatrickDempsey.png', 'Im_DanielRadcliffe.png', 'Im_GeorgeClooney.png', 'Im_DanielCraig.png', 'Im_MattDamon.png'],diff,1,0.8667881999972451,14,0,
FRCH1902,train,pos,fs,posfs_id19_im4.bmp_posfs_id13_im15.bmp,['Im_RyanGosling.png', 'Im_RobertPattinson.png', 'Im_LeonardoDiCaprio.png', 'Im_BradPitt.png', 'Im_ElijahWood.png', 'Im_PatrickDempsey.png', 'Im_DanielRadcliffe.png', 'Im_GeorgeClooney.png', 'Im_DanielCraig.png', 'Im_MattDamon.png'],diff,1,0.6749730000010459,15,0,
FRCH1902,train,pos,fs,posfs_id13_im10.bmp_posfs_id13_im15.bmp,['Im_RyanGosling.png', 'Im_RobertPattinson.png', 'Im_LeonardoDiCaprio.png', 'Im_BradPitt.png', 'Im_ElijahWood.png', 'Im_PatrickDempsey.png', 'Im_DanielRadcliffe.png', 'Im_GeorgeClooney.png', 'Im_DanielCraig.png', 'Im_MattDamon.png'],same,1,0.6916049999999814,16,0,
FRCH1902,train,pos,fs,posfs_id14_im16.bmp_posfs_id14_im18.bmp,['Im_RyanGosling.png', 'Im_RobertPattinson.png', 'Im_LeonardoDiCaprio.png', 'Im_BradPitt.png', 'Im_ElijahWood.png', 'Im_PatrickDempsey.png', 'Im_DanielRadcliffe.png', 'Im_GeorgeClooney.png', 'Im_DanielCraig.png', 'Im_MattDamon.png'],same,1,0.9085065999970539,17,0,
FRCH1902,train,pos,fs,posfs_id17_im14.bmp_posfs_id17_im8.bmp,['Im_RyanGosling.png', 'Im_RobertPattinson.png', 'Im_LeonardoDiCaprio.png', 'Im_BradPitt.png', 'Im_ElijahWood.png', 'Im_PatrickDempsey.png', 'Im_DanielRadcliffe.png', 'Im_GeorgeClooney.png', 'Im_DanielCraig.png', 'Im_MattDamon.png'],same,1,0.9168055999980425,18,0,
FRCH1902,train,pos,fs,posfs_id4_im7.bmp_posfs_id4_im20.bmp,['Im_RyanGosling.png', 'Im_RobertPattinson.png', 'Im_LeonardoDiCaprio.png', 'Im_BradPitt.png', 'Im_ElijahWood.png', 'Im_PatrickDempsey.png', 'Im_DanielRadcliffe.png', 'Im_GeorgeClooney.png', 'Im_DanielCraig.png', 'Im_MattDamon.png'],same,1,0.8918485999965924,19,0,
FRCH1902,train,pos,fs,posfs_id3_im8.bmp_posfs_id3_im17.bmp,['Im_RyanGosling.png', 'Im_RobertPattinson.png', 'Im_LeonardoDiCaprio.png', 'Im_BradPitt.png', 'Im_ElijahWood.png', 'Im_PatrickDempsey.png', 'Im_DanielRadcliffe.png', 'Im_GeorgeClooney.png', 'Im_DanielCraig.png', 'Im_MattDamon.png'],same,1,0.8001012000022456,20,0,
FRCH1902,train,neg,fs,negfs_id3_im6.bmp_negfs_id6_im18.bmp,['Im_RyanGosling.png', 'Im_RobertPattinson.png', 'Im_LeonardoDiCaprio.png', 'Im_BradPitt.png', 'Im_ElijahWood.png', 'Im_PatrickDempsey.png', 'Im_DanielRadcliffe.png', 'Im_GeorgeClooney.png', 'Im_DanielCraig.png', 'Im_MattDamon.png'],diff,1,0.42513729999700445,1,0,
FRCH1902,train,inv,fs,posfs_id19_im4.bmp_posfs_id13_im15.bmp,['Im_RyanGosling.png', 'Im_RobertPattinson.png', 'Im_LeonardoDiCaprio.png', 'Im_BradPitt.png', 'Im_ElijahWood.png', 'Im_PatrickDempsey.png', 'Im_DanielRadcliffe.png', 'Im_GeorgeClooney.png', 'Im_DanielCraig.png', 'Im_MattDamon.png'],diff,1,0.5003397000000405,2,0,
FRCH1902,train,pos,fs,posfs_id3_im17.bmp_posfs_id3_im6.bmp,['Im_RyanGosling.png', 'Im_RobertPattinson.png', 'Im_LeonardoDiCaprio.png', 'Im_BradPitt.png', 'Im_ElijahWood.png', 'Im_PatrickDempsey.png', 'Im_DanielRadcliffe.png', 'Im_GeorgeClooney.png', 'Im_DanielCraig.png', 'Im_MattDamon.png'],same,1,1.1173105999987456,3,0,
FRCH1902,train,inv,fs,posfs_id17_im9.bmp_posfs_id17_im8.bmp,['Im_RyanGosling.png', 'Im_RobertPattinson.png', 'Im_LeonardoDiCaprio.png', 'Im_BradPitt.png', 'Im_ElijahWood.png', 'Im_PatrickDempsey.png', 'Im_DanielRadcliffe.png', 'Im_GeorgeClooney.png', 'Im_DanielCraig.png', 'Im_MattDamon.png'],same,1,0.624775000000227,4,0,
FRCH1902,train,neg,fs,negfs_id19_im27.bmp_negfs_id4_im7.bmp,['Im_RyanGosling.png', 'Im_RobertPattinson.png', 'Im_LeonardoDiCaprio.png', 'Im_BradPitt.png', 'Im_ElijahWood.png', 'Im_PatrickDempsey.png', 'Im_DanielRadcliffe.png', 'Im_GeorgeClooney.png', 'Im_DanielCraig.png', 'Im_MattDamon.png'],diff,1,0.45840920000046026,5,0,
FRCH1902,train,inv,fs,posfs_id13_im15.bmp_posfs_id13_im29.bmp,['Im_RyanGosling.png', 'Im_RobertPattinson.png', 'Im_LeonardoDiCaprio.png', 'Im_BradPitt.png', 'Im_ElijahWood.png', 'Im_PatrickDempsey.png', 'Im_DanielRadcliffe.png', 'Im_GeorgeClooney.png', 'Im_DanielCraig.png', 'Im_MattDamon.png'],same,1,1.1583151999984693,6,0,
FRCH1902,train,inv,fs,posfs_id20_im12.bmp_posfs_id20_im30.bmp,['Im_RyanGosling.png', 'Im_RobertPattinson.png', 'Im_LeonardoDiCaprio.png', 'Im_BradPitt.png', 'Im_ElijahWood.png', 'Im_PatrickDempsey.png', 'Im_DanielRadcliffe.png', 'Im_GeorgeClooney.png', 'Im_DanielCraig.png', 'Im_MattDamon.png'],same,1,0.5417263999988791,7,0,
FRCH1902,train,neg,fs,negfs_id3_im8.bmp_negfs_id3_im17.bmp,['Im_RyanGosling.png', 'Im_RobertPattinson.png', 'Im_LeonardoDiCaprio.png', 'Im_BradPitt.png', 'Im_ElijahWood.png', 'Im_PatrickDempsey.png', 'Im_DanielRadcliffe.png', 'Im_GeorgeClooney.png', 'Im_DanielCraig.png', 'Im_MattDamon.png'],same,1,0.4165849999990314,8,0,
FRCH1902,train,neg,fs,negfs_id19_im8.bmp_negfs_id4_im20.bmp,['Im_RyanGosling.png', 'Im_RobertPattinson.png', 'Im_LeonardoDiCaprio.png', 'Im_BradPitt.png', 'Im_ElijahWood.png', 'Im_PatrickDempsey.png', 'Im_DanielRadcliffe.png', 'Im_GeorgeClooney.png', 'Im_DanielCraig.png', 'Im_MattDamon.png'],diff,1,0.4168104999989737,9,0,
FRCH1902,train,neg,fs,negfs_id7_im14.bmp_negfs_id5_im10.bmp,['Im_RyanGosling.png', 'Im_RobertPattinson.png', 'Im_LeonardoDiCaprio.png', 'Im_BradPitt.png', 'Im_ElijahWood.png', 'Im_PatrickDempsey.png', 'Im_DanielRadcliffe.png', 'Im_GeorgeClooney.png', 'Im_DanielCraig.png', 'Im_MattDamon.png'],diff,1,0.42512499999793363,10,0,
FRCH1902,train,neg,fs,negfs_id13_im15.bmp_negfs_id13_im10.bmp,['Im_RyanGosling.png', 'Im_RobertPattinson.png', 'Im_LeonardoDiCaprio.png', 'Im_BradPitt.png', 'Im_ElijahWood.png', 'Im_PatrickDempsey.png', 'Im_DanielRadcliffe.png', 'Im_GeorgeClooney.png', 'Im_DanielCraig.png', 'Im_MattDamon.png'],same,1,0.41671879999921657,11,0,
FRCH1902,train,inv,fs,posfs_id17_im9.bmp_posfs_id7_im14.bmp,['Im_RyanGosling.png', 'Im_RobertPattinson.png', 'Im_LeonardoDiCaprio.png', 'Im_BradPitt.png', 'Im_ElijahWood.png', 'Im_PatrickDempsey.png', 'Im_DanielRadcliffe.png', 'Im_GeorgeClooney.png', 'Im_DanielCraig.png', 'Im_MattDamon.png'],diff,1,0.5002922999992734,12,0,
FRCH1902,train,pos,fs,posfs_id6_im18.bmp_posfs_id17_im8.bmp,['Im_RyanGosling.png', 'Im_RobertPattinson.png', 'Im_LeonardoDiCaprio.png', 'Im_BradPitt.png', 'Im_ElijahWood.png', 'Im_PatrickDempsey.png', 'Im_DanielRadcliffe.png', 'Im_GeorgeClooney.png', 'Im_DanielCraig.png', 'Im_MattDamon.png'],diff,1,0.4165065000015602,13,0,
FRCH1902,train,inv,fs,posfs_id17_im9.bmp_posfs_id20_im30.bmp,['Im_RyanGosling.png', 'Im_RobertPattinson.png', 'Im_LeonardoDiCaprio.png', 'Im_BradPitt.png', 'Im_ElijahWood.png', 'Im_PatrickDempsey.png', 'Im_DanielRadcliffe.png', 'Im_GeorgeClooney.png', 'Im_DanielCraig.png', 'Im_MattDamon.png'],same,0,1.267052800001693,13,0,
FRCH1902,train,inv,fs,posfs_id3_im6.bmp_posfs_id6_im18.bmp,['Im_RyanGosling.png', 'Im_RobertPattinson.png', 'Im_LeonardoDiCaprio.png', 'Im_BradPitt.png', 'Im_ElijahWood.png', 'Im_PatrickDempsey.png', 'Im_DanielRadcliffe.png', 'Im_GeorgeClooney.png', 'Im_DanielCraig.png', 'Im_MattDamon.png'],diff,1,0.41669079999701353,14,0,
FRCH1902,train,inv,fs,posfs_id20_im3.bmp_posfs_id7_im26.bmp,['Im_RyanGosling.png', 'Im_RobertPattinson.png', 'Im_LeonardoDiCaprio.png', 'Im_BradPitt.png', 'Im_ElijahWood.png', 'Im_PatrickDempsey.png', 'Im_DanielRadcliffe.png', 'Im_GeorgeClooney.png', 'Im_DanielCraig.png', 'Im_MattDamon.png'],diff,1,0.6667018000007374,15,0,
FRCH1902,train,inv,fs,posfs_id19_im8.bmp_posfs_id19_im27.bmp,['Im_RyanGosling.png', 'Im_RobertPattinson.png', 'Im_LeonardoDiCaprio.png', 'Im_BradPitt.png', 'Im_ElijahWood.png', 'Im_PatrickDempsey.png', 'Im_DanielRadcliffe.png', 'Im_GeorgeClooney.png', 'Im_DanielCraig.png', 'Im_MattDamon.png'],same,1,0.4502527000004193,16,0,
FRCH1902,train,inv,fs,posfs_id6_im12.bmp_posfs_id6_im19.bmp,['Im_RyanGosling.png', 'Im_RobertPattinson.png', 'Im_LeonardoDiCaprio.png', 'Im_BradPitt.png', 'Im_ElijahWood.png', 'Im_PatrickDempsey.png', 'Im_DanielRadcliffe.png', 'Im_GeorgeClooney.png', 'Im_DanielCraig.png', 'Im_MattDamon.png'],same,1,0.9919227000027604,17,0,
FRCH1902,train,inv,fs,posfs_id20_im3.bmp_posfs_id20_im30.bmp,['Im_RyanGosling.png', 'Im_RobertPattinson.png', 'Im_LeonardoDiCaprio.png', 'Im_BradPitt.png', 'Im_ElijahWood.png', 'Im_PatrickDempsey.png', 'Im_DanielRadcliffe.png', 'Im_GeorgeClooney.png', 'Im_DanielCraig.png', 'Im_MattDamon.png'],same,1,0.40841200000068056,18,0,
FRCH1902,train,neg,fs,negfs_id3_im17.bmp_negfs_id3_im6.bmp,['Im_RyanGosling.png', 'Im_RobertPattinson.png', 'Im_LeonardoDiCaprio.png', 'Im_BradPitt.png', 'Im_ElijahWood.png', 'Im_PatrickDempsey.png', 'Im_DanielRadcliffe.png', 'Im_GeorgeClooney.png', 'Im_DanielCraig.png', 'Im_MattDamon.png'],same,1,0.42510889999903156,19,0,
FRCH1902,train,inv,fs,posfs_id19_im4.bmp_posfs_id19_im8.bmp,['Im_RyanGosling.png', 'Im_RobertPattinson.png', 'Im_LeonardoDiCaprio.png', 'Im_BradPitt.png', 'Im_ElijahWood.png', 'Im_PatrickDempsey.png', 'Im_DanielRadcliffe.png', 'Im_GeorgeClooney.png', 'Im_DanielCraig.png', 'Im_MattDamon.png'],same,1,0.47550179999961983,1,0,
FRCH1902,train,inv,120,pos120_id13_im10.bmp_pos120_id4_im15.bmp,['Im_RyanGosling.png', 'Im_RobertPattinson.png', 'Im_LeonardoDiCaprio.png', 'Im_BradPitt.png', 'Im_ElijahWood.png', 'Im_PatrickDempsey.png', 'Im_DanielRadcliffe.png', 'Im_GeorgeClooney.png', 'Im_DanielCraig.png', 'Im_MattDamon.png'],diff,1,0.4250518999979249,2,0,
FRCH1902,train,inv,150,pos150_id13_im10.bmp_pos150_id13_im15.bmp,['Im_RyanGosling.png', 'Im_RobertPattinson.png', 'Im_LeonardoDiCaprio.png', 'Im_BradPitt.png', 'Im_ElijahWood.png', 'Im_PatrickDempsey.png', 'Im_DanielRadcliffe.png', 'Im_GeorgeClooney.png', 'Im_DanielCraig.png', 'Im_MattDamon.png'],same,1,0.5834355999977561,3,0,
FRCH1902,train,inv,60,pos60_id7_im15.bmp_pos60_id3_im17.bmp,['Im_RyanGosling.png', 'Im_RobertPattinson.png', 'Im_LeonardoDiCaprio.png', 'Im_BradPitt.png', 'Im_ElijahWood.png', 'Im_PatrickDempsey.png', 'Im_DanielRadcliffe.png', 'Im_GeorgeClooney.png', 'Im_DanielCraig.png', 'Im_MattDamon.png'],diff,1,0.7250022000007448,4,0,
FRCH1902,train,inv,30,pos30_id7_im14.bmp_pos30_id17_im9.bmp,['Im_RyanGosling.png', 'Im_RobertPattinson.png', 'Im_LeonardoDiCaprio.png', 'Im_BradPitt.png', 'Im_ElijahWood.png', 'Im_PatrickDempsey.png', 'Im_DanielRadcliffe.png', 'Im_GeorgeClooney.png', 'Im_DanielCraig.png', 'Im_MattDamon.png'],diff,1,0.42507259999911184,5,0,
FRCH1902,train,inv,0,pos0_id5_im10.bmp_pos0_id3_im8.bmp,['Im_RyanGosling.png', 'Im_RobertPattinson.png', 'Im_LeonardoDiCaprio.png', 'Im_BradPitt.png', 'Im_ElijahWood.png', 'Im_PatrickDempsey.png', 'Im_DanielRadcliffe.png', 'Im_GeorgeClooney.png', 'Im_DanielCraig.png', 'Im_MattDamon.png'],diff,1,0.42472210000050836,6,0,
FRCH1902,train,inv,30,pos30_id14_im18.bmp_pos30_id20_im12.bmp,['Im_RyanGosling.png', 'Im_RobertPattinson.png', 'Im_LeonardoDiCaprio.png', 'Im_BradPitt.png', 'Im_ElijahWood.png', 'Im_PatrickDempsey.png', 'Im_DanielRadcliffe.png', 'Im_GeorgeClooney.png', 'Im_DanielCraig.png', 'Im_MattDamon.png'],same,0,0.5167070999996213,6,0,
FRCH1902,train,inv,150,pos150_id7_im15.bmp_pos150_id7_im14.bmp,['Im_RyanGosling.png', 'Im_RobertPattinson.png', 'Im_LeonardoDiCaprio.png', 'Im_BradPitt.png', 'Im_ElijahWood.png', 'Im_PatrickDempsey.png', 'Im_DanielRadcliffe.png', 'Im_GeorgeClooney.png', 'Im_DanielCraig.png', 'Im_MattDamon.png'],same,1,0.4425880999988294,7,0,
FRCH1902,train,inv,90,pos90_id14_im18.bmp_pos90_id19_im27.bmp,['Im_RyanGosling.png', 'Im_RobertPattinson.png', 'Im_LeonardoDiCaprio.png', 'Im_BradPitt.png', 'Im_ElijahWood.png', 'Im_PatrickDempsey.png', 'Im_DanielRadcliffe.png', 'Im_GeorgeClooney.png', 'Im_DanielCraig.png', 'Im_MattDamon.png'],diff,1,0.45825200000035693,8,0,
FRCH1902,train,inv,60,pos60_id7_im26.bmp_pos60_id4_im7.bmp,['Im_RyanGosling.png', 'Im_RobertPattinson.png', 'Im_LeonardoDiCaprio.png', 'Im_BradPitt.png', 'Im_ElijahWood.png', 'Im_PatrickDempsey.png', 'Im_DanielRadcliffe.png', 'Im_GeorgeClooney.png', 'Im_DanielCraig.png', 'Im_MattDamon.png'],diff,1,0.42505049999817857,9,0,
FRCH1902,train,inv,fs,posfs_id20_im3.bmp_posfs_id20_im12.bmp,['Im_RyanGosling.png', 'Im_RobertPattinson.png', 'Im_LeonardoDiCaprio.png', 'Im_BradPitt.png', 'Im_ElijahWood.png', 'Im_PatrickDempsey.png', 'Im_DanielRadcliffe.png', 'Im_GeorgeClooney.png', 'Im_DanielCraig.png', 'Im_MattDamon.png'],same,1,0.42505910000181757,10,0,
FRCH1902,train,inv,90,pos90_id7_im14.bmp_pos90_id7_im15.bmp,['Im_RyanGosling.png', 'Im_RobertPattinson.png', 'Im_LeonardoDiCaprio.png', 'Im_BradPitt.png', 'Im_ElijahWood.png', 'Im_PatrickDempsey.png', 'Im_DanielRadcliffe.png', 'Im_GeorgeClooney.png', 'Im_DanielCraig.png', 'Im_MattDamon.png'],diff,0,0.4250705000013113,10,0,
FRCH1902,train,inv,0,pos0_id19_im8.bmp_pos0_id5_im20.bmp,['Im_RyanGosling.png', 'Im_RobertPattinson.png', 'Im_LeonardoDiCaprio.png', 'Im_BradPitt.png', 'Im_ElijahWood.png', 'Im_PatrickDempsey.png', 'Im_DanielRadcliffe.png', 'Im_GeorgeClooney.png', 'Im_DanielCraig.png', 'Im_MattDamon.png'],same,0,0.8498937000003934,10,0,
FRCH1902,train,inv,120,pos120_id4_im7.bmp_pos120_id4_im15.bmp,['Im_RyanGosling.png', 'Im_RobertPattinson.png', 'Im_LeonardoDiCaprio.png', 'Im_BradPitt.png', 'Im_ElijahWood.png', 'Im_PatrickDempsey.png', 'Im_DanielRadcliffe.png', 'Im_GeorgeClooney.png', 'Im_DanielCraig.png', 'Im_MattDamon.png'],same,1,0.44182459999865387,11,0,
FRCH1902,train,pos,fs,posfs_id17_im8.bmp_posfs_id17_im14.bmp,['Im_RyanGosling.png', 'Im_RobertPattinson.png', 'Im_LeonardoDiCaprio.png', 'Im_BradPitt.png', 'Im_ElijahWood.png', 'Im_PatrickDempsey.png', 'Im_DanielRadcliffe.png', 'Im_GeorgeClooney.png', 'Im_DanielCraig.png', 'Im_MattDamon.png'],same,1,0.42504039999766974,12,0,
FRCH1902,train,pos,90,pos90_id3_im17.bmp_pos90_id3_im8.bmp,['Im_RyanGosling.png', 'Im_RobertPattinson.png', 'Im_LeonardoDiCaprio.png', 'Im_BradPitt.png', 'Im_ElijahWood.png', 'Im_PatrickDempsey.png', 'Im_DanielRadcliffe.png', 'Im_GeorgeClooney.png', 'Im_DanielCraig.png', 'Im_MattDamon.png'],same,1,0.43356820000190055,13,0,
FRCH1902,train,pos,120,pos120_id13_im15.bmp_pos120_id13_im10.bmp,['Im_RyanGosling.png', 'Im_RobertPattinson.png', 'Im_LeonardoDiCaprio.png', 'Im_BradPitt.png', 'Im_ElijahWood.png', 'Im_PatrickDempsey.png', 'Im_DanielRadcliffe.png', 'Im_GeorgeClooney.png', 'Im_DanielCraig.png', 'Im_MattDamon.png'],same,1,0.43337400000018533,14,0,
FRCH1902,train,pos,0,pos0_id5_im20.bmp_pos0_id19_im8.bmp,['Im_RyanGosling.png', 'Im_RobertPattinson.png', 'Im_LeonardoDiCaprio.png', 'Im_BradPitt.png', 'Im_ElijahWood.png', 'Im_PatrickDempsey.png', 'Im_DanielRadcliffe.png', 'Im_GeorgeClooney.png', 'Im_DanielCraig.png', 'Im_MattDamon.png'],same,0,0.41671130000031553,14,0,
FRCH1902,train,pos,150,pos150_id14_im18.bmp_pos150_id20_im12.bmp,['Im_RyanGosling.png', 'Im_RobertPattinson.png', 'Im_LeonardoDiCaprio.png', 'Im_BradPitt.png', 'Im_ElijahWood.png', 'Im_PatrickDempsey.png', 'Im_DanielRadcliffe.png', 'Im_GeorgeClooney.png', 'Im_DanielCraig.png', 'Im_MattDamon.png'],diff,1,0.5414433000005374,15,0,
FRCH1902,train,pos,0,pos0_id20_im12.bmp_pos0_id20_im30.bmp,['Im_RyanGosling.png', 'Im_RobertPattinson.png', 'Im_LeonardoDiCaprio.png', 'Im_BradPitt.png', 'Im_ElijahWood.png', 'Im_PatrickDempsey.png', 'Im_DanielRadcliffe.png', 'Im_GeorgeClooney.png', 'Im_DanielCraig.png', 'Im_MattDamon.png'],same,1,0.6000745000019378,16,0,
FRCH1902,train,pos,120,pos120_id17_im9.bmp_pos120_id17_im8.bmp,['Im_RyanGosling.png', 'Im_RobertPattinson.png', 'Im_LeonardoDiCaprio.png', 'Im_BradPitt.png', 'Im_ElijahWood.png', 'Im_PatrickDempsey.png', 'Im_DanielRadcliffe.png', 'Im_GeorgeClooney.png', 'Im_DanielCraig.png', 'Im_MattDamon.png'],same,1,0.4667245999989973,17,0,
FRCH1902,train,pos,30,pos30_id14_im16.bmp_pos30_id20_im30.bmp,['Im_RyanGosling.png', 'Im_RobertPattinson.png', 'Im_LeonardoDiCaprio.png', 'Im_BradPitt.png', 'Im_ElijahWood.png', 'Im_PatrickDempsey.png', 'Im_DanielRadcliffe.png', 'Im_GeorgeClooney.png', 'Im_DanielCraig.png', 'Im_MattDamon.png'],diff,1,0.4664999999986321,18,0,
FRCH1902,train,pos,fs,posfs_id14_im16.bmp_posfs_id14_im18.bmp,['Im_RyanGosling.png', 'Im_RobertPattinson.png', 'Im_LeonardoDiCaprio.png', 'Im_BradPitt.png', 'Im_ElijahWood.png', 'Im_PatrickDempsey.png', 'Im_DanielRadcliffe.png', 'Im_GeorgeClooney.png', 'Im_DanielCraig.png', 'Im_MattDamon.png'],same,1,0.40823699999964447,19,0,
FRCH1902,train,pos,30,pos30_id7_im15.bmp_pos30_id7_im26.bmp,['Im_RyanGosling.png', 'Im_RobertPattinson.png', 'Im_LeonardoDiCaprio.png', 'Im_BradPitt.png', 'Im_ElijahWood.png', 'Im_PatrickDempsey.png', 'Im_DanielRadcliffe.png', 'Im_GeorgeClooney.png', 'Im_DanielCraig.png', 'Im_MattDamon.png'],same,1,0.41722410000147647,20,0,
FRCH1902,train,pos,90,pos90_id14_im24.bmp_pos90_id4_im15.bmp,['Im_RyanGosling.png', 'Im_RobertPattinson.png', 'Im_LeonardoDiCaprio.png', 'Im_BradPitt.png', 'Im_ElijahWood.png', 'Im_PatrickDempsey.png', 'Im_DanielRadcliffe.png', 'Im_GeorgeClooney.png', 'Im_DanielCraig.png', 'Im_MattDamon.png'],diff,1,0.5922591999988072,21,0,
FRCH1902,train,pos,60,pos60_id6_im19.bmp_pos60_id3_im6.bmp,['Im_RyanGosling.png', 'Im_RobertPattinson.png', 'Im_LeonardoDiCaprio.png', 'Im_BradPitt.png', 'Im_ElijahWood.png', 'Im_PatrickDempsey.png', 'Im_DanielRadcliffe.png', 'Im_GeorgeClooney.png', 'Im_DanielCraig.png', 'Im_MattDamon.png'],diff,1,0.4167064000030223,22,0,
FRCH1902,train,pos,60,pos60_id14_im24.bmp_pos60_id14_im16.bmp,['Im_RyanGosling.png', 'Im_RobertPattinson.png', 'Im_LeonardoDiCaprio.png', 'Im_BradPitt.png', 'Im_ElijahWood.png', 'Im_PatrickDempsey.png', 'Im_DanielRadcliffe.png', 'Im_GeorgeClooney.png', 'Im_DanielCraig.png', 'Im_MattDamon.png'],diff,0,0.45830389999900945,22,0,
FRCH1902,train,pos,150,pos150_id5_im10.bmp_pos150_id3_im8.bmp,['Im_RyanGosling.png', 'Im_RobertPattinson.png', 'Im_LeonardoDiCaprio.png', 'Im_BradPitt.png', 'Im_ElijahWood.png', 'Im_PatrickDempsey.png', 'Im_DanielRadcliffe.png', 'Im_GeorgeClooney.png', 'Im_DanielCraig.png', 'Im_MattDamon.png'],diff,1,0.41697299999941606,23,0,
FRCH1902,train,neg,120,neg120_id5_im20.bmp_neg120_id5_im1.bmp,['Im_RyanGosling.png', 'Im_RobertPattinson.png', 'Im_LeonardoDiCaprio.png', 'Im_BradPitt.png', 'Im_ElijahWood.png', 'Im_PatrickDempsey.png', 'Im_DanielRadcliffe.png', 'Im_GeorgeClooney.png', 'Im_DanielCraig.png', 'Im_MattDamon.png'],same,1,0.4167305999981181,24,0,
FRCH1902,train,neg,0,neg0_id19_im4.bmp_neg0_id13_im15.bmp,['Im_RyanGosling.png', 'Im_RobertPattinson.png', 'Im_LeonardoDiCaprio.png', 'Im_BradPitt.png', 'Im_ElijahWood.png', 'Im_PatrickDempsey.png', 'Im_DanielRadcliffe.png', 'Im_GeorgeClooney.png', 'Im_DanielCraig.png', 'Im_MattDamon.png'],diff,1,0.49241669999901205,25,0,
FRCH1902,train,neg,30,neg30_id14_im16.bmp_neg30_id20_im30.bmp,['Im_RyanGosling.png', 'Im_RobertPattinson.png', 'Im_LeonardoDiCaprio.png', 'Im_BradPitt.png', 'Im_ElijahWood.png', 'Im_PatrickDempsey.png', 'Im_DanielRadcliffe.png', 'Im_GeorgeClooney.png', 'Im_DanielCraig.png', 'Im_MattDamon.png'],diff,1,0.425060300000041,26,0,
FRCH1902,train,neg,60,neg60_id17_im9.bmp_neg60_id17_im8.bmp,['Im_RyanGosling.png', 'Im_RobertPattinson.png', 'Im_LeonardoDiCaprio.png', 'Im_BradPitt.png', 'Im_ElijahWood.png', 'Im_PatrickDempsey.png', 'Im_DanielRadcliffe.png', 'Im_GeorgeClooney.png', 'Im_DanielCraig.png', 'Im_MattDamon.png'],diff,0,0.5583729000027233,26,0,
FRCH1902,train,neg,150,neg150_id17_im8.bmp_neg150_id17_im9.bmp,['Im_RyanGosling.png', 'Im_RobertPattinson.png', 'Im_LeonardoDiCaprio.png', 'Im_BradPitt.png', 'Im_ElijahWood.png', 'Im_PatrickDempsey.png', 'Im_DanielRadcliffe.png', 'Im_GeorgeClooney.png', 'Im_DanielCraig.png', 'Im_MattDamon.png'],same,1,0.49225789999763947,27,0,
FRCH1902,train,neg,fs,negfs_id13_im29.bmp_negfs_id14_im24.bmp,['Im_RyanGosling.png', 'Im_RobertPattinson.png', 'Im_LeonardoDiCaprio.png', 'Im_BradPitt.png', 'Im_ElijahWood.png', 'Im_PatrickDempsey.png', 'Im_DanielRadcliffe.png', 'Im_GeorgeClooney.png', 'Im_DanielCraig.png', 'Im_MattDamon.png'],diff,1,0.4166722000009031,28,0,
FRCH1902,train,neg,90,neg90_id17_im14.bmp_neg90_id3_im17.bmp,['Im_RyanGosling.png', 'Im_RobertPattinson.png', 'Im_LeonardoDiCaprio.png', 'Im_BradPitt.png', 'Im_ElijahWood.png', 'Im_PatrickDempsey.png', 'Im_DanielRadcliffe.png', 'Im_GeorgeClooney.png', 'Im_DanielCraig.png', 'Im_MattDamon.png'],diff,1,0.47512249999999767,29,0,
FRCH1902,train,neg,120,neg120_id5_im10.bmp_neg120_id5_im1.bmp,['Im_RyanGosling.png', 'Im_RobertPattinson.png', 'Im_LeonardoDiCaprio.png', 'Im_BradPitt.png', 'Im_ElijahWood.png', 'Im_PatrickDempsey.png', 'Im_DanielRadcliffe.png', 'Im_GeorgeClooney.png', 'Im_DanielCraig.png', 'Im_MattDamon.png'],same,1,0.6165913000004366,30,0,
FRCH1902,train,neg,fs,negfs_id7_im26.bmp_negfs_id7_im14.bmp,['Im_RyanGosling.png', 'Im_RobertPattinson.png', 'Im_LeonardoDiCaprio.png', 'Im_BradPitt.png', 'Im_ElijahWood.png', 'Im_PatrickDempsey.png', 'Im_DanielRadcliffe.png', 'Im_GeorgeClooney.png', 'Im_DanielCraig.png', 'Im_MattDamon.png'],same,1,0.5501127000025008,31,0,
FRCH1902,train,neg,60,neg60_id20_im3.bmp_neg60_id20_im30.bmp,['Im_RyanGosling.png', 'Im_RobertPattinson.png', 'Im_LeonardoDiCaprio.png', 'Im_BradPitt.png', 'Im_ElijahWood.png', 'Im_PatrickDempsey.png', 'Im_DanielRadcliffe.png', 'Im_GeorgeClooney.png', 'Im_DanielCraig.png', 'Im_MattDamon.png'],same,1,0.5333423000010953,32,0,
FRCH1902,train,neg,150,neg150_id17_im14.bmp_neg150_id17_im8.bmp,['Im_RyanGosling.png', 'Im_RobertPattinson.png', 'Im_LeonardoDiCaprio.png', 'Im_BradPitt.png', 'Im_ElijahWood.png', 'Im_PatrickDempsey.png', 'Im_DanielRadcliffe.png', 'Im_GeorgeClooney.png', 'Im_DanielCraig.png', 'Im_MattDamon.png'],same,1,0.4749936999978672,33,0,
FRCH1902,train,neg,90,neg90_id14_im16.bmp_neg90_id14_im24.bmp,['Im_RyanGosling.png', 'Im_RobertPattinson.png', 'Im_LeonardoDiCaprio.png', 'Im_BradPitt.png', 'Im_ElijahWood.png', 'Im_PatrickDempsey.png', 'Im_DanielRadcliffe.png', 'Im_GeorgeClooney.png', 'Im_DanielCraig.png', 'Im_MattDamon.png'],same,1,0.4670068999985233,34,0,
FRCH1902,train,neg,0,neg0_id19_im4.bmp_neg0_id5_im20.bmp,['Im_RyanGosling.png', 'Im_RobertPattinson.png', 'Im_LeonardoDiCaprio.png', 'Im_BradPitt.png', 'Im_ElijahWood.png', 'Im_PatrickDempsey.png', 'Im_DanielRadcliffe.png', 'Im_GeorgeClooney.png', 'Im_DanielCraig.png', 'Im_MattDamon.png'],same,0,0.7581079000010504,34,0,
FRCH1902,train,neg,30,neg30_id19_im8.bmp_neg30_id4_im20.bmp,['Im_RyanGosling.png', 'Im_RobertPattinson.png', 'Im_LeonardoDiCaprio.png', 'Im_BradPitt.png', 'Im_ElijahWood.png', 'Im_PatrickDempsey.png', 'Im_DanielRadcliffe.png', 'Im_GeorgeClooney.png', 'Im_DanielCraig.png', 'Im_MattDamon.png'],diff,1,0.6418511999982002,35,0,
FRCH1902,train,neg,90,neg90_id14_im24.bmp_neg90_id14_im18.bmp,['Im_RyanGosling.png', 'Im_RobertPattinson.png', 'Im_LeonardoDiCaprio.png', 'Im_BradPitt.png', 'Im_ElijahWood.png', 'Im_PatrickDempsey.png', 'Im_DanielRadcliffe.png', 'Im_GeorgeClooney.png', 'Im_DanielCraig.png', 'Im_MattDamon.png'],same,1,0.8832487999970908,1,83.33333333333333,
FRCH1902,train,neg,120,neg120_id6_im12.bmp_neg120_id13_im10.bmp,['Im_RyanGosling.png', 'Im_RobertPattinson.png', 'Im_LeonardoDiCaprio.png', 'Im_BradPitt.png', 'Im_ElijahWood.png', 'Im_PatrickDempsey.png', 'Im_DanielRadcliffe.png', 'Im_GeorgeClooney.png', 'Im_DanielCraig.png', 'Im_MattDamon.png'],diff,1,0.40836400000262074,2,83.33333333333333,
FRCH1902,train,neg,90,neg90_id19_im27.bmp_neg90_id14_im18.bmp,['Im_RyanGosling.png', 'Im_RobertPattinson.png', 'Im_LeonardoDiCaprio.png', 'Im_BradPitt.png', 'Im_ElijahWood.png', 'Im_PatrickDempsey.png', 'Im_DanielRadcliffe.png', 'Im_GeorgeClooney.png', 'Im_DanielCraig.png', 'Im_MattDamon.png'],same,0,0.42504949999784003,2,83.33333333333333,
FRCH1902,train,neg,0,neg0_id5_im1.bmp_neg0_id5_im10.bmp,['Im_RyanGosling.png', 'Im_RobertPattinson.png', 'Im_LeonardoDiCaprio.png', 'Im_BradPitt.png', 'Im_ElijahWood.png', 'Im_PatrickDempsey.png', 'Im_DanielRadcliffe.png', 'Im_GeorgeClooney.png', 'Im_DanielCraig.png', 'Im_MattDamon.png'],same,1,0.4334721000013815,3,83.33333333333333,
FRCH1902,train,neg,0,neg0_id3_im17.bmp_neg0_id17_im14.bmp,['Im_RyanGosling.png', 'Im_RobertPattinson.png', 'Im_LeonardoDiCaprio.png', 'Im_BradPitt.png', 'Im_ElijahWood.png', 'Im_PatrickDempsey.png', 'Im_DanielRadcliffe.png', 'Im_GeorgeClooney.png', 'Im_DanielCraig.png', 'Im_MattDamon.png'],same,0,0.41632229999959236,3,83.33333333333333,
FRCH1902,train,neg,60,neg60_id7_im26.bmp_neg60_id7_im15.bmp,['Im_RyanGosling.png', 'Im_RobertPattinson.png', 'Im_LeonardoDiCaprio.png', 'Im_BradPitt.png', 'Im_ElijahWood.png', 'Im_PatrickDempsey.png', 'Im_DanielRadcliffe.png', 'Im_GeorgeClooney.png', 'Im_DanielCraig.png', 'Im_MattDamon.png'],same,1,0.48349510000116425,4,83.33333333333333,
FRCH1902,train,neg,fs,negfs_id13_im15.bmp_negfs_id4_im20.bmp,['Im_RyanGosling.png', 'Im_RobertPattinson.png', 'Im_LeonardoDiCaprio.png', 'Im_BradPitt.png', 'Im_ElijahWood.png', 'Im_PatrickDempsey.png', 'Im_DanielRadcliffe.png', 'Im_GeorgeClooney.png', 'Im_DanielCraig.png', 'Im_MattDamon.png'],diff,1,0.42502800000147545,5,83.33333333333333,
FRCH1902,train,neg,120,neg120_id4_im20.bmp_neg120_id4_im7.bmp,['Im_RyanGosling.png', 'Im_RobertPattinson.png', 'Im_LeonardoDiCaprio.png', 'Im_BradPitt.png', 'Im_ElijahWood.png', 'Im_PatrickDempsey.png', 'Im_DanielRadcliffe.png', 'Im_GeorgeClooney.png', 'Im_DanielCraig.png', 'Im_MattDamon.png'],same,1,0.42539509999915026,6,83.33333333333333,
FRCH1902,train,neg,60,neg60_id14_im18.bmp_neg60_id14_im24.bmp,['Im_RyanGosling.png', 'Im_RobertPattinson.png', 'Im_LeonardoDiCaprio.png', 'Im_BradPitt.png', 'Im_ElijahWood.png', 'Im_PatrickDempsey.png', 'Im_DanielRadcliffe.png', 'Im_GeorgeClooney.png', 'Im_DanielCraig.png', 'Im_MattDamon.png'],same,1,0.5002327000001969,7,83.33333333333333,
FRCH1902,train,neg,30,neg30_id20_im30.bmp_neg30_id17_im9.bmp,['Im_RyanGosling.png', 'Im_RobertPattinson.png', 'Im_LeonardoDiCaprio.png', 'Im_BradPitt.png', 'Im_ElijahWood.png', 'Im_PatrickDempsey.png', 'Im_DanielRadcliffe.png', 'Im_GeorgeClooney.png', 'Im_DanielCraig.png', 'Im_MattDamon.png'],same,0,0.7837264000008872,7,83.33333333333333,
FRCH1902,train,neg,fs,negfs_id19_im4.bmp_negfs_id13_im15.bmp,['Im_RyanGosling.png', 'Im_RobertPattinson.png', 'Im_LeonardoDiCaprio.png', 'Im_BradPitt.png', 'Im_ElijahWood.png', 'Im_PatrickDempsey.png', 'Im_DanielRadcliffe.png', 'Im_GeorgeClooney.png', 'Im_DanielCraig.png', 'Im_MattDamon.png'],diff,1,0.43333480000001146,8,83.33333333333333,
FRCH1902,train,neg,150,neg150_id14_im24.bmp_neg150_id13_im29.bmp,['Im_RyanGosling.png', 'Im_RobertPattinson.png', 'Im_LeonardoDiCaprio.png', 'Im_BradPitt.png', 'Im_ElijahWood.png', 'Im_PatrickDempsey.png', 'Im_DanielRadcliffe.png', 'Im_GeorgeClooney.png', 'Im_DanielCraig.png', 'Im_MattDamon.png'],diff,1,1.321229900000617,9,83.33333333333333,
FRCH1902,train,neg,150,neg150_id20_im30.bmp_neg150_id14_im16.bmp,['Im_RyanGosling.png', 'Im_RobertPattinson.png', 'Im_LeonardoDiCaprio.png', 'Im_BradPitt.png', 'Im_ElijahWood.png', 'Im_PatrickDempsey.png', 'Im_DanielRadcliffe.png', 'Im_GeorgeClooney.png', 'Im_DanielCraig.png', 'Im_MattDamon.png'],diff,1,0.8417530000006082,10,83.33333333333333,
FRCH1902,train,neg,30,neg30_id3_im8.bmp_neg30_id13_im29.bmp,['Im_RyanGosling.png', 'Im_RobertPattinson.png', 'Im_LeonardoDiCaprio.png', 'Im_BradPitt.png', 'Im_ElijahWood.png', 'Im_PatrickDempsey.png', 'Im_DanielRadcliffe.png', 'Im_GeorgeClooney.png', 'Im_DanielCraig.png', 'Im_MattDamon.png'],same,0,0.4501727999995637,10,83.33333333333333,
FRCH1902,train,inv,150,pos150_id19_im27.bmp_pos150_id19_im8.bmp,['Im_RyanGosling.png', 'Im_RobertPattinson.png', 'Im_LeonardoDiCaprio.png', 'Im_BradPitt.png', 'Im_ElijahWood.png', 'Im_PatrickDempsey.png', 'Im_DanielRadcliffe.png', 'Im_GeorgeClooney.png', 'Im_DanielCraig.png', 'Im_MattDamon.png'],same,1,0.5164503999985754,11,83.33333333333333,
FRCH1902,train,inv,120,pos120_id19_im27.bmp_pos120_id19_im4.bmp,['Im_RyanGosling.png', 'Im_RobertPattinson.png', 'Im_LeonardoDiCaprio.png', 'Im_BradPitt.png', 'Im_ElijahWood.png', 'Im_PatrickDempsey.png', 'Im_DanielRadcliffe.png', 'Im_GeorgeClooney.png', 'Im_DanielCraig.png', 'Im_MattDamon.png'],diff,0,0.9835437000001548,11,83.33333333333333,
FRCH1902,train,inv,fs,posfs_id13_im29.bmp_posfs_id14_im24.bmp,['Im_RyanGosling.png', 'Im_RobertPattinson.png', 'Im_LeonardoDiCaprio.png', 'Im_BradPitt.png', 'Im_ElijahWood.png', 'Im_PatrickDempsey.png', 'Im_DanielRadcliffe.png', 'Im_GeorgeClooney.png', 'Im_DanielCraig.png', 'Im_MattDamon.png'],diff,1,0.4250140000003739,12,83.33333333333333,
FRCH1902,train,inv,60,pos60_id19_im4.bmp_pos60_id19_im8.bmp,['Im_RyanGosling.png', 'Im_RobertPattinson.png', 'Im_LeonardoDiCaprio.png', 'Im_BradPitt.png', 'Im_ElijahWood.png', 'Im_PatrickDempsey.png', 'Im_DanielRadcliffe.png', 'Im_GeorgeClooney.png', 'Im_DanielCraig.png', 'Im_MattDamon.png'],same,1,0.4334941999986768,13,83.33333333333333,
FRCH1902,train,inv,30,pos30_id4_im15.bmp_pos30_id14_im24.bmp,['Im_RyanGosling.png', 'Im_RobertPattinson.png', 'Im_LeonardoDiCaprio.png', 'Im_BradPitt.png', 'Im_ElijahWood.png', 'Im_PatrickDempsey.png', 'Im_DanielRadcliffe.png', 'Im_GeorgeClooney.png', 'Im_DanielCraig.png', 'Im_MattDamon.png'],diff,1,0.6086313000014343,14,83.33333333333333,
FRCH1902,train,inv,90,pos90_id7_im26.bmp_pos90_id7_im14.bmp,['Im_RyanGosling.png', 'Im_RobertPattinson.png', 'Im_LeonardoDiCaprio.png', 'Im_BradPitt.png', 'Im_ElijahWood.png', 'Im_PatrickDempsey.png', 'Im_DanielRadcliffe.png', 'Im_GeorgeClooney.png', 'Im_DanielCraig.png', 'Im_MattDamon.png'],diff,0,0.7748716000023705,14,83.33333333333333,
FRCH1902,train,inv,150,pos150_id17_im8.bmp_pos150_id6_im18.bmp,['Im_RyanGosling.png', 'Im_RobertPattinson.png', 'Im_LeonardoDiCaprio.png', 'Im_BradPitt.png', 'Im_ElijahWood.png', 'Im_PatrickDempsey.png', 'Im_DanielRadcliffe.png', 'Im_GeorgeClooney.png', 'Im_DanielCraig.png', 'Im_MattDamon.png'],diff,1,0.5337693000001309,15,83.33333333333333,
FRCH1902,train,inv,120,pos120_id17_im8.bmp_pos120_id17_im14.bmp,['Im_RyanGosling.png', 'Im_RobertPattinson.png', 'Im_LeonardoDiCaprio.png', 'Im_BradPitt.png', 'Im_ElijahWood.png', 'Im_PatrickDempsey.png', 'Im_DanielRadcliffe.png', 'Im_GeorgeClooney.png', 'Im_DanielCraig.png', 'Im_MattDamon.png'],same,1,0.43338630000289413,16,83.33333333333333,
FRCH1902,train,inv,fs,posfs_id5_im1.bmp_posfs_id20_im12.bmp,['Im_RyanGosling.png', 'Im_RobertPattinson.png', 'Im_LeonardoDiCaprio.png', 'Im_BradPitt.png', 'Im_ElijahWood.png', 'Im_PatrickDempsey.png', 'Im_DanielRadcliffe.png', 'Im_GeorgeClooney.png', 'Im_DanielCraig.png', 'Im_MattDamon.png'],diff,1,0.4501946999989741,17,83.33333333333333,
FRCH1902,train,inv,0,pos0_id14_im16.bmp_pos0_id17_im8.bmp,['Im_RyanGosling.png', 'Im_RobertPattinson.png', 'Im_LeonardoDiCaprio.png', 'Im_BradPitt.png', 'Im_ElijahWood.png', 'Im_PatrickDempsey.png', 'Im_DanielRadcliffe.png', 'Im_GeorgeClooney.png', 'Im_DanielCraig.png', 'Im_MattDamon.png'],diff,1,0.8500834000005852,18,83.33333333333333,
FRCH1902,train,inv,90,pos90_id14_im24.bmp_pos90_id14_im18.bmp,['Im_RyanGosling.png', 'Im_RobertPattinson.png', 'Im_LeonardoDiCaprio.png', 'Im_BradPitt.png', 'Im_ElijahWood.png', 'Im_PatrickDempsey.png', 'Im_DanielRadcliffe.png', 'Im_GeorgeClooney.png', 'Im_DanielCraig.png', 'Im_MattDamon.png'],same,1,0.5086460000020452,19,83.33333333333333,
FRCH1902,train,inv,30,pos30_id20_im12.bmp_pos30_id20_im30.bmp,['Im_RyanGosling.png', 'Im_RobertPattinson.png', 'Im_LeonardoDiCaprio.png', 'Im_BradPitt.png', 'Im_ElijahWood.png', 'Im_PatrickDempsey.png', 'Im_DanielRadcliffe.png', 'Im_GeorgeClooney.png', 'Im_DanielCraig.png', 'Im_MattDamon.png'],same,1,0.4250032000018109,20,83.33333333333333,
FRCH1902,train,inv,60,pos60_id4_im7.bmp_pos60_id4_im15.bmp,['Im_RyanGosling.png', 'Im_RobertPattinson.png', 'Im_LeonardoDiCaprio.png', 'Im_BradPitt.png', 'Im_ElijahWood.png', 'Im_PatrickDempsey.png', 'Im_DanielRadcliffe.png', 'Im_GeorgeClooney.png', 'Im_DanielCraig.png', 'Im_MattDamon.png'],same,1,0.42510910000055446,21,83.33333333333333,
FRCH1902,train,inv,0,pos0_id19_im4.bmp_pos0_id13_im15.bmp,['Im_RyanGosling.png', 'Im_RobertPattinson.png', 'Im_LeonardoDiCaprio.png', 'Im_BradPitt.png', 'Im_ElijahWood.png', 'Im_PatrickDempsey.png', 'Im_DanielRadcliffe.png', 'Im_GeorgeClooney.png', 'Im_DanielCraig.png', 'Im_MattDamon.png'],diff,1,0.5839034999989963,22,83.33333333333333,
FRCH1902,train,pos,120,pos120_id5_im20.bmp_pos120_id5_im1.bmp,['Im_RyanGosling.png', 'Im_RobertPattinson.png', 'Im_LeonardoDiCaprio.png', 'Im_BradPitt.png', 'Im_ElijahWood.png', 'Im_PatrickDempsey.png', 'Im_DanielRadcliffe.png', 'Im_GeorgeClooney.png', 'Im_DanielCraig.png', 'Im_MattDamon.png'],same,1,0.42512039999928675,23,83.33333333333333,
FRCH1902,train,pos,0,pos0_id17_im8.bmp_pos0_id17_im9.bmp,['Im_RyanGosling.png', 'Im_RobertPattinson.png', 'Im_LeonardoDiCaprio.png', 'Im_BradPitt.png', 'Im_ElijahWood.png', 'Im_PatrickDempsey.png', 'Im_DanielRadcliffe.png', 'Im_GeorgeClooney.png', 'Im_DanielCraig.png', 'Im_MattDamon.png'],same,1,0.600220199998148,24,83.33333333333333,
FRCH1902,train,pos,30,pos30_id17_im8.bmp_pos30_id17_im9.bmp,['Im_RyanGosling.png', 'Im_RobertPattinson.png', 'Im_LeonardoDiCaprio.png', 'Im_BradPitt.png', 'Im_ElijahWood.png', 'Im_PatrickDempsey.png', 'Im_DanielRadcliffe.png', 'Im_GeorgeClooney.png', 'Im_DanielCraig.png', 'Im_MattDamon.png'],same,1,0.4084234000001743,25,83.33333333333333,
FRCH1902,train,pos,120,pos120_id4_im7.bmp_pos120_id4_im20.bmp,['Im_RyanGosling.png', 'Im_RobertPattinson.png', 'Im_LeonardoDiCaprio.png', 'Im_BradPitt.png', 'Im_ElijahWood.png', 'Im_PatrickDempsey.png', 'Im_DanielRadcliffe.png', 'Im_GeorgeClooney.png', 'Im_DanielCraig.png', 'Im_MattDamon.png'],same,1,0.5750451999992947,26,83.33333333333333,
FRCH1902,train,pos,30,pos30_id13_im10.bmp_pos30_id6_im12.bmp,['Im_RyanGosling.png', 'Im_RobertPattinson.png', 'Im_LeonardoDiCaprio.png', 'Im_BradPitt.png', 'Im_ElijahWood.png', 'Im_PatrickDempsey.png', 'Im_DanielRadcliffe.png', 'Im_GeorgeClooney.png', 'Im_DanielCraig.png', 'Im_MattDamon.png'],diff,1,0.6998659999990196,27,83.33333333333333,
FRCH1902,train,pos,150,pos150_id20_im30.bmp_pos150_id20_im12.bmp,['Im_RyanGosling.png', 'Im_RobertPattinson.png', 'Im_LeonardoDiCaprio.png', 'Im_BradPitt.png', 'Im_ElijahWood.png', 'Im_PatrickDempsey.png', 'Im_DanielRadcliffe.png', 'Im_GeorgeClooney.png', 'Im_DanielCraig.png', 'Im_MattDamon.png'],same,1,0.7002650999966136,28,83.33333333333333,
FRCH1902,train,pos,fs,posfs_id3_im8.bmp_posfs_id3_im17.bmp,['Im_RyanGosling.png', 'Im_RobertPattinson.png', 'Im_LeonardoDiCaprio.png', 'Im_BradPitt.png', 'Im_ElijahWood.png', 'Im_PatrickDempsey.png', 'Im_DanielRadcliffe.png', 'Im_GeorgeClooney.png', 'Im_DanielCraig.png', 'Im_MattDamon.png'],same,1,0.6249767999979667,29,83.33333333333333,
FRCH1902,train,pos,60,pos60_id14_im18.bmp_pos60_id19_im27.bmp,['Im_RyanGosling.png', 'Im_RobertPattinson.png', 'Im_LeonardoDiCaprio.png', 'Im_BradPitt.png', 'Im_ElijahWood.png', 'Im_PatrickDempsey.png', 'Im_DanielRadcliffe.png', 'Im_GeorgeClooney.png', 'Im_DanielCraig.png', 'Im_MattDamon.png'],diff,1,0.6418240000020887,30,83.33333333333333,
FRCH1902,train,pos,90,pos90_id3_im8.bmp_pos90_id13_im29.bmp,['Im_RyanGosling.png', 'Im_RobertPattinson.png', 'Im_LeonardoDiCaprio.png', 'Im_BradPitt.png', 'Im_ElijahWood.png', 'Im_PatrickDempsey.png', 'Im_DanielRadcliffe.png', 'Im_GeorgeClooney.png', 'Im_DanielCraig.png', 'Im_MattDamon.png'],same,0,0.55825779999941,30,83.33333333333333,
FRCH1902,train,pos,60,pos60_id7_im14.bmp_pos60_id7_im26.bmp,['Im_RyanGosling.png', 'Im_RobertPattinson.png', 'Im_LeonardoDiCaprio.png', 'Im_BradPitt.png', 'Im_ElijahWood.png', 'Im_PatrickDempsey.png', 'Im_DanielRadcliffe.png', 'Im_GeorgeClooney.png', 'Im_DanielCraig.png', 'Im_MattDamon.png'],same,1,0.6830263000010746,31,83.33333333333333,
FRCH1902,train,pos,fs,posfs_id4_im7.bmp_posfs_id4_im20.bmp,['Im_RyanGosling.png', 'Im_RobertPattinson.png', 'Im_LeonardoDiCaprio.png', 'Im_BradPitt.png', 'Im_ElijahWood.png', 'Im_PatrickDempsey.png', 'Im_DanielRadcliffe.png', 'Im_GeorgeClooney.png', 'Im_DanielCraig.png', 'Im_MattDamon.png'],same,1,0.6667152000009082,32,83.33333333333333,
FRCH1902,train,pos,0,pos0_id13_im10.bmp_pos0_id6_im12.bmp,['Im_RyanGosling.png', 'Im_RobertPattinson.png', 'Im_LeonardoDiCaprio.png', 'Im_BradPitt.png', 'Im_ElijahWood.png', 'Im_PatrickDempsey.png', 'Im_DanielRadcliffe.png', 'Im_GeorgeClooney.png', 'Im_DanielCraig.png', 'Im_MattDamon.png'],diff,1,0.8499878000002354,33,83.33333333333333,
FRCH1902,train,pos,150,pos150_id20_im3.bmp_pos150_id7_im26.bmp,['Im_RyanGosling.png', 'Im_RobertPattinson.png', 'Im_LeonardoDiCaprio.png', 'Im_BradPitt.png', 'Im_ElijahWood.png', 'Im_PatrickDempsey.png', 'Im_DanielRadcliffe.png', 'Im_GeorgeClooney.png', 'Im_DanielCraig.png', 'Im_MattDamon.png'],diff,1,0.700306399998226,34,83.33333333333333,
FRCH1902,train,pos,90,pos90_id17_im8.bmp_pos90_id17_im9.bmp,['Im_RyanGosling.png', 'Im_RobertPattinson.png', 'Im_LeonardoDiCaprio.png', 'Im_BradPitt.png', 'Im_ElijahWood.png', 'Im_PatrickDempsey.png', 'Im_DanielRadcliffe.png', 'Im_GeorgeClooney.png', 'Im_DanielCraig.png', 'Im_MattDamon.png'],same,1,0.6833841000006942,35,83.33333333333333,
FRCH1902,0,pos,30,pos30_id4_im7.bmp_pos30_id7_im26.bmp,['Im_RyanGosling.png', 'Im_RobertPattinson.png', 'Im_LeonardoDiCaprio.png', 'Im_BradPitt.png', 'Im_ElijahWood.png', 'Im_PatrickDempsey.png', 'Im_DanielRadcliffe.png', 'Im_GeorgeClooney.png', 'Im_DanielCraig.png', 'Im_MattDamon.png'],diff,1,0.4083849000016926,1,0,
FRCH1902,0,pos,0,pos0_id3_im17.bmp_pos0_id17_im14.bmp,['Im_RyanGosling.png', 'Im_RobertPattinson.png', 'Im_LeonardoDiCaprio.png', 'Im_BradPitt.png', 'Im_ElijahWood.png', 'Im_PatrickDempsey.png', 'Im_DanielRadcliffe.png', 'Im_GeorgeClooney.png', 'Im_DanielCraig.png', 'Im_MattDamon.png'],diff,1,0.49256339999919874,2,0,
FRCH1902,0,pos,90,pos90_id7_im26.bmp_pos90_id7_im15.bmp,['Im_RyanGosling.png', 'Im_RobertPattinson.png', 'Im_LeonardoDiCaprio.png', 'Im_BradPitt.png', 'Im_ElijahWood.png', 'Im_PatrickDempsey.png', 'Im_DanielRadcliffe.png', 'Im_GeorgeClooney.png', 'Im_DanielCraig.png', 'Im_MattDamon.png'],same,1,0.41677139999956125,3,0,
FRCH1902,0,pos,fs,posfs_id14_im18.bmp_posfs_id14_im24.bmp,['Im_RyanGosling.png', 'Im_RobertPattinson.png', 'Im_LeonardoDiCaprio.png', 'Im_BradPitt.png', 'Im_ElijahWood.png', 'Im_PatrickDempsey.png', 'Im_DanielRadcliffe.png', 'Im_GeorgeClooney.png', 'Im_DanielCraig.png', 'Im_MattDamon.png'],same,1,0.4172784000002139,4,0,
FRCH1902,0,pos,150,pos150_id19_im27.bmp_pos150_id19_im4.bmp,['Im_RyanGosling.png', 'Im_RobertPattinson.png', 'Im_LeonardoDiCaprio.png', 'Im_BradPitt.png', 'Im_ElijahWood.png', 'Im_PatrickDempsey.png', 'Im_DanielRadcliffe.png', 'Im_GeorgeClooney.png', 'Im_DanielCraig.png', 'Im_MattDamon.png'],same,1,0.42526619999989634,5,0,
FRCH1902,0,pos,fs,posfs_id20_im3.bmp_posfs_id7_im15.bmp,['Im_RyanGosling.png', 'Im_RobertPattinson.png', 'Im_LeonardoDiCaprio.png', 'Im_BradPitt.png', 'Im_ElijahWood.png', 'Im_PatrickDempsey.png', 'Im_DanielRadcliffe.png', 'Im_GeorgeClooney.png', 'Im_DanielCraig.png', 'Im_MattDamon.png'],diff,1,0.41676169999846024,6,0,
FRCH1902,0,pos,60,pos60_id7_im14.bmp_pos60_id5_im10.bmp,['Im_RyanGosling.png', 'Im_RobertPattinson.png', 'Im_LeonardoDiCaprio.png', 'Im_BradPitt.png', 'Im_ElijahWood.png', 'Im_PatrickDempsey.png', 'Im_DanielRadcliffe.png', 'Im_GeorgeClooney.png', 'Im_DanielCraig.png', 'Im_MattDamon.png'],diff,1,0.41649860000325134,7,0,
FRCH1902,0,pos,60,pos60_id3_im8.bmp_pos60_id3_im17.bmp,['Im_RyanGosling.png', 'Im_RobertPattinson.png', 'Im_LeonardoDiCaprio.png', 'Im_BradPitt.png', 'Im_ElijahWood.png', 'Im_PatrickDempsey.png', 'Im_DanielRadcliffe.png', 'Im_GeorgeClooney.png', 'Im_DanielCraig.png', 'Im_MattDamon.png'],same,1,0.42519739999988815,8,0,
FRCH1902,0,pos,30,pos30_id6_im19.bmp_pos30_id6_im12.bmp,['Im_RyanGosling.png', 'Im_RobertPattinson.png', 'Im_LeonardoDiCaprio.png', 'Im_BradPitt.png', 'Im_ElijahWood.png', 'Im_PatrickDempsey.png', 'Im_DanielRadcliffe.png', 'Im_GeorgeClooney.png', 'Im_DanielCraig.png', 'Im_MattDamon.png'],same,1,0.641714299999876,9,0,
FRCH1902,0,pos,120,pos120_id5_im1.bmp_pos120_id6_im12.bmp,['Im_RyanGosling.png', 'Im_RobertPattinson.png', 'Im_LeonardoDiCaprio.png', 'Im_BradPitt.png', 'Im_ElijahWood.png', 'Im_PatrickDempsey.png', 'Im_DanielRadcliffe.png', 'Im_GeorgeClooney.png', 'Im_DanielCraig.png', 'Im_MattDamon.png'],same,0,0.5333973000015249,9,0,
FRCH1902,0,pos,150,pos150_id14_im16.bmp_pos150_id20_im30.bmp,['Im_RyanGosling.png', 'Im_RobertPattinson.png', 'Im_LeonardoDiCaprio.png', 'Im_BradPitt.png', 'Im_ElijahWood.png', 'Im_PatrickDempsey.png', 'Im_DanielRadcliffe.png', 'Im_GeorgeClooney.png', 'Im_DanielCraig.png', 'Im_MattDamon.png'],diff,1,0.4164509000001999,10,0,
FRCH1902,0,pos,120,pos120_id13_im10.bmp_pos120_id13_im29.bmp,['Im_RyanGosling.png', 'Im_RobertPattinson.png', 'Im_LeonardoDiCaprio.png', 'Im_BradPitt.png', 'Im_ElijahWood.png', 'Im_PatrickDempsey.png', 'Im_DanielRadcliffe.png', 'Im_GeorgeClooney.png', 'Im_DanielCraig.png', 'Im_MattDamon.png'],same,1,0.41692129999864846,11,0,
FRCH1902,0,pos,90,pos90_id4_im7.bmp_pos90_id19_im27.bmp,['Im_RyanGosling.png', 'Im_RobertPattinson.png', 'Im_LeonardoDiCaprio.png', 'Im_BradPitt.png', 'Im_ElijahWood.png', 'Im_PatrickDempsey.png', 'Im_DanielRadcliffe.png', 'Im_GeorgeClooney.png', 'Im_DanielCraig.png', 'Im_MattDamon.png'],diff,1,0.4250532000005478,12,0,
FRCH1902,0,pos,0,pos0_id13_im15.bmp_pos0_id13_im10.bmp,['Im_RyanGosling.png', 'Im_RobertPattinson.png', 'Im_LeonardoDiCaprio.png', 'Im_BradPitt.png', 'Im_ElijahWood.png', 'Im_PatrickDempsey.png', 'Im_DanielRadcliffe.png', 'Im_GeorgeClooney.png', 'Im_DanielCraig.png', 'Im_MattDamon.png'],same,1,0.42510570000013104,13,0,
FRCH1902,1,neg,60,neg60_id14_im16.bmp_neg60_id20_im30.bmp,['Im_RyanGosling.png', 'Im_RobertPattinson.png', 'Im_LeonardoDiCaprio.png', 'Im_BradPitt.png', 'Im_ElijahWood.png', 'Im_PatrickDempsey.png', 'Im_DanielRadcliffe.png', 'Im_GeorgeClooney.png', 'Im_DanielCraig.png', 'Im_MattDamon.png'],diff,1,0.4419333000005281,14,0,
FRCH1902,1,neg,60,neg60_id7_im14.bmp_neg60_id5_im10.bmp,['Im_RyanGosling.png', 'Im_RobertPattinson.png', 'Im_LeonardoDiCaprio.png', 'Im_BradPitt.png', 'Im_ElijahWood.png', 'Im_PatrickDempsey.png', 'Im_DanielRadcliffe.png', 'Im_GeorgeClooney.png', 'Im_DanielCraig.png', 'Im_MattDamon.png'],diff,1,0.4167565999996441,15,0,
FRCH1902,1,neg,fs,negfs_id7_im15.bmp_negfs_id3_im17.bmp,['Im_RyanGosling.png', 'Im_RobertPattinson.png', 'Im_LeonardoDiCaprio.png', 'Im_BradPitt.png', 'Im_ElijahWood.png', 'Im_PatrickDempsey.png', 'Im_DanielRadcliffe.png', 'Im_GeorgeClooney.png', 'Im_DanielCraig.png', 'Im_MattDamon.png'],same,0,0.4251186000001326,15,0,
FRCH1902,1,neg,120,neg120_id7_im15.bmp_neg120_id20_im3.bmp,['Im_RyanGosling.png', 'Im_RobertPattinson.png', 'Im_LeonardoDiCaprio.png', 'Im_BradPitt.png', 'Im_ElijahWood.png', 'Im_PatrickDempsey.png', 'Im_DanielRadcliffe.png', 'Im_GeorgeClooney.png', 'Im_DanielCraig.png', 'Im_MattDamon.png'],diff,1,0.4335811000019021,16,0,
FRCH1902,1,neg,90,neg90_id19_im8.bmp_neg90_id19_im27.bmp,['Im_RyanGosling.png', 'Im_RobertPattinson.png', 'Im_LeonardoDiCaprio.png', 'Im_BradPitt.png', 'Im_ElijahWood.png', 'Im_PatrickDempsey.png', 'Im_DanielRadcliffe.png', 'Im_GeorgeClooney.png', 'Im_DanielCraig.png', 'Im_MattDamon.png'],same,1,0.4167444000013347,17,0,
FRCH1902,1,neg,120,neg120_id3_im8.bmp_neg120_id5_im10.bmp,['Im_RyanGosling.png', 'Im_RobertPattinson.png', 'Im_LeonardoDiCaprio.png', 'Im_BradPitt.png', 'Im_ElijahWood.png', 'Im_PatrickDempsey.png', 'Im_DanielRadcliffe.png', 'Im_GeorgeClooney.png', 'Im_DanielCraig.png', 'Im_MattDamon.png'],diff,1,0.40839449999839417,18,0,
FRCH1902,1,neg,0,neg0_id4_im15.bmp_neg0_id13_im10.bmp,['Im_RyanGosling.png', 'Im_RobertPattinson.png', 'Im_LeonardoDiCaprio.png', 'Im_BradPitt.png', 'Im_ElijahWood.png', 'Im_PatrickDempsey.png', 'Im_DanielRadcliffe.png', 'Im_GeorgeClooney.png', 'Im_DanielCraig.png', 'Im_MattDamon.png'],diff,1,0.4417174000009254,19,0,
FRCH1902,1,neg,150,neg150_id20_im3.bmp_neg150_id7_im26.bmp,['Im_RyanGosling.png', 'Im_RobertPattinson.png', 'Im_LeonardoDiCaprio.png', 'Im_BradPitt.png', 'Im_ElijahWood.png', 'Im_PatrickDempsey.png', 'Im_DanielRadcliffe.png', 'Im_GeorgeClooney.png', 'Im_DanielCraig.png', 'Im_MattDamon.png'],diff,1,0.533566800000699,20,0,
FRCH1902,1,neg,150,neg150_id7_im14.bmp_neg150_id17_im9.bmp,['Im_RyanGosling.png', 'Im_RobertPattinson.png', 'Im_LeonardoDiCaprio.png', 'Im_BradPitt.png', 'Im_ElijahWood.png', 'Im_PatrickDempsey.png', 'Im_DanielRadcliffe.png', 'Im_GeorgeClooney.png', 'Im_DanielCraig.png', 'Im_MattDamon.png'],diff,1,1.1091611999981978,21,0,
FRCH1902,1,neg,30,neg30_id14_im18.bmp_neg30_id14_im24.bmp,['Im_RyanGosling.png', 'Im_RobertPattinson.png', 'Im_LeonardoDiCaprio.png', 'Im_BradPitt.png', 'Im_ElijahWood.png', 'Im_PatrickDempsey.png', 'Im_DanielRadcliffe.png', 'Im_GeorgeClooney.png', 'Im_DanielCraig.png', 'Im_MattDamon.png'],same,1,0.42507560000012745,22,0,
FRCH1902,1,neg,0,neg0_id7_im14.bmp_neg0_id7_im15.bmp,['Im_RyanGosling.png', 'Im_RobertPattinson.png', 'Im_LeonardoDiCaprio.png', 'Im_BradPitt.png', 'Im_ElijahWood.png', 'Im_PatrickDempsey.png', 'Im_DanielRadcliffe.png', 'Im_GeorgeClooney.png', 'Im_DanielCraig.png', 'Im_MattDamon.png'],same,1,0.4503227999994124,23,0,
FRCH1902,1,neg,30,neg30_id5_im1.bmp_neg30_id20_im12.bmp,['Im_RyanGosling.png', 'Im_RobertPattinson.png', 'Im_LeonardoDiCaprio.png', 'Im_BradPitt.png', 'Im_ElijahWood.png', 'Im_PatrickDempsey.png', 'Im_DanielRadcliffe.png', 'Im_GeorgeClooney.png', 'Im_DanielCraig.png', 'Im_MattDamon.png'],diff,1,0.41673399999854155,24,0,
FRCH1902,1,neg,fs,negfs_id4_im15.bmp_negfs_id4_im7.bmp,['Im_RyanGosling.png', 'Im_RobertPattinson.png', 'Im_LeonardoDiCaprio.png', 'Im_BradPitt.png', 'Im_ElijahWood.png', 'Im_PatrickDempsey.png', 'Im_DanielRadcliffe.png', 'Im_GeorgeClooney.png', 'Im_DanielCraig.png', 'Im_MattDamon.png'],same,1,0.43344750000323984,25,0,
FRCH1902,1,neg,90,neg90_id19_im8.bmp_neg90_id4_im20.bmp,['Im_RyanGosling.png', 'Im_RobertPattinson.png', 'Im_LeonardoDiCaprio.png', 'Im_BradPitt.png', 'Im_ElijahWood.png', 'Im_PatrickDempsey.png', 'Im_DanielRadcliffe.png', 'Im_GeorgeClooney.png', 'Im_DanielCraig.png', 'Im_MattDamon.png'],diff,1,0.41668679999929736,26,0,
FRCH1902,2,inv,120,pos120_id6_im19.bmp_pos120_id6_im18.bmp,['Im_RyanGosling.png', 'Im_RobertPattinson.png', 'Im_LeonardoDiCaprio.png', 'Im_BradPitt.png', 'Im_ElijahWood.png', 'Im_PatrickDempsey.png', 'Im_DanielRadcliffe.png', 'Im_GeorgeClooney.png', 'Im_DanielCraig.png', 'Im_MattDamon.png'],diff,0,0.9751256999988982,26,0,
FRCH1902,2,inv,150,pos150_id4_im20.bmp_pos150_id4_im7.bmp,['Im_RyanGosling.png', 'Im_RobertPattinson.png', 'Im_LeonardoDiCaprio.png', 'Im_BradPitt.png', 'Im_ElijahWood.png', 'Im_PatrickDempsey.png', 'Im_DanielRadcliffe.png', 'Im_GeorgeClooney.png', 'Im_DanielCraig.png', 'Im_MattDamon.png'],same,1,0.41671629999837023,27,0,
FRCH1902,2,inv,0,pos0_id6_im19.bmp_pos0_id3_im6.bmp,['Im_RyanGosling.png', 'Im_RobertPattinson.png', 'Im_LeonardoDiCaprio.png', 'Im_BradPitt.png', 'Im_ElijahWood.png', 'Im_PatrickDempsey.png', 'Im_DanielRadcliffe.png', 'Im_GeorgeClooney.png', 'Im_DanielCraig.png', 'Im_MattDamon.png'],diff,1,0.43353140000181156,28,0,
FRCH1902,2,inv,30,pos30_id14_im16.bmp_pos30_id14_im18.bmp,['Im_RyanGosling.png', 'Im_RobertPattinson.png', 'Im_LeonardoDiCaprio.png', 'Im_BradPitt.png', 'Im_ElijahWood.png', 'Im_PatrickDempsey.png', 'Im_DanielRadcliffe.png', 'Im_GeorgeClooney.png', 'Im_DanielCraig.png', 'Im_MattDamon.png'],same,1,0.42509699999936856,29,0,
FRCH1902,2,inv,0,pos0_id4_im7.bmp_pos0_id4_im15.bmp,['Im_RyanGosling.png', 'Im_RobertPattinson.png', 'Im_LeonardoDiCaprio.png', 'Im_BradPitt.png', 'Im_ElijahWood.png', 'Im_PatrickDempsey.png', 'Im_DanielRadcliffe.png', 'Im_GeorgeClooney.png', 'Im_DanielCraig.png', 'Im_MattDamon.png'],same,1,0.4248952999987523,30,0,
FRCH1902,2,inv,fs,posfs_id4_im7.bmp_posfs_id19_im27.bmp,['Im_RyanGosling.png', 'Im_RobertPattinson.png', 'Im_LeonardoDiCaprio.png', 'Im_BradPitt.png', 'Im_ElijahWood.png', 'Im_PatrickDempsey.png', 'Im_DanielRadcliffe.png', 'Im_GeorgeClooney.png', 'Im_DanielCraig.png', 'Im_MattDamon.png'],diff,1,0.4250619000013103,31,0,
FRCH1902,2,inv,90,pos90_id19_im4.bmp_pos90_id19_im27.bmp,['Im_RyanGosling.png', 'Im_RobertPattinson.png', 'Im_LeonardoDiCaprio.png', 'Im_BradPitt.png', 'Im_ElijahWood.png', 'Im_PatrickDempsey.png', 'Im_DanielRadcliffe.png', 'Im_GeorgeClooney.png', 'Im_DanielCraig.png', 'Im_MattDamon.png'],same,1,0.5089999000010721,32,0,
FRCH1902,2,inv,fs,posfs_id17_im8.bmp_posfs_id14_im16.bmp,['Im_RyanGosling.png', 'Im_RobertPattinson.png', 'Im_LeonardoDiCaprio.png', 'Im_BradPitt.png', 'Im_ElijahWood.png', 'Im_PatrickDempsey.png', 'Im_DanielRadcliffe.png', 'Im_GeorgeClooney.png', 'Im_DanielCraig.png', 'Im_MattDamon.png'],diff,1,0.4250945999992837,33,0,
FRCH1902,2,inv,90,pos90_id13_im10.bmp_pos90_id4_im15.bmp,['Im_RyanGosling.png', 'Im_RobertPattinson.png', 'Im_LeonardoDiCaprio.png', 'Im_BradPitt.png', 'Im_ElijahWood.png', 'Im_PatrickDempsey.png', 'Im_DanielRadcliffe.png', 'Im_GeorgeClooney.png', 'Im_DanielCraig.png', 'Im_MattDamon.png'],diff,1,0.41701519999696757,34,0,
FRCH1902,2,inv,60,pos60_id3_im6.bmp_pos60_id6_im19.bmp,['Im_RyanGosling.png', 'Im_RobertPattinson.png', 'Im_LeonardoDiCaprio.png', 'Im_BradPitt.png', 'Im_ElijahWood.png', 'Im_PatrickDempsey.png', 'Im_DanielRadcliffe.png', 'Im_GeorgeClooney.png', 'Im_DanielCraig.png', 'Im_MattDamon.png'],diff,1,0.8919440999998187,35,0,
FRCH1902,2,inv,150,pos150_id7_im26.bmp_pos150_id20_im3.bmp,['Im_RyanGosling.png', 'Im_RobertPattinson.png', 'Im_LeonardoDiCaprio.png', 'Im_BradPitt.png', 'Im_ElijahWood.png', 'Im_PatrickDempsey.png', 'Im_DanielRadcliffe.png', 'Im_GeorgeClooney.png', 'Im_DanielCraig.png', 'Im_MattDamon.png'],diff,1,0.41677379999964614,36,0,
FRCH1902,2,inv,30,pos30_id17_im14.bmp_pos30_id3_im17.bmp,['Im_RyanGosling.png', 'Im_RobertPattinson.png', 'Im_LeonardoDiCaprio.png', 'Im_BradPitt.png', 'Im_ElijahWood.png', 'Im_PatrickDempsey.png', 'Im_DanielRadcliffe.png', 'Im_GeorgeClooney.png', 'Im_DanielCraig.png', 'Im_MattDamon.png'],same,0,1.041544600000634,36,0,
FRCH1902,2,inv,120,pos120_id20_im3.bmp_pos120_id7_im15.bmp,['Im_RyanGosling.png', 'Im_RobertPattinson.png', 'Im_LeonardoDiCaprio.png', 'Im_BradPitt.png', 'Im_ElijahWood.png', 'Im_PatrickDempsey.png', 'Im_DanielRadcliffe.png', 'Im_GeorgeClooney.png', 'Im_DanielCraig.png', 'Im_MattDamon.png'],diff,1,0.4084082000008493,37,0,
FRCH1902,2,inv,60,pos60_id14_im16.bmp_pos60_id14_im24.bmp,['Im_RyanGosling.png', 'Im_RobertPattinson.png', 'Im_LeonardoDiCaprio.png', 'Im_BradPitt.png', 'Im_ElijahWood.png', 'Im_PatrickDempsey.png', 'Im_DanielRadcliffe.png', 'Im_GeorgeClooney.png', 'Im_DanielCraig.png', 'Im_MattDamon.png'],same,1,0.4166648000027635,38,0,
FRCH1902,3,neg,0,neg0_id17_im14.bmp_neg0_id17_im8.bmp,['Im_RyanGosling.png', 'Im_RobertPattinson.png', 'Im_LeonardoDiCaprio.png', 'Im_BradPitt.png', 'Im_ElijahWood.png', 'Im_PatrickDempsey.png', 'Im_DanielRadcliffe.png', 'Im_GeorgeClooney.png', 'Im_DanielCraig.png', 'Im_MattDamon.png'],diff,0,0.4167066000009072,0,90.47619047619048,
FRCH1902,3,neg,120,neg120_id14_im16.bmp_neg120_id14_im24.bmp,['Im_RyanGosling.png', 'Im_RobertPattinson.png', 'Im_LeonardoDiCaprio.png', 'Im_BradPitt.png', 'Im_ElijahWood.png', 'Im_PatrickDempsey.png', 'Im_DanielRadcliffe.png', 'Im_GeorgeClooney.png', 'Im_DanielCraig.png', 'Im_MattDamon.png'],same,1,0.48329799999919487,1,90.47619047619048,
FRCH1902,3,neg,fs,negfs_id6_im18.bmp_negfs_id3_im6.bmp,['Im_RyanGosling.png', 'Im_RobertPattinson.png', 'Im_LeonardoDiCaprio.png', 'Im_BradPitt.png', 'Im_ElijahWood.png', 'Im_PatrickDempsey.png', 'Im_DanielRadcliffe.png', 'Im_GeorgeClooney.png', 'Im_DanielCraig.png', 'Im_MattDamon.png'],diff,1,0.4167431999994733,2,90.47619047619048,
FRCH1902,3,neg,120,neg120_id6_im12.bmp_neg120_id5_im1.bmp,['Im_RyanGosling.png', 'Im_RobertPattinson.png', 'Im_LeonardoDiCaprio.png', 'Im_BradPitt.png', 'Im_ElijahWood.png', 'Im_PatrickDempsey.png', 'Im_DanielRadcliffe.png', 'Im_GeorgeClooney.png', 'Im_DanielCraig.png', 'Im_MattDamon.png'],same,0,0.4166962999988755,2,90.47619047619048,
FRCH1902,3,neg,60,neg60_id7_im15.bmp_neg60_id3_im17.bmp,['Im_RyanGosling.png', 'Im_RobertPattinson.png', 'Im_LeonardoDiCaprio.png', 'Im_BradPitt.png', 'Im_ElijahWood.png', 'Im_PatrickDempsey.png', 'Im_DanielRadcliffe.png', 'Im_GeorgeClooney.png', 'Im_DanielCraig.png', 'Im_MattDamon.png'],same,0,0.42514479999954347,2,90.47619047619048,
FRCH1902,3,neg,fs,negfs_id13_im29.bmp_negfs_id3_im8.bmp,['Im_RyanGosling.png', 'Im_RobertPattinson.png', 'Im_LeonardoDiCaprio.png', 'Im_BradPitt.png', 'Im_ElijahWood.png', 'Im_PatrickDempsey.png', 'Im_DanielRadcliffe.png', 'Im_GeorgeClooney.png', 'Im_DanielCraig.png', 'Im_MattDamon.png'],diff,1,0.6667498999995587,3,90.47619047619048,
FRCH1902,3,neg,90,neg90_id17_im9.bmp_neg90_id17_im8.bmp,['Im_RyanGosling.png', 'Im_RobertPattinson.png', 'Im_LeonardoDiCaprio.png', 'Im_BradPitt.png', 'Im_ElijahWood.png', 'Im_PatrickDempsey.png', 'Im_DanielRadcliffe.png', 'Im_GeorgeClooney.png', 'Im_DanielCraig.png', 'Im_MattDamon.png'],same,1,0.7750789000019722,4,90.47619047619048,
FRCH1902,3,neg,0,neg0_id5_im1.bmp_neg0_id20_im12.bmp,['Im_RyanGosling.png', 'Im_RobertPattinson.png', 'Im_LeonardoDiCaprio.png', 'Im_BradPitt.png', 'Im_ElijahWood.png', 'Im_PatrickDempsey.png', 'Im_DanielRadcliffe.png', 'Im_GeorgeClooney.png', 'Im_DanielCraig.png', 'Im_MattDamon.png'],diff,1,0.4166064000019105,5,90.47619047619048,
FRCH1902,3,neg,30,neg30_id4_im15.bmp_neg30_id4_im20.bmp,['Im_RyanGosling.png', 'Im_RobertPattinson.png', 'Im_LeonardoDiCaprio.png', 'Im_BradPitt.png', 'Im_ElijahWood.png', 'Im_PatrickDempsey.png', 'Im_DanielRadcliffe.png', 'Im_GeorgeClooney.png', 'Im_DanielCraig.png', 'Im_MattDamon.png'],same,1,0.4669785000005504,6,90.47619047619048,
FRCH1902,3,neg,30,neg30_id14_im16.bmp_neg30_id17_im8.bmp,['Im_RyanGosling.png', 'Im_RobertPattinson.png', 'Im_LeonardoDiCaprio.png', 'Im_BradPitt.png', 'Im_ElijahWood.png', 'Im_PatrickDempsey.png', 'Im_DanielRadcliffe.png', 'Im_GeorgeClooney.png', 'Im_DanielCraig.png', 'Im_MattDamon.png'],diff,1,0.42507869999826653,7,90.47619047619048,
FRCH1902,3,neg,150,neg150_id14_im16.bmp_neg150_id14_im24.bmp,['Im_RyanGosling.png', 'Im_RobertPattinson.png', 'Im_LeonardoDiCaprio.png', 'Im_BradPitt.png', 'Im_ElijahWood.png', 'Im_PatrickDempsey.png', 'Im_DanielRadcliffe.png', 'Im_GeorgeClooney.png', 'Im_DanielCraig.png', 'Im_MattDamon.png'],same,1,0.42501780000020517,8,90.47619047619048,
FRCH1902,3,neg,150,neg150_id20_im3.bmp_neg150_id7_im15.bmp,['Im_RyanGosling.png', 'Im_RobertPattinson.png', 'Im_LeonardoDiCaprio.png', 'Im_BradPitt.png', 'Im_ElijahWood.png', 'Im_PatrickDempsey.png', 'Im_DanielRadcliffe.png', 'Im_GeorgeClooney.png', 'Im_DanielCraig.png', 'Im_MattDamon.png'],diff,1,0.6586361000008765,9,90.47619047619048,
FRCH1902,3,neg,90,neg90_id7_im14.bmp_neg90_id17_im9.bmp,['Im_RyanGosling.png', 'Im_RobertPattinson.png', 'Im_LeonardoDiCaprio.png', 'Im_BradPitt.png', 'Im_ElijahWood.png', 'Im_PatrickDempsey.png', 'Im_DanielRadcliffe.png', 'Im_GeorgeClooney.png', 'Im_DanielCraig.png', 'Im_MattDamon.png'],diff,1,0.5336886000004597,10,90.47619047619048,
FRCH1902,3,neg,60,neg60_id17_im8.bmp_neg60_id6_im18.bmp,['Im_RyanGosling.png', 'Im_RobertPattinson.png', 'Im_LeonardoDiCaprio.png', 'Im_BradPitt.png', 'Im_ElijahWood.png', 'Im_PatrickDempsey.png', 'Im_DanielRadcliffe.png', 'Im_GeorgeClooney.png', 'Im_DanielCraig.png', 'Im_MattDamon.png'],diff,1,0.6587897999997949,11,90.47619047619048,
FRCH1902,4,pos,30,pos30_id19_im27.bmp_pos30_id19_im8.bmp,['Im_RyanGosling.png', 'Im_RobertPattinson.png', 'Im_LeonardoDiCaprio.png', 'Im_BradPitt.png', 'Im_ElijahWood.png', 'Im_PatrickDempsey.png', 'Im_DanielRadcliffe.png', 'Im_GeorgeClooney.png', 'Im_DanielCraig.png', 'Im_MattDamon.png'],same,1,0.4166849000030197,12,90.47619047619048,
FRCH1902,4,pos,150,pos150_id3_im8.bmp_pos150_id13_im29.bmp,['Im_RyanGosling.png', 'Im_RobertPattinson.png', 'Im_LeonardoDiCaprio.png', 'Im_BradPitt.png', 'Im_ElijahWood.png', 'Im_PatrickDempsey.png', 'Im_DanielRadcliffe.png', 'Im_GeorgeClooney.png', 'Im_DanielCraig.png', 'Im_MattDamon.png'],diff,1,0.41678070000125444,13,90.47619047619048,
FRCH1902,4,pos,60,pos60_id5_im1.bmp_pos60_id6_im12.bmp,['Im_RyanGosling.png', 'Im_RobertPattinson.png', 'Im_LeonardoDiCaprio.png', 'Im_BradPitt.png', 'Im_ElijahWood.png', 'Im_PatrickDempsey.png', 'Im_DanielRadcliffe.png', 'Im_GeorgeClooney.png', 'Im_DanielCraig.png', 'Im_MattDamon.png'],same,0,1.1584746000007726,13,90.47619047619048,
FRCH1902,4,pos,150,pos150_id13_im10.bmp_pos150_id6_im12.bmp,['Im_RyanGosling.png', 'Im_RobertPattinson.png', 'Im_LeonardoDiCaprio.png', 'Im_BradPitt.png', 'Im_ElijahWood.png', 'Im_PatrickDempsey.png', 'Im_DanielRadcliffe.png', 'Im_GeorgeClooney.png', 'Im_DanielCraig.png', 'Im_MattDamon.png'],diff,1,0.5000695999988238,14,90.47619047619048,
FRCH1902,4,pos,90,pos90_id4_im15.bmp_pos90_id4_im20.bmp,['Im_RyanGosling.png', 'Im_RobertPattinson.png', 'Im_LeonardoDiCaprio.png', 'Im_BradPitt.png', 'Im_ElijahWood.png', 'Im_PatrickDempsey.png', 'Im_DanielRadcliffe.png', 'Im_GeorgeClooney.png', 'Im_DanielCraig.png', 'Im_MattDamon.png'],same,1,0.41666759999861824,15,90.47619047619048,
FRCH1902,4,pos,30,pos30_id20_im12.bmp_pos30_id14_im18.bmp,['Im_RyanGosling.png', 'Im_RobertPattinson.png', 'Im_LeonardoDiCaprio.png', 'Im_BradPitt.png', 'Im_ElijahWood.png', 'Im_PatrickDempsey.png', 'Im_DanielRadcliffe.png', 'Im_GeorgeClooney.png', 'Im_DanielCraig.png', 'Im_MattDamon.png'],diff,1,0.4251580999989528,16,90.47619047619048,
FRCH1902,4,pos,60,pos60_id19_im8.bmp_pos60_id19_im4.bmp,['Im_RyanGosling.png', 'Im_RobertPattinson.png', 'Im_LeonardoDiCaprio.png', 'Im_BradPitt.png', 'Im_ElijahWood.png', 'Im_PatrickDempsey.png', 'Im_DanielRadcliffe.png', 'Im_GeorgeClooney.png', 'Im_DanielCraig.png', 'Im_MattDamon.png'],same,1,0.4168485000009241,17,90.47619047619048,
FRCH1902,4,pos,90,pos90_id7_im14.bmp_pos90_id5_im10.bmp,['Im_RyanGosling.png', 'Im_RobertPattinson.png', 'Im_LeonardoDiCaprio.png', 'Im_BradPitt.png', 'Im_ElijahWood.png', 'Im_PatrickDempsey.png', 'Im_DanielRadcliffe.png', 'Im_GeorgeClooney.png', 'Im_DanielCraig.png', 'Im_MattDamon.png'],diff,1,0.4167928999995638,18,90.47619047619048,
FRCH1902,4,pos,fs,posfs_id6_im18.bmp_posfs_id17_im8.bmp,['Im_RyanGosling.png', 'Im_RobertPattinson.png', 'Im_LeonardoDiCaprio.png', 'Im_BradPitt.png', 'Im_ElijahWood.png', 'Im_PatrickDempsey.png', 'Im_DanielRadcliffe.png', 'Im_GeorgeClooney.png', 'Im_DanielCraig.png', 'Im_MattDamon.png'],diff,1,0.4084011000013561,19,90.47619047619048,
FRCH1902,4,pos,0,pos0_id3_im6.bmp_pos0_id6_im19.bmp,['Im_RyanGosling.png', 'Im_RobertPattinson.png', 'Im_LeonardoDiCaprio.png', 'Im_BradPitt.png', 'Im_ElijahWood.png', 'Im_PatrickDempsey.png', 'Im_DanielRadcliffe.png', 'Im_GeorgeClooney.png', 'Im_DanielCraig.png', 'Im_MattDamon.png'],diff,1,0.42504720000215457,20,90.47619047619048,
FRCH1902,4,pos,120,pos120_id20_im30.bmp_pos120_id14_im16.bmp,['Im_RyanGosling.png', 'Im_RobertPattinson.png', 'Im_LeonardoDiCaprio.png', 'Im_BradPitt.png', 'Im_ElijahWood.png', 'Im_PatrickDempsey.png', 'Im_DanielRadcliffe.png', 'Im_GeorgeClooney.png', 'Im_DanielCraig.png', 'Im_MattDamon.png'],diff,1,0.7084035999978369,21,90.47619047619048,
FRCH1902,4,pos,120,pos120_id14_im18.bmp_pos120_id14_im16.bmp,['Im_RyanGosling.png', 'Im_RobertPattinson.png', 'Im_LeonardoDiCaprio.png', 'Im_BradPitt.png', 'Im_ElijahWood.png', 'Im_PatrickDempsey.png', 'Im_DanielRadcliffe.png', 'Im_GeorgeClooney.png', 'Im_DanielCraig.png', 'Im_MattDamon.png'],same,1,0.4250255000006291,22,90.47619047619048,
FRCH1902,4,pos,0,pos0_id13_im10.bmp_pos0_id4_im15.bmp,['Im_RyanGosling.png', 'Im_RobertPattinson.png', 'Im_LeonardoDiCaprio.png', 'Im_BradPitt.png', 'Im_ElijahWood.png', 'Im_PatrickDempsey.png', 'Im_DanielRadcliffe.png', 'Im_GeorgeClooney.png', 'Im_DanielCraig.png', 'Im_MattDamon.png'],diff,1,0.4167170000000624,23,90.47619047619048,
FRCH1902,4,pos,fs,posfs_id4_im20.bmp_posfs_id13_im15.bmp,['Im_RyanGosling.png', 'Im_RobertPattinson.png', 'Im_LeonardoDiCaprio.png', 'Im_BradPitt.png', 'Im_ElijahWood.png', 'Im_PatrickDempsey.png', 'Im_DanielRadcliffe.png', 'Im_GeorgeClooney.png', 'Im_DanielCraig.png', 'Im_MattDamon.png'],diff,1,0.4164707999989332,24,90.47619047619048,
FRCH1902,5,inv,60,pos60_id20_im30.bmp_pos60_id17_im9.bmp,['Im_RyanGosling.png', 'Im_RobertPattinson.png', 'Im_LeonardoDiCaprio.png', 'Im_BradPitt.png', 'Im_ElijahWood.png', 'Im_PatrickDempsey.png', 'Im_DanielRadcliffe.png', 'Im_GeorgeClooney.png', 'Im_DanielCraig.png', 'Im_MattDamon.png'],diff,1,0.5587685999998939,25,90.47619047619048,
FRCH1902,5,inv,30,pos30_id20_im3.bmp_pos30_id20_im12.bmp,['Im_RyanGosling.png', 'Im_RobertPattinson.png', 'Im_LeonardoDiCaprio.png', 'Im_BradPitt.png', 'Im_ElijahWood.png', 'Im_PatrickDempsey.png', 'Im_DanielRadcliffe.png', 'Im_GeorgeClooney.png', 'Im_DanielCraig.png', 'Im_MattDamon.png'],same,1,0.8421377999984543,26,90.47619047619048,
FRCH1902,5,inv,fs,posfs_id6_im18.bmp_posfs_id17_im8.bmp,['Im_RyanGosling.png', 'Im_RobertPattinson.png', 'Im_LeonardoDiCaprio.png', 'Im_BradPitt.png', 'Im_ElijahWood.png', 'Im_PatrickDempsey.png', 'Im_DanielRadcliffe.png', 'Im_GeorgeClooney.png', 'Im_DanielCraig.png', 'Im_MattDamon.png'],diff,1,0.4081836999976076,27,90.47619047619048,
FRCH1902,5,inv,30,pos30_id4_im15.bmp_pos30_id13_im10.bmp,['Im_RyanGosling.png', 'Im_RobertPattinson.png', 'Im_LeonardoDiCaprio.png', 'Im_BradPitt.png', 'Im_ElijahWood.png', 'Im_PatrickDempsey.png', 'Im_DanielRadcliffe.png', 'Im_GeorgeClooney.png', 'Im_DanielCraig.png', 'Im_MattDamon.png'],diff,1,1.0088527999978396,28,90.47619047619048,
FRCH1902,5,inv,fs,posfs_id5_im10.bmp_posfs_id5_im1.bmp,['Im_RyanGosling.png', 'Im_RobertPattinson.png', 'Im_LeonardoDiCaprio.png', 'Im_BradPitt.png', 'Im_ElijahWood.png', 'Im_PatrickDempsey.png', 'Im_DanielRadcliffe.png', 'Im_GeorgeClooney.png', 'Im_DanielCraig.png', 'Im_MattDamon.png'],same,1,0.4168006999971112,29,90.47619047619048,
FRCH1902,5,inv,120,pos120_id20_im30.bmp_pos120_id17_im9.bmp,['Im_RyanGosling.png', 'Im_RobertPattinson.png', 'Im_LeonardoDiCaprio.png', 'Im_BradPitt.png', 'Im_ElijahWood.png', 'Im_PatrickDempsey.png', 'Im_DanielRadcliffe.png', 'Im_GeorgeClooney.png', 'Im_DanielCraig.png', 'Im_MattDamon.png'],diff,1,0.43356589999893913,30,90.47619047619048,
FRCH1902,5,inv,60,pos60_id17_im8.bmp_pos60_id17_im14.bmp,['Im_RyanGosling.png', 'Im_RobertPattinson.png', 'Im_LeonardoDiCaprio.png', 'Im_BradPitt.png', 'Im_ElijahWood.png', 'Im_PatrickDempsey.png', 'Im_DanielRadcliffe.png', 'Im_GeorgeClooney.png', 'Im_DanielCraig.png', 'Im_MattDamon.png'],same,1,0.5252949999994598,31,90.47619047619048,
FRCH1902,5,inv,90,pos90_id17_im8.bmp_pos90_id14_im16.bmp,['Im_RyanGosling.png', 'Im_RobertPattinson.png', 'Im_LeonardoDiCaprio.png', 'Im_BradPitt.png', 'Im_ElijahWood.png', 'Im_PatrickDempsey.png', 'Im_DanielRadcliffe.png', 'Im_GeorgeClooney.png', 'Im_DanielCraig.png', 'Im_MattDamon.png'],diff,1,0.40832489999957033,32,90.47619047619048,
FRCH1902,5,inv,90,pos90_id17_im14.bmp_pos90_id3_im17.bmp,['Im_RyanGosling.png', 'Im_RobertPattinson.png', 'Im_LeonardoDiCaprio.png', 'Im_BradPitt.png', 'Im_ElijahWood.png', 'Im_PatrickDempsey.png', 'Im_DanielRadcliffe.png', 'Im_GeorgeClooney.png', 'Im_DanielCraig.png', 'Im_MattDamon.png'],diff,1,1.1249375000006694,33,90.47619047619048,
FRCH1902,5,inv,150,pos150_id17_im9.bmp_pos150_id17_im8.bmp,['Im_RyanGosling.png', 'Im_RobertPattinson.png', 'Im_LeonardoDiCaprio.png', 'Im_BradPitt.png', 'Im_ElijahWood.png', 'Im_PatrickDempsey.png', 'Im_DanielRadcliffe.png', 'Im_GeorgeClooney.png', 'Im_DanielCraig.png', 'Im_MattDamon.png'],same,1,0.8000154000001203,34,90.47619047619048,
FRCH1902,5,inv,0,pos0_id20_im12.bmp_pos0_id20_im30.bmp,['Im_RyanGosling.png', 'Im_RobertPattinson.png', 'Im_LeonardoDiCaprio.png', 'Im_BradPitt.png', 'Im_ElijahWood.png', 'Im_PatrickDempsey.png', 'Im_DanielRadcliffe.png', 'Im_GeorgeClooney.png', 'Im_DanielCraig.png', 'Im_MattDamon.png'],diff,0,0.45822580000094604,34,90.47619047619048,
FRCH1902,5,inv,0,pos0_id14_im18.bmp_pos0_id14_im16.bmp,['Im_RyanGosling.png', 'Im_RobertPattinson.png', 'Im_LeonardoDiCaprio.png', 'Im_BradPitt.png', 'Im_ElijahWood.png', 'Im_PatrickDempsey.png', 'Im_DanielRadcliffe.png', 'Im_GeorgeClooney.png', 'Im_DanielCraig.png', 'Im_MattDamon.png'],same,1,0.5670281999991857,35,90.47619047619048,
FRCH1902,5,inv,120,pos120_id6_im12.bmp_pos120_id5_im1.bmp,['Im_RyanGosling.png', 'Im_RobertPattinson.png', 'Im_LeonardoDiCaprio.png', 'Im_BradPitt.png', 'Im_ElijahWood.png', 'Im_PatrickDempsey.png', 'Im_DanielRadcliffe.png', 'Im_GeorgeClooney.png', 'Im_DanielCraig.png', 'Im_MattDamon.png'],same,0,0.4166819000020041,35,90.47619047619048,
FRCH1902,5,inv,150,pos150_id7_im15.bmp_pos150_id7_im26.bmp,['Im_RyanGosling.png', 'Im_RobertPattinson.png', 'Im_LeonardoDiCaprio.png', 'Im_BradPitt.png', 'Im_ElijahWood.png', 'Im_PatrickDempsey.png', 'Im_DanielRadcliffe.png', 'Im_GeorgeClooney.png', 'Im_DanielCraig.png', 'Im_MattDamon.png'],same,1,0.7333786999988661,36,90.47619047619048,
FRCH1902,6,pos,150,pos150_id7_im14.bmp_pos150_id7_im15.bmp,['Im_RyanGosling.png', 'Im_RobertPattinson.png', 'Im_LeonardoDiCaprio.png', 'Im_BradPitt.png', 'Im_ElijahWood.png', 'Im_PatrickDempsey.png', 'Im_DanielRadcliffe.png', 'Im_GeorgeClooney.png', 'Im_DanielCraig.png', 'Im_MattDamon.png'],same,1,0.4250575000005483,1,85.71428571428571,
FRCH1902,6,pos,fs,posfs_id4_im7.bmp_posfs_id4_im15.bmp,['Im_RyanGosling.png', 'Im_RobertPattinson.png', 'Im_LeonardoDiCaprio.png', 'Im_BradPitt.png', 'Im_ElijahWood.png', 'Im_PatrickDempsey.png', 'Im_DanielRadcliffe.png', 'Im_GeorgeClooney.png', 'Im_DanielCraig.png', 'Im_MattDamon.png'],same,1,0.4250389000007999,2,85.71428571428571,
FRCH1902,6,pos,30,pos30_id3_im17.bmp_pos30_id3_im6.bmp,['Im_RyanGosling.png', 'Im_RobertPattinson.png', 'Im_LeonardoDiCaprio.png', 'Im_BradPitt.png', 'Im_ElijahWood.png', 'Im_PatrickDempsey.png', 'Im_DanielRadcliffe.png', 'Im_GeorgeClooney.png', 'Im_DanielCraig.png', 'Im_MattDamon.png'],diff,0,1.9094391999969957,2,85.71428571428571,
FRCH1902,6,pos,30,pos30_id3_im6.bmp_pos30_id3_im8.bmp,['Im_RyanGosling.png', 'Im_RobertPattinson.png', 'Im_LeonardoDiCaprio.png', 'Im_BradPitt.png', 'Im_ElijahWood.png', 'Im_PatrickDempsey.png', 'Im_DanielRadcliffe.png', 'Im_GeorgeClooney.png', 'Im_DanielCraig.png', 'Im_MattDamon.png'],same,1,0.425030099999276,3,85.71428571428571,
FRCH1902,6,pos,fs,posfs_id4_im15.bmp_posfs_id14_im24.bmp,['Im_RyanGosling.png', 'Im_RobertPattinson.png', 'Im_LeonardoDiCaprio.png', 'Im_BradPitt.png', 'Im_ElijahWood.png', 'Im_PatrickDempsey.png', 'Im_DanielRadcliffe.png', 'Im_GeorgeClooney.png', 'Im_DanielCraig.png', 'Im_MattDamon.png'],diff,1,0.4250720999989426,4,85.71428571428571,
FRCH1902,6,pos,60,pos60_id5_im1.bmp_pos60_id5_im20.bmp,['Im_RyanGosling.png', 'Im_RobertPattinson.png', 'Im_LeonardoDiCaprio.png', 'Im_BradPitt.png', 'Im_ElijahWood.png', 'Im_PatrickDempsey.png', 'Im_DanielRadcliffe.png', 'Im_GeorgeClooney.png', 'Im_DanielCraig.png', 'Im_MattDamon.png'],same,1,0.41677200000049197,5,85.71428571428571,
FRCH1902,6,pos,0,pos0_id13_im15.bmp_pos0_id13_im29.bmp,['Im_RyanGosling.png', 'Im_RobertPattinson.png', 'Im_LeonardoDiCaprio.png', 'Im_BradPitt.png', 'Im_ElijahWood.png', 'Im_PatrickDempsey.png', 'Im_DanielRadcliffe.png', 'Im_GeorgeClooney.png', 'Im_DanielCraig.png', 'Im_MattDamon.png'],same,1,1.3585979000017687,6,85.71428571428571,
FRCH1902,6,pos,90,pos90_id4_im20.bmp_pos90_id4_im7.bmp,['Im_RyanGosling.png', 'Im_RobertPattinson.png', 'Im_LeonardoDiCaprio.png', 'Im_BradPitt.png', 'Im_ElijahWood.png', 'Im_PatrickDempsey.png', 'Im_DanielRadcliffe.png', 'Im_GeorgeClooney.png', 'Im_DanielCraig.png', 'Im_MattDamon.png'],same,1,0.41672919999837177,7,85.71428571428571,
FRCH1902,6,pos,60,pos60_id6_im12.bmp_pos60_id6_im18.bmp,['Im_RyanGosling.png', 'Im_RobertPattinson.png', 'Im_LeonardoDiCaprio.png', 'Im_BradPitt.png', 'Im_ElijahWood.png', 'Im_PatrickDempsey.png', 'Im_DanielRadcliffe.png', 'Im_GeorgeClooney.png', 'Im_DanielCraig.png', 'Im_MattDamon.png'],diff,0,1.017082099999243,7,85.71428571428571,
FRCH1902,6,pos,120,pos120_id19_im27.bmp_pos120_id4_im7.bmp,['Im_RyanGosling.png', 'Im_RobertPattinson.png', 'Im_LeonardoDiCaprio.png', 'Im_BradPitt.png', 'Im_ElijahWood.png', 'Im_PatrickDempsey.png', 'Im_DanielRadcliffe.png', 'Im_GeorgeClooney.png', 'Im_DanielCraig.png', 'Im_MattDamon.png'],diff,1,0.425162099996669,8,85.71428571428571,
FRCH1902,6,pos,150,pos150_id5_im1.bmp_pos150_id20_im12.bmp,['Im_RyanGosling.png', 'Im_RobertPattinson.png', 'Im_LeonardoDiCaprio.png', 'Im_BradPitt.png', 'Im_ElijahWood.png', 'Im_PatrickDempsey.png', 'Im_DanielRadcliffe.png', 'Im_GeorgeClooney.png', 'Im_DanielCraig.png', 'Im_MattDamon.png'],diff,1,0.47510330000295653,9,85.71428571428571,
FRCH1902,6,pos,90,pos90_id3_im6.bmp_pos90_id3_im8.bmp,['Im_RyanGosling.png', 'Im_RobertPattinson.png', 'Im_LeonardoDiCaprio.png', 'Im_BradPitt.png', 'Im_ElijahWood.png', 'Im_PatrickDempsey.png', 'Im_DanielRadcliffe.png', 'Im_GeorgeClooney.png', 'Im_DanielCraig.png', 'Im_MattDamon.png'],same,1,0.42509710000013,10,85.71428571428571,
FRCH1902,6,pos,0,pos0_id6_im12.bmp_pos0_id6_im18.bmp,['Im_RyanGosling.png', 'Im_RobertPattinson.png', 'Im_LeonardoDiCaprio.png', 'Im_BradPitt.png', 'Im_ElijahWood.png', 'Im_PatrickDempsey.png', 'Im_DanielRadcliffe.png', 'Im_GeorgeClooney.png', 'Im_DanielCraig.png', 'Im_MattDamon.png'],diff,0,0.433562999998685,10,85.71428571428571,
FRCH1902,6,pos,120,pos120_id20_im12.bmp_pos120_id14_im18.bmp,['Im_RyanGosling.png', 'Im_RobertPattinson.png', 'Im_LeonardoDiCaprio.png', 'Im_BradPitt.png', 'Im_ElijahWood.png', 'Im_PatrickDempsey.png', 'Im_DanielRadcliffe.png', 'Im_GeorgeClooney.png', 'Im_DanielCraig.png', 'Im_MattDamon.png'],diff,1,0.41663229999903706,11,85.71428571428571,
FRCH1902,7,inv,0,pos0_id14_im18.bmp_pos0_id19_im27.bmp,['Im_RyanGosling.png', 'Im_RobertPattinson.png', 'Im_LeonardoDiCaprio.png', 'Im_BradPitt.png', 'Im_ElijahWood.png', 'Im_PatrickDempsey.png', 'Im_DanielRadcliffe.png', 'Im_GeorgeClooney.png', 'Im_DanielCraig.png', 'Im_MattDamon.png'],same,0,0.6168032999994466,11,85.71428571428571,
FRCH1902,7,inv,30,pos30_id5_im1.bmp_pos30_id6_im12.bmp,['Im_RyanGosling.png', 'Im_RobertPattinson.png', 'Im_LeonardoDiCaprio.png', 'Im_BradPitt.png', 'Im_ElijahWood.png', 'Im_PatrickDempsey.png', 'Im_DanielRadcliffe.png', 'Im_GeorgeClooney.png', 'Im_DanielCraig.png', 'Im_MattDamon.png'],same,0,0.5748748000005435,11,85.71428571428571,
FRCH1902,7,inv,120,pos120_id19_im8.bmp_pos120_id5_im20.bmp,['Im_RyanGosling.png', 'Im_RobertPattinson.png', 'Im_LeonardoDiCaprio.png', 'Im_BradPitt.png', 'Im_ElijahWood.png', 'Im_PatrickDempsey.png', 'Im_DanielRadcliffe.png', 'Im_GeorgeClooney.png', 'Im_DanielCraig.png', 'Im_MattDamon.png'],same,0,0.5917215000008582,11,85.71428571428571,
FRCH1902,7,inv,120,pos120_id17_im8.bmp_pos120_id6_im18.bmp,['Im_RyanGosling.png', 'Im_RobertPattinson.png', 'Im_LeonardoDiCaprio.png', 'Im_BradPitt.png', 'Im_ElijahWood.png', 'Im_PatrickDempsey.png', 'Im_DanielRadcliffe.png', 'Im_GeorgeClooney.png', 'Im_DanielCraig.png', 'Im_MattDamon.png'],same,0,0.7833724999982223,11,85.71428571428571,
FRCH1902,7,inv,30,pos30_id20_im3.bmp_pos30_id7_im15.bmp,['Im_RyanGosling.png', 'Im_RobertPattinson.png', 'Im_LeonardoDiCaprio.png', 'Im_BradPitt.png', 'Im_ElijahWood.png', 'Im_PatrickDempsey.png', 'Im_DanielRadcliffe.png', 'Im_GeorgeClooney.png', 'Im_DanielCraig.png', 'Im_MattDamon.png'],diff,1,0.5497591999992437,12,85.71428571428571,
FRCH1902,7,inv,90,pos90_id6_im12.bmp_pos90_id13_im10.bmp,['Im_RyanGosling.png', 'Im_RobertPattinson.png', 'Im_LeonardoDiCaprio.png', 'Im_BradPitt.png', 'Im_ElijahWood.png', 'Im_PatrickDempsey.png', 'Im_DanielRadcliffe.png', 'Im_GeorgeClooney.png', 'Im_DanielCraig.png', 'Im_MattDamon.png'],diff,1,0.42529260000083013,13,85.71428571428571,
FRCH1902,7,inv,fs,posfs_id4_im20.bmp_posfs_id19_im8.bmp,['Im_RyanGosling.png', 'Im_RobertPattinson.png', 'Im_LeonardoDiCaprio.png', 'Im_BradPitt.png', 'Im_ElijahWood.png', 'Im_PatrickDempsey.png', 'Im_DanielRadcliffe.png', 'Im_GeorgeClooney.png', 'Im_DanielCraig.png', 'Im_MattDamon.png'],diff,1,0.42538490000151796,14,85.71428571428571,
FRCH1902,7,inv,60,pos60_id3_im8.bmp_pos60_id5_im10.bmp,['Im_RyanGosling.png', 'Im_RobertPattinson.png', 'Im_LeonardoDiCaprio.png', 'Im_BradPitt.png', 'Im_ElijahWood.png', 'Im_PatrickDempsey.png', 'Im_DanielRadcliffe.png', 'Im_GeorgeClooney.png', 'Im_DanielCraig.png', 'Im_MattDamon.png'],diff,1,0.7085724999997183,15,85.71428571428571,
FRCH1902,7,inv,fs,posfs_id5_im10.bmp_posfs_id3_im8.bmp,['Im_RyanGosling.png', 'Im_RobertPattinson.png', 'Im_LeonardoDiCaprio.png', 'Im_BradPitt.png', 'Im_ElijahWood.png', 'Im_PatrickDempsey.png', 'Im_DanielRadcliffe.png', 'Im_GeorgeClooney.png', 'Im_DanielCraig.png', 'Im_MattDamon.png'],diff,1,0.41671669999777805,16,85.71428571428571,
FRCH1902,7,inv,90,pos90_id4_im20.bmp_pos90_id4_im7.bmp,['Im_RyanGosling.png', 'Im_RobertPattinson.png', 'Im_LeonardoDiCaprio.png', 'Im_BradPitt.png', 'Im_ElijahWood.png', 'Im_PatrickDempsey.png', 'Im_DanielRadcliffe.png', 'Im_GeorgeClooney.png', 'Im_DanielCraig.png', 'Im_MattDamon.png'],same,1,0.775129099998594,17,85.71428571428571,
FRCH1902,7,inv,150,pos150_id20_im12.bmp_pos150_id20_im3.bmp,['Im_RyanGosling.png', 'Im_RobertPattinson.png', 'Im_LeonardoDiCaprio.png', 'Im_BradPitt.png', 'Im_ElijahWood.png', 'Im_PatrickDempsey.png', 'Im_DanielRadcliffe.png', 'Im_GeorgeClooney.png', 'Im_DanielCraig.png', 'Im_MattDamon.png'],same,1,0.4168427000004158,18,85.71428571428571,
FRCH1902,7,inv,0,pos0_id20_im3.bmp_pos0_id7_im15.bmp,['Im_RyanGosling.png', 'Im_RobertPattinson.png', 'Im_LeonardoDiCaprio.png', 'Im_BradPitt.png', 'Im_ElijahWood.png', 'Im_PatrickDempsey.png', 'Im_DanielRadcliffe.png', 'Im_GeorgeClooney.png', 'Im_DanielCraig.png', 'Im_MattDamon.png'],diff,1,0.45842310000080033,19,85.71428571428571,
FRCH1902,7,inv,150,pos150_id20_im12.bmp_pos150_id5_im1.bmp,['Im_RyanGosling.png', 'Im_RobertPattinson.png', 'Im_LeonardoDiCaprio.png', 'Im_BradPitt.png', 'Im_ElijahWood.png', 'Im_PatrickDempsey.png', 'Im_DanielRadcliffe.png', 'Im_GeorgeClooney.png', 'Im_DanielCraig.png', 'Im_MattDamon.png'],diff,1,0.41656460000012885,20,85.71428571428571,
FRCH1902,7,inv,60,pos60_id6_im12.bmp_pos60_id5_im1.bmp,['Im_RyanGosling.png', 'Im_RobertPattinson.png', 'Im_LeonardoDiCaprio.png', 'Im_BradPitt.png', 'Im_ElijahWood.png', 'Im_PatrickDempsey.png', 'Im_DanielRadcliffe.png', 'Im_GeorgeClooney.png', 'Im_DanielCraig.png', 'Im_MattDamon.png'],same,0,0.4250828000003821,20,85.71428571428571,
FRCH1902,8,neg,120,neg120_id13_im29.bmp_neg120_id3_im8.bmp,['Im_RyanGosling.png', 'Im_RobertPattinson.png', 'Im_LeonardoDiCaprio.png', 'Im_BradPitt.png', 'Im_ElijahWood.png', 'Im_PatrickDempsey.png', 'Im_DanielRadcliffe.png', 'Im_GeorgeClooney.png', 'Im_DanielCraig.png', 'Im_MattDamon.png'],diff,1,0.5830701000013505,21,85.71428571428571,
FRCH1902,8,neg,fs,negfs_id3_im6.bmp_negfs_id3_im8.bmp,['Im_RyanGosling.png', 'Im_RobertPattinson.png', 'Im_LeonardoDiCaprio.png', 'Im_BradPitt.png', 'Im_ElijahWood.png', 'Im_PatrickDempsey.png', 'Im_DanielRadcliffe.png', 'Im_GeorgeClooney.png', 'Im_DanielCraig.png', 'Im_MattDamon.png'],same,1,0.4252046000001428,22,85.71428571428571,
FRCH1902,8,neg,60,neg60_id14_im24.bmp_neg60_id4_im15.bmp,['Im_RyanGosling.png', 'Im_RobertPattinson.png', 'Im_LeonardoDiCaprio.png', 'Im_BradPitt.png', 'Im_ElijahWood.png', 'Im_PatrickDempsey.png', 'Im_DanielRadcliffe.png', 'Im_GeorgeClooney.png', 'Im_DanielCraig.png', 'Im_MattDamon.png'],diff,1,0.6750695999980962,23,85.71428571428571,
FRCH1902,8,neg,150,neg150_id13_im10.bmp_neg150_id13_im15.bmp,['Im_RyanGosling.png', 'Im_RobertPattinson.png', 'Im_LeonardoDiCaprio.png', 'Im_BradPitt.png', 'Im_ElijahWood.png', 'Im_PatrickDempsey.png', 'Im_DanielRadcliffe.png', 'Im_GeorgeClooney.png', 'Im_DanielCraig.png', 'Im_MattDamon.png'],same,1,0.42515819999971427,24,85.71428571428571,
FRCH1902,8,neg,90,neg90_id20_im30.bmp_neg90_id17_im9.bmp,['Im_RyanGosling.png', 'Im_RobertPattinson.png', 'Im_LeonardoDiCaprio.png', 'Im_BradPitt.png', 'Im_ElijahWood.png', 'Im_PatrickDempsey.png', 'Im_DanielRadcliffe.png', 'Im_GeorgeClooney.png', 'Im_DanielCraig.png', 'Im_MattDamon.png'],same,0,0.558589899999788,24,85.71428571428571,
FRCH1902,8,neg,30,neg30_id6_im18.bmp_neg30_id6_im19.bmp,['Im_RyanGosling.png', 'Im_RobertPattinson.png', 'Im_LeonardoDiCaprio.png', 'Im_BradPitt.png', 'Im_ElijahWood.png', 'Im_PatrickDempsey.png', 'Im_DanielRadcliffe.png', 'Im_GeorgeClooney.png', 'Im_DanielCraig.png', 'Im_MattDamon.png'],diff,0,0.6166828000023088,24,85.71428571428571,
FRCH1902,8,neg,30,neg30_id17_im9.bmp_neg30_id17_im8.bmp,['Im_RyanGosling.png', 'Im_RobertPattinson.png', 'Im_LeonardoDiCaprio.png', 'Im_BradPitt.png', 'Im_ElijahWood.png', 'Im_PatrickDempsey.png', 'Im_DanielRadcliffe.png', 'Im_GeorgeClooney.png', 'Im_DanielCraig.png', 'Im_MattDamon.png'],diff,0,1.0001799999990908,24,85.71428571428571,
FRCH1902,8,neg,120,neg120_id5_im10.bmp_neg120_id5_im20.bmp,['Im_RyanGosling.png', 'Im_RobertPattinson.png', 'Im_LeonardoDiCaprio.png', 'Im_BradPitt.png', 'Im_ElijahWood.png', 'Im_PatrickDempsey.png', 'Im_DanielRadcliffe.png', 'Im_GeorgeClooney.png', 'Im_DanielCraig.png', 'Im_MattDamon.png'],diff,0,0.7585655999973824,24,85.71428571428571,
FRCH1902,8,neg,fs,negfs_id7_im14.bmp_negfs_id5_im10.bmp,['Im_RyanGosling.png', 'Im_RobertPattinson.png', 'Im_LeonardoDiCaprio.png', 'Im_BradPitt.png', 'Im_ElijahWood.png', 'Im_PatrickDempsey.png', 'Im_DanielRadcliffe.png', 'Im_GeorgeClooney.png', 'Im_DanielCraig.png', 'Im_MattDamon.png'],diff,1,0.4252097999997204,25,85.71428571428571,
FRCH1902,8,neg,150,neg150_id19_im27.bmp_neg150_id4_im7.bmp,['Im_RyanGosling.png', 'Im_RobertPattinson.png', 'Im_LeonardoDiCaprio.png', 'Im_BradPitt.png', 'Im_ElijahWood.png', 'Im_PatrickDempsey.png', 'Im_DanielRadcliffe.png', 'Im_GeorgeClooney.png', 'Im_DanielCraig.png', 'Im_MattDamon.png'],diff,1,0.5585202000002027,26,85.71428571428571,
FRCH1902,8,neg,60,neg60_id5_im20.bmp_neg60_id5_im10.bmp,['Im_RyanGosling.png', 'Im_RobertPattinson.png', 'Im_LeonardoDiCaprio.png', 'Im_BradPitt.png', 'Im_ElijahWood.png', 'Im_PatrickDempsey.png', 'Im_DanielRadcliffe.png', 'Im_GeorgeClooney.png', 'Im_DanielCraig.png', 'Im_MattDamon.png'],same,1,0.5585224999995262,27,85.71428571428571,
FRCH1902,8,neg,0,neg0_id4_im20.bmp_neg0_id13_im15.bmp,['Im_RyanGosling.png', 'Im_RobertPattinson.png', 'Im_LeonardoDiCaprio.png', 'Im_BradPitt.png', 'Im_ElijahWood.png', 'Im_PatrickDempsey.png', 'Im_DanielRadcliffe.png', 'Im_GeorgeClooney.png', 'Im_DanielCraig.png', 'Im_MattDamon.png'],diff,1,0.6335680999982287,28,85.71428571428571,
FRCH1902,8,neg,0,neg0_id20_im12.bmp_neg0_id20_im3.bmp,['Im_RyanGosling.png', 'Im_RobertPattinson.png', 'Im_LeonardoDiCaprio.png', 'Im_BradPitt.png', 'Im_ElijahWood.png', 'Im_PatrickDempsey.png', 'Im_DanielRadcliffe.png', 'Im_GeorgeClooney.png', 'Im_DanielCraig.png', 'Im_MattDamon.png'],same,1,0.4169767999992473,29,85.71428571428571,
FRCH1902,8,neg,90,neg90_id17_im14.bmp_neg90_id17_im9.bmp,['Im_RyanGosling.png', 'Im_RobertPattinson.png', 'Im_LeonardoDiCaprio.png', 'Im_BradPitt.png', 'Im_ElijahWood.png', 'Im_PatrickDempsey.png', 'Im_DanielRadcliffe.png', 'Im_GeorgeClooney.png', 'Im_DanielCraig.png', 'Im_MattDamon.png'],same,1,0.42509229999996023,30,85.71428571428571,
FRCH1902,9,neg,30,neg30_id20_im30.bmp_neg30_id20_im12.bmp,['Im_RyanGosling.png', 'Im_RobertPattinson.png', 'Im_LeonardoDiCaprio.png', 'Im_BradPitt.png', 'Im_ElijahWood.png', 'Im_PatrickDempsey.png', 'Im_DanielRadcliffe.png', 'Im_GeorgeClooney.png', 'Im_DanielCraig.png', 'Im_MattDamon.png'],same,1,0.42491679999875487,1,71.42857142857143,
FRCH1902,9,neg,0,neg0_id14_im24.bmp_neg0_id14_im16.bmp,['Im_RyanGosling.png', 'Im_RobertPattinson.png', 'Im_LeonardoDiCaprio.png', 'Im_BradPitt.png', 'Im_ElijahWood.png', 'Im_PatrickDempsey.png', 'Im_DanielRadcliffe.png', 'Im_GeorgeClooney.png', 'Im_DanielCraig.png', 'Im_MattDamon.png'],same,1,0.41687439999805065,2,71.42857142857143,
FRCH1902,9,neg,60,neg60_id14_im24.bmp_neg60_id13_im29.bmp,['Im_RyanGosling.png', 'Im_RobertPattinson.png', 'Im_LeonardoDiCaprio.png', 'Im_BradPitt.png', 'Im_ElijahWood.png', 'Im_PatrickDempsey.png', 'Im_DanielRadcliffe.png', 'Im_GeorgeClooney.png', 'Im_DanielCraig.png', 'Im_MattDamon.png'],same,0,2.0416892000030202,2,71.42857142857143,
FRCH1902,9,neg,120,neg120_id6_im18.bmp_neg120_id6_im12.bmp,['Im_RyanGosling.png', 'Im_RobertPattinson.png', 'Im_LeonardoDiCaprio.png', 'Im_BradPitt.png', 'Im_ElijahWood.png', 'Im_PatrickDempsey.png', 'Im_DanielRadcliffe.png', 'Im_GeorgeClooney.png', 'Im_DanielCraig.png', 'Im_MattDamon.png'],diff,0,0.6835248000024876,2,71.42857142857143,
FRCH1902,9,neg,150,neg150_id7_im15.bmp_neg150_id7_im14.bmp,['Im_RyanGosling.png', 'Im_RobertPattinson.png', 'Im_LeonardoDiCaprio.png', 'Im_BradPitt.png', 'Im_ElijahWood.png', 'Im_PatrickDempsey.png', 'Im_DanielRadcliffe.png', 'Im_GeorgeClooney.png', 'Im_DanielCraig.png', 'Im_MattDamon.png'],same,1,0.42495770000095945,3,71.42857142857143,
FRCH1902,9,neg,90,neg90_id4_im20.bmp_neg90_id13_im15.bmp,['Im_RyanGosling.png', 'Im_RobertPattinson.png', 'Im_LeonardoDiCaprio.png', 'Im_BradPitt.png', 'Im_ElijahWood.png', 'Im_PatrickDempsey.png', 'Im_DanielRadcliffe.png', 'Im_GeorgeClooney.png', 'Im_DanielCraig.png', 'Im_MattDamon.png'],diff,1,0.40824440000142204,4,71.42857142857143,
FRCH1902,9,neg,0,neg0_id6_im19.bmp_neg0_id6_im12.bmp,['Im_RyanGosling.png', 'Im_RobertPattinson.png', 'Im_LeonardoDiCaprio.png', 'Im_BradPitt.png', 'Im_ElijahWood.png', 'Im_PatrickDempsey.png', 'Im_DanielRadcliffe.png', 'Im_GeorgeClooney.png', 'Im_DanielCraig.png', 'Im_MattDamon.png'],same,1,0.42510159999801544,5,71.42857142857143,
FRCH1902,9,neg,fs,negfs_id3_im8.bmp_negfs_id5_im10.bmp,['Im_RyanGosling.png', 'Im_RobertPattinson.png', 'Im_LeonardoDiCaprio.png', 'Im_BradPitt.png', 'Im_ElijahWood.png', 'Im_PatrickDempsey.png', 'Im_DanielRadcliffe.png', 'Im_GeorgeClooney.png', 'Im_DanielCraig.png', 'Im_MattDamon.png'],diff,1,0.4250359999969078,6,71.42857142857143,
FRCH1902,9,neg,fs,negfs_id3_im17.bmp_negfs_id3_im8.bmp,['Im_RyanGosling.png', 'Im_RobertPattinson.png', 'Im_LeonardoDiCaprio.png', 'Im_BradPitt.png', 'Im_ElijahWood.png', 'Im_PatrickDempsey.png', 'Im_DanielRadcliffe.png', 'Im_GeorgeClooney.png', 'Im_DanielCraig.png', 'Im_MattDamon.png'],same,1,1.3500515000014275,7,71.42857142857143,
FRCH1902,9,neg,90,neg90_id13_im15.bmp_neg90_id13_im10.bmp,['Im_RyanGosling.png', 'Im_RobertPattinson.png', 'Im_LeonardoDiCaprio.png', 'Im_BradPitt.png', 'Im_ElijahWood.png', 'Im_PatrickDempsey.png', 'Im_DanielRadcliffe.png', 'Im_GeorgeClooney.png', 'Im_DanielCraig.png', 'Im_MattDamon.png'],same,1,0.4167438999975275,8,71.42857142857143,
FRCH1902,9,neg,120,neg120_id17_im9.bmp_neg120_id17_im14.bmp,['Im_RyanGosling.png', 'Im_RobertPattinson.png', 'Im_LeonardoDiCaprio.png', 'Im_BradPitt.png', 'Im_ElijahWood.png', 'Im_PatrickDempsey.png', 'Im_DanielRadcliffe.png', 'Im_GeorgeClooney.png', 'Im_DanielCraig.png', 'Im_MattDamon.png'],diff,0,0.5333852999974624,8,71.42857142857143,
FRCH1902,9,neg,30,neg30_id5_im20.bmp_neg30_id19_im8.bmp,['Im_RyanGosling.png', 'Im_RobertPattinson.png', 'Im_LeonardoDiCaprio.png', 'Im_BradPitt.png', 'Im_ElijahWood.png', 'Im_PatrickDempsey.png', 'Im_DanielRadcliffe.png', 'Im_GeorgeClooney.png', 'Im_DanielCraig.png', 'Im_MattDamon.png'],same,0,0.5331335000009858,8,71.42857142857143,
FRCH1902,9,neg,150,neg150_id3_im8.bmp_neg150_id5_im10.bmp,['Im_RyanGosling.png', 'Im_RobertPattinson.png', 'Im_LeonardoDiCaprio.png', 'Im_BradPitt.png', 'Im_ElijahWood.png', 'Im_PatrickDempsey.png', 'Im_DanielRadcliffe.png', 'Im_GeorgeClooney.png', 'Im_DanielCraig.png', 'Im_MattDamon.png'],diff,1,0.4753065000004426,9,71.42857142857143,
FRCH1902,9,neg,60,neg60_id4_im20.bmp_neg60_id4_im7.bmp,['Im_RyanGosling.png', 'Im_RobertPattinson.png', 'Im_LeonardoDiCaprio.png', 'Im_BradPitt.png', 'Im_ElijahWood.png', 'Im_PatrickDempsey.png', 'Im_DanielRadcliffe.png', 'Im_GeorgeClooney.png', 'Im_DanielCraig.png', 'Im_MattDamon.png'],diff,0,0.43360349999784376,9,71.42857142857143,
FRCH1902,10,inv,120,pos120_id14_im24.bmp_pos120_id4_im15.bmp,['Im_RyanGosling.png', 'Im_RobertPattinson.png', 'Im_LeonardoDiCaprio.png', 'Im_BradPitt.png', 'Im_ElijahWood.png', 'Im_PatrickDempsey.png', 'Im_DanielRadcliffe.png', 'Im_GeorgeClooney.png', 'Im_DanielCraig.png', 'Im_MattDamon.png'],diff,1,0.4252832000020135,10,71.42857142857143,
FRCH1902,10,inv,60,pos60_id5_im10.bmp_pos60_id7_im14.bmp,['Im_RyanGosling.png', 'Im_RobertPattinson.png', 'Im_LeonardoDiCaprio.png', 'Im_BradPitt.png', 'Im_ElijahWood.png', 'Im_PatrickDempsey.png', 'Im_DanielRadcliffe.png', 'Im_GeorgeClooney.png', 'Im_DanielCraig.png', 'Im_MattDamon.png'],diff,1,0.41676250000091386,11,71.42857142857143,
