Sujet,Trial,Condition,Filter,Imname,Actor0,Actor1,Actor2,Actor3,Actor4,Actor5,Actor6,Actor7,Actor8,Actor9,Answer,Accu,RT,Score,Scoreperc, 
FRKA0706,_,posfs_JustinTimberlake_im1.bmp,JustinTimberlake,BenAffleck,BenAffleck,ElijahWood,PatrickDempsey,HughJackman,,,,,posfs_JustinTimberlake_im1.bmp,4.408119700000043,
FRKA0706,_,posfs_DanielCraig_im7.bmp,DanielCraig,BenAffleck,BenAffleck,KeanuReeves,PatrickDempsey,DanielRadcliffe,,,,,posfs_DanielCraig_im7.bmp,2.5878397000000177,
FRKA0706,_,posfs_PatrickDempsey_im16.bmp,PatrickDempsey,BradPitt,BradPitt,DanielCraig,DanielRadcliffe,LeonardoDiCaprio,,,,,posfs_PatrickDempsey_im16.bmp,1.6809988999999632,
FRKA0706,_,posfs_PatrickDempsey_im8.bmp,PatrickDempsey,BenStiller,BenStiller,MattDamon,BradPitt,RyanGosling,,,,,posfs_PatrickDempsey_im8.bmp,1.6750975999999582,
FRKA0706,_,posfs_MattDamon_im9.bmp,MattDamon,BradPitt,BradPitt,HughJackman,DanielCraig,LeonardoDiCaprio,,,,,posfs_MattDamon_im9.bmp,1.8145570000000362,
FRKA0706,_,posfs_MattDamon_im16.bmp,MattDamon,LeonardoDiCaprio,LeonardoDiCaprio,RyanGosling,KeanuReeves,BenStiller,,,,,4,2.332601899999986,
FRKA0706,_,posfs_BenAffleck_im21.bmp,BenAffleck,RyanGosling,RyanGosling,GeorgeClooney,ElijahWood,BradPitt,,,,,posfs_BenAffleck_im21.bmp,1.2994151999999985,
FRKA0706,_,posfs_BenAffleck_im4.bmp,BenAffleck,BenStiller,BenStiller,KeanuReeves,ElijahWood,PatrickDempsey,,,,,posfs_BenAffleck_im4.bmp,3.0543043000000125,
FRKA0706,_,posfs_ElijahWood_im18.bmp,ElijahWood,PatrickDempsey,PatrickDempsey,JustinTimberlake,RobertPattinson,RobertDowneyJr,,,,,posfs_ElijahWood_im18.bmp,2.3605952000000343,
FRKA0706,_,posfs_RobertDowneyJr_im19.bmp,RobertDowneyJr,DanielRadcliffe,DanielRadcliffe,DanielCraig,PatrickDempsey,BenStiller,,,,,posfs_RobertDowneyJr_im19.bmp,1.3356042000000343,
FRKA0706,_,posfs_RobertPattinson_im30.bmp,RobertPattinson,DanielRadcliffe,DanielRadcliffe,DanielCraig,BenAffleck,JustinTimberlake,,,,,0,1.7438750000000027,
FRKA0706,_,posfs_RyanReynolds_im17.bmp,RyanReynolds,PatrickDempsey,PatrickDempsey,ElijahWood,BenStiller,BradPitt,,,,,posfs_RyanReynolds_im17.bmp,3.3908788999999615,
FRKA0706,_,posfs_GeorgeClooney_im26.bmp,GeorgeClooney,LeonardoDiCaprio,LeonardoDiCaprio,RobertPattinson,BenAffleck,ElijahWood,,,,,posfs_GeorgeClooney_im26.bmp,1.3399343000000954,
FRKA0706,_,posfs_KeanuReeves_im2.bmp,KeanuReeves,HughJackman,HughJackman,GeorgeClooney,RobertPattinson,BenStiller,,,,,posfs_KeanuReeves_im2.bmp,1.1637253999999757,
FRKA0706,_,posfs_ElijahWood_im23.bmp,ElijahWood,BenAffleck,BenAffleck,RyanGosling,BenStiller,RobertDowneyJr,,,,,posfs_ElijahWood_im23.bmp,0.7864810999999463,
FRKA0706,_,posfs_MattDamon_im18.bmp,MattDamon,DanielCraig,DanielCraig,PatrickDempsey,DanielRadcliffe,ElijahWood,,,,,posfs_MattDamon_im18.bmp,1.289028000000144,
FRKA0706,_,posfs_BenStiller_im7.bmp,BenStiller,LeonardoDiCaprio,LeonardoDiCaprio,RyanGosling,DanielCraig,PatrickDempsey,,,,,posfs_BenStiller_im7.bmp,2.8259599000000435,
FRKA0706,_,posfs_BenStiller_im2.bmp,BenStiller,RobertDowneyJr,RobertDowneyJr,GeorgeClooney,DanielCraig,RyanReynolds,,,,,posfs_BenStiller_im2.bmp,1.7197120000000723,
FRKA0706,_,posfs_BradPitt_im17.bmp,BradPitt,PatrickDempsey,PatrickDempsey,LeonardoDiCaprio,JustinTimberlake,HughJackman,,,,,posfs_BradPitt_im17.bmp,4.56805079999981,
FRKA0706,_,posfs_RyanGosling_im3.bmp,RyanGosling,RobertPattinson,RobertPattinson,PatrickDempsey,DanielCraig,JustinTimberlake,,,,,posfs_RyanGosling_im3.bmp,1.9823702000001049,
FRKA0706,_,posfs_DanielRadcliffe_im20.bmp,DanielRadcliffe,GeorgeClooney,GeorgeClooney,ElijahWood,RobertPattinson,KeanuReeves,,,,,posfs_DanielRadcliffe_im20.bmp,2.2845563000000766,
FRKA0706,_,posfs_JustinTimberlake_im17.bmp,JustinTimberlake,MattDamon,MattDamon,LeonardoDiCaprio,ElijahWood,GeorgeClooney,,,,,posfs_JustinTimberlake_im17.bmp,1.5107350000000679,
FRKA0706,_,posfs_BradPitt_im8.bmp,BradPitt,BenStiller,BenStiller,BenAffleck,OrlandoBloom,RobertPattinson,,,,,posfs_BradPitt_im8.bmp,1.9751588999999967,
FRKA0706,_,posfs_JustinTimberlake_im18.bmp,JustinTimberlake,ElijahWood,ElijahWood,RyanGosling,DanielRadcliffe,LeonardoDiCaprio,,,,,posfs_JustinTimberlake_im18.bmp,4.102643299999954,
FRKA0706,_,posfs_LeonardoDiCaprio_im24.bmp,LeonardoDiCaprio,DanielCraig,DanielCraig,BradPitt,PatrickDempsey,RyanGosling,,,,,posfs_LeonardoDiCaprio_im24.bmp,1.2786237000000256,
FRKA0706,_,posfs_RyanReynolds_im22.bmp,RyanReynolds,JustinTimberlake,JustinTimberlake,BradPitt,KeanuReeves,LeonardoDiCaprio,,,,,4,2.8897852000000057,
FRKA0706,_,posfs_ElijahWood_im12.bmp,ElijahWood,DanielRadcliffe,DanielRadcliffe,RobertDowneyJr,GeorgeClooney,BenStiller,,,,,posfs_ElijahWood_im12.bmp,1.7390255000000252,
FRKA0706,_,posfs_RobertPattinson_im8.bmp,RobertPattinson,DanielRadcliffe,DanielRadcliffe,OrlandoBloom,MattDamon,RyanGosling,,,,,posfs_RobertPattinson_im8.bmp,1.707673399999976,
FRKA0706,_,posfs_BenStiller_im16.bmp,BenStiller,KeanuReeves,KeanuReeves,MattDamon,JustinTimberlake,BenAffleck,,,,,posfs_BenStiller_im16.bmp,1.1320508999999674,
FRKA0706,_,posfs_BenAffleck_im8.bmp,BenAffleck,OrlandoBloom,OrlandoBloom,RobertPattinson,RyanReynolds,MattDamon,,,,,posfs_BenAffleck_im8.bmp,1.340507000000116,
FRKA0706,_,posfs_BradPitt_im14.bmp,BradPitt,MattDamon,MattDamon,DanielCraig,OrlandoBloom,LeonardoDiCaprio,,,,,posfs_BradPitt_im14.bmp,1.420980899999904,
FRKA0706,_,posfs_HughJackman_im20.bmp,HughJackman,JustinTimberlake,JustinTimberlake,RyanReynolds,DanielCraig,OrlandoBloom,,,,,posfs_HughJackman_im20.bmp,2.6318633000000773,
FRKA0706,_,posfs_DanielRadcliffe_im1.bmp,DanielRadcliffe,BradPitt,BradPitt,LeonardoDiCaprio,BenStiller,RobertPattinson,,,,,posfs_DanielRadcliffe_im1.bmp,1.8933600000000297,
FRKA0706,_,posfs_HughJackman_im13.bmp,HughJackman,BradPitt,BradPitt,PatrickDempsey,MattDamon,RobertPattinson,,,,,posfs_HughJackman_im13.bmp,1.7187496999999894,
FRKA0706,_,posfs_RobertDowneyJr_im4.bmp,RobertDowneyJr,RyanGosling,RyanGosling,BradPitt,HughJackman,ElijahWood,,,,,posfs_RobertDowneyJr_im4.bmp,1.263447000000042,
FRKA0706,_,posfs_RyanReynolds_im16.bmp,RyanReynolds,OrlandoBloom,OrlandoBloom,RobertPattinson,RyanGosling,LeonardoDiCaprio,,,,,posfs_RyanReynolds_im16.bmp,5.555091700000048,
FRKA0706,_,posfs_HughJackman_im18.bmp,HughJackman,LeonardoDiCaprio,LeonardoDiCaprio,BradPitt,RyanGosling,DanielRadcliffe,,,,,posfs_HughJackman_im18.bmp,2.4251787000000604,
FRKA0706,_,posfs_GeorgeClooney_im14.bmp,GeorgeClooney,KeanuReeves,KeanuReeves,LeonardoDiCaprio,PatrickDempsey,RobertPattinson,,,,,posfs_GeorgeClooney_im14.bmp,1.3497566000000916,
FRKA0706,_,posfs_MattDamon_im24.bmp,MattDamon,RobertDowneyJr,RobertDowneyJr,BradPitt,HughJackman,RobertPattinson,,,,,posfs_MattDamon_im24.bmp,1.5249684000000343,
FRKA0706,_,posfs_KeanuReeves_im8.bmp,KeanuReeves,BenAffleck,BenAffleck,LeonardoDiCaprio,RyanGosling,GeorgeClooney,,,,,posfs_KeanuReeves_im8.bmp,1.3498061000000234,
FRKA0706,_,posfs_PatrickDempsey_im14.bmp,PatrickDempsey,KeanuReeves,KeanuReeves,RobertDowneyJr,HughJackman,RyanReynolds,,,,,4,1.7089544999998907,
FRKA0706,_,posfs_BenAffleck_im24.bmp,BenAffleck,OrlandoBloom,OrlandoBloom,DanielRadcliffe,MattDamon,GeorgeClooney,,,,,4,2.1332718999999543,
FRKA0706,_,posfs_KeanuReeves_im10.bmp,KeanuReeves,MattDamon,MattDamon,OrlandoBloom,PatrickDempsey,LeonardoDiCaprio,,,,,posfs_KeanuReeves_im10.bmp,1.4929122999999436,
FRKA0706,_,posfs_GeorgeClooney_im23.bmp,GeorgeClooney,BenAffleck,BenAffleck,MattDamon,OrlandoBloom,KeanuReeves,,,,,posfs_GeorgeClooney_im23.bmp,1.4787016000000222,
FRKA0706,_,posfs_DanielRadcliffe_im10.bmp,DanielRadcliffe,LeonardoDiCaprio,LeonardoDiCaprio,KeanuReeves,ElijahWood,MattDamon,,,,,posfs_DanielRadcliffe_im10.bmp,1.5373601999999664,
FRKA0706,_,posfs_LeonardoDiCaprio_im29.bmp,LeonardoDiCaprio,RobertDowneyJr,RobertDowneyJr,PatrickDempsey,OrlandoBloom,DanielCraig,,,,,posfs_LeonardoDiCaprio_im29.bmp,1.5212932000001729,
FRKA0706,_,posfs_OrlandoBloom_im3.bmp,OrlandoBloom,RobertPattinson,RobertPattinson,RyanReynolds,RyanGosling,RobertDowneyJr,,,,,posfs_OrlandoBloom_im3.bmp,2.081682199999932,
FRKA0706,_,posfs_OrlandoBloom_im19.bmp,OrlandoBloom,ElijahWood,ElijahWood,DanielCraig,PatrickDempsey,LeonardoDiCaprio,,,,,posfs_OrlandoBloom_im19.bmp,0.9088668999997935,
FRKA0706,_,posfs_RyanGosling_im30.bmp,RyanGosling,RyanReynolds,RyanReynolds,DanielCraig,PatrickDempsey,RobertPattinson,,,,,0,3.6367917000000034,
FRKA0706,_,posfs_RobertDowneyJr_im11.bmp,RobertDowneyJr,HughJackman,HughJackman,RyanGosling,JustinTimberlake,BenStiller,,,,,posfs_RobertDowneyJr_im11.bmp,1.513296900000114,
FRKA0706,_,posfs_OrlandoBloom_im30.bmp,OrlandoBloom,JustinTimberlake,JustinTimberlake,BradPitt,KeanuReeves,RyanGosling,,,,,posfs_OrlandoBloom_im30.bmp,2.2814398000000438,
FRKA0706,_,posfs_GeorgeClooney_im15.bmp,GeorgeClooney,JustinTimberlake,JustinTimberlake,DanielRadcliffe,DanielCraig,BenAffleck,,,,,posfs_GeorgeClooney_im15.bmp,2.4435582999999497,
FRKA0706,_,posfs_OrlandoBloom_im2.bmp,OrlandoBloom,BenAffleck,BenAffleck,RyanGosling,MattDamon,RobertDowneyJr,,,,,4,1.7916291999999885,
FRKA0706,_,posfs_RyanReynolds_im3.bmp,RyanReynolds,BenAffleck,BenAffleck,DanielCraig,MattDamon,OrlandoBloom,,,,,posfs_RyanReynolds_im3.bmp,1.8523443999999927,
FRKA0706,_,posfs_DanielCraig_im15.bmp,DanielCraig,BenAffleck,BenAffleck,MattDamon,BenStiller,HughJackman,,,,,posfs_DanielCraig_im15.bmp,1.0722845000000234,
FRKA0706,_,posfs_RyanGosling_im12.bmp,RyanGosling,PatrickDempsey,PatrickDempsey,RyanReynolds,BradPitt,DanielCraig,,,,,1,1.6256533000000672,
FRKA0706,_,posfs_RobertDowneyJr_im18.bmp,RobertDowneyJr,MattDamon,MattDamon,BradPitt,GeorgeClooney,JustinTimberlake,,,,,posfs_RobertDowneyJr_im18.bmp,1.3983037999998942,
FRKA0706,_,posfs_DanielRadcliffe_im8.bmp,DanielRadcliffe,MattDamon,MattDamon,PatrickDempsey,RyanReynolds,RobertDowneyJr,,,,,posfs_DanielRadcliffe_im8.bmp,3.660524099999975,
FRKA0706,_,posfs_KeanuReeves_im1.bmp,KeanuReeves,LeonardoDiCaprio,LeonardoDiCaprio,BradPitt,JustinTimberlake,RobertPattinson,,,,,4,1.3203876999998556,
FRKA0706,_,posfs_DanielCraig_im20.bmp,DanielCraig,BenStiller,BenStiller,BradPitt,LeonardoDiCaprio,OrlandoBloom,,,,,posfs_DanielCraig_im20.bmp,2.2481184000000667,
FRKA0706,_,posfs_DanielCraig_im8.bmp,DanielCraig,RobertPattinson,RobertPattinson,BenAffleck,BenStiller,LeonardoDiCaprio,,,,,posfs_DanielCraig_im8.bmp,0.9497952000001533,
FRKA0706,_,posfs_LeonardoDiCaprio_im15.bmp,LeonardoDiCaprio,RobertPattinson,RobertPattinson,DanielCraig,BradPitt,DanielRadcliffe,,,,,posfs_LeonardoDiCaprio_im15.bmp,1.15450809999993,
FRKA0706,_,posfs_JustinTimberlake_im4.bmp,JustinTimberlake,BenStiller,BenStiller,RobertDowneyJr,OrlandoBloom,PatrickDempsey,,,,,2,1.4351623000000018,
FRKA0706,_,posfs_HughJackman_im21.bmp,HughJackman,OrlandoBloom,OrlandoBloom,GeorgeClooney,RyanGosling,BradPitt,,,,,posfs_HughJackman_im21.bmp,1.4550532000000658,
FRKA0706,_,posfs_RobertPattinson_im4.bmp,RobertPattinson,DanielRadcliffe,DanielRadcliffe,RyanGosling,MattDamon,ElijahWood,,,,,posfs_RobertPattinson_im4.bmp,1.1624923000001672,
FRKA0706,_,posfs_RobertPattinson_im27.bmp,RobertPattinson,RyanReynolds,RyanReynolds,OrlandoBloom,MattDamon,KeanuReeves,,,,,posfs_RobertPattinson_im27.bmp,1.8731648999998924,
FRKA0706,_,posfs_BradPitt_im6.bmp,BradPitt,RyanGosling,RyanGosling,RobertDowneyJr,OrlandoBloom,HughJackman,,,,,posfs_BradPitt_im6.bmp,1.356732799999918,
FRKA0706,_,posfs_PatrickDempsey_im9.bmp,PatrickDempsey,HughJackman,HughJackman,RobertDowneyJr,KeanuReeves,BenAffleck,,,,,posfs_PatrickDempsey_im9.bmp,1.628398900000093,
FRKA0706,_,posfs_LeonardoDiCaprio_im10.bmp,LeonardoDiCaprio,BenStiller,BenStiller,RyanGosling,PatrickDempsey,RobertPattinson,,,,,posfs_LeonardoDiCaprio_im10.bmp,2.5677239000001464,
FRKA0706,_,posfs_BenStiller_im3.bmp,BenStiller,ElijahWood,ElijahWood,JustinTimberlake,BradPitt,RobertDowneyJr,,,,,posfs_BenStiller_im3.bmp,1.246047200000021,
FRKA0706,_,posfs_RyanGosling_im25.bmp,RyanGosling,DanielCraig,DanielCraig,KeanuReeves,BradPitt,MattDamon,,,,,posfs_RyanGosling_im25.bmp,2.7454462999999123,
FRKA0706,_,posfs_ElijahWood_im19.bmp,ElijahWood,PatrickDempsey,PatrickDempsey,RyanReynolds,BenAffleck,OrlandoBloom,,,,,posfs_ElijahWood_im19.bmp,1.2318798999999672,
FRKA0706,train,pos,fs,posfs_id3_im8.bmp_posfs_id13_im10.bmp,['Im_KeanuReeves.png', 'Im_GeorgeClooney.png', 'Im_DanielRadcliffe.png', 'Im_BenStiller.png', 'Im_LeonardoDiCaprio.png', 'Im_ElijahWood.png', 'Im_BradPitt.png', 'Im_DanielCraig.png', 'Im_RobertDowneyJr.png', 'Im_HughJackman.png'],diff,1,1.0248219000000063,1,0,
FRKA0706,train,pos,fs,posfs_id6_im12.bmp_posfs_id6_im18.bmp,['Im_KeanuReeves.png', 'Im_GeorgeClooney.png', 'Im_DanielRadcliffe.png', 'Im_BenStiller.png', 'Im_LeonardoDiCaprio.png', 'Im_ElijahWood.png', 'Im_BradPitt.png', 'Im_DanielCraig.png', 'Im_RobertDowneyJr.png', 'Im_HughJackman.png'],same,1,0.9831562999997914,2,0,
FRKA0706,train,pos,fs,posfs_id3_im8.bmp_posfs_id3_im17.bmp,['Im_KeanuReeves.png', 'Im_GeorgeClooney.png', 'Im_DanielRadcliffe.png', 'Im_BenStiller.png', 'Im_LeonardoDiCaprio.png', 'Im_ElijahWood.png', 'Im_BradPitt.png', 'Im_DanielCraig.png', 'Im_RobertDowneyJr.png', 'Im_HughJackman.png'],same,1,1.0331595999998626,3,0,
FRKA0706,train,pos,fs,posfs_id11_im10.bmp_posfs_id5_im10.bmp,['Im_KeanuReeves.png', 'Im_GeorgeClooney.png', 'Im_DanielRadcliffe.png', 'Im_BenStiller.png', 'Im_LeonardoDiCaprio.png', 'Im_ElijahWood.png', 'Im_BradPitt.png', 'Im_DanielCraig.png', 'Im_RobertDowneyJr.png', 'Im_HughJackman.png'],diff,1,0.6586469999999736,4,0,
FRKA0706,train,pos,fs,posfs_id6_im18.bmp_posfs_id4_im7.bmp,['Im_KeanuReeves.png', 'Im_GeorgeClooney.png', 'Im_DanielRadcliffe.png', 'Im_BenStiller.png', 'Im_LeonardoDiCaprio.png', 'Im_ElijahWood.png', 'Im_BradPitt.png', 'Im_DanielCraig.png', 'Im_RobertDowneyJr.png', 'Im_HughJackman.png'],diff,1,0.7665041999998721,5,0,
FRKA0706,train,pos,fs,posfs_id7_im14.bmp_posfs_id7_im26.bmp,['Im_KeanuReeves.png', 'Im_GeorgeClooney.png', 'Im_DanielRadcliffe.png', 'Im_BenStiller.png', 'Im_LeonardoDiCaprio.png', 'Im_ElijahWood.png', 'Im_BradPitt.png', 'Im_DanielCraig.png', 'Im_RobertDowneyJr.png', 'Im_HughJackman.png'],same,1,0.6415569999999207,6,0,
FRKA0706,train,pos,fs,posfs_id2_im16.bmp_posfs_id5_im20.bmp,['Im_KeanuReeves.png', 'Im_GeorgeClooney.png', 'Im_DanielRadcliffe.png', 'Im_BenStiller.png', 'Im_LeonardoDiCaprio.png', 'Im_ElijahWood.png', 'Im_BradPitt.png', 'Im_DanielCraig.png', 'Im_RobertDowneyJr.png', 'Im_HughJackman.png'],diff,1,0.7585516999999982,7,0,
FRKA0706,train,pos,fs,posfs_id7_im15.bmp_posfs_id7_im26.bmp,['Im_KeanuReeves.png', 'Im_GeorgeClooney.png', 'Im_DanielRadcliffe.png', 'Im_BenStiller.png', 'Im_LeonardoDiCaprio.png', 'Im_ElijahWood.png', 'Im_BradPitt.png', 'Im_DanielCraig.png', 'Im_RobertDowneyJr.png', 'Im_HughJackman.png'],same,1,0.6503204000000551,8,0,
FRKA0706,train,pos,fs,posfs_id6_im12.bmp_posfs_id3_im17.bmp,['Im_KeanuReeves.png', 'Im_GeorgeClooney.png', 'Im_DanielRadcliffe.png', 'Im_BenStiller.png', 'Im_LeonardoDiCaprio.png', 'Im_ElijahWood.png', 'Im_BradPitt.png', 'Im_DanielCraig.png', 'Im_RobertDowneyJr.png', 'Im_HughJackman.png'],diff,1,0.9500726999999642,9,0,
FRKA0706,train,pos,fs,posfs_id8_im21.bmp_posfs_id8_im13.bmp,['Im_KeanuReeves.png', 'Im_GeorgeClooney.png', 'Im_DanielRadcliffe.png', 'Im_BenStiller.png', 'Im_LeonardoDiCaprio.png', 'Im_ElijahWood.png', 'Im_BradPitt.png', 'Im_DanielCraig.png', 'Im_RobertDowneyJr.png', 'Im_HughJackman.png'],same,1,0.6750541999999768,10,0,
FRKA0706,train,pos,fs,posfs_id5_im10.bmp_posfs_id5_im20.bmp,['Im_KeanuReeves.png', 'Im_GeorgeClooney.png', 'Im_DanielRadcliffe.png', 'Im_BenStiller.png', 'Im_LeonardoDiCaprio.png', 'Im_ElijahWood.png', 'Im_BradPitt.png', 'Im_DanielCraig.png', 'Im_RobertDowneyJr.png', 'Im_HughJackman.png'],same,1,1.1749419999998736,11,0,
FRKA0706,train,pos,fs,posfs_id13_im15.bmp_posfs_id13_im29.bmp,['Im_KeanuReeves.png', 'Im_GeorgeClooney.png', 'Im_DanielRadcliffe.png', 'Im_BenStiller.png', 'Im_LeonardoDiCaprio.png', 'Im_ElijahWood.png', 'Im_BradPitt.png', 'Im_DanielCraig.png', 'Im_RobertDowneyJr.png', 'Im_HughJackman.png'],same,1,0.950051300000041,12,0,
FRKA0706,train,pos,fs,posfs_id4_im20.bmp_posfs_id4_im15.bmp,['Im_KeanuReeves.png', 'Im_GeorgeClooney.png', 'Im_DanielRadcliffe.png', 'Im_BenStiller.png', 'Im_LeonardoDiCaprio.png', 'Im_ElijahWood.png', 'Im_BradPitt.png', 'Im_DanielCraig.png', 'Im_RobertDowneyJr.png', 'Im_HughJackman.png'],same,1,0.7252937000000657,13,0,
FRKA0706,train,pos,fs,posfs_id3_im6.bmp_posfs_id3_im17.bmp,['Im_KeanuReeves.png', 'Im_GeorgeClooney.png', 'Im_DanielRadcliffe.png', 'Im_BenStiller.png', 'Im_LeonardoDiCaprio.png', 'Im_ElijahWood.png', 'Im_BradPitt.png', 'Im_DanielCraig.png', 'Im_RobertDowneyJr.png', 'Im_HughJackman.png'],same,1,1.3581381999999849,14,0,
FRKA0706,train,pos,fs,posfs_id7_im26.bmp_posfs_id4_im20.bmp,['Im_KeanuReeves.png', 'Im_GeorgeClooney.png', 'Im_DanielRadcliffe.png', 'Im_BenStiller.png', 'Im_LeonardoDiCaprio.png', 'Im_ElijahWood.png', 'Im_BradPitt.png', 'Im_DanielCraig.png', 'Im_RobertDowneyJr.png', 'Im_HughJackman.png'],diff,1,0.9166282000001047,15,0,
FRKA0706,train,pos,fs,posfs_id11_im10.bmp_posfs_id11_im1.bmp,['Im_KeanuReeves.png', 'Im_GeorgeClooney.png', 'Im_DanielRadcliffe.png', 'Im_BenStiller.png', 'Im_LeonardoDiCaprio.png', 'Im_ElijahWood.png', 'Im_BradPitt.png', 'Im_DanielCraig.png', 'Im_RobertDowneyJr.png', 'Im_HughJackman.png'],same,1,1.3085261000001083,16,0,
FRKA0706,train,pos,fs,posfs_id5_im10.bmp_posfs_id5_im1.bmp,['Im_KeanuReeves.png', 'Im_GeorgeClooney.png', 'Im_DanielRadcliffe.png', 'Im_BenStiller.png', 'Im_LeonardoDiCaprio.png', 'Im_ElijahWood.png', 'Im_BradPitt.png', 'Im_DanielCraig.png', 'Im_RobertDowneyJr.png', 'Im_HughJackman.png'],same,1,1.1501184999999623,17,0,
FRKA0706,train,pos,fs,posfs_id2_im16.bmp_posfs_id2_im3.bmp,['Im_KeanuReeves.png', 'Im_GeorgeClooney.png', 'Im_DanielRadcliffe.png', 'Im_BenStiller.png', 'Im_LeonardoDiCaprio.png', 'Im_ElijahWood.png', 'Im_BradPitt.png', 'Im_DanielCraig.png', 'Im_RobertDowneyJr.png', 'Im_HughJackman.png'],same,1,0.7667821000000004,18,0,
FRKA0706,train,pos,fs,posfs_id18_im11.bmp_posfs_id4_im15.bmp,['Im_KeanuReeves.png', 'Im_GeorgeClooney.png', 'Im_DanielRadcliffe.png', 'Im_BenStiller.png', 'Im_LeonardoDiCaprio.png', 'Im_ElijahWood.png', 'Im_BradPitt.png', 'Im_DanielCraig.png', 'Im_RobertDowneyJr.png', 'Im_HughJackman.png'],diff,1,0.7832516000000851,19,0,
FRKA0706,train,pos,fs,posfs_id18_im11.bmp_posfs_id18_im19.bmp,['Im_KeanuReeves.png', 'Im_GeorgeClooney.png', 'Im_DanielRadcliffe.png', 'Im_BenStiller.png', 'Im_LeonardoDiCaprio.png', 'Im_ElijahWood.png', 'Im_BradPitt.png', 'Im_DanielCraig.png', 'Im_RobertDowneyJr.png', 'Im_HughJackman.png'],same,1,0.8664575000000241,20,0,
FRKA0706,train,neg,fs,negfs_id11_im1.bmp_negfs_id11_im2.bmp,['Im_KeanuReeves.png', 'Im_GeorgeClooney.png', 'Im_DanielRadcliffe.png', 'Im_BenStiller.png', 'Im_LeonardoDiCaprio.png', 'Im_ElijahWood.png', 'Im_BradPitt.png', 'Im_DanielCraig.png', 'Im_RobertDowneyJr.png', 'Im_HughJackman.png'],diff,0,0.758395599999858,0,0,
FRKA0706,train,pos,fs,posfs_id2_im3.bmp_posfs_id2_im16.bmp,['Im_KeanuReeves.png', 'Im_GeorgeClooney.png', 'Im_DanielRadcliffe.png', 'Im_BenStiller.png', 'Im_LeonardoDiCaprio.png', 'Im_ElijahWood.png', 'Im_BradPitt.png', 'Im_DanielCraig.png', 'Im_RobertDowneyJr.png', 'Im_HughJackman.png'],same,1,0.491691899999978,1,0,
FRKA0706,train,inv,fs,posfs_id6_im12.bmp_posfs_id3_im17.bmp,['Im_KeanuReeves.png', 'Im_GeorgeClooney.png', 'Im_DanielRadcliffe.png', 'Im_BenStiller.png', 'Im_LeonardoDiCaprio.png', 'Im_ElijahWood.png', 'Im_BradPitt.png', 'Im_DanielCraig.png', 'Im_RobertDowneyJr.png', 'Im_HughJackman.png'],diff,1,0.5250831000000744,2,0,
FRKA0706,train,inv,fs,posfs_id11_im2.bmp_posfs_id11_im10.bmp,['Im_KeanuReeves.png', 'Im_GeorgeClooney.png', 'Im_DanielRadcliffe.png', 'Im_BenStiller.png', 'Im_LeonardoDiCaprio.png', 'Im_ElijahWood.png', 'Im_BradPitt.png', 'Im_DanielCraig.png', 'Im_RobertDowneyJr.png', 'Im_HughJackman.png'],same,1,0.5250055000001339,3,0,
FRKA0706,train,pos,fs,posfs_id18_im19.bmp_posfs_id8_im13.bmp,['Im_KeanuReeves.png', 'Im_GeorgeClooney.png', 'Im_DanielRadcliffe.png', 'Im_BenStiller.png', 'Im_LeonardoDiCaprio.png', 'Im_ElijahWood.png', 'Im_BradPitt.png', 'Im_DanielCraig.png', 'Im_RobertDowneyJr.png', 'Im_HughJackman.png'],diff,1,0.4583219999999528,4,0,
FRKA0706,train,inv,fs,posfs_id3_im6.bmp_posfs_id8_im21.bmp,['Im_KeanuReeves.png', 'Im_GeorgeClooney.png', 'Im_DanielRadcliffe.png', 'Im_BenStiller.png', 'Im_LeonardoDiCaprio.png', 'Im_ElijahWood.png', 'Im_BradPitt.png', 'Im_DanielCraig.png', 'Im_RobertDowneyJr.png', 'Im_HughJackman.png'],same,0,1.0000912000000426,4,0,
FRKA0706,train,pos,fs,posfs_id3_im17.bmp_posfs_id3_im8.bmp,['Im_KeanuReeves.png', 'Im_GeorgeClooney.png', 'Im_DanielRadcliffe.png', 'Im_BenStiller.png', 'Im_LeonardoDiCaprio.png', 'Im_ElijahWood.png', 'Im_BradPitt.png', 'Im_DanielCraig.png', 'Im_RobertDowneyJr.png', 'Im_HughJackman.png'],same,1,0.7416073000001688,5,0,
FRKA0706,train,neg,fs,negfs_id3_im6.bmp_negfs_id3_im17.bmp,['Im_KeanuReeves.png', 'Im_GeorgeClooney.png', 'Im_DanielRadcliffe.png', 'Im_BenStiller.png', 'Im_LeonardoDiCaprio.png', 'Im_ElijahWood.png', 'Im_BradPitt.png', 'Im_DanielCraig.png', 'Im_RobertDowneyJr.png', 'Im_HughJackman.png'],same,1,1.3833474999998998,6,0,
FRKA0706,train,pos,fs,posfs_id7_im26.bmp_posfs_id7_im15.bmp,['Im_KeanuReeves.png', 'Im_GeorgeClooney.png', 'Im_DanielRadcliffe.png', 'Im_BenStiller.png', 'Im_LeonardoDiCaprio.png', 'Im_ElijahWood.png', 'Im_BradPitt.png', 'Im_DanielCraig.png', 'Im_RobertDowneyJr.png', 'Im_HughJackman.png'],same,1,0.6502892999999403,7,0,
FRKA0706,train,inv,fs,posfs_id5_im10.bmp_posfs_id2_im3.bmp,['Im_KeanuReeves.png', 'Im_GeorgeClooney.png', 'Im_DanielRadcliffe.png', 'Im_BenStiller.png', 'Im_LeonardoDiCaprio.png', 'Im_ElijahWood.png', 'Im_BradPitt.png', 'Im_DanielCraig.png', 'Im_RobertDowneyJr.png', 'Im_HughJackman.png'],diff,1,0.45035649999999805,8,0,
FRKA0706,train,neg,fs,negfs_id2_im16.bmp_negfs_id2_im3.bmp,['Im_KeanuReeves.png', 'Im_GeorgeClooney.png', 'Im_DanielRadcliffe.png', 'Im_BenStiller.png', 'Im_LeonardoDiCaprio.png', 'Im_ElijahWood.png', 'Im_BradPitt.png', 'Im_DanielCraig.png', 'Im_RobertDowneyJr.png', 'Im_HughJackman.png'],same,1,0.5750884000001406,9,0,
FRKA0706,train,neg,fs,negfs_id4_im7.bmp_negfs_id11_im2.bmp,['Im_KeanuReeves.png', 'Im_GeorgeClooney.png', 'Im_DanielRadcliffe.png', 'Im_BenStiller.png', 'Im_LeonardoDiCaprio.png', 'Im_ElijahWood.png', 'Im_BradPitt.png', 'Im_DanielCraig.png', 'Im_RobertDowneyJr.png', 'Im_HughJackman.png'],diff,1,0.5748995999999806,10,0,
FRKA0706,train,inv,fs,posfs_id3_im8.bmp_posfs_id3_im6.bmp,['Im_KeanuReeves.png', 'Im_GeorgeClooney.png', 'Im_DanielRadcliffe.png', 'Im_BenStiller.png', 'Im_LeonardoDiCaprio.png', 'Im_ElijahWood.png', 'Im_BradPitt.png', 'Im_DanielCraig.png', 'Im_RobertDowneyJr.png', 'Im_HughJackman.png'],same,1,0.5919461000000865,11,0,
FRKA0706,train,inv,fs,posfs_id5_im10.bmp_posfs_id5_im20.bmp,['Im_KeanuReeves.png', 'Im_GeorgeClooney.png', 'Im_DanielRadcliffe.png', 'Im_BenStiller.png', 'Im_LeonardoDiCaprio.png', 'Im_ElijahWood.png', 'Im_BradPitt.png', 'Im_DanielCraig.png', 'Im_RobertDowneyJr.png', 'Im_HughJackman.png'],diff,0,0.9752561000000242,11,0,
FRKA0706,train,pos,fs,posfs_id3_im6.bmp_posfs_id8_im20.bmp,['Im_KeanuReeves.png', 'Im_GeorgeClooney.png', 'Im_DanielRadcliffe.png', 'Im_BenStiller.png', 'Im_LeonardoDiCaprio.png', 'Im_ElijahWood.png', 'Im_BradPitt.png', 'Im_DanielCraig.png', 'Im_RobertDowneyJr.png', 'Im_HughJackman.png'],diff,1,1.042088799999874,12,0,
FRKA0706,train,neg,fs,negfs_id2_im3.bmp_negfs_id5_im10.bmp,['Im_KeanuReeves.png', 'Im_GeorgeClooney.png', 'Im_DanielRadcliffe.png', 'Im_BenStiller.png', 'Im_LeonardoDiCaprio.png', 'Im_ElijahWood.png', 'Im_BradPitt.png', 'Im_DanielCraig.png', 'Im_RobertDowneyJr.png', 'Im_HughJackman.png'],diff,1,0.45846740000001773,13,0,
FRKA0706,train,neg,fs,negfs_id13_im29.bmp_negfs_id5_im1.bmp,['Im_KeanuReeves.png', 'Im_GeorgeClooney.png', 'Im_DanielRadcliffe.png', 'Im_BenStiller.png', 'Im_LeonardoDiCaprio.png', 'Im_ElijahWood.png', 'Im_BradPitt.png', 'Im_DanielCraig.png', 'Im_RobertDowneyJr.png', 'Im_HughJackman.png'],diff,1,0.6918197999998483,14,0,
FRKA0706,train,neg,fs,negfs_id5_im20.bmp_negfs_id5_im10.bmp,['Im_KeanuReeves.png', 'Im_GeorgeClooney.png', 'Im_DanielRadcliffe.png', 'Im_BenStiller.png', 'Im_LeonardoDiCaprio.png', 'Im_ElijahWood.png', 'Im_BradPitt.png', 'Im_DanielCraig.png', 'Im_RobertDowneyJr.png', 'Im_HughJackman.png'],same,1,1.5253121999999166,15,0,
FRKA0706,train,inv,fs,posfs_id6_im12.bmp_posfs_id7_im14.bmp,['Im_KeanuReeves.png', 'Im_GeorgeClooney.png', 'Im_DanielRadcliffe.png', 'Im_BenStiller.png', 'Im_LeonardoDiCaprio.png', 'Im_ElijahWood.png', 'Im_BradPitt.png', 'Im_DanielCraig.png', 'Im_RobertDowneyJr.png', 'Im_HughJackman.png'],diff,1,0.5082786000000397,16,0,
FRKA0706,train,neg,fs,negfs_id6_im19.bmp_negfs_id2_im3.bmp,['Im_KeanuReeves.png', 'Im_GeorgeClooney.png', 'Im_DanielRadcliffe.png', 'Im_BenStiller.png', 'Im_LeonardoDiCaprio.png', 'Im_ElijahWood.png', 'Im_BradPitt.png', 'Im_DanielCraig.png', 'Im_RobertDowneyJr.png', 'Im_HughJackman.png'],diff,1,0.5501756999999543,17,0,
FRKA0706,train,inv,fs,posfs_id3_im17.bmp_posfs_id13_im15.bmp,['Im_KeanuReeves.png', 'Im_GeorgeClooney.png', 'Im_DanielRadcliffe.png', 'Im_BenStiller.png', 'Im_LeonardoDiCaprio.png', 'Im_ElijahWood.png', 'Im_BradPitt.png', 'Im_DanielCraig.png', 'Im_RobertDowneyJr.png', 'Im_HughJackman.png'],diff,1,0.816908999999896,1,0,
FRKA0706,train,inv,60,pos60_id13_im10.bmp_pos60_id18_im18.bmp,['Im_KeanuReeves.png', 'Im_GeorgeClooney.png', 'Im_DanielRadcliffe.png', 'Im_BenStiller.png', 'Im_LeonardoDiCaprio.png', 'Im_ElijahWood.png', 'Im_BradPitt.png', 'Im_DanielCraig.png', 'Im_RobertDowneyJr.png', 'Im_HughJackman.png'],diff,1,0.7504538000000593,2,0,
FRKA0706,train,inv,0,pos0_id11_im10.bmp_pos0_id11_im2.bmp,['Im_KeanuReeves.png', 'Im_GeorgeClooney.png', 'Im_DanielRadcliffe.png', 'Im_BenStiller.png', 'Im_LeonardoDiCaprio.png', 'Im_ElijahWood.png', 'Im_BradPitt.png', 'Im_DanielCraig.png', 'Im_RobertDowneyJr.png', 'Im_HughJackman.png'],same,1,0.43325400000003356,3,0,
FRKA0706,train,inv,120,pos120_id2_im2.bmp_pos120_id6_im19.bmp,['Im_KeanuReeves.png', 'Im_GeorgeClooney.png', 'Im_DanielRadcliffe.png', 'Im_BenStiller.png', 'Im_LeonardoDiCaprio.png', 'Im_ElijahWood.png', 'Im_BradPitt.png', 'Im_DanielCraig.png', 'Im_RobertDowneyJr.png', 'Im_HughJackman.png'],diff,1,0.700393300000087,4,0,
FRKA0706,train,inv,120,pos120_id7_im14.bmp_pos120_id11_im1.bmp,['Im_KeanuReeves.png', 'Im_GeorgeClooney.png', 'Im_DanielRadcliffe.png', 'Im_BenStiller.png', 'Im_LeonardoDiCaprio.png', 'Im_ElijahWood.png', 'Im_BradPitt.png', 'Im_DanielCraig.png', 'Im_RobertDowneyJr.png', 'Im_HughJackman.png'],same,0,0.46670719999997345,4,0,
FRKA0706,train,inv,60,pos60_id4_im20.bmp_pos60_id4_im15.bmp,['Im_KeanuReeves.png', 'Im_GeorgeClooney.png', 'Im_DanielRadcliffe.png', 'Im_BenStiller.png', 'Im_LeonardoDiCaprio.png', 'Im_ElijahWood.png', 'Im_BradPitt.png', 'Im_DanielCraig.png', 'Im_RobertDowneyJr.png', 'Im_HughJackman.png'],same,1,0.5086052999999993,5,0,
FRKA0706,train,inv,150,pos150_id7_im14.bmp_pos150_id7_im15.bmp,['Im_KeanuReeves.png', 'Im_GeorgeClooney.png', 'Im_DanielRadcliffe.png', 'Im_BenStiller.png', 'Im_LeonardoDiCaprio.png', 'Im_ElijahWood.png', 'Im_BradPitt.png', 'Im_DanielCraig.png', 'Im_RobertDowneyJr.png', 'Im_HughJackman.png'],diff,0,0.966631100000086,5,0,
FRKA0706,train,inv,fs,posfs_id8_im13.bmp_posfs_id8_im21.bmp,['Im_KeanuReeves.png', 'Im_GeorgeClooney.png', 'Im_DanielRadcliffe.png', 'Im_BenStiller.png', 'Im_LeonardoDiCaprio.png', 'Im_ElijahWood.png', 'Im_BradPitt.png', 'Im_DanielCraig.png', 'Im_RobertDowneyJr.png', 'Im_HughJackman.png'],same,1,0.41652239999984886,6,0,
FRKA0706,train,inv,30,pos30_id13_im15.bmp_pos30_id3_im17.bmp,['Im_KeanuReeves.png', 'Im_GeorgeClooney.png', 'Im_DanielRadcliffe.png', 'Im_BenStiller.png', 'Im_LeonardoDiCaprio.png', 'Im_ElijahWood.png', 'Im_BradPitt.png', 'Im_DanielCraig.png', 'Im_RobertDowneyJr.png', 'Im_HughJackman.png'],diff,1,0.5498857000000044,7,0,
FRKA0706,train,inv,0,pos0_id18_im18.bmp_pos0_id13_im10.bmp,['Im_KeanuReeves.png', 'Im_GeorgeClooney.png', 'Im_DanielRadcliffe.png', 'Im_BenStiller.png', 'Im_LeonardoDiCaprio.png', 'Im_ElijahWood.png', 'Im_BradPitt.png', 'Im_DanielCraig.png', 'Im_RobertDowneyJr.png', 'Im_HughJackman.png'],same,0,1.000278900000012,7,0,
FRKA0706,train,inv,90,pos90_id8_im21.bmp_pos90_id3_im6.bmp,['Im_KeanuReeves.png', 'Im_GeorgeClooney.png', 'Im_DanielRadcliffe.png', 'Im_BenStiller.png', 'Im_LeonardoDiCaprio.png', 'Im_ElijahWood.png', 'Im_BradPitt.png', 'Im_DanielCraig.png', 'Im_RobertDowneyJr.png', 'Im_HughJackman.png'],diff,1,1.2169536999999764,8,0,
FRKA0706,train,inv,150,pos150_id6_im12.bmp_pos150_id6_im18.bmp,['Im_KeanuReeves.png', 'Im_GeorgeClooney.png', 'Im_DanielRadcliffe.png', 'Im_BenStiller.png', 'Im_LeonardoDiCaprio.png', 'Im_ElijahWood.png', 'Im_BradPitt.png', 'Im_DanielCraig.png', 'Im_RobertDowneyJr.png', 'Im_HughJackman.png'],diff,0,0.41690159999984644,8,0,
FRKA0706,train,inv,90,pos90_id7_im14.bmp_pos90_id11_im1.bmp,['Im_KeanuReeves.png', 'Im_GeorgeClooney.png', 'Im_DanielRadcliffe.png', 'Im_BenStiller.png', 'Im_LeonardoDiCaprio.png', 'Im_ElijahWood.png', 'Im_BradPitt.png', 'Im_DanielCraig.png', 'Im_RobertDowneyJr.png', 'Im_HughJackman.png'],diff,1,1.842039300000124,9,0,
FRKA0706,train,inv,30,pos30_id3_im8.bmp_pos30_id3_im17.bmp,['Im_KeanuReeves.png', 'Im_GeorgeClooney.png', 'Im_DanielRadcliffe.png', 'Im_BenStiller.png', 'Im_LeonardoDiCaprio.png', 'Im_ElijahWood.png', 'Im_BradPitt.png', 'Im_DanielCraig.png', 'Im_RobertDowneyJr.png', 'Im_HughJackman.png'],diff,0,0.9169483000000582,9,0,
FRKA0706,train,neg,0,neg0_id5_im20.bmp_neg0_id5_im10.bmp,['Im_KeanuReeves.png', 'Im_GeorgeClooney.png', 'Im_DanielRadcliffe.png', 'Im_BenStiller.png', 'Im_LeonardoDiCaprio.png', 'Im_ElijahWood.png', 'Im_BradPitt.png', 'Im_DanielCraig.png', 'Im_RobertDowneyJr.png', 'Im_HughJackman.png'],diff,0,1.0999733999999535,9,0,
FRKA0706,train,neg,30,neg30_id6_im19.bmp_neg30_id2_im2.bmp,['Im_KeanuReeves.png', 'Im_GeorgeClooney.png', 'Im_DanielRadcliffe.png', 'Im_BenStiller.png', 'Im_LeonardoDiCaprio.png', 'Im_ElijahWood.png', 'Im_BradPitt.png', 'Im_DanielCraig.png', 'Im_RobertDowneyJr.png', 'Im_HughJackman.png'],diff,1,1.308534699999882,10,0,
FRKA0706,train,neg,60,neg60_id6_im18.bmp_neg60_id8_im13.bmp,['Im_KeanuReeves.png', 'Im_GeorgeClooney.png', 'Im_DanielRadcliffe.png', 'Im_BenStiller.png', 'Im_LeonardoDiCaprio.png', 'Im_ElijahWood.png', 'Im_BradPitt.png', 'Im_DanielCraig.png', 'Im_RobertDowneyJr.png', 'Im_HughJackman.png'],same,0,1.1834065000000464,10,0,
FRKA0706,train,neg,120,neg120_id4_im15.bmp_neg120_id18_im11.bmp,['Im_KeanuReeves.png', 'Im_GeorgeClooney.png', 'Im_DanielRadcliffe.png', 'Im_BenStiller.png', 'Im_LeonardoDiCaprio.png', 'Im_ElijahWood.png', 'Im_BradPitt.png', 'Im_DanielCraig.png', 'Im_RobertDowneyJr.png', 'Im_HughJackman.png'],diff,1,1.7670114000000012,11,0,
FRKA0706,train,neg,120,neg120_id8_im13.bmp_neg120_id8_im21.bmp,['Im_KeanuReeves.png', 'Im_GeorgeClooney.png', 'Im_DanielRadcliffe.png', 'Im_BenStiller.png', 'Im_LeonardoDiCaprio.png', 'Im_ElijahWood.png', 'Im_BradPitt.png', 'Im_DanielCraig.png', 'Im_RobertDowneyJr.png', 'Im_HughJackman.png'],same,1,1.2665781999999126,12,0,
FRKA0706,train,neg,90,neg90_id2_im16.bmp_neg90_id2_im2.bmp,['Im_KeanuReeves.png', 'Im_GeorgeClooney.png', 'Im_DanielRadcliffe.png', 'Im_BenStiller.png', 'Im_LeonardoDiCaprio.png', 'Im_ElijahWood.png', 'Im_BradPitt.png', 'Im_DanielCraig.png', 'Im_RobertDowneyJr.png', 'Im_HughJackman.png'],same,1,0.5668616000000384,13,0,
FRKA0706,train,neg,30,neg30_id6_im12.bmp_neg30_id6_im18.bmp,['Im_KeanuReeves.png', 'Im_GeorgeClooney.png', 'Im_DanielRadcliffe.png', 'Im_BenStiller.png', 'Im_LeonardoDiCaprio.png', 'Im_ElijahWood.png', 'Im_BradPitt.png', 'Im_DanielCraig.png', 'Im_RobertDowneyJr.png', 'Im_HughJackman.png'],diff,0,0.4254148999998506,13,0,
FRKA0706,train,neg,150,neg150_id2_im16.bmp_neg150_id5_im20.bmp,['Im_KeanuReeves.png', 'Im_GeorgeClooney.png', 'Im_DanielRadcliffe.png', 'Im_BenStiller.png', 'Im_LeonardoDiCaprio.png', 'Im_ElijahWood.png', 'Im_BradPitt.png', 'Im_DanielCraig.png', 'Im_RobertDowneyJr.png', 'Im_HughJackman.png'],diff,1,0.7502093000000514,14,0,
FRKA0706,train,neg,fs,negfs_id13_im10.bmp_negfs_id13_im29.bmp,['Im_KeanuReeves.png', 'Im_GeorgeClooney.png', 'Im_DanielRadcliffe.png', 'Im_BenStiller.png', 'Im_LeonardoDiCaprio.png', 'Im_ElijahWood.png', 'Im_BradPitt.png', 'Im_DanielCraig.png', 'Im_RobertDowneyJr.png', 'Im_HughJackman.png'],same,1,0.6669226999999864,15,0,
FRKA0706,train,neg,90,neg90_id3_im17.bmp_neg90_id13_im15.bmp,['Im_KeanuReeves.png', 'Im_GeorgeClooney.png', 'Im_DanielRadcliffe.png', 'Im_BenStiller.png', 'Im_LeonardoDiCaprio.png', 'Im_ElijahWood.png', 'Im_BradPitt.png', 'Im_DanielCraig.png', 'Im_RobertDowneyJr.png', 'Im_HughJackman.png'],diff,1,1.283799799999997,16,0,
FRKA0706,train,neg,0,neg0_id2_im3.bmp_neg0_id5_im10.bmp,['Im_KeanuReeves.png', 'Im_GeorgeClooney.png', 'Im_DanielRadcliffe.png', 'Im_BenStiller.png', 'Im_LeonardoDiCaprio.png', 'Im_ElijahWood.png', 'Im_BradPitt.png', 'Im_DanielCraig.png', 'Im_RobertDowneyJr.png', 'Im_HughJackman.png'],diff,1,0.7417298000000301,17,0,
FRKA0706,train,neg,60,neg60_id13_im10.bmp_neg60_id13_im15.bmp,['Im_KeanuReeves.png', 'Im_GeorgeClooney.png', 'Im_DanielRadcliffe.png', 'Im_BenStiller.png', 'Im_LeonardoDiCaprio.png', 'Im_ElijahWood.png', 'Im_BradPitt.png', 'Im_DanielCraig.png', 'Im_RobertDowneyJr.png', 'Im_HughJackman.png'],same,1,0.5833293999999114,18,0,
FRKA0706,train,neg,150,neg150_id7_im26.bmp_neg150_id7_im15.bmp,['Im_KeanuReeves.png', 'Im_GeorgeClooney.png', 'Im_DanielRadcliffe.png', 'Im_BenStiller.png', 'Im_LeonardoDiCaprio.png', 'Im_ElijahWood.png', 'Im_BradPitt.png', 'Im_DanielCraig.png', 'Im_RobertDowneyJr.png', 'Im_HughJackman.png'],diff,0,1.108577299999979,18,0,
FRKA0706,train,neg,fs,negfs_id5_im10.bmp_negfs_id2_im3.bmp,['Im_KeanuReeves.png', 'Im_GeorgeClooney.png', 'Im_DanielRadcliffe.png', 'Im_BenStiller.png', 'Im_LeonardoDiCaprio.png', 'Im_ElijahWood.png', 'Im_BradPitt.png', 'Im_DanielCraig.png', 'Im_RobertDowneyJr.png', 'Im_HughJackman.png'],diff,1,0.5586524999998801,19,0,
FRKA0706,train,pos,30,pos30_id6_im18.bmp_pos30_id4_im7.bmp,['Im_KeanuReeves.png', 'Im_GeorgeClooney.png', 'Im_DanielRadcliffe.png', 'Im_BenStiller.png', 'Im_LeonardoDiCaprio.png', 'Im_ElijahWood.png', 'Im_BradPitt.png', 'Im_DanielCraig.png', 'Im_RobertDowneyJr.png', 'Im_HughJackman.png'],diff,1,0.6999338000000535,20,0,
FRKA0706,train,pos,0,pos0_id18_im18.bmp_pos0_id18_im19.bmp,['Im_KeanuReeves.png', 'Im_GeorgeClooney.png', 'Im_DanielRadcliffe.png', 'Im_BenStiller.png', 'Im_LeonardoDiCaprio.png', 'Im_ElijahWood.png', 'Im_BradPitt.png', 'Im_DanielCraig.png', 'Im_RobertDowneyJr.png', 'Im_HughJackman.png'],same,1,0.4832516999999825,21,0,
FRKA0706,train,pos,120,pos120_id8_im20.bmp_pos120_id8_im21.bmp,['Im_KeanuReeves.png', 'Im_GeorgeClooney.png', 'Im_DanielRadcliffe.png', 'Im_BenStiller.png', 'Im_LeonardoDiCaprio.png', 'Im_ElijahWood.png', 'Im_BradPitt.png', 'Im_DanielCraig.png', 'Im_RobertDowneyJr.png', 'Im_HughJackman.png'],same,1,0.5832028999998329,22,0,
FRKA0706,train,pos,30,pos30_id13_im10.bmp_pos30_id13_im29.bmp,['Im_KeanuReeves.png', 'Im_GeorgeClooney.png', 'Im_DanielRadcliffe.png', 'Im_BenStiller.png', 'Im_LeonardoDiCaprio.png', 'Im_ElijahWood.png', 'Im_BradPitt.png', 'Im_DanielCraig.png', 'Im_RobertDowneyJr.png', 'Im_HughJackman.png'],same,1,0.5000396999998884,23,0,
FRKA0706,train,pos,fs,posfs_id5_im1.bmp_posfs_id5_im10.bmp,['Im_KeanuReeves.png', 'Im_GeorgeClooney.png', 'Im_DanielRadcliffe.png', 'Im_BenStiller.png', 'Im_LeonardoDiCaprio.png', 'Im_ElijahWood.png', 'Im_BradPitt.png', 'Im_DanielCraig.png', 'Im_RobertDowneyJr.png', 'Im_HughJackman.png'],same,1,0.40856239999993704,24,0,
FRKA0706,train,pos,60,pos60_id7_im15.bmp_pos60_id4_im20.bmp,['Im_KeanuReeves.png', 'Im_GeorgeClooney.png', 'Im_DanielRadcliffe.png', 'Im_BenStiller.png', 'Im_LeonardoDiCaprio.png', 'Im_ElijahWood.png', 'Im_BradPitt.png', 'Im_DanielCraig.png', 'Im_RobertDowneyJr.png', 'Im_HughJackman.png'],diff,1,0.8000315000001592,25,0,
FRKA0706,train,pos,90,pos90_id6_im19.bmp_pos90_id2_im2.bmp,['Im_KeanuReeves.png', 'Im_GeorgeClooney.png', 'Im_DanielRadcliffe.png', 'Im_BenStiller.png', 'Im_LeonardoDiCaprio.png', 'Im_ElijahWood.png', 'Im_BradPitt.png', 'Im_DanielCraig.png', 'Im_RobertDowneyJr.png', 'Im_HughJackman.png'],diff,1,0.5417457000000923,26,0,
FRKA0706,train,pos,60,pos60_id18_im11.bmp_pos60_id18_im18.bmp,['Im_KeanuReeves.png', 'Im_GeorgeClooney.png', 'Im_DanielRadcliffe.png', 'Im_BenStiller.png', 'Im_LeonardoDiCaprio.png', 'Im_ElijahWood.png', 'Im_BradPitt.png', 'Im_DanielCraig.png', 'Im_RobertDowneyJr.png', 'Im_HughJackman.png'],same,1,0.8000409999999647,27,0,
FRKA0706,train,pos,fs,posfs_id2_im3.bmp_posfs_id2_im16.bmp,['Im_KeanuReeves.png', 'Im_GeorgeClooney.png', 'Im_DanielRadcliffe.png', 'Im_BenStiller.png', 'Im_LeonardoDiCaprio.png', 'Im_ElijahWood.png', 'Im_BradPitt.png', 'Im_DanielCraig.png', 'Im_RobertDowneyJr.png', 'Im_HughJackman.png'],same,1,0.6501295999999002,28,0,
FRKA0706,train,pos,120,pos120_id13_im15.bmp_pos120_id13_im10.bmp,['Im_KeanuReeves.png', 'Im_GeorgeClooney.png', 'Im_DanielRadcliffe.png', 'Im_BenStiller.png', 'Im_LeonardoDiCaprio.png', 'Im_ElijahWood.png', 'Im_BradPitt.png', 'Im_DanielCraig.png', 'Im_RobertDowneyJr.png', 'Im_HughJackman.png'],same,1,0.4083712999999989,29,0,
FRKA0706,train,pos,0,pos0_id11_im1.bmp_pos0_id5_im1.bmp,['Im_KeanuReeves.png', 'Im_GeorgeClooney.png', 'Im_DanielRadcliffe.png', 'Im_BenStiller.png', 'Im_LeonardoDiCaprio.png', 'Im_ElijahWood.png', 'Im_BradPitt.png', 'Im_DanielCraig.png', 'Im_RobertDowneyJr.png', 'Im_HughJackman.png'],diff,1,1.6505272999997942,30,0,
FRKA0706,train,pos,150,pos150_id13_im10.bmp_pos150_id13_im29.bmp,['Im_KeanuReeves.png', 'Im_GeorgeClooney.png', 'Im_DanielRadcliffe.png', 'Im_BenStiller.png', 'Im_LeonardoDiCaprio.png', 'Im_ElijahWood.png', 'Im_BradPitt.png', 'Im_DanielCraig.png', 'Im_RobertDowneyJr.png', 'Im_HughJackman.png'],diff,0,0.5501874999999927,30,0,
FRKA0706,train,pos,150,pos150_id13_im15.bmp_pos150_id2_im16.bmp,['Im_KeanuReeves.png', 'Im_GeorgeClooney.png', 'Im_DanielRadcliffe.png', 'Im_BenStiller.png', 'Im_LeonardoDiCaprio.png', 'Im_ElijahWood.png', 'Im_BradPitt.png', 'Im_DanielCraig.png', 'Im_RobertDowneyJr.png', 'Im_HughJackman.png'],diff,1,0.6001377000000048,31,0,
FRKA0706,train,pos,90,pos90_id6_im12.bmp_pos90_id6_im18.bmp,['Im_KeanuReeves.png', 'Im_GeorgeClooney.png', 'Im_DanielRadcliffe.png', 'Im_BenStiller.png', 'Im_LeonardoDiCaprio.png', 'Im_ElijahWood.png', 'Im_BradPitt.png', 'Im_DanielCraig.png', 'Im_RobertDowneyJr.png', 'Im_HughJackman.png'],same,1,0.40010320000010324,32,0,
FRKA0706,train,neg,60,neg60_id3_im6.bmp_neg60_id3_im8.bmp,['Im_KeanuReeves.png', 'Im_GeorgeClooney.png', 'Im_DanielRadcliffe.png', 'Im_BenStiller.png', 'Im_LeonardoDiCaprio.png', 'Im_ElijahWood.png', 'Im_BradPitt.png', 'Im_DanielCraig.png', 'Im_RobertDowneyJr.png', 'Im_HughJackman.png'],diff,0,1.6332111000001532,0,76.19047619047619,
FRKA0706,train,neg,90,neg90_id18_im19.bmp_neg90_id3_im8.bmp,['Im_KeanuReeves.png', 'Im_GeorgeClooney.png', 'Im_DanielRadcliffe.png', 'Im_BenStiller.png', 'Im_LeonardoDiCaprio.png', 'Im_ElijahWood.png', 'Im_BradPitt.png', 'Im_DanielCraig.png', 'Im_RobertDowneyJr.png', 'Im_HughJackman.png'],diff,1,0.7086048000001028,1,76.19047619047619,
FRKA0706,train,neg,60,neg60_id18_im19.bmp_neg60_id3_im8.bmp,['Im_KeanuReeves.png', 'Im_GeorgeClooney.png', 'Im_DanielRadcliffe.png', 'Im_BenStiller.png', 'Im_LeonardoDiCaprio.png', 'Im_ElijahWood.png', 'Im_BradPitt.png', 'Im_DanielCraig.png', 'Im_RobertDowneyJr.png', 'Im_HughJackman.png'],diff,1,0.5004754000001412,2,76.19047619047619,
FRKA0706,train,neg,120,neg120_id4_im7.bmp_neg120_id4_im20.bmp,['Im_KeanuReeves.png', 'Im_GeorgeClooney.png', 'Im_DanielRadcliffe.png', 'Im_BenStiller.png', 'Im_LeonardoDiCaprio.png', 'Im_ElijahWood.png', 'Im_BradPitt.png', 'Im_DanielCraig.png', 'Im_RobertDowneyJr.png', 'Im_HughJackman.png'],same,1,0.9501414999999724,3,76.19047619047619,
FRKA0706,train,neg,fs,negfs_id8_im20.bmp_negfs_id8_im21.bmp,['Im_KeanuReeves.png', 'Im_GeorgeClooney.png', 'Im_DanielRadcliffe.png', 'Im_BenStiller.png', 'Im_LeonardoDiCaprio.png', 'Im_ElijahWood.png', 'Im_BradPitt.png', 'Im_DanielCraig.png', 'Im_RobertDowneyJr.png', 'Im_HughJackman.png'],same,1,0.4166639000000032,4,76.19047619047619,
FRKA0706,train,neg,30,neg30_id7_im26.bmp_neg30_id18_im11.bmp,['Im_KeanuReeves.png', 'Im_GeorgeClooney.png', 'Im_DanielRadcliffe.png', 'Im_BenStiller.png', 'Im_LeonardoDiCaprio.png', 'Im_ElijahWood.png', 'Im_BradPitt.png', 'Im_DanielCraig.png', 'Im_RobertDowneyJr.png', 'Im_HughJackman.png'],diff,1,0.8502859000000171,5,76.19047619047619,
FRKA0706,train,neg,150,neg150_id13_im10.bmp_neg150_id18_im18.bmp,['Im_KeanuReeves.png', 'Im_GeorgeClooney.png', 'Im_DanielRadcliffe.png', 'Im_BenStiller.png', 'Im_LeonardoDiCaprio.png', 'Im_ElijahWood.png', 'Im_BradPitt.png', 'Im_DanielCraig.png', 'Im_RobertDowneyJr.png', 'Im_HughJackman.png'],diff,1,0.616578600000139,6,76.19047619047619,
FRKA0706,train,neg,0,neg0_id18_im19.bmp_neg0_id18_im11.bmp,['Im_KeanuReeves.png', 'Im_GeorgeClooney.png', 'Im_DanielRadcliffe.png', 'Im_BenStiller.png', 'Im_LeonardoDiCaprio.png', 'Im_ElijahWood.png', 'Im_BradPitt.png', 'Im_DanielCraig.png', 'Im_RobertDowneyJr.png', 'Im_HughJackman.png'],same,1,0.658206299999847,7,76.19047619047619,
FRKA0706,train,neg,0,neg0_id6_im12.bmp_neg0_id6_im18.bmp,['Im_KeanuReeves.png', 'Im_GeorgeClooney.png', 'Im_DanielRadcliffe.png', 'Im_BenStiller.png', 'Im_LeonardoDiCaprio.png', 'Im_ElijahWood.png', 'Im_BradPitt.png', 'Im_DanielCraig.png', 'Im_RobertDowneyJr.png', 'Im_HughJackman.png'],same,1,0.5666564000000562,8,76.19047619047619,
FRKA0706,train,neg,90,neg90_id7_im15.bmp_neg90_id7_im14.bmp,['Im_KeanuReeves.png', 'Im_GeorgeClooney.png', 'Im_DanielRadcliffe.png', 'Im_BenStiller.png', 'Im_LeonardoDiCaprio.png', 'Im_ElijahWood.png', 'Im_BradPitt.png', 'Im_DanielCraig.png', 'Im_RobertDowneyJr.png', 'Im_HughJackman.png'],diff,0,0.41691769999988537,8,76.19047619047619,
FRKA0706,train,neg,150,neg150_id7_im26.bmp_neg150_id4_im20.bmp,['Im_KeanuReeves.png', 'Im_GeorgeClooney.png', 'Im_DanielRadcliffe.png', 'Im_BenStiller.png', 'Im_LeonardoDiCaprio.png', 'Im_ElijahWood.png', 'Im_BradPitt.png', 'Im_DanielCraig.png', 'Im_RobertDowneyJr.png', 'Im_HughJackman.png'],diff,1,0.9834501999998793,9,76.19047619047619,
FRKA0706,train,neg,fs,negfs_id11_im10.bmp_negfs_id5_im10.bmp,['Im_KeanuReeves.png', 'Im_GeorgeClooney.png', 'Im_DanielRadcliffe.png', 'Im_BenStiller.png', 'Im_LeonardoDiCaprio.png', 'Im_ElijahWood.png', 'Im_BradPitt.png', 'Im_DanielCraig.png', 'Im_RobertDowneyJr.png', 'Im_HughJackman.png'],diff,1,0.7084824999999455,10,76.19047619047619,
FRKA0706,train,neg,120,neg120_id8_im20.bmp_neg120_id8_im13.bmp,['Im_KeanuReeves.png', 'Im_GeorgeClooney.png', 'Im_DanielRadcliffe.png', 'Im_BenStiller.png', 'Im_LeonardoDiCaprio.png', 'Im_ElijahWood.png', 'Im_BradPitt.png', 'Im_DanielCraig.png', 'Im_RobertDowneyJr.png', 'Im_HughJackman.png'],same,1,0.4167827999999645,11,76.19047619047619,
FRKA0706,train,neg,30,neg30_id4_im20.bmp_neg30_id7_im26.bmp,['Im_KeanuReeves.png', 'Im_GeorgeClooney.png', 'Im_DanielRadcliffe.png', 'Im_BenStiller.png', 'Im_LeonardoDiCaprio.png', 'Im_ElijahWood.png', 'Im_BradPitt.png', 'Im_DanielCraig.png', 'Im_RobertDowneyJr.png', 'Im_HughJackman.png'],same,0,1.1250150999999278,11,76.19047619047619,
FRKA0706,train,inv,0,pos0_id7_im15.bmp_pos0_id7_im26.bmp,['Im_KeanuReeves.png', 'Im_GeorgeClooney.png', 'Im_DanielRadcliffe.png', 'Im_BenStiller.png', 'Im_LeonardoDiCaprio.png', 'Im_ElijahWood.png', 'Im_BradPitt.png', 'Im_DanielCraig.png', 'Im_RobertDowneyJr.png', 'Im_HughJackman.png'],diff,0,0.6001905999999053,11,76.19047619047619,
FRKA0706,train,inv,fs,posfs_id13_im29.bmp_posfs_id13_im10.bmp,['Im_KeanuReeves.png', 'Im_GeorgeClooney.png', 'Im_DanielRadcliffe.png', 'Im_BenStiller.png', 'Im_LeonardoDiCaprio.png', 'Im_ElijahWood.png', 'Im_BradPitt.png', 'Im_DanielCraig.png', 'Im_RobertDowneyJr.png', 'Im_HughJackman.png'],same,1,2.141702099999975,12,76.19047619047619,
FRKA0706,train,inv,30,pos30_id11_im1.bmp_pos30_id7_im14.bmp,['Im_KeanuReeves.png', 'Im_GeorgeClooney.png', 'Im_DanielRadcliffe.png', 'Im_BenStiller.png', 'Im_LeonardoDiCaprio.png', 'Im_ElijahWood.png', 'Im_BradPitt.png', 'Im_DanielCraig.png', 'Im_RobertDowneyJr.png', 'Im_HughJackman.png'],diff,1,0.4669659999999567,13,76.19047619047619,
FRKA0706,train,inv,fs,posfs_id13_im29.bmp_posfs_id13_im15.bmp,['Im_KeanuReeves.png', 'Im_GeorgeClooney.png', 'Im_DanielRadcliffe.png', 'Im_BenStiller.png', 'Im_LeonardoDiCaprio.png', 'Im_ElijahWood.png', 'Im_BradPitt.png', 'Im_DanielCraig.png', 'Im_RobertDowneyJr.png', 'Im_HughJackman.png'],same,1,0.5748685999999452,14,76.19047619047619,
FRKA0706,train,inv,90,pos90_id5_im1.bmp_pos90_id11_im1.bmp,['Im_KeanuReeves.png', 'Im_GeorgeClooney.png', 'Im_DanielRadcliffe.png', 'Im_BenStiller.png', 'Im_LeonardoDiCaprio.png', 'Im_ElijahWood.png', 'Im_BradPitt.png', 'Im_DanielCraig.png', 'Im_RobertDowneyJr.png', 'Im_HughJackman.png'],diff,1,0.7583904999999049,15,76.19047619047619,
FRKA0706,train,inv,120,pos120_id18_im11.bmp_pos120_id4_im15.bmp,['Im_KeanuReeves.png', 'Im_GeorgeClooney.png', 'Im_DanielRadcliffe.png', 'Im_BenStiller.png', 'Im_LeonardoDiCaprio.png', 'Im_ElijahWood.png', 'Im_BradPitt.png', 'Im_DanielCraig.png', 'Im_RobertDowneyJr.png', 'Im_HughJackman.png'],same,0,0.7335954000000129,15,76.19047619047619,
FRKA0706,train,inv,90,pos90_id5_im1.bmp_pos90_id5_im10.bmp,['Im_KeanuReeves.png', 'Im_GeorgeClooney.png', 'Im_DanielRadcliffe.png', 'Im_BenStiller.png', 'Im_LeonardoDiCaprio.png', 'Im_ElijahWood.png', 'Im_BradPitt.png', 'Im_DanielCraig.png', 'Im_RobertDowneyJr.png', 'Im_HughJackman.png'],diff,0,1.7667159000000083,15,76.19047619047619,
FRKA0706,train,inv,150,pos150_id11_im1.bmp_pos150_id11_im2.bmp,['Im_KeanuReeves.png', 'Im_GeorgeClooney.png', 'Im_DanielRadcliffe.png', 'Im_BenStiller.png', 'Im_LeonardoDiCaprio.png', 'Im_ElijahWood.png', 'Im_BradPitt.png', 'Im_DanielCraig.png', 'Im_RobertDowneyJr.png', 'Im_HughJackman.png'],same,1,0.4167166999998244,16,76.19047619047619,
FRKA0706,train,inv,0,pos0_id8_im20.bmp_pos0_id8_im13.bmp,['Im_KeanuReeves.png', 'Im_GeorgeClooney.png', 'Im_DanielRadcliffe.png', 'Im_BenStiller.png', 'Im_LeonardoDiCaprio.png', 'Im_ElijahWood.png', 'Im_BradPitt.png', 'Im_DanielCraig.png', 'Im_RobertDowneyJr.png', 'Im_HughJackman.png'],same,1,1.000044300000127,17,76.19047619047619,
FRKA0706,train,inv,60,pos60_id2_im16.bmp_pos60_id13_im15.bmp,['Im_KeanuReeves.png', 'Im_GeorgeClooney.png', 'Im_DanielRadcliffe.png', 'Im_BenStiller.png', 'Im_LeonardoDiCaprio.png', 'Im_ElijahWood.png', 'Im_BradPitt.png', 'Im_DanielCraig.png', 'Im_RobertDowneyJr.png', 'Im_HughJackman.png'],diff,1,0.5586015999999745,18,76.19047619047619,
FRKA0706,train,inv,150,pos150_id6_im19.bmp_pos150_id2_im3.bmp,['Im_KeanuReeves.png', 'Im_GeorgeClooney.png', 'Im_DanielRadcliffe.png', 'Im_BenStiller.png', 'Im_LeonardoDiCaprio.png', 'Im_ElijahWood.png', 'Im_BradPitt.png', 'Im_DanielCraig.png', 'Im_RobertDowneyJr.png', 'Im_HughJackman.png'],same,0,1.283220700000129,18,76.19047619047619,
FRKA0706,train,inv,30,pos30_id13_im29.bmp_pos30_id13_im10.bmp,['Im_KeanuReeves.png', 'Im_GeorgeClooney.png', 'Im_DanielRadcliffe.png', 'Im_BenStiller.png', 'Im_LeonardoDiCaprio.png', 'Im_ElijahWood.png', 'Im_BradPitt.png', 'Im_DanielCraig.png', 'Im_RobertDowneyJr.png', 'Im_HughJackman.png'],same,1,1.3583200999999008,19,76.19047619047619,
FRKA0706,train,inv,120,pos120_id8_im13.bmp_pos120_id6_im18.bmp,['Im_KeanuReeves.png', 'Im_GeorgeClooney.png', 'Im_DanielRadcliffe.png', 'Im_BenStiller.png', 'Im_LeonardoDiCaprio.png', 'Im_ElijahWood.png', 'Im_BradPitt.png', 'Im_DanielCraig.png', 'Im_RobertDowneyJr.png', 'Im_HughJackman.png'],diff,1,1.4167184000000361,20,76.19047619047619,
FRKA0706,train,inv,60,pos60_id18_im19.bmp_pos60_id18_im18.bmp,['Im_KeanuReeves.png', 'Im_GeorgeClooney.png', 'Im_DanielRadcliffe.png', 'Im_BenStiller.png', 'Im_LeonardoDiCaprio.png', 'Im_ElijahWood.png', 'Im_BradPitt.png', 'Im_DanielCraig.png', 'Im_RobertDowneyJr.png', 'Im_HughJackman.png'],same,1,1.1333816000001207,21,76.19047619047619,
FRKA0706,train,pos,60,pos60_id11_im2.bmp_pos60_id4_im7.bmp,['Im_KeanuReeves.png', 'Im_GeorgeClooney.png', 'Im_DanielRadcliffe.png', 'Im_BenStiller.png', 'Im_LeonardoDiCaprio.png', 'Im_ElijahWood.png', 'Im_BradPitt.png', 'Im_DanielCraig.png', 'Im_RobertDowneyJr.png', 'Im_HughJackman.png'],diff,1,0.4166821000001164,22,76.19047619047619,
FRKA0706,train,pos,60,pos60_id4_im15.bmp_pos60_id4_im20.bmp,['Im_KeanuReeves.png', 'Im_GeorgeClooney.png', 'Im_DanielRadcliffe.png', 'Im_BenStiller.png', 'Im_LeonardoDiCaprio.png', 'Im_ElijahWood.png', 'Im_BradPitt.png', 'Im_DanielCraig.png', 'Im_RobertDowneyJr.png', 'Im_HughJackman.png'],same,1,0.4166582999998809,23,76.19047619047619,
FRKA0706,train,pos,90,pos90_id11_im10.bmp_pos90_id11_im1.bmp,['Im_KeanuReeves.png', 'Im_GeorgeClooney.png', 'Im_DanielRadcliffe.png', 'Im_BenStiller.png', 'Im_LeonardoDiCaprio.png', 'Im_ElijahWood.png', 'Im_BradPitt.png', 'Im_DanielCraig.png', 'Im_RobertDowneyJr.png', 'Im_HughJackman.png'],diff,0,1.0163797000000159,23,76.19047619047619,
FRKA0706,train,pos,30,pos30_id11_im2.bmp_pos30_id11_im10.bmp,['Im_KeanuReeves.png', 'Im_GeorgeClooney.png', 'Im_DanielRadcliffe.png', 'Im_BenStiller.png', 'Im_LeonardoDiCaprio.png', 'Im_ElijahWood.png', 'Im_BradPitt.png', 'Im_DanielCraig.png', 'Im_RobertDowneyJr.png', 'Im_HughJackman.png'],same,1,0.6500582000001032,24,76.19047619047619,
FRKA0706,train,pos,120,pos120_id6_im18.bmp_pos120_id8_im13.bmp,['Im_KeanuReeves.png', 'Im_GeorgeClooney.png', 'Im_DanielRadcliffe.png', 'Im_BenStiller.png', 'Im_LeonardoDiCaprio.png', 'Im_ElijahWood.png', 'Im_BradPitt.png', 'Im_DanielCraig.png', 'Im_RobertDowneyJr.png', 'Im_HughJackman.png'],diff,1,0.4752825999999004,25,76.19047619047619,
FRKA0706,train,pos,0,pos0_id11_im10.bmp_pos0_id11_im1.bmp,['Im_KeanuReeves.png', 'Im_GeorgeClooney.png', 'Im_DanielRadcliffe.png', 'Im_BenStiller.png', 'Im_LeonardoDiCaprio.png', 'Im_ElijahWood.png', 'Im_BradPitt.png', 'Im_DanielCraig.png', 'Im_RobertDowneyJr.png', 'Im_HughJackman.png'],diff,0,0.4166614999999183,25,76.19047619047619,
FRKA0706,train,pos,30,pos30_id6_im19.bmp_pos30_id6_im18.bmp,['Im_KeanuReeves.png', 'Im_GeorgeClooney.png', 'Im_DanielRadcliffe.png', 'Im_BenStiller.png', 'Im_LeonardoDiCaprio.png', 'Im_ElijahWood.png', 'Im_BradPitt.png', 'Im_DanielCraig.png', 'Im_RobertDowneyJr.png', 'Im_HughJackman.png'],same,1,0.44985970000016096,26,76.19047619047619,
FRKA0706,train,pos,120,pos120_id8_im13.bmp_pos120_id8_im21.bmp,['Im_KeanuReeves.png', 'Im_GeorgeClooney.png', 'Im_DanielRadcliffe.png', 'Im_BenStiller.png', 'Im_LeonardoDiCaprio.png', 'Im_ElijahWood.png', 'Im_BradPitt.png', 'Im_DanielCraig.png', 'Im_RobertDowneyJr.png', 'Im_HughJackman.png'],same,1,0.48333900000011454,27,76.19047619047619,
FRKA0706,train,pos,150,pos150_id8_im21.bmp_pos150_id8_im13.bmp,['Im_KeanuReeves.png', 'Im_GeorgeClooney.png', 'Im_DanielRadcliffe.png', 'Im_BenStiller.png', 'Im_LeonardoDiCaprio.png', 'Im_ElijahWood.png', 'Im_BradPitt.png', 'Im_DanielCraig.png', 'Im_RobertDowneyJr.png', 'Im_HughJackman.png'],same,1,1.0168095999999878,28,76.19047619047619,
FRKA0706,train,pos,150,pos150_id3_im17.bmp_pos150_id3_im6.bmp,['Im_KeanuReeves.png', 'Im_GeorgeClooney.png', 'Im_DanielRadcliffe.png', 'Im_BenStiller.png', 'Im_LeonardoDiCaprio.png', 'Im_ElijahWood.png', 'Im_BradPitt.png', 'Im_DanielCraig.png', 'Im_RobertDowneyJr.png', 'Im_HughJackman.png'],same,1,0.7918443000000934,29,76.19047619047619,
FRKA0706,train,pos,90,pos90_id7_im26.bmp_pos90_id18_im11.bmp,['Im_KeanuReeves.png', 'Im_GeorgeClooney.png', 'Im_DanielRadcliffe.png', 'Im_BenStiller.png', 'Im_LeonardoDiCaprio.png', 'Im_ElijahWood.png', 'Im_BradPitt.png', 'Im_DanielCraig.png', 'Im_RobertDowneyJr.png', 'Im_HughJackman.png'],diff,1,0.8417859000001044,30,76.19047619047619,
FRKA0706,train,pos,fs,posfs_id18_im19.bmp_posfs_id18_im11.bmp,['Im_KeanuReeves.png', 'Im_GeorgeClooney.png', 'Im_DanielRadcliffe.png', 'Im_BenStiller.png', 'Im_LeonardoDiCaprio.png', 'Im_ElijahWood.png', 'Im_BradPitt.png', 'Im_DanielCraig.png', 'Im_RobertDowneyJr.png', 'Im_HughJackman.png'],same,1,0.4168400000000929,31,76.19047619047619,
FRKA0706,train,pos,fs,posfs_id18_im11.bmp_posfs_id4_im15.bmp,['Im_KeanuReeves.png', 'Im_GeorgeClooney.png', 'Im_DanielRadcliffe.png', 'Im_BenStiller.png', 'Im_LeonardoDiCaprio.png', 'Im_ElijahWood.png', 'Im_BradPitt.png', 'Im_DanielCraig.png', 'Im_RobertDowneyJr.png', 'Im_HughJackman.png'],diff,1,0.7763967000000775,32,76.19047619047619,
FRKA0706,train,pos,0,pos0_id4_im20.bmp_pos0_id4_im7.bmp,['Im_KeanuReeves.png', 'Im_GeorgeClooney.png', 'Im_DanielRadcliffe.png', 'Im_BenStiller.png', 'Im_LeonardoDiCaprio.png', 'Im_ElijahWood.png', 'Im_BradPitt.png', 'Im_DanielCraig.png', 'Im_RobertDowneyJr.png', 'Im_HughJackman.png'],same,1,0.4165371999999934,33,76.19047619047619,
FRKA0706,0,neg,30,neg30_id5_im20.bmp_neg30_id5_im1.bmp,['Im_KeanuReeves.png', 'Im_GeorgeClooney.png', 'Im_DanielRadcliffe.png', 'Im_BenStiller.png', 'Im_LeonardoDiCaprio.png', 'Im_ElijahWood.png', 'Im_BradPitt.png', 'Im_DanielCraig.png', 'Im_RobertDowneyJr.png', 'Im_HughJackman.png'],diff,0,1.1755329000000074,0,0,
FRKA0706,0,neg,fs,negfs_id18_im19.bmp_negfs_id18_im11.bmp,['Im_KeanuReeves.png', 'Im_GeorgeClooney.png', 'Im_DanielRadcliffe.png', 'Im_BenStiller.png', 'Im_LeonardoDiCaprio.png', 'Im_ElijahWood.png', 'Im_BradPitt.png', 'Im_DanielCraig.png', 'Im_RobertDowneyJr.png', 'Im_HughJackman.png'],same,1,0.4502916000001278,1,0,
FRKA0706,0,neg,30,neg30_id8_im21.bmp_neg30_id3_im6.bmp,['Im_KeanuReeves.png', 'Im_GeorgeClooney.png', 'Im_DanielRadcliffe.png', 'Im_BenStiller.png', 'Im_LeonardoDiCaprio.png', 'Im_ElijahWood.png', 'Im_BradPitt.png', 'Im_DanielCraig.png', 'Im_RobertDowneyJr.png', 'Im_HughJackman.png'],diff,1,0.40005859999996574,2,0,
FRKA0706,0,neg,90,neg90_id4_im7.bmp_neg90_id4_im15.bmp,['Im_KeanuReeves.png', 'Im_GeorgeClooney.png', 'Im_DanielRadcliffe.png', 'Im_BenStiller.png', 'Im_LeonardoDiCaprio.png', 'Im_ElijahWood.png', 'Im_BradPitt.png', 'Im_DanielCraig.png', 'Im_RobertDowneyJr.png', 'Im_HughJackman.png'],same,1,0.4167107999999189,3,0,
FRKA0706,0,neg,60,neg60_id8_im21.bmp_neg60_id8_im20.bmp,['Im_KeanuReeves.png', 'Im_GeorgeClooney.png', 'Im_DanielRadcliffe.png', 'Im_BenStiller.png', 'Im_LeonardoDiCaprio.png', 'Im_ElijahWood.png', 'Im_BradPitt.png', 'Im_DanielCraig.png', 'Im_RobertDowneyJr.png', 'Im_HughJackman.png'],diff,0,0.775025899999946,3,0,
FRKA0706,0,neg,0,neg0_id4_im7.bmp_neg0_id4_im20.bmp,['Im_KeanuReeves.png', 'Im_GeorgeClooney.png', 'Im_DanielRadcliffe.png', 'Im_BenStiller.png', 'Im_LeonardoDiCaprio.png', 'Im_ElijahWood.png', 'Im_BradPitt.png', 'Im_DanielCraig.png', 'Im_RobertDowneyJr.png', 'Im_HughJackman.png'],same,1,0.40852499999982683,4,0,
FRKA0706,0,neg,60,neg60_id8_im13.bmp_neg60_id8_im20.bmp,['Im_KeanuReeves.png', 'Im_GeorgeClooney.png', 'Im_DanielRadcliffe.png', 'Im_BenStiller.png', 'Im_LeonardoDiCaprio.png', 'Im_ElijahWood.png', 'Im_BradPitt.png', 'Im_DanielCraig.png', 'Im_RobertDowneyJr.png', 'Im_HughJackman.png'],same,1,0.8252735999999459,5,0,
FRKA0706,0,neg,150,neg150_id18_im18.bmp_neg150_id18_im11.bmp,['Im_KeanuReeves.png', 'Im_GeorgeClooney.png', 'Im_DanielRadcliffe.png', 'Im_BenStiller.png', 'Im_LeonardoDiCaprio.png', 'Im_ElijahWood.png', 'Im_BradPitt.png', 'Im_DanielCraig.png', 'Im_RobertDowneyJr.png', 'Im_HughJackman.png'],same,1,0.5583162000000357,6,0,
FRKA0706,0,neg,fs,negfs_id5_im20.bmp_negfs_id2_im16.bmp,['Im_KeanuReeves.png', 'Im_GeorgeClooney.png', 'Im_DanielRadcliffe.png', 'Im_BenStiller.png', 'Im_LeonardoDiCaprio.png', 'Im_ElijahWood.png', 'Im_BradPitt.png', 'Im_DanielCraig.png', 'Im_RobertDowneyJr.png', 'Im_HughJackman.png'],diff,1,0.4082579999999325,7,0,
FRKA0706,0,neg,0,neg0_id4_im7.bmp_neg0_id6_im18.bmp,['Im_KeanuReeves.png', 'Im_GeorgeClooney.png', 'Im_DanielRadcliffe.png', 'Im_BenStiller.png', 'Im_LeonardoDiCaprio.png', 'Im_ElijahWood.png', 'Im_BradPitt.png', 'Im_DanielCraig.png', 'Im_RobertDowneyJr.png', 'Im_HughJackman.png'],same,0,0.8915982999999414,7,0,
FRKA0706,0,neg,90,neg90_id11_im10.bmp_neg90_id5_im10.bmp,['Im_KeanuReeves.png', 'Im_GeorgeClooney.png', 'Im_DanielRadcliffe.png', 'Im_BenStiller.png', 'Im_LeonardoDiCaprio.png', 'Im_ElijahWood.png', 'Im_BradPitt.png', 'Im_DanielCraig.png', 'Im_RobertDowneyJr.png', 'Im_HughJackman.png'],diff,1,0.7582404000002043,8,0,
FRKA0706,0,neg,150,neg150_id13_im29.bmp_neg150_id11_im2.bmp,['Im_KeanuReeves.png', 'Im_GeorgeClooney.png', 'Im_DanielRadcliffe.png', 'Im_BenStiller.png', 'Im_LeonardoDiCaprio.png', 'Im_ElijahWood.png', 'Im_BradPitt.png', 'Im_DanielCraig.png', 'Im_RobertDowneyJr.png', 'Im_HughJackman.png'],same,0,1.1084152999999333,8,0,
FRKA0706,0,neg,120,neg120_id8_im21.bmp_neg120_id8_im20.bmp,['Im_KeanuReeves.png', 'Im_GeorgeClooney.png', 'Im_DanielRadcliffe.png', 'Im_BenStiller.png', 'Im_LeonardoDiCaprio.png', 'Im_ElijahWood.png', 'Im_BradPitt.png', 'Im_DanielCraig.png', 'Im_RobertDowneyJr.png', 'Im_HughJackman.png'],same,1,0.40842320000001564,9,0,
FRKA0706,0,neg,120,neg120_id4_im15.bmp_neg120_id4_im20.bmp,['Im_KeanuReeves.png', 'Im_GeorgeClooney.png', 'Im_DanielRadcliffe.png', 'Im_BenStiller.png', 'Im_LeonardoDiCaprio.png', 'Im_ElijahWood.png', 'Im_BradPitt.png', 'Im_DanielCraig.png', 'Im_RobertDowneyJr.png', 'Im_HughJackman.png'],same,1,0.6252640000000156,10,0,
FRKA0706,1,pos,0,pos0_id4_im7.bmp_pos0_id6_im18.bmp,['Im_KeanuReeves.png', 'Im_GeorgeClooney.png', 'Im_DanielRadcliffe.png', 'Im_BenStiller.png', 'Im_LeonardoDiCaprio.png', 'Im_ElijahWood.png', 'Im_BradPitt.png', 'Im_DanielCraig.png', 'Im_RobertDowneyJr.png', 'Im_HughJackman.png'],diff,1,0.42495850000000246,11,0,
FRKA0706,1,pos,120,pos120_id4_im15.bmp_pos120_id18_im11.bmp,['Im_KeanuReeves.png', 'Im_GeorgeClooney.png', 'Im_DanielRadcliffe.png', 'Im_BenStiller.png', 'Im_LeonardoDiCaprio.png', 'Im_ElijahWood.png', 'Im_BradPitt.png', 'Im_DanielCraig.png', 'Im_RobertDowneyJr.png', 'Im_HughJackman.png'],diff,1,0.4919881999999234,12,0,
FRKA0706,1,pos,30,pos30_id4_im7.bmp_pos30_id11_im2.bmp,['Im_KeanuReeves.png', 'Im_GeorgeClooney.png', 'Im_DanielRadcliffe.png', 'Im_BenStiller.png', 'Im_LeonardoDiCaprio.png', 'Im_ElijahWood.png', 'Im_BradPitt.png', 'Im_DanielCraig.png', 'Im_RobertDowneyJr.png', 'Im_HughJackman.png'],diff,1,0.41672529999982544,13,0,
FRKA0706,1,pos,60,pos60_id3_im17.bmp_pos60_id6_im12.bmp,['Im_KeanuReeves.png', 'Im_GeorgeClooney.png', 'Im_DanielRadcliffe.png', 'Im_BenStiller.png', 'Im_LeonardoDiCaprio.png', 'Im_ElijahWood.png', 'Im_BradPitt.png', 'Im_DanielCraig.png', 'Im_RobertDowneyJr.png', 'Im_HughJackman.png'],diff,1,0.42518089999998665,14,0,
FRKA0706,1,pos,150,pos150_id3_im17.bmp_pos150_id3_im8.bmp,['Im_KeanuReeves.png', 'Im_GeorgeClooney.png', 'Im_DanielRadcliffe.png', 'Im_BenStiller.png', 'Im_LeonardoDiCaprio.png', 'Im_ElijahWood.png', 'Im_BradPitt.png', 'Im_DanielCraig.png', 'Im_RobertDowneyJr.png', 'Im_HughJackman.png'],diff,0,0.5497683000000961,14,0,
FRKA0706,1,pos,30,pos30_id5_im20.bmp_pos30_id5_im1.bmp,['Im_KeanuReeves.png', 'Im_GeorgeClooney.png', 'Im_DanielRadcliffe.png', 'Im_BenStiller.png', 'Im_LeonardoDiCaprio.png', 'Im_ElijahWood.png', 'Im_BradPitt.png', 'Im_DanielCraig.png', 'Im_RobertDowneyJr.png', 'Im_HughJackman.png'],same,1,1.0752264000000196,15,0,
FRKA0706,1,pos,90,pos90_id3_im8.bmp_pos90_id3_im17.bmp,['Im_KeanuReeves.png', 'Im_GeorgeClooney.png', 'Im_DanielRadcliffe.png', 'Im_BenStiller.png', 'Im_LeonardoDiCaprio.png', 'Im_ElijahWood.png', 'Im_BradPitt.png', 'Im_DanielCraig.png', 'Im_RobertDowneyJr.png', 'Im_HughJackman.png'],diff,0,1.2501471999999012,15,0,
FRKA0706,1,pos,fs,posfs_id3_im8.bmp_posfs_id13_im10.bmp,['Im_KeanuReeves.png', 'Im_GeorgeClooney.png', 'Im_DanielRadcliffe.png', 'Im_BenStiller.png', 'Im_LeonardoDiCaprio.png', 'Im_ElijahWood.png', 'Im_BradPitt.png', 'Im_DanielCraig.png', 'Im_RobertDowneyJr.png', 'Im_HughJackman.png'],diff,1,0.558539699999983,16,0,
FRKA0706,1,pos,120,pos120_id13_im15.bmp_pos120_id3_im17.bmp,['Im_KeanuReeves.png', 'Im_GeorgeClooney.png', 'Im_DanielRadcliffe.png', 'Im_BenStiller.png', 'Im_LeonardoDiCaprio.png', 'Im_ElijahWood.png', 'Im_BradPitt.png', 'Im_DanielCraig.png', 'Im_RobertDowneyJr.png', 'Im_HughJackman.png'],diff,1,0.7250565000001643,17,0,
FRKA0706,1,pos,150,pos150_id8_im21.bmp_pos150_id3_im6.bmp,['Im_KeanuReeves.png', 'Im_GeorgeClooney.png', 'Im_DanielRadcliffe.png', 'Im_BenStiller.png', 'Im_LeonardoDiCaprio.png', 'Im_ElijahWood.png', 'Im_BradPitt.png', 'Im_DanielCraig.png', 'Im_RobertDowneyJr.png', 'Im_HughJackman.png'],diff,1,0.5417422999998962,18,0,
FRKA0706,1,pos,60,pos60_id8_im20.bmp_pos60_id8_im21.bmp,['Im_KeanuReeves.png', 'Im_GeorgeClooney.png', 'Im_DanielRadcliffe.png', 'Im_BenStiller.png', 'Im_LeonardoDiCaprio.png', 'Im_ElijahWood.png', 'Im_BradPitt.png', 'Im_DanielCraig.png', 'Im_RobertDowneyJr.png', 'Im_HughJackman.png'],same,1,0.7833944999999858,19,0,
FRKA0706,1,pos,0,pos0_id7_im15.bmp_pos0_id7_im14.bmp,['Im_KeanuReeves.png', 'Im_GeorgeClooney.png', 'Im_DanielRadcliffe.png', 'Im_BenStiller.png', 'Im_LeonardoDiCaprio.png', 'Im_ElijahWood.png', 'Im_BradPitt.png', 'Im_DanielCraig.png', 'Im_RobertDowneyJr.png', 'Im_HughJackman.png'],same,1,0.8000543999996808,20,0,
FRKA0706,1,pos,90,pos90_id8_im20.bmp_pos90_id8_im13.bmp,['Im_KeanuReeves.png', 'Im_GeorgeClooney.png', 'Im_DanielRadcliffe.png', 'Im_BenStiller.png', 'Im_LeonardoDiCaprio.png', 'Im_ElijahWood.png', 'Im_BradPitt.png', 'Im_DanielCraig.png', 'Im_RobertDowneyJr.png', 'Im_HughJackman.png'],diff,0,0.6667655999999624,20,0,
FRKA0706,1,pos,fs,posfs_id6_im18.bmp_posfs_id6_im12.bmp,['Im_KeanuReeves.png', 'Im_GeorgeClooney.png', 'Im_DanielRadcliffe.png', 'Im_BenStiller.png', 'Im_LeonardoDiCaprio.png', 'Im_ElijahWood.png', 'Im_BradPitt.png', 'Im_DanielCraig.png', 'Im_RobertDowneyJr.png', 'Im_HughJackman.png'],same,1,0.4167296999999053,21,0,
FRKA0706,2,inv,90,pos90_id2_im3.bmp_pos90_id6_im19.bmp,['Im_KeanuReeves.png', 'Im_GeorgeClooney.png', 'Im_DanielRadcliffe.png', 'Im_BenStiller.png', 'Im_LeonardoDiCaprio.png', 'Im_ElijahWood.png', 'Im_BradPitt.png', 'Im_DanielCraig.png', 'Im_RobertDowneyJr.png', 'Im_HughJackman.png'],diff,1,0.5083899000001111,22,0,
FRKA0706,2,inv,0,pos0_id13_im15.bmp_pos0_id2_im16.bmp,['Im_KeanuReeves.png', 'Im_GeorgeClooney.png', 'Im_DanielRadcliffe.png', 'Im_BenStiller.png', 'Im_LeonardoDiCaprio.png', 'Im_ElijahWood.png', 'Im_BradPitt.png', 'Im_DanielCraig.png', 'Im_RobertDowneyJr.png', 'Im_HughJackman.png'],diff,1,0.44191460000001825,23,0,
FRKA0706,2,inv,150,pos150_id3_im8.bmp_pos150_id3_im17.bmp,['Im_KeanuReeves.png', 'Im_GeorgeClooney.png', 'Im_DanielRadcliffe.png', 'Im_BenStiller.png', 'Im_LeonardoDiCaprio.png', 'Im_ElijahWood.png', 'Im_BradPitt.png', 'Im_DanielCraig.png', 'Im_RobertDowneyJr.png', 'Im_HughJackman.png'],same,1,0.4167453000000023,24,0,
FRKA0706,2,inv,150,pos150_id13_im10.bmp_pos150_id13_im29.bmp,['Im_KeanuReeves.png', 'Im_GeorgeClooney.png', 'Im_DanielRadcliffe.png', 'Im_BenStiller.png', 'Im_LeonardoDiCaprio.png', 'Im_ElijahWood.png', 'Im_BradPitt.png', 'Im_DanielCraig.png', 'Im_RobertDowneyJr.png', 'Im_HughJackman.png'],same,1,0.42488520000006247,25,0,
FRKA0706,2,inv,90,pos90_id18_im18.bmp_pos90_id7_im15.bmp,['Im_KeanuReeves.png', 'Im_GeorgeClooney.png', 'Im_DanielRadcliffe.png', 'Im_BenStiller.png', 'Im_LeonardoDiCaprio.png', 'Im_ElijahWood.png', 'Im_BradPitt.png', 'Im_DanielCraig.png', 'Im_RobertDowneyJr.png', 'Im_HughJackman.png'],diff,1,1.2168736000003264,26,0,
FRKA0706,2,inv,120,pos120_id4_im7.bmp_pos120_id4_im15.bmp,['Im_KeanuReeves.png', 'Im_GeorgeClooney.png', 'Im_DanielRadcliffe.png', 'Im_BenStiller.png', 'Im_LeonardoDiCaprio.png', 'Im_ElijahWood.png', 'Im_BradPitt.png', 'Im_DanielCraig.png', 'Im_RobertDowneyJr.png', 'Im_HughJackman.png'],diff,0,0.42505919999985053,26,0,
FRKA0706,2,inv,30,pos30_id4_im20.bmp_pos30_id4_im7.bmp,['Im_KeanuReeves.png', 'Im_GeorgeClooney.png', 'Im_DanielRadcliffe.png', 'Im_BenStiller.png', 'Im_LeonardoDiCaprio.png', 'Im_ElijahWood.png', 'Im_BradPitt.png', 'Im_DanielCraig.png', 'Im_RobertDowneyJr.png', 'Im_HughJackman.png'],diff,0,0.5752674000000297,26,0,
FRKA0706,2,inv,60,pos60_id3_im17.bmp_pos60_id13_im15.bmp,['Im_KeanuReeves.png', 'Im_GeorgeClooney.png', 'Im_DanielRadcliffe.png', 'Im_BenStiller.png', 'Im_LeonardoDiCaprio.png', 'Im_ElijahWood.png', 'Im_BradPitt.png', 'Im_DanielCraig.png', 'Im_RobertDowneyJr.png', 'Im_HughJackman.png'],diff,1,1.3338038000001688,27,0,
FRKA0706,2,inv,fs,posfs_id7_im14.bmp_posfs_id7_im26.bmp,['Im_KeanuReeves.png', 'Im_GeorgeClooney.png', 'Im_DanielRadcliffe.png', 'Im_BenStiller.png', 'Im_LeonardoDiCaprio.png', 'Im_ElijahWood.png', 'Im_BradPitt.png', 'Im_DanielCraig.png', 'Im_RobertDowneyJr.png', 'Im_HughJackman.png'],same,1,0.4252446999998938,28,0,
FRKA0706,2,inv,60,pos60_id11_im10.bmp_pos60_id5_im10.bmp,['Im_KeanuReeves.png', 'Im_GeorgeClooney.png', 'Im_DanielRadcliffe.png', 'Im_BenStiller.png', 'Im_LeonardoDiCaprio.png', 'Im_ElijahWood.png', 'Im_BradPitt.png', 'Im_DanielCraig.png', 'Im_RobertDowneyJr.png', 'Im_HughJackman.png'],diff,1,0.42496859999982917,29,0,
FRKA0706,2,inv,0,pos0_id5_im1.bmp_pos0_id5_im10.bmp,['Im_KeanuReeves.png', 'Im_GeorgeClooney.png', 'Im_DanielRadcliffe.png', 'Im_BenStiller.png', 'Im_LeonardoDiCaprio.png', 'Im_ElijahWood.png', 'Im_BradPitt.png', 'Im_DanielCraig.png', 'Im_RobertDowneyJr.png', 'Im_HughJackman.png'],diff,0,0.46710170000005746,29,0,
FRKA0706,2,inv,120,pos120_id18_im18.bmp_pos120_id7_im15.bmp,['Im_KeanuReeves.png', 'Im_GeorgeClooney.png', 'Im_DanielRadcliffe.png', 'Im_BenStiller.png', 'Im_LeonardoDiCaprio.png', 'Im_ElijahWood.png', 'Im_BradPitt.png', 'Im_DanielCraig.png', 'Im_RobertDowneyJr.png', 'Im_HughJackman.png'],diff,1,0.6002884999998059,30,0,
FRKA0706,2,inv,fs,posfs_id3_im8.bmp_posfs_id3_im6.bmp,['Im_KeanuReeves.png', 'Im_GeorgeClooney.png', 'Im_DanielRadcliffe.png', 'Im_BenStiller.png', 'Im_LeonardoDiCaprio.png', 'Im_ElijahWood.png', 'Im_BradPitt.png', 'Im_DanielCraig.png', 'Im_RobertDowneyJr.png', 'Im_HughJackman.png'],same,1,0.4670022999998764,31,0,
FRKA0706,2,inv,30,pos30_id7_im14.bmp_pos30_id7_im15.bmp,['Im_KeanuReeves.png', 'Im_GeorgeClooney.png', 'Im_DanielRadcliffe.png', 'Im_BenStiller.png', 'Im_LeonardoDiCaprio.png', 'Im_ElijahWood.png', 'Im_BradPitt.png', 'Im_DanielCraig.png', 'Im_RobertDowneyJr.png', 'Im_HughJackman.png'],diff,0,0.42518840000002456,31,0,
FRKA0706,3,neg,0,neg0_id18_im11.bmp_neg0_id7_im26.bmp,['Im_KeanuReeves.png', 'Im_GeorgeClooney.png', 'Im_DanielRadcliffe.png', 'Im_BenStiller.png', 'Im_LeonardoDiCaprio.png', 'Im_ElijahWood.png', 'Im_BradPitt.png', 'Im_DanielCraig.png', 'Im_RobertDowneyJr.png', 'Im_HughJackman.png'],diff,1,0.4252086000001327,1,73.80952380952381,
FRKA0706,3,neg,150,neg150_id2_im2.bmp_neg150_id11_im10.bmp,['Im_KeanuReeves.png', 'Im_GeorgeClooney.png', 'Im_DanielRadcliffe.png', 'Im_BenStiller.png', 'Im_LeonardoDiCaprio.png', 'Im_ElijahWood.png', 'Im_BradPitt.png', 'Im_DanielCraig.png', 'Im_RobertDowneyJr.png', 'Im_HughJackman.png'],same,0,0.425037599999996,1,73.80952380952381,
FRKA0706,3,neg,90,neg90_id13_im10.bmp_neg90_id13_im15.bmp,['Im_KeanuReeves.png', 'Im_GeorgeClooney.png', 'Im_DanielRadcliffe.png', 'Im_BenStiller.png', 'Im_LeonardoDiCaprio.png', 'Im_ElijahWood.png', 'Im_BradPitt.png', 'Im_DanielCraig.png', 'Im_RobertDowneyJr.png', 'Im_HughJackman.png'],diff,0,0.8667051000002175,1,73.80952380952381,
FRKA0706,3,neg,120,neg120_id13_im15.bmp_neg120_id3_im17.bmp,['Im_KeanuReeves.png', 'Im_GeorgeClooney.png', 'Im_DanielRadcliffe.png', 'Im_BenStiller.png', 'Im_LeonardoDiCaprio.png', 'Im_ElijahWood.png', 'Im_BradPitt.png', 'Im_DanielCraig.png', 'Im_RobertDowneyJr.png', 'Im_HughJackman.png'],diff,1,0.45847269999967466,2,73.80952380952381,
FRKA0706,3,neg,120,neg120_id3_im17.bmp_neg120_id6_im12.bmp,['Im_KeanuReeves.png', 'Im_GeorgeClooney.png', 'Im_DanielRadcliffe.png', 'Im_BenStiller.png', 'Im_LeonardoDiCaprio.png', 'Im_ElijahWood.png', 'Im_BradPitt.png', 'Im_DanielCraig.png', 'Im_RobertDowneyJr.png', 'Im_HughJackman.png'],diff,1,0.49170779999985825,3,73.80952380952381,
FRKA0706,3,neg,60,neg60_id5_im10.bmp_neg60_id5_im20.bmp,['Im_KeanuReeves.png', 'Im_GeorgeClooney.png', 'Im_DanielRadcliffe.png', 'Im_BenStiller.png', 'Im_LeonardoDiCaprio.png', 'Im_ElijahWood.png', 'Im_BradPitt.png', 'Im_DanielCraig.png', 'Im_RobertDowneyJr.png', 'Im_HughJackman.png'],same,1,0.6669123000001491,4,73.80952380952381,
FRKA0706,3,neg,fs,negfs_id4_im7.bmp_negfs_id4_im15.bmp,['Im_KeanuReeves.png', 'Im_GeorgeClooney.png', 'Im_DanielRadcliffe.png', 'Im_BenStiller.png', 'Im_LeonardoDiCaprio.png', 'Im_ElijahWood.png', 'Im_BradPitt.png', 'Im_DanielCraig.png', 'Im_RobertDowneyJr.png', 'Im_HughJackman.png'],same,1,0.450202999999874,5,73.80952380952381,
FRKA0706,3,neg,30,neg30_id8_im20.bmp_neg30_id4_im15.bmp,['Im_KeanuReeves.png', 'Im_GeorgeClooney.png', 'Im_DanielRadcliffe.png', 'Im_BenStiller.png', 'Im_LeonardoDiCaprio.png', 'Im_ElijahWood.png', 'Im_BradPitt.png', 'Im_DanielCraig.png', 'Im_RobertDowneyJr.png', 'Im_HughJackman.png'],diff,1,0.8504093999999895,6,73.80952380952381,
FRKA0706,3,neg,90,neg90_id6_im12.bmp_neg90_id7_im14.bmp,['Im_KeanuReeves.png', 'Im_GeorgeClooney.png', 'Im_DanielRadcliffe.png', 'Im_BenStiller.png', 'Im_LeonardoDiCaprio.png', 'Im_ElijahWood.png', 'Im_BradPitt.png', 'Im_DanielCraig.png', 'Im_RobertDowneyJr.png', 'Im_HughJackman.png'],diff,1,0.47552479999967545,7,73.80952380952381,
FRKA0706,3,neg,0,neg0_id8_im21.bmp_neg0_id5_im20.bmp,['Im_KeanuReeves.png', 'Im_GeorgeClooney.png', 'Im_DanielRadcliffe.png', 'Im_BenStiller.png', 'Im_LeonardoDiCaprio.png', 'Im_ElijahWood.png', 'Im_BradPitt.png', 'Im_DanielCraig.png', 'Im_RobertDowneyJr.png', 'Im_HughJackman.png'],same,0,0.6670884999998634,7,73.80952380952381,
FRKA0706,3,neg,60,neg60_id3_im17.bmp_neg60_id13_im15.bmp,['Im_KeanuReeves.png', 'Im_GeorgeClooney.png', 'Im_DanielRadcliffe.png', 'Im_BenStiller.png', 'Im_LeonardoDiCaprio.png', 'Im_ElijahWood.png', 'Im_BradPitt.png', 'Im_DanielCraig.png', 'Im_RobertDowneyJr.png', 'Im_HughJackman.png'],diff,1,0.4833730000000287,8,73.80952380952381,
FRKA0706,3,neg,fs,negfs_id5_im1.bmp_negfs_id5_im10.bmp,['Im_KeanuReeves.png', 'Im_GeorgeClooney.png', 'Im_DanielRadcliffe.png', 'Im_BenStiller.png', 'Im_LeonardoDiCaprio.png', 'Im_ElijahWood.png', 'Im_BradPitt.png', 'Im_DanielCraig.png', 'Im_RobertDowneyJr.png', 'Im_HughJackman.png'],same,1,0.933598499999789,9,73.80952380952381,
FRKA0706,3,neg,150,neg150_id11_im10.bmp_neg150_id11_im2.bmp,['Im_KeanuReeves.png', 'Im_GeorgeClooney.png', 'Im_DanielRadcliffe.png', 'Im_BenStiller.png', 'Im_LeonardoDiCaprio.png', 'Im_ElijahWood.png', 'Im_BradPitt.png', 'Im_DanielCraig.png', 'Im_RobertDowneyJr.png', 'Im_HughJackman.png'],same,1,0.5002954000001409,10,73.80952380952381,
FRKA0706,3,neg,30,neg30_id2_im16.bmp_neg30_id5_im20.bmp,['Im_KeanuReeves.png', 'Im_GeorgeClooney.png', 'Im_DanielRadcliffe.png', 'Im_BenStiller.png', 'Im_LeonardoDiCaprio.png', 'Im_ElijahWood.png', 'Im_BradPitt.png', 'Im_DanielCraig.png', 'Im_RobertDowneyJr.png', 'Im_HughJackman.png'],diff,1,0.41687839999985954,11,73.80952380952381,
FRKA0706,4,pos,60,pos60_id6_im12.bmp_pos60_id6_im18.bmp,['Im_KeanuReeves.png', 'Im_GeorgeClooney.png', 'Im_DanielRadcliffe.png', 'Im_BenStiller.png', 'Im_LeonardoDiCaprio.png', 'Im_ElijahWood.png', 'Im_BradPitt.png', 'Im_DanielCraig.png', 'Im_RobertDowneyJr.png', 'Im_HughJackman.png'],diff,0,0.4167709999996987,11,73.80952380952381,
FRKA0706,4,pos,150,pos150_id13_im15.bmp_pos150_id13_im10.bmp,['Im_KeanuReeves.png', 'Im_GeorgeClooney.png', 'Im_DanielRadcliffe.png', 'Im_BenStiller.png', 'Im_LeonardoDiCaprio.png', 'Im_ElijahWood.png', 'Im_BradPitt.png', 'Im_DanielCraig.png', 'Im_RobertDowneyJr.png', 'Im_HughJackman.png'],same,1,0.44184339999992517,12,73.80952380952381,
FRKA0706,4,pos,60,pos60_id3_im6.bmp_pos60_id8_im20.bmp,['Im_KeanuReeves.png', 'Im_GeorgeClooney.png', 'Im_DanielRadcliffe.png', 'Im_BenStiller.png', 'Im_LeonardoDiCaprio.png', 'Im_ElijahWood.png', 'Im_BradPitt.png', 'Im_DanielCraig.png', 'Im_RobertDowneyJr.png', 'Im_HughJackman.png'],diff,1,0.4249331999999413,13,73.80952380952381,
FRKA0706,4,pos,fs,posfs_id11_im10.bmp_posfs_id5_im10.bmp,['Im_KeanuReeves.png', 'Im_GeorgeClooney.png', 'Im_DanielRadcliffe.png', 'Im_BenStiller.png', 'Im_LeonardoDiCaprio.png', 'Im_ElijahWood.png', 'Im_BradPitt.png', 'Im_DanielCraig.png', 'Im_RobertDowneyJr.png', 'Im_HughJackman.png'],diff,1,0.42488749999984066,14,73.80952380952381,
FRKA0706,4,pos,90,pos90_id5_im1.bmp_pos90_id5_im20.bmp,['Im_KeanuReeves.png', 'Im_GeorgeClooney.png', 'Im_DanielRadcliffe.png', 'Im_BenStiller.png', 'Im_LeonardoDiCaprio.png', 'Im_ElijahWood.png', 'Im_BradPitt.png', 'Im_DanielCraig.png', 'Im_RobertDowneyJr.png', 'Im_HughJackman.png'],same,1,0.4167609999999513,15,73.80952380952381,
FRKA0706,4,pos,30,pos30_id13_im15.bmp_pos30_id13_im10.bmp,['Im_KeanuReeves.png', 'Im_GeorgeClooney.png', 'Im_DanielRadcliffe.png', 'Im_BenStiller.png', 'Im_LeonardoDiCaprio.png', 'Im_ElijahWood.png', 'Im_BradPitt.png', 'Im_DanielCraig.png', 'Im_RobertDowneyJr.png', 'Im_HughJackman.png'],same,1,0.4753233999999793,16,73.80952380952381,
FRKA0706,4,pos,fs,posfs_id3_im8.bmp_posfs_id3_im17.bmp,['Im_KeanuReeves.png', 'Im_GeorgeClooney.png', 'Im_DanielRadcliffe.png', 'Im_BenStiller.png', 'Im_LeonardoDiCaprio.png', 'Im_ElijahWood.png', 'Im_BradPitt.png', 'Im_DanielCraig.png', 'Im_RobertDowneyJr.png', 'Im_HughJackman.png'],same,1,0.6415243000001283,17,73.80952380952381,
FRKA0706,4,pos,150,pos150_id13_im29.bmp_pos150_id5_im1.bmp,['Im_KeanuReeves.png', 'Im_GeorgeClooney.png', 'Im_DanielRadcliffe.png', 'Im_BenStiller.png', 'Im_LeonardoDiCaprio.png', 'Im_ElijahWood.png', 'Im_BradPitt.png', 'Im_DanielCraig.png', 'Im_RobertDowneyJr.png', 'Im_HughJackman.png'],same,0,0.7001399000000674,17,73.80952380952381,
FRKA0706,4,pos,120,pos120_id13_im10.bmp_pos120_id18_im18.bmp,['Im_KeanuReeves.png', 'Im_GeorgeClooney.png', 'Im_DanielRadcliffe.png', 'Im_BenStiller.png', 'Im_LeonardoDiCaprio.png', 'Im_ElijahWood.png', 'Im_BradPitt.png', 'Im_DanielCraig.png', 'Im_RobertDowneyJr.png', 'Im_HughJackman.png'],diff,1,0.40835210000022926,18,73.80952380952381,
FRKA0706,4,pos,120,pos120_id7_im14.bmp_pos120_id7_im15.bmp,['Im_KeanuReeves.png', 'Im_GeorgeClooney.png', 'Im_DanielRadcliffe.png', 'Im_BenStiller.png', 'Im_LeonardoDiCaprio.png', 'Im_ElijahWood.png', 'Im_BradPitt.png', 'Im_DanielCraig.png', 'Im_RobertDowneyJr.png', 'Im_HughJackman.png'],same,1,0.41680859999996756,19,73.80952380952381,
FRKA0706,4,pos,90,pos90_id5_im20.bmp_pos90_id5_im10.bmp,['Im_KeanuReeves.png', 'Im_GeorgeClooney.png', 'Im_DanielRadcliffe.png', 'Im_BenStiller.png', 'Im_LeonardoDiCaprio.png', 'Im_ElijahWood.png', 'Im_BradPitt.png', 'Im_DanielCraig.png', 'Im_RobertDowneyJr.png', 'Im_HughJackman.png'],same,1,0.4251187999998365,20,73.80952380952381,
FRKA0706,4,pos,30,pos30_id8_im21.bmp_pos30_id5_im20.bmp,['Im_KeanuReeves.png', 'Im_GeorgeClooney.png', 'Im_DanielRadcliffe.png', 'Im_BenStiller.png', 'Im_LeonardoDiCaprio.png', 'Im_ElijahWood.png', 'Im_BradPitt.png', 'Im_DanielCraig.png', 'Im_RobertDowneyJr.png', 'Im_HughJackman.png'],same,0,0.42531179999969027,20,73.80952380952381,
FRKA0706,4,pos,0,pos0_id4_im15.bmp_pos0_id4_im7.bmp,['Im_KeanuReeves.png', 'Im_GeorgeClooney.png', 'Im_DanielRadcliffe.png', 'Im_BenStiller.png', 'Im_LeonardoDiCaprio.png', 'Im_ElijahWood.png', 'Im_BradPitt.png', 'Im_DanielCraig.png', 'Im_RobertDowneyJr.png', 'Im_HughJackman.png'],same,1,0.46665649999977177,21,73.80952380952381,
FRKA0706,4,pos,0,pos0_id5_im10.bmp_pos0_id5_im1.bmp,['Im_KeanuReeves.png', 'Im_GeorgeClooney.png', 'Im_DanielRadcliffe.png', 'Im_BenStiller.png', 'Im_LeonardoDiCaprio.png', 'Im_ElijahWood.png', 'Im_BradPitt.png', 'Im_DanielCraig.png', 'Im_RobertDowneyJr.png', 'Im_HughJackman.png'],diff,0,1.3083623000002262,21,73.80952380952381,
FRKA0706,5,inv,90,pos90_id8_im13.bmp_pos90_id8_im21.bmp,['Im_KeanuReeves.png', 'Im_GeorgeClooney.png', 'Im_DanielRadcliffe.png', 'Im_BenStiller.png', 'Im_LeonardoDiCaprio.png', 'Im_ElijahWood.png', 'Im_BradPitt.png', 'Im_DanielCraig.png', 'Im_RobertDowneyJr.png', 'Im_HughJackman.png'],same,1,1.141537700000299,22,73.80952380952381,
FRKA0706,5,inv,60,pos60_id13_im10.bmp_pos60_id13_im29.bmp,['Im_KeanuReeves.png', 'Im_GeorgeClooney.png', 'Im_DanielRadcliffe.png', 'Im_BenStiller.png', 'Im_LeonardoDiCaprio.png', 'Im_ElijahWood.png', 'Im_BradPitt.png', 'Im_DanielCraig.png', 'Im_RobertDowneyJr.png', 'Im_HughJackman.png'],diff,0,0.41681900000003225,22,73.80952380952381,
FRKA0706,5,inv,60,pos60_id4_im20.bmp_pos60_id4_im7.bmp,['Im_KeanuReeves.png', 'Im_GeorgeClooney.png', 'Im_DanielRadcliffe.png', 'Im_BenStiller.png', 'Im_LeonardoDiCaprio.png', 'Im_ElijahWood.png', 'Im_BradPitt.png', 'Im_DanielCraig.png', 'Im_RobertDowneyJr.png', 'Im_HughJackman.png'],diff,0,0.6000589000000218,22,73.80952380952381,
FRKA0706,5,inv,120,pos120_id13_im15.bmp_pos120_id3_im17.bmp,['Im_KeanuReeves.png', 'Im_GeorgeClooney.png', 'Im_DanielRadcliffe.png', 'Im_BenStiller.png', 'Im_LeonardoDiCaprio.png', 'Im_ElijahWood.png', 'Im_BradPitt.png', 'Im_DanielCraig.png', 'Im_RobertDowneyJr.png', 'Im_HughJackman.png'],diff,1,1.2500881000000845,23,73.80952380952381,
FRKA0706,5,inv,fs,posfs_id18_im19.bmp_posfs_id18_im11.bmp,['Im_KeanuReeves.png', 'Im_GeorgeClooney.png', 'Im_DanielRadcliffe.png', 'Im_BenStiller.png', 'Im_LeonardoDiCaprio.png', 'Im_ElijahWood.png', 'Im_BradPitt.png', 'Im_DanielCraig.png', 'Im_RobertDowneyJr.png', 'Im_HughJackman.png'],same,1,0.41661059999978534,24,73.80952380952381,
FRKA0706,5,inv,90,pos90_id13_im10.bmp_pos90_id13_im15.bmp,['Im_KeanuReeves.png', 'Im_GeorgeClooney.png', 'Im_DanielRadcliffe.png', 'Im_BenStiller.png', 'Im_LeonardoDiCaprio.png', 'Im_ElijahWood.png', 'Im_BradPitt.png', 'Im_DanielCraig.png', 'Im_RobertDowneyJr.png', 'Im_HughJackman.png'],same,1,0.866775399999824,25,73.80952380952381,
FRKA0706,5,inv,150,pos150_id4_im15.bmp_pos150_id4_im7.bmp,['Im_KeanuReeves.png', 'Im_GeorgeClooney.png', 'Im_DanielRadcliffe.png', 'Im_BenStiller.png', 'Im_LeonardoDiCaprio.png', 'Im_ElijahWood.png', 'Im_BradPitt.png', 'Im_DanielCraig.png', 'Im_RobertDowneyJr.png', 'Im_HughJackman.png'],same,1,0.8418274999999085,26,73.80952380952381,
FRKA0706,5,inv,30,pos30_id13_im10.bmp_pos30_id18_im18.bmp,['Im_KeanuReeves.png', 'Im_GeorgeClooney.png', 'Im_DanielRadcliffe.png', 'Im_BenStiller.png', 'Im_LeonardoDiCaprio.png', 'Im_ElijahWood.png', 'Im_BradPitt.png', 'Im_DanielCraig.png', 'Im_RobertDowneyJr.png', 'Im_HughJackman.png'],diff,1,0.525331400000141,27,73.80952380952381,
FRKA0706,5,inv,fs,posfs_id7_im14.bmp_posfs_id6_im12.bmp,['Im_KeanuReeves.png', 'Im_GeorgeClooney.png', 'Im_DanielRadcliffe.png', 'Im_BenStiller.png', 'Im_LeonardoDiCaprio.png', 'Im_ElijahWood.png', 'Im_BradPitt.png', 'Im_DanielCraig.png', 'Im_RobertDowneyJr.png', 'Im_HughJackman.png'],diff,1,0.41654719999996814,28,73.80952380952381,
FRKA0706,5,inv,0,pos0_id4_im20.bmp_pos0_id4_im15.bmp,['Im_KeanuReeves.png', 'Im_GeorgeClooney.png', 'Im_DanielRadcliffe.png', 'Im_BenStiller.png', 'Im_LeonardoDiCaprio.png', 'Im_ElijahWood.png', 'Im_BradPitt.png', 'Im_DanielCraig.png', 'Im_RobertDowneyJr.png', 'Im_HughJackman.png'],same,1,0.416707100000167,29,73.80952380952381,
FRKA0706,5,inv,120,pos120_id18_im19.bmp_pos120_id18_im18.bmp,['Im_KeanuReeves.png', 'Im_GeorgeClooney.png', 'Im_DanielRadcliffe.png', 'Im_BenStiller.png', 'Im_LeonardoDiCaprio.png', 'Im_ElijahWood.png', 'Im_BradPitt.png', 'Im_DanielCraig.png', 'Im_RobertDowneyJr.png', 'Im_HughJackman.png'],same,1,0.9250435999997535,30,73.80952380952381,
FRKA0706,5,inv,0,pos0_id4_im7.bmp_pos0_id11_im2.bmp,['Im_KeanuReeves.png', 'Im_GeorgeClooney.png', 'Im_DanielRadcliffe.png', 'Im_BenStiller.png', 'Im_LeonardoDiCaprio.png', 'Im_ElijahWood.png', 'Im_BradPitt.png', 'Im_DanielCraig.png', 'Im_RobertDowneyJr.png', 'Im_HughJackman.png'],diff,1,0.4250140000003739,31,73.80952380952381,
FRKA0706,5,inv,30,pos30_id3_im8.bmp_pos30_id18_im19.bmp,['Im_KeanuReeves.png', 'Im_GeorgeClooney.png', 'Im_DanielRadcliffe.png', 'Im_BenStiller.png', 'Im_LeonardoDiCaprio.png', 'Im_ElijahWood.png', 'Im_BradPitt.png', 'Im_DanielCraig.png', 'Im_RobertDowneyJr.png', 'Im_HughJackman.png'],same,0,0.5002866999998332,31,73.80952380952381,
FRKA0706,5,inv,150,pos150_id18_im11.bmp_pos150_id7_im26.bmp,['Im_KeanuReeves.png', 'Im_GeorgeClooney.png', 'Im_DanielRadcliffe.png', 'Im_BenStiller.png', 'Im_LeonardoDiCaprio.png', 'Im_ElijahWood.png', 'Im_BradPitt.png', 'Im_DanielCraig.png', 'Im_RobertDowneyJr.png', 'Im_HughJackman.png'],diff,1,0.5001343000003544,32,73.80952380952381,
FRKA0706,6,neg,150,neg150_id5_im10.bmp_neg150_id2_im3.bmp,['Im_KeanuReeves.png', 'Im_GeorgeClooney.png', 'Im_DanielRadcliffe.png', 'Im_BenStiller.png', 'Im_LeonardoDiCaprio.png', 'Im_ElijahWood.png', 'Im_BradPitt.png', 'Im_DanielCraig.png', 'Im_RobertDowneyJr.png', 'Im_HughJackman.png'],diff,1,0.41670590000012453,1,76.19047619047619,
FRKA0706,6,neg,120,neg120_id3_im8.bmp_neg120_id3_im17.bmp,['Im_KeanuReeves.png', 'Im_GeorgeClooney.png', 'Im_DanielRadcliffe.png', 'Im_BenStiller.png', 'Im_LeonardoDiCaprio.png', 'Im_ElijahWood.png', 'Im_BradPitt.png', 'Im_DanielCraig.png', 'Im_RobertDowneyJr.png', 'Im_HughJackman.png'],same,1,0.4252243000000817,2,76.19047619047619,
FRKA0706,6,neg,fs,negfs_id7_im14.bmp_negfs_id6_im12.bmp,['Im_KeanuReeves.png', 'Im_GeorgeClooney.png', 'Im_DanielRadcliffe.png', 'Im_BenStiller.png', 'Im_LeonardoDiCaprio.png', 'Im_ElijahWood.png', 'Im_BradPitt.png', 'Im_DanielCraig.png', 'Im_RobertDowneyJr.png', 'Im_HughJackman.png'],diff,1,0.42512440000018614,3,76.19047619047619,
FRKA0706,6,neg,120,neg120_id11_im1.bmp_neg120_id11_im10.bmp,['Im_KeanuReeves.png', 'Im_GeorgeClooney.png', 'Im_DanielRadcliffe.png', 'Im_BenStiller.png', 'Im_LeonardoDiCaprio.png', 'Im_ElijahWood.png', 'Im_BradPitt.png', 'Im_DanielCraig.png', 'Im_RobertDowneyJr.png', 'Im_HughJackman.png'],diff,0,0.4753251999995882,3,76.19047619047619,
FRKA0706,6,neg,60,neg60_id4_im7.bmp_neg60_id11_im2.bmp,['Im_KeanuReeves.png', 'Im_GeorgeClooney.png', 'Im_DanielRadcliffe.png', 'Im_BenStiller.png', 'Im_LeonardoDiCaprio.png', 'Im_ElijahWood.png', 'Im_BradPitt.png', 'Im_DanielCraig.png', 'Im_RobertDowneyJr.png', 'Im_HughJackman.png'],diff,1,0.424955499999669,4,76.19047619047619,
FRKA0706,6,neg,0,neg0_id18_im11.bmp_neg0_id4_im15.bmp,['Im_KeanuReeves.png', 'Im_GeorgeClooney.png', 'Im_DanielRadcliffe.png', 'Im_BenStiller.png', 'Im_LeonardoDiCaprio.png', 'Im_ElijahWood.png', 'Im_BradPitt.png', 'Im_DanielCraig.png', 'Im_RobertDowneyJr.png', 'Im_HughJackman.png'],same,0,1.1168028000001868,4,76.19047619047619,
FRKA0706,6,neg,90,neg90_id3_im6.bmp_neg90_id3_im17.bmp,['Im_KeanuReeves.png', 'Im_GeorgeClooney.png', 'Im_DanielRadcliffe.png', 'Im_BenStiller.png', 'Im_LeonardoDiCaprio.png', 'Im_ElijahWood.png', 'Im_BradPitt.png', 'Im_DanielCraig.png', 'Im_RobertDowneyJr.png', 'Im_HughJackman.png'],diff,0,0.5249579999999696,4,76.19047619047619,
FRKA0706,6,neg,60,neg60_id2_im2.bmp_neg60_id2_im16.bmp,['Im_KeanuReeves.png', 'Im_GeorgeClooney.png', 'Im_DanielRadcliffe.png', 'Im_BenStiller.png', 'Im_LeonardoDiCaprio.png', 'Im_ElijahWood.png', 'Im_BradPitt.png', 'Im_DanielCraig.png', 'Im_RobertDowneyJr.png', 'Im_HughJackman.png'],same,1,0.4251016999996864,5,76.19047619047619,
FRKA0706,6,neg,fs,negfs_id7_im15.bmp_negfs_id7_im14.bmp,['Im_KeanuReeves.png', 'Im_GeorgeClooney.png', 'Im_DanielRadcliffe.png', 'Im_BenStiller.png', 'Im_LeonardoDiCaprio.png', 'Im_ElijahWood.png', 'Im_BradPitt.png', 'Im_DanielCraig.png', 'Im_RobertDowneyJr.png', 'Im_HughJackman.png'],diff,0,0.9666927000002943,5,76.19047619047619,
FRKA0706,6,neg,90,neg90_id8_im13.bmp_neg90_id6_im18.bmp,['Im_KeanuReeves.png', 'Im_GeorgeClooney.png', 'Im_DanielRadcliffe.png', 'Im_BenStiller.png', 'Im_LeonardoDiCaprio.png', 'Im_ElijahWood.png', 'Im_BradPitt.png', 'Im_DanielCraig.png', 'Im_RobertDowneyJr.png', 'Im_HughJackman.png'],same,0,1.5335094999995817,5,76.19047619047619,
FRKA0706,6,neg,30,neg30_id8_im21.bmp_neg30_id5_im20.bmp,['Im_KeanuReeves.png', 'Im_GeorgeClooney.png', 'Im_DanielRadcliffe.png', 'Im_BenStiller.png', 'Im_LeonardoDiCaprio.png', 'Im_ElijahWood.png', 'Im_BradPitt.png', 'Im_DanielCraig.png', 'Im_RobertDowneyJr.png', 'Im_HughJackman.png'],same,0,0.43364729999984775,5,76.19047619047619,
FRKA0706,6,neg,150,neg150_id5_im1.bmp_neg150_id11_im1.bmp,['Im_KeanuReeves.png', 'Im_GeorgeClooney.png', 'Im_DanielRadcliffe.png', 'Im_BenStiller.png', 'Im_LeonardoDiCaprio.png', 'Im_ElijahWood.png', 'Im_BradPitt.png', 'Im_DanielCraig.png', 'Im_RobertDowneyJr.png', 'Im_HughJackman.png'],diff,1,0.708552999999938,6,76.19047619047619,
FRKA0706,6,neg,30,neg30_id2_im3.bmp_neg30_id5_im10.bmp,['Im_KeanuReeves.png', 'Im_GeorgeClooney.png', 'Im_DanielRadcliffe.png', 'Im_BenStiller.png', 'Im_LeonardoDiCaprio.png', 'Im_ElijahWood.png', 'Im_BradPitt.png', 'Im_DanielCraig.png', 'Im_RobertDowneyJr.png', 'Im_HughJackman.png'],diff,1,0.4252919999998994,7,76.19047619047619,
FRKA0706,6,neg,0,neg0_id18_im18.bmp_neg0_id18_im19.bmp,['Im_KeanuReeves.png', 'Im_GeorgeClooney.png', 'Im_DanielRadcliffe.png', 'Im_BenStiller.png', 'Im_LeonardoDiCaprio.png', 'Im_ElijahWood.png', 'Im_BradPitt.png', 'Im_DanielCraig.png', 'Im_RobertDowneyJr.png', 'Im_HughJackman.png'],same,1,1.000074599999607,8,76.19047619047619,
FRKA0706,7,pos,90,pos90_id3_im6.bmp_pos90_id3_im17.bmp,['Im_KeanuReeves.png', 'Im_GeorgeClooney.png', 'Im_DanielRadcliffe.png', 'Im_BenStiller.png', 'Im_LeonardoDiCaprio.png', 'Im_ElijahWood.png', 'Im_BradPitt.png', 'Im_DanielCraig.png', 'Im_RobertDowneyJr.png', 'Im_HughJackman.png'],diff,0,0.5084645000001728,8,76.19047619047619,
FRKA0706,7,pos,30,pos30_id5_im10.bmp_pos30_id11_im10.bmp,['Im_KeanuReeves.png', 'Im_GeorgeClooney.png', 'Im_DanielRadcliffe.png', 'Im_BenStiller.png', 'Im_LeonardoDiCaprio.png', 'Im_ElijahWood.png', 'Im_BradPitt.png', 'Im_DanielCraig.png', 'Im_RobertDowneyJr.png', 'Im_HughJackman.png'],diff,1,0.425025800000185,9,76.19047619047619,
FRKA0706,7,pos,120,pos120_id13_im29.bmp_pos120_id11_im2.bmp,['Im_KeanuReeves.png', 'Im_GeorgeClooney.png', 'Im_DanielRadcliffe.png', 'Im_BenStiller.png', 'Im_LeonardoDiCaprio.png', 'Im_ElijahWood.png', 'Im_BradPitt.png', 'Im_DanielCraig.png', 'Im_RobertDowneyJr.png', 'Im_HughJackman.png'],diff,1,0.5332333999999719,10,76.19047619047619,
FRKA0706,7,pos,120,pos120_id5_im1.bmp_pos120_id5_im10.bmp,['Im_KeanuReeves.png', 'Im_GeorgeClooney.png', 'Im_DanielRadcliffe.png', 'Im_BenStiller.png', 'Im_LeonardoDiCaprio.png', 'Im_ElijahWood.png', 'Im_BradPitt.png', 'Im_DanielCraig.png', 'Im_RobertDowneyJr.png', 'Im_HughJackman.png'],same,1,0.416717300000073,11,76.19047619047619,
FRKA0706,7,pos,60,pos60_id8_im13.bmp_pos60_id8_im21.bmp,['Im_KeanuReeves.png', 'Im_GeorgeClooney.png', 'Im_DanielRadcliffe.png', 'Im_BenStiller.png', 'Im_LeonardoDiCaprio.png', 'Im_ElijahWood.png', 'Im_BradPitt.png', 'Im_DanielCraig.png', 'Im_RobertDowneyJr.png', 'Im_HughJackman.png'],same,1,0.4165453999999045,12,76.19047619047619,
FRKA0706,7,pos,fs,posfs_id4_im7.bmp_posfs_id6_im18.bmp,['Im_KeanuReeves.png', 'Im_GeorgeClooney.png', 'Im_DanielRadcliffe.png', 'Im_BenStiller.png', 'Im_LeonardoDiCaprio.png', 'Im_ElijahWood.png', 'Im_BradPitt.png', 'Im_DanielCraig.png', 'Im_RobertDowneyJr.png', 'Im_HughJackman.png'],diff,1,0.41671679999990374,13,76.19047619047619,
FRKA0706,7,pos,fs,posfs_id7_im14.bmp_posfs_id7_im26.bmp,['Im_KeanuReeves.png', 'Im_GeorgeClooney.png', 'Im_DanielRadcliffe.png', 'Im_BenStiller.png', 'Im_LeonardoDiCaprio.png', 'Im_ElijahWood.png', 'Im_BradPitt.png', 'Im_DanielCraig.png', 'Im_RobertDowneyJr.png', 'Im_HughJackman.png'],same,1,0.41723769999998694,14,76.19047619047619,
FRKA0706,7,pos,0,pos0_id2_im3.bmp_pos0_id6_im19.bmp,['Im_KeanuReeves.png', 'Im_GeorgeClooney.png', 'Im_DanielRadcliffe.png', 'Im_BenStiller.png', 'Im_LeonardoDiCaprio.png', 'Im_ElijahWood.png', 'Im_BradPitt.png', 'Im_DanielCraig.png', 'Im_RobertDowneyJr.png', 'Im_HughJackman.png'],diff,1,0.5003172000001541,15,76.19047619047619,
FRKA0706,7,pos,150,pos150_id4_im20.bmp_pos150_id7_im15.bmp,['Im_KeanuReeves.png', 'Im_GeorgeClooney.png', 'Im_DanielRadcliffe.png', 'Im_BenStiller.png', 'Im_LeonardoDiCaprio.png', 'Im_ElijahWood.png', 'Im_BradPitt.png', 'Im_DanielCraig.png', 'Im_RobertDowneyJr.png', 'Im_HughJackman.png'],diff,1,0.4167438999998012,16,76.19047619047619,
FRKA0706,7,pos,150,pos150_id4_im7.bmp_pos150_id6_im18.bmp,['Im_KeanuReeves.png', 'Im_GeorgeClooney.png', 'Im_DanielRadcliffe.png', 'Im_BenStiller.png', 'Im_LeonardoDiCaprio.png', 'Im_ElijahWood.png', 'Im_BradPitt.png', 'Im_DanielCraig.png', 'Im_RobertDowneyJr.png', 'Im_HughJackman.png'],diff,1,0.41656749999992826,17,76.19047619047619,
FRKA0706,7,pos,0,pos0_id2_im3.bmp_pos0_id2_im2.bmp,['Im_KeanuReeves.png', 'Im_GeorgeClooney.png', 'Im_DanielRadcliffe.png', 'Im_BenStiller.png', 'Im_LeonardoDiCaprio.png', 'Im_ElijahWood.png', 'Im_BradPitt.png', 'Im_DanielCraig.png', 'Im_RobertDowneyJr.png', 'Im_HughJackman.png'],same,1,0.4750296000001981,18,76.19047619047619,
FRKA0706,7,pos,30,pos30_id2_im16.bmp_pos30_id2_im2.bmp,['Im_KeanuReeves.png', 'Im_GeorgeClooney.png', 'Im_DanielRadcliffe.png', 'Im_BenStiller.png', 'Im_LeonardoDiCaprio.png', 'Im_ElijahWood.png', 'Im_BradPitt.png', 'Im_DanielCraig.png', 'Im_RobertDowneyJr.png', 'Im_HughJackman.png'],same,1,0.40836229999968054,19,76.19047619047619,
FRKA0706,7,pos,90,pos90_id8_im21.bmp_pos90_id3_im6.bmp,['Im_KeanuReeves.png', 'Im_GeorgeClooney.png', 'Im_DanielRadcliffe.png', 'Im_BenStiller.png', 'Im_LeonardoDiCaprio.png', 'Im_ElijahWood.png', 'Im_BradPitt.png', 'Im_DanielCraig.png', 'Im_RobertDowneyJr.png', 'Im_HughJackman.png'],diff,1,0.4165211000004092,20,76.19047619047619,
FRKA0706,7,pos,60,pos60_id4_im15.bmp_pos60_id8_im20.bmp,['Im_KeanuReeves.png', 'Im_GeorgeClooney.png', 'Im_DanielRadcliffe.png', 'Im_BenStiller.png', 'Im_LeonardoDiCaprio.png', 'Im_ElijahWood.png', 'Im_BradPitt.png', 'Im_DanielCraig.png', 'Im_RobertDowneyJr.png', 'Im_HughJackman.png'],diff,1,0.40835999999990236,21,76.19047619047619,
FRKA0706,8,inv,150,pos150_id8_im13.bmp_pos150_id8_im20.bmp,['Im_KeanuReeves.png', 'Im_GeorgeClooney.png', 'Im_DanielRadcliffe.png', 'Im_BenStiller.png', 'Im_LeonardoDiCaprio.png', 'Im_ElijahWood.png', 'Im_BradPitt.png', 'Im_DanielCraig.png', 'Im_RobertDowneyJr.png', 'Im_HughJackman.png'],same,1,0.4166019999997843,22,76.19047619047619,
FRKA0706,8,inv,60,pos60_id4_im7.bmp_pos60_id6_im18.bmp,['Im_KeanuReeves.png', 'Im_GeorgeClooney.png', 'Im_DanielRadcliffe.png', 'Im_BenStiller.png', 'Im_LeonardoDiCaprio.png', 'Im_ElijahWood.png', 'Im_BradPitt.png', 'Im_DanielCraig.png', 'Im_RobertDowneyJr.png', 'Im_HughJackman.png'],diff,1,0.42497529999991457,23,76.19047619047619,
FRKA0706,8,inv,30,pos30_id6_im19.bmp_pos30_id2_im2.bmp,['Im_KeanuReeves.png', 'Im_GeorgeClooney.png', 'Im_DanielRadcliffe.png', 'Im_BenStiller.png', 'Im_LeonardoDiCaprio.png', 'Im_ElijahWood.png', 'Im_BradPitt.png', 'Im_DanielCraig.png', 'Im_RobertDowneyJr.png', 'Im_HughJackman.png'],diff,1,0.4250638000003164,24,76.19047619047619,
FRKA0706,8,inv,120,pos120_id4_im20.bmp_pos120_id7_im26.bmp,['Im_KeanuReeves.png', 'Im_GeorgeClooney.png', 'Im_DanielRadcliffe.png', 'Im_BenStiller.png', 'Im_LeonardoDiCaprio.png', 'Im_ElijahWood.png', 'Im_BradPitt.png', 'Im_DanielCraig.png', 'Im_RobertDowneyJr.png', 'Im_HughJackman.png'],same,0,0.41667439999991984,24,76.19047619047619,
FRKA0706,8,inv,90,pos90_id4_im20.bmp_pos90_id7_im26.bmp,['Im_KeanuReeves.png', 'Im_GeorgeClooney.png', 'Im_DanielRadcliffe.png', 'Im_BenStiller.png', 'Im_LeonardoDiCaprio.png', 'Im_ElijahWood.png', 'Im_BradPitt.png', 'Im_DanielCraig.png', 'Im_RobertDowneyJr.png', 'Im_HughJackman.png'],same,0,0.5667607999998836,24,76.19047619047619,
FRKA0706,8,inv,0,pos0_id5_im20.bmp_pos0_id2_im16.bmp,['Im_KeanuReeves.png', 'Im_GeorgeClooney.png', 'Im_DanielRadcliffe.png', 'Im_BenStiller.png', 'Im_LeonardoDiCaprio.png', 'Im_ElijahWood.png', 'Im_BradPitt.png', 'Im_DanielCraig.png', 'Im_RobertDowneyJr.png', 'Im_HughJackman.png'],diff,1,0.4501228000003721,25,76.19047619047619,
FRKA0706,8,inv,60,pos60_id3_im8.bmp_pos60_id3_im17.bmp,['Im_KeanuReeves.png', 'Im_GeorgeClooney.png', 'Im_DanielRadcliffe.png', 'Im_BenStiller.png', 'Im_LeonardoDiCaprio.png', 'Im_ElijahWood.png', 'Im_BradPitt.png', 'Im_DanielCraig.png', 'Im_RobertDowneyJr.png', 'Im_HughJackman.png'],diff,0,0.8335437999999158,25,76.19047619047619,
FRKA0706,8,inv,fs,posfs_id5_im1.bmp_posfs_id11_im1.bmp,['Im_KeanuReeves.png', 'Im_GeorgeClooney.png', 'Im_DanielRadcliffe.png', 'Im_BenStiller.png', 'Im_LeonardoDiCaprio.png', 'Im_ElijahWood.png', 'Im_BradPitt.png', 'Im_DanielCraig.png', 'Im_RobertDowneyJr.png', 'Im_HughJackman.png'],diff,1,0.4417929000001095,26,76.19047619047619,
FRKA0706,8,inv,30,pos30_id4_im7.bmp_pos30_id6_im18.bmp,['Im_KeanuReeves.png', 'Im_GeorgeClooney.png', 'Im_DanielRadcliffe.png', 'Im_BenStiller.png', 'Im_LeonardoDiCaprio.png', 'Im_ElijahWood.png', 'Im_BradPitt.png', 'Im_DanielCraig.png', 'Im_RobertDowneyJr.png', 'Im_HughJackman.png'],diff,1,1.2169917000001078,27,76.19047619047619,
FRKA0706,8,inv,0,pos0_id6_im12.bmp_pos0_id7_im14.bmp,['Im_KeanuReeves.png', 'Im_GeorgeClooney.png', 'Im_DanielRadcliffe.png', 'Im_BenStiller.png', 'Im_LeonardoDiCaprio.png', 'Im_ElijahWood.png', 'Im_BradPitt.png', 'Im_DanielCraig.png', 'Im_RobertDowneyJr.png', 'Im_HughJackman.png'],diff,1,0.4168531999998777,28,76.19047619047619,
FRKA0706,8,inv,90,pos90_id6_im12.bmp_pos90_id6_im19.bmp,['Im_KeanuReeves.png', 'Im_GeorgeClooney.png', 'Im_DanielRadcliffe.png', 'Im_BenStiller.png', 'Im_LeonardoDiCaprio.png', 'Im_ElijahWood.png', 'Im_BradPitt.png', 'Im_DanielCraig.png', 'Im_RobertDowneyJr.png', 'Im_HughJackman.png'],diff,0,0.5176284999997733,28,76.19047619047619,
FRKA0706,8,inv,120,pos120_id6_im12.bmp_pos120_id6_im19.bmp,['Im_KeanuReeves.png', 'Im_GeorgeClooney.png', 'Im_DanielRadcliffe.png', 'Im_BenStiller.png', 'Im_LeonardoDiCaprio.png', 'Im_ElijahWood.png', 'Im_BradPitt.png', 'Im_DanielCraig.png', 'Im_RobertDowneyJr.png', 'Im_HughJackman.png'],diff,0,0.800101899999845,28,76.19047619047619,
FRKA0706,8,inv,150,pos150_id6_im12.bmp_pos150_id6_im19.bmp,['Im_KeanuReeves.png', 'Im_GeorgeClooney.png', 'Im_DanielRadcliffe.png', 'Im_BenStiller.png', 'Im_LeonardoDiCaprio.png', 'Im_ElijahWood.png', 'Im_BradPitt.png', 'Im_DanielCraig.png', 'Im_RobertDowneyJr.png', 'Im_HughJackman.png'],diff,0,0.5250836000000163,28,76.19047619047619,
FRKA0706,8,inv,fs,posfs_id18_im11.bmp_posfs_id18_im18.bmp,['Im_KeanuReeves.png', 'Im_GeorgeClooney.png', 'Im_DanielRadcliffe.png', 'Im_BenStiller.png', 'Im_LeonardoDiCaprio.png', 'Im_ElijahWood.png', 'Im_BradPitt.png', 'Im_DanielCraig.png', 'Im_RobertDowneyJr.png', 'Im_HughJackman.png'],same,1,0.4084523999999874,29,76.19047619047619,
FRKA0706,9,inv,60,pos60_id7_im26.bmp_pos60_id18_im11.bmp,['Im_KeanuReeves.png', 'Im_GeorgeClooney.png', 'Im_DanielRadcliffe.png', 'Im_BenStiller.png', 'Im_LeonardoDiCaprio.png', 'Im_ElijahWood.png', 'Im_BradPitt.png', 'Im_DanielCraig.png', 'Im_RobertDowneyJr.png', 'Im_HughJackman.png'],diff,1,0.9082840000000942,1,69.04761904761905,
FRKA0706,9,inv,30,pos30_id11_im10.bmp_pos30_id2_im2.bmp,['Im_KeanuReeves.png', 'Im_GeorgeClooney.png', 'Im_DanielRadcliffe.png', 'Im_BenStiller.png', 'Im_LeonardoDiCaprio.png', 'Im_ElijahWood.png', 'Im_BradPitt.png', 'Im_DanielCraig.png', 'Im_RobertDowneyJr.png', 'Im_HughJackman.png'],diff,1,0.42507910000040283,2,69.04761904761905,
FRKA0706,9,inv,150,pos150_id7_im26.bmp_pos150_id4_im20.bmp,['Im_KeanuReeves.png', 'Im_GeorgeClooney.png', 'Im_DanielRadcliffe.png', 'Im_BenStiller.png', 'Im_LeonardoDiCaprio.png', 'Im_ElijahWood.png', 'Im_BradPitt.png', 'Im_DanielCraig.png', 'Im_RobertDowneyJr.png', 'Im_HughJackman.png'],diff,1,0.4585221000002093,3,69.04761904761905,
FRKA0706,9,inv,90,pos90_id3_im17.bmp_pos90_id13_im15.bmp,['Im_KeanuReeves.png', 'Im_GeorgeClooney.png', 'Im_DanielRadcliffe.png', 'Im_BenStiller.png', 'Im_LeonardoDiCaprio.png', 'Im_ElijahWood.png', 'Im_BradPitt.png', 'Im_DanielCraig.png', 'Im_RobertDowneyJr.png', 'Im_HughJackman.png'],diff,1,0.4167597000000569,4,69.04761904761905,
FRKA0706,9,inv,90,pos90_id4_im7.bmp_pos90_id11_im2.bmp,['Im_KeanuReeves.png', 'Im_GeorgeClooney.png', 'Im_DanielRadcliffe.png', 'Im_BenStiller.png', 'Im_LeonardoDiCaprio.png', 'Im_ElijahWood.png', 'Im_BradPitt.png', 'Im_DanielCraig.png', 'Im_RobertDowneyJr.png', 'Im_HughJackman.png'],diff,1,0.4165803999999298,5,69.04761904761905,
FRKA0706,9,inv,60,pos60_id6_im19.bmp_pos60_id6_im18.bmp,['Im_KeanuReeves.png', 'Im_GeorgeClooney.png', 'Im_DanielRadcliffe.png', 'Im_BenStiller.png', 'Im_LeonardoDiCaprio.png', 'Im_ElijahWood.png', 'Im_BradPitt.png', 'Im_DanielCraig.png', 'Im_RobertDowneyJr.png', 'Im_HughJackman.png'],diff,0,0.4167114000001675,5,69.04761904761905,
FRKA0706,9,inv,0,pos0_id3_im8.bmp_pos0_id18_im19.bmp,['Im_KeanuReeves.png', 'Im_GeorgeClooney.png', 'Im_DanielRadcliffe.png', 'Im_BenStiller.png', 'Im_LeonardoDiCaprio.png', 'Im_ElijahWood.png', 'Im_BradPitt.png', 'Im_DanielCraig.png', 'Im_RobertDowneyJr.png', 'Im_HughJackman.png'],diff,1,0.6500199000001885,6,69.04761904761905,
FRKA0706,9,inv,30,pos30_id8_im21.bmp_pos30_id8_im20.bmp,['Im_KeanuReeves.png', 'Im_GeorgeClooney.png', 'Im_DanielRadcliffe.png', 'Im_BenStiller.png', 'Im_LeonardoDiCaprio.png', 'Im_ElijahWood.png', 'Im_BradPitt.png', 'Im_DanielCraig.png', 'Im_RobertDowneyJr.png', 'Im_HughJackman.png'],same,1,0.6168052999996689,7,69.04761904761905,
FRKA0706,9,inv,120,pos120_id13_im10.bmp_pos120_id13_im15.bmp,['Im_KeanuReeves.png', 'Im_GeorgeClooney.png', 'Im_DanielRadcliffe.png', 'Im_BenStiller.png', 'Im_LeonardoDiCaprio.png', 'Im_ElijahWood.png', 'Im_BradPitt.png', 'Im_DanielCraig.png', 'Im_RobertDowneyJr.png', 'Im_HughJackman.png'],same,1,0.5167263000003004,8,69.04761904761905,
FRKA0706,9,inv,fs,posfs_id4_im7.bmp_posfs_id4_im20.bmp,['Im_KeanuReeves.png', 'Im_GeorgeClooney.png', 'Im_DanielRadcliffe.png', 'Im_BenStiller.png', 'Im_LeonardoDiCaprio.png', 'Im_ElijahWood.png', 'Im_BradPitt.png', 'Im_DanielCraig.png', 'Im_RobertDowneyJr.png', 'Im_HughJackman.png'],same,1,0.42510159999983443,9,69.04761904761905,
FRKA0706,9,inv,fs,posfs_id18_im19.bmp_posfs_id8_im13.bmp,['Im_KeanuReeves.png', 'Im_GeorgeClooney.png', 'Im_DanielRadcliffe.png', 'Im_BenStiller.png', 'Im_LeonardoDiCaprio.png', 'Im_ElijahWood.png', 'Im_BradPitt.png', 'Im_DanielCraig.png', 'Im_RobertDowneyJr.png', 'Im_HughJackman.png'],diff,1,0.4167080000001988,10,69.04761904761905,
FRKA0706,9,inv,0,pos0_id4_im20.bmp_pos0_id7_im26.bmp,['Im_KeanuReeves.png', 'Im_GeorgeClooney.png', 'Im_DanielRadcliffe.png', 'Im_BenStiller.png', 'Im_LeonardoDiCaprio.png', 'Im_ElijahWood.png', 'Im_BradPitt.png', 'Im_DanielCraig.png', 'Im_RobertDowneyJr.png', 'Im_HughJackman.png'],diff,1,0.40834610000001703,11,69.04761904761905,
FRKA0706,9,inv,150,pos150_id2_im3.bmp_pos150_id2_im2.bmp,['Im_KeanuReeves.png', 'Im_GeorgeClooney.png', 'Im_DanielRadcliffe.png', 'Im_BenStiller.png', 'Im_LeonardoDiCaprio.png', 'Im_ElijahWood.png', 'Im_BradPitt.png', 'Im_DanielCraig.png', 'Im_RobertDowneyJr.png', 'Im_HughJackman.png'],same,1,0.5667597999999998,12,69.04761904761905,
FRKA0706,9,inv,120,pos120_id3_im17.bmp_pos120_id6_im12.bmp,['Im_KeanuReeves.png', 'Im_GeorgeClooney.png', 'Im_DanielRadcliffe.png', 'Im_BenStiller.png', 'Im_LeonardoDiCaprio.png', 'Im_ElijahWood.png', 'Im_BradPitt.png', 'Im_DanielCraig.png', 'Im_RobertDowneyJr.png', 'Im_HughJackman.png'],diff,1,0.7834523000001354,13,69.04761904761905,
FRKA0706,10,pos,0,pos0_id3_im8.bmp_pos0_id3_im17.bmp,['Im_KeanuReeves.png', 'Im_GeorgeClooney.png', 'Im_DanielRadcliffe.png', 'Im_BenStiller.png', 'Im_LeonardoDiCaprio.png', 'Im_ElijahWood.png', 'Im_BradPitt.png', 'Im_DanielCraig.png', 'Im_RobertDowneyJr.png', 'Im_HughJackman.png'],same,1,0.4085296999996899,14,69.04761904761905,
FRKA0706,10,pos,30,pos30_id7_im26.bmp_pos30_id18_im11.bmp,['Im_KeanuReeves.png', 'Im_GeorgeClooney.png', 'Im_DanielRadcliffe.png', 'Im_BenStiller.png', 'Im_LeonardoDiCaprio.png', 'Im_ElijahWood.png', 'Im_BradPitt.png', 'Im_DanielCraig.png', 'Im_RobertDowneyJr.png', 'Im_HughJackman.png'],diff,1,0.6086043000000245,15,69.04761904761905,
