Sujet,Trial,Condition,Filter,Imname,Actor0,Actor1,Actor2,Actor3,Actor4,Actor5,Actor6,Actor7,Actor8,Actor9,Answer,Accu,RT,Score,Scoreperc, 
FRKA0706,train,neg,fs,negfs_id3_im8.bmp_negfs_id18_im19.bmp,['Im_KeanuReeves.png', 'Im_LeonardoDiCaprio.png', 'Im_DanielCraig.png', 'Im_HughJackman.png', 'Im_DanielRadcliffe.png', 'Im_RobertDowneyJr.png', 'Im_BenStiller.png', 'Im_BradPitt.png', 'Im_ElijahWood.png', 'Im_GeorgeClooney.png'],diff,1,1.1753276999999969,1,0,
FRKA0706,train,neg,30,neg30_id8_im13.bmp_neg30_id18_im19.bmp,['Im_KeanuReeves.png', 'Im_LeonardoDiCaprio.png', 'Im_DanielCraig.png', 'Im_HughJackman.png', 'Im_DanielRadcliffe.png', 'Im_RobertDowneyJr.png', 'Im_BenStiller.png', 'Im_BradPitt.png', 'Im_ElijahWood.png', 'Im_GeorgeClooney.png'],diff,1,1.0999213999999995,2,0,
FRKA0706,train,neg,0,neg0_id2_im16.bmp_neg0_id13_im15.bmp,['Im_KeanuReeves.png', 'Im_LeonardoDiCaprio.png', 'Im_DanielCraig.png', 'Im_HughJackman.png', 'Im_DanielRadcliffe.png', 'Im_RobertDowneyJr.png', 'Im_BenStiller.png', 'Im_BradPitt.png', 'Im_ElijahWood.png', 'Im_GeorgeClooney.png'],diff,1,0.6506492000000037,3,0,
FRKA0706,train,neg,60,neg60_id6_im12.bmp_neg60_id6_im19.bmp,['Im_KeanuReeves.png', 'Im_LeonardoDiCaprio.png', 'Im_DanielCraig.png', 'Im_HughJackman.png', 'Im_DanielRadcliffe.png', 'Im_RobertDowneyJr.png', 'Im_BenStiller.png', 'Im_BradPitt.png', 'Im_ElijahWood.png', 'Im_GeorgeClooney.png'],diff,0,0.9333287999999982,3,0,
FRKA0706,train,neg,120,neg120_id3_im6.bmp_neg120_id3_im8.bmp,['Im_KeanuReeves.png', 'Im_LeonardoDiCaprio.png', 'Im_DanielCraig.png', 'Im_HughJackman.png', 'Im_DanielRadcliffe.png', 'Im_RobertDowneyJr.png', 'Im_BenStiller.png', 'Im_BradPitt.png', 'Im_ElijahWood.png', 'Im_GeorgeClooney.png'],same,1,0.7501986000000045,4,0,
FRKA0706,train,neg,60,neg60_id4_im15.bmp_neg60_id18_im11.bmp,['Im_KeanuReeves.png', 'Im_LeonardoDiCaprio.png', 'Im_DanielCraig.png', 'Im_HughJackman.png', 'Im_DanielRadcliffe.png', 'Im_RobertDowneyJr.png', 'Im_BenStiller.png', 'Im_BradPitt.png', 'Im_ElijahWood.png', 'Im_GeorgeClooney.png'],diff,1,1.0333114000000023,5,0,
FRKA0706,train,neg,0,neg0_id18_im18.bmp_neg0_id7_im15.bmp,['Im_KeanuReeves.png', 'Im_LeonardoDiCaprio.png', 'Im_DanielCraig.png', 'Im_HughJackman.png', 'Im_DanielRadcliffe.png', 'Im_RobertDowneyJr.png', 'Im_BenStiller.png', 'Im_BradPitt.png', 'Im_ElijahWood.png', 'Im_GeorgeClooney.png'],diff,1,0.9667479000000014,6,0,
FRKA0706,train,neg,150,neg150_id4_im15.bmp_neg150_id4_im20.bmp,['Im_KeanuReeves.png', 'Im_LeonardoDiCaprio.png', 'Im_DanielCraig.png', 'Im_HughJackman.png', 'Im_DanielRadcliffe.png', 'Im_RobertDowneyJr.png', 'Im_BenStiller.png', 'Im_BradPitt.png', 'Im_ElijahWood.png', 'Im_GeorgeClooney.png'],same,1,0.7004529000000161,7,0,
FRKA0706,train,neg,120,neg120_id6_im12.bmp_neg120_id6_im19.bmp,['Im_KeanuReeves.png', 'Im_LeonardoDiCaprio.png', 'Im_DanielCraig.png', 'Im_HughJackman.png', 'Im_DanielRadcliffe.png', 'Im_RobertDowneyJr.png', 'Im_BenStiller.png', 'Im_BradPitt.png', 'Im_ElijahWood.png', 'Im_GeorgeClooney.png'],diff,0,0.5666436000000203,7,0,
FRKA0706,train,neg,90,neg90_id8_im21.bmp_neg90_id3_im6.bmp,['Im_KeanuReeves.png', 'Im_LeonardoDiCaprio.png', 'Im_DanielCraig.png', 'Im_HughJackman.png', 'Im_DanielRadcliffe.png', 'Im_RobertDowneyJr.png', 'Im_BenStiller.png', 'Im_BradPitt.png', 'Im_ElijahWood.png', 'Im_GeorgeClooney.png'],same,0,1.1333131000000094,7,0,
FRKA0706,train,neg,90,neg90_id11_im10.bmp_neg90_id2_im2.bmp,['Im_KeanuReeves.png', 'Im_LeonardoDiCaprio.png', 'Im_DanielCraig.png', 'Im_HughJackman.png', 'Im_DanielRadcliffe.png', 'Im_RobertDowneyJr.png', 'Im_BenStiller.png', 'Im_BradPitt.png', 'Im_ElijahWood.png', 'Im_GeorgeClooney.png'],diff,1,1.0427139999999895,8,0,
FRKA0706,train,neg,30,neg30_id5_im1.bmp_neg30_id5_im10.bmp,['Im_KeanuReeves.png', 'Im_LeonardoDiCaprio.png', 'Im_DanielCraig.png', 'Im_HughJackman.png', 'Im_DanielRadcliffe.png', 'Im_RobertDowneyJr.png', 'Im_BenStiller.png', 'Im_BradPitt.png', 'Im_ElijahWood.png', 'Im_GeorgeClooney.png'],same,1,0.6085312000000158,9,0,
FRKA0706,train,neg,150,neg150_id11_im2.bmp_neg150_id11_im1.bmp,['Im_KeanuReeves.png', 'Im_LeonardoDiCaprio.png', 'Im_DanielCraig.png', 'Im_HughJackman.png', 'Im_DanielRadcliffe.png', 'Im_RobertDowneyJr.png', 'Im_BenStiller.png', 'Im_BradPitt.png', 'Im_ElijahWood.png', 'Im_GeorgeClooney.png'],diff,0,0.5221693999999957,9,0,
FRKA0706,train,neg,fs,negfs_id7_im15.bmp_negfs_id18_im18.bmp,['Im_KeanuReeves.png', 'Im_LeonardoDiCaprio.png', 'Im_DanielCraig.png', 'Im_HughJackman.png', 'Im_DanielRadcliffe.png', 'Im_RobertDowneyJr.png', 'Im_BenStiller.png', 'Im_BradPitt.png', 'Im_ElijahWood.png', 'Im_GeorgeClooney.png'],diff,1,0.49165109999995593,10,0,
FRKA0706,train,inv,60,pos60_id5_im1.bmp_pos60_id11_im1.bmp,['Im_KeanuReeves.png', 'Im_LeonardoDiCaprio.png', 'Im_DanielCraig.png', 'Im_HughJackman.png', 'Im_DanielRadcliffe.png', 'Im_RobertDowneyJr.png', 'Im_BenStiller.png', 'Im_BradPitt.png', 'Im_ElijahWood.png', 'Im_GeorgeClooney.png'],diff,1,0.7753841999999622,11,0,
FRKA0706,train,inv,90,pos90_id8_im20.bmp_pos90_id8_im21.bmp,['Im_KeanuReeves.png', 'Im_LeonardoDiCaprio.png', 'Im_DanielCraig.png', 'Im_HughJackman.png', 'Im_DanielRadcliffe.png', 'Im_RobertDowneyJr.png', 'Im_BenStiller.png', 'Im_BradPitt.png', 'Im_ElijahWood.png', 'Im_GeorgeClooney.png'],same,1,0.8663902999999777,12,0,
FRKA0706,train,inv,150,pos150_id18_im19.bmp_pos150_id18_im11.bmp,['Im_KeanuReeves.png', 'Im_LeonardoDiCaprio.png', 'Im_DanielCraig.png', 'Im_HughJackman.png', 'Im_DanielRadcliffe.png', 'Im_RobertDowneyJr.png', 'Im_BenStiller.png', 'Im_BradPitt.png', 'Im_ElijahWood.png', 'Im_GeorgeClooney.png'],diff,0,0.826639699999987,12,0,
FRKA0706,train,inv,fs,posfs_id6_im18.bmp_posfs_id6_im12.bmp,['Im_KeanuReeves.png', 'Im_LeonardoDiCaprio.png', 'Im_DanielCraig.png', 'Im_HughJackman.png', 'Im_DanielRadcliffe.png', 'Im_RobertDowneyJr.png', 'Im_BenStiller.png', 'Im_BradPitt.png', 'Im_ElijahWood.png', 'Im_GeorgeClooney.png'],same,1,0.7334620000000314,13,0,
FRKA0706,train,inv,60,pos60_id3_im6.bmp_pos60_id3_im8.bmp,['Im_KeanuReeves.png', 'Im_LeonardoDiCaprio.png', 'Im_DanielCraig.png', 'Im_HughJackman.png', 'Im_DanielRadcliffe.png', 'Im_RobertDowneyJr.png', 'Im_BenStiller.png', 'Im_BradPitt.png', 'Im_ElijahWood.png', 'Im_GeorgeClooney.png'],same,1,0.43360939999996617,14,0,
FRKA0706,train,inv,0,pos0_id11_im1.bmp_pos0_id11_im10.bmp,['Im_KeanuReeves.png', 'Im_LeonardoDiCaprio.png', 'Im_DanielCraig.png', 'Im_HughJackman.png', 'Im_DanielRadcliffe.png', 'Im_RobertDowneyJr.png', 'Im_BenStiller.png', 'Im_BradPitt.png', 'Im_ElijahWood.png', 'Im_GeorgeClooney.png'],same,1,0.8918026999999711,15,0,
FRKA0706,train,inv,0,pos0_id3_im17.bmp_pos0_id6_im12.bmp,['Im_KeanuReeves.png', 'Im_LeonardoDiCaprio.png', 'Im_DanielCraig.png', 'Im_HughJackman.png', 'Im_DanielRadcliffe.png', 'Im_RobertDowneyJr.png', 'Im_BenStiller.png', 'Im_BradPitt.png', 'Im_ElijahWood.png', 'Im_GeorgeClooney.png'],diff,1,0.40835649999996804,16,0,
FRKA0706,train,inv,90,pos90_id4_im20.bmp_pos90_id7_im15.bmp,['Im_KeanuReeves.png', 'Im_LeonardoDiCaprio.png', 'Im_DanielCraig.png', 'Im_HughJackman.png', 'Im_DanielRadcliffe.png', 'Im_RobertDowneyJr.png', 'Im_BenStiller.png', 'Im_BradPitt.png', 'Im_ElijahWood.png', 'Im_GeorgeClooney.png'],diff,1,0.4502756999999633,17,0,
FRKA0706,train,inv,fs,posfs_id5_im20.bmp_posfs_id5_im1.bmp,['Im_KeanuReeves.png', 'Im_LeonardoDiCaprio.png', 'Im_DanielCraig.png', 'Im_HughJackman.png', 'Im_DanielRadcliffe.png', 'Im_RobertDowneyJr.png', 'Im_BenStiller.png', 'Im_BradPitt.png', 'Im_ElijahWood.png', 'Im_GeorgeClooney.png'],same,1,0.6331203000000301,18,0,
FRKA0706,train,inv,120,pos120_id13_im29.bmp_pos120_id5_im1.bmp,['Im_KeanuReeves.png', 'Im_LeonardoDiCaprio.png', 'Im_DanielCraig.png', 'Im_HughJackman.png', 'Im_DanielRadcliffe.png', 'Im_RobertDowneyJr.png', 'Im_BenStiller.png', 'Im_BradPitt.png', 'Im_ElijahWood.png', 'Im_GeorgeClooney.png'],diff,1,0.6250299000000155,19,0,
FRKA0706,train,inv,120,pos120_id11_im2.bmp_pos120_id13_im29.bmp,['Im_KeanuReeves.png', 'Im_LeonardoDiCaprio.png', 'Im_DanielCraig.png', 'Im_HughJackman.png', 'Im_DanielRadcliffe.png', 'Im_RobertDowneyJr.png', 'Im_BenStiller.png', 'Im_BradPitt.png', 'Im_ElijahWood.png', 'Im_GeorgeClooney.png'],diff,1,0.45012009999999236,20,0,
FRKA0706,train,inv,30,pos30_id4_im20.bmp_pos30_id7_im26.bmp,['Im_KeanuReeves.png', 'Im_LeonardoDiCaprio.png', 'Im_DanielCraig.png', 'Im_HughJackman.png', 'Im_DanielRadcliffe.png', 'Im_RobertDowneyJr.png', 'Im_BenStiller.png', 'Im_BradPitt.png', 'Im_ElijahWood.png', 'Im_GeorgeClooney.png'],diff,1,0.5165240999999696,21,0,
FRKA0706,train,inv,30,pos30_id4_im7.bmp_pos30_id11_im2.bmp,['Im_KeanuReeves.png', 'Im_LeonardoDiCaprio.png', 'Im_DanielCraig.png', 'Im_HughJackman.png', 'Im_DanielRadcliffe.png', 'Im_RobertDowneyJr.png', 'Im_BenStiller.png', 'Im_BradPitt.png', 'Im_ElijahWood.png', 'Im_GeorgeClooney.png'],diff,1,0.6333894999999643,22,0,
FRKA0706,train,inv,150,pos150_id11_im10.bmp_pos150_id2_im2.bmp,['Im_KeanuReeves.png', 'Im_LeonardoDiCaprio.png', 'Im_DanielCraig.png', 'Im_HughJackman.png', 'Im_DanielRadcliffe.png', 'Im_RobertDowneyJr.png', 'Im_BenStiller.png', 'Im_BradPitt.png', 'Im_ElijahWood.png', 'Im_GeorgeClooney.png'],same,0,0.7665177000000085,22,0,
FRKA0706,train,neg,120,neg120_id11_im1.bmp_neg120_id11_im2.bmp,['Im_KeanuReeves.png', 'Im_LeonardoDiCaprio.png', 'Im_DanielCraig.png', 'Im_HughJackman.png', 'Im_DanielRadcliffe.png', 'Im_RobertDowneyJr.png', 'Im_BenStiller.png', 'Im_BradPitt.png', 'Im_ElijahWood.png', 'Im_GeorgeClooney.png'],same,1,0.7837677999999642,23,0,
FRKA0706,train,neg,fs,negfs_id3_im17.bmp_negfs_id13_im15.bmp,['Im_KeanuReeves.png', 'Im_LeonardoDiCaprio.png', 'Im_DanielCraig.png', 'Im_HughJackman.png', 'Im_DanielRadcliffe.png', 'Im_RobertDowneyJr.png', 'Im_BenStiller.png', 'Im_BradPitt.png', 'Im_ElijahWood.png', 'Im_GeorgeClooney.png'],diff,1,0.6334441999999854,24,0,
FRKA0706,train,neg,0,neg0_id2_im2.bmp_neg0_id2_im3.bmp,['Im_KeanuReeves.png', 'Im_LeonardoDiCaprio.png', 'Im_DanielCraig.png', 'Im_HughJackman.png', 'Im_DanielRadcliffe.png', 'Im_RobertDowneyJr.png', 'Im_BenStiller.png', 'Im_BradPitt.png', 'Im_ElijahWood.png', 'Im_GeorgeClooney.png'],same,1,0.7166697000000113,25,0,
FRKA0706,train,neg,150,neg150_id6_im18.bmp_neg150_id4_im7.bmp,['Im_KeanuReeves.png', 'Im_LeonardoDiCaprio.png', 'Im_DanielCraig.png', 'Im_HughJackman.png', 'Im_DanielRadcliffe.png', 'Im_RobertDowneyJr.png', 'Im_BenStiller.png', 'Im_BradPitt.png', 'Im_ElijahWood.png', 'Im_GeorgeClooney.png'],diff,1,0.7167177000000038,26,0,
FRKA0706,train,neg,90,neg90_id2_im3.bmp_neg90_id2_im2.bmp,['Im_KeanuReeves.png', 'Im_LeonardoDiCaprio.png', 'Im_DanielCraig.png', 'Im_HughJackman.png', 'Im_DanielRadcliffe.png', 'Im_RobertDowneyJr.png', 'Im_BenStiller.png', 'Im_BradPitt.png', 'Im_ElijahWood.png', 'Im_GeorgeClooney.png'],diff,0,0.6169174999999996,26,0,
FRKA0706,train,neg,120,neg120_id5_im1.bmp_neg120_id5_im20.bmp,['Im_KeanuReeves.png', 'Im_LeonardoDiCaprio.png', 'Im_DanielCraig.png', 'Im_HughJackman.png', 'Im_DanielRadcliffe.png', 'Im_RobertDowneyJr.png', 'Im_BenStiller.png', 'Im_BradPitt.png', 'Im_ElijahWood.png', 'Im_GeorgeClooney.png'],same,1,0.4835060999999996,27,0,
FRKA0706,train,neg,0,neg0_id18_im18.bmp_neg0_id13_im10.bmp,['Im_KeanuReeves.png', 'Im_LeonardoDiCaprio.png', 'Im_DanielCraig.png', 'Im_HughJackman.png', 'Im_DanielRadcliffe.png', 'Im_RobertDowneyJr.png', 'Im_BenStiller.png', 'Im_BradPitt.png', 'Im_ElijahWood.png', 'Im_GeorgeClooney.png'],diff,1,0.6003385000000208,28,0,
FRKA0706,train,neg,60,neg60_id4_im20.bmp_neg60_id4_im7.bmp,['Im_KeanuReeves.png', 'Im_LeonardoDiCaprio.png', 'Im_DanielCraig.png', 'Im_HughJackman.png', 'Im_DanielRadcliffe.png', 'Im_RobertDowneyJr.png', 'Im_BenStiller.png', 'Im_BradPitt.png', 'Im_ElijahWood.png', 'Im_GeorgeClooney.png'],same,1,0.41665690000002087,29,0,
FRKA0706,train,neg,30,neg30_id7_im15.bmp_neg30_id7_im14.bmp,['Im_KeanuReeves.png', 'Im_LeonardoDiCaprio.png', 'Im_DanielCraig.png', 'Im_HughJackman.png', 'Im_DanielRadcliffe.png', 'Im_RobertDowneyJr.png', 'Im_BenStiller.png', 'Im_BradPitt.png', 'Im_ElijahWood.png', 'Im_GeorgeClooney.png'],diff,0,0.8332809000000339,29,0,
FRKA0706,train,neg,150,neg150_id4_im15.bmp_neg150_id4_im7.bmp,['Im_KeanuReeves.png', 'Im_LeonardoDiCaprio.png', 'Im_DanielCraig.png', 'Im_HughJackman.png', 'Im_DanielRadcliffe.png', 'Im_RobertDowneyJr.png', 'Im_BenStiller.png', 'Im_BradPitt.png', 'Im_ElijahWood.png', 'Im_GeorgeClooney.png'],same,1,0.4083688000000052,30,0,
FRKA0706,train,neg,30,neg30_id6_im18.bmp_neg30_id6_im19.bmp,['Im_KeanuReeves.png', 'Im_LeonardoDiCaprio.png', 'Im_DanielCraig.png', 'Im_HughJackman.png', 'Im_DanielRadcliffe.png', 'Im_RobertDowneyJr.png', 'Im_BenStiller.png', 'Im_BradPitt.png', 'Im_ElijahWood.png', 'Im_GeorgeClooney.png'],diff,0,0.5753455999999915,30,0,
FRKA0706,train,neg,90,neg90_id3_im6.bmp_neg90_id3_im8.bmp,['Im_KeanuReeves.png', 'Im_LeonardoDiCaprio.png', 'Im_DanielCraig.png', 'Im_HughJackman.png', 'Im_DanielRadcliffe.png', 'Im_RobertDowneyJr.png', 'Im_BenStiller.png', 'Im_BradPitt.png', 'Im_ElijahWood.png', 'Im_GeorgeClooney.png'],diff,0,0.7666381999999885,30,0,
FRKA0706,train,neg,fs,negfs_id5_im1.bmp_negfs_id5_im20.bmp,['Im_KeanuReeves.png', 'Im_LeonardoDiCaprio.png', 'Im_DanielCraig.png', 'Im_HughJackman.png', 'Im_DanielRadcliffe.png', 'Im_RobertDowneyJr.png', 'Im_BenStiller.png', 'Im_BradPitt.png', 'Im_ElijahWood.png', 'Im_GeorgeClooney.png'],same,1,0.48320280000001503,31,0,
FRKA0706,train,neg,60,neg60_id5_im10.bmp_neg60_id5_im1.bmp,['Im_KeanuReeves.png', 'Im_LeonardoDiCaprio.png', 'Im_DanielCraig.png', 'Im_HughJackman.png', 'Im_DanielRadcliffe.png', 'Im_RobertDowneyJr.png', 'Im_BenStiller.png', 'Im_BradPitt.png', 'Im_ElijahWood.png', 'Im_GeorgeClooney.png'],same,1,0.8667068000000313,32,0,
FRKA0706,train,pos,60,pos60_id5_im1.bmp_pos60_id5_im10.bmp,['Im_KeanuReeves.png', 'Im_LeonardoDiCaprio.png', 'Im_DanielCraig.png', 'Im_HughJackman.png', 'Im_DanielRadcliffe.png', 'Im_RobertDowneyJr.png', 'Im_BenStiller.png', 'Im_BradPitt.png', 'Im_ElijahWood.png', 'Im_GeorgeClooney.png'],same,1,0.4832250999999701,1,76.19047619047619,
FRKA0706,train,pos,0,pos0_id4_im7.bmp_pos0_id11_im2.bmp,['Im_KeanuReeves.png', 'Im_LeonardoDiCaprio.png', 'Im_DanielCraig.png', 'Im_HughJackman.png', 'Im_DanielRadcliffe.png', 'Im_RobertDowneyJr.png', 'Im_BenStiller.png', 'Im_BradPitt.png', 'Im_ElijahWood.png', 'Im_GeorgeClooney.png'],diff,1,0.4081524999999715,2,76.19047619047619,
FRKA0706,train,pos,60,pos60_id5_im20.bmp_pos60_id8_im21.bmp,['Im_KeanuReeves.png', 'Im_LeonardoDiCaprio.png', 'Im_DanielCraig.png', 'Im_HughJackman.png', 'Im_DanielRadcliffe.png', 'Im_RobertDowneyJr.png', 'Im_BenStiller.png', 'Im_BradPitt.png', 'Im_ElijahWood.png', 'Im_GeorgeClooney.png'],diff,1,0.49189889999996694,3,76.19047619047619,
FRKA0706,train,pos,30,pos30_id7_im15.bmp_pos30_id4_im20.bmp,['Im_KeanuReeves.png', 'Im_LeonardoDiCaprio.png', 'Im_DanielCraig.png', 'Im_HughJackman.png', 'Im_DanielRadcliffe.png', 'Im_RobertDowneyJr.png', 'Im_BenStiller.png', 'Im_BradPitt.png', 'Im_ElijahWood.png', 'Im_GeorgeClooney.png'],diff,1,0.4502198000000135,4,76.19047619047619,
FRKA0706,train,pos,120,pos120_id11_im10.bmp_pos120_id5_im10.bmp,['Im_KeanuReeves.png', 'Im_LeonardoDiCaprio.png', 'Im_DanielCraig.png', 'Im_HughJackman.png', 'Im_DanielRadcliffe.png', 'Im_RobertDowneyJr.png', 'Im_BenStiller.png', 'Im_BradPitt.png', 'Im_ElijahWood.png', 'Im_GeorgeClooney.png'],diff,1,0.4083934999999883,5,76.19047619047619,
FRKA0706,train,pos,30,pos30_id13_im15.bmp_pos30_id3_im17.bmp,['Im_KeanuReeves.png', 'Im_LeonardoDiCaprio.png', 'Im_DanielCraig.png', 'Im_HughJackman.png', 'Im_DanielRadcliffe.png', 'Im_RobertDowneyJr.png', 'Im_BenStiller.png', 'Im_BradPitt.png', 'Im_ElijahWood.png', 'Im_GeorgeClooney.png'],diff,1,0.3999787999999853,6,76.19047619047619,
FRKA0706,train,pos,150,pos150_id11_im1.bmp_pos150_id5_im1.bmp,['Im_KeanuReeves.png', 'Im_LeonardoDiCaprio.png', 'Im_DanielCraig.png', 'Im_HughJackman.png', 'Im_DanielRadcliffe.png', 'Im_RobertDowneyJr.png', 'Im_BenStiller.png', 'Im_BradPitt.png', 'Im_ElijahWood.png', 'Im_GeorgeClooney.png'],diff,1,0.6083491999999637,7,76.19047619047619,
FRKA0706,train,pos,90,pos90_id18_im18.bmp_pos90_id7_im15.bmp,['Im_KeanuReeves.png', 'Im_LeonardoDiCaprio.png', 'Im_DanielCraig.png', 'Im_HughJackman.png', 'Im_DanielRadcliffe.png', 'Im_RobertDowneyJr.png', 'Im_BenStiller.png', 'Im_BradPitt.png', 'Im_ElijahWood.png', 'Im_GeorgeClooney.png'],diff,1,0.4418254999999931,8,76.19047619047619,
FRKA0706,train,pos,fs,posfs_id11_im2.bmp_posfs_id4_im7.bmp,['Im_KeanuReeves.png', 'Im_LeonardoDiCaprio.png', 'Im_DanielCraig.png', 'Im_HughJackman.png', 'Im_DanielRadcliffe.png', 'Im_RobertDowneyJr.png', 'Im_BenStiller.png', 'Im_BradPitt.png', 'Im_ElijahWood.png', 'Im_GeorgeClooney.png'],diff,1,0.541665499999965,9,76.19047619047619,
FRKA0706,train,pos,150,pos150_id5_im20.bmp_pos150_id5_im1.bmp,['Im_KeanuReeves.png', 'Im_LeonardoDiCaprio.png', 'Im_DanielCraig.png', 'Im_HughJackman.png', 'Im_DanielRadcliffe.png', 'Im_RobertDowneyJr.png', 'Im_BenStiller.png', 'Im_BradPitt.png', 'Im_ElijahWood.png', 'Im_GeorgeClooney.png'],diff,0,0.8915700999999672,9,76.19047619047619,
FRKA0706,train,pos,120,pos120_id2_im2.bmp_pos120_id2_im16.bmp,['Im_KeanuReeves.png', 'Im_LeonardoDiCaprio.png', 'Im_DanielCraig.png', 'Im_HughJackman.png', 'Im_DanielRadcliffe.png', 'Im_RobertDowneyJr.png', 'Im_BenStiller.png', 'Im_BradPitt.png', 'Im_ElijahWood.png', 'Im_GeorgeClooney.png'],same,1,0.4167312999999808,10,76.19047619047619,
FRKA0706,train,pos,fs,posfs_id6_im12.bmp_posfs_id6_im19.bmp,['Im_KeanuReeves.png', 'Im_LeonardoDiCaprio.png', 'Im_DanielCraig.png', 'Im_HughJackman.png', 'Im_DanielRadcliffe.png', 'Im_RobertDowneyJr.png', 'Im_BenStiller.png', 'Im_BradPitt.png', 'Im_ElijahWood.png', 'Im_GeorgeClooney.png'],same,1,0.46639790000000403,11,76.19047619047619,
FRKA0706,train,pos,0,pos0_id2_im3.bmp_pos0_id2_im16.bmp,['Im_KeanuReeves.png', 'Im_LeonardoDiCaprio.png', 'Im_DanielCraig.png', 'Im_HughJackman.png', 'Im_DanielRadcliffe.png', 'Im_RobertDowneyJr.png', 'Im_BenStiller.png', 'Im_BradPitt.png', 'Im_ElijahWood.png', 'Im_GeorgeClooney.png'],same,1,0.4168626999999674,12,76.19047619047619,
FRKA0706,train,pos,90,pos90_id11_im2.bmp_pos90_id4_im7.bmp,['Im_KeanuReeves.png', 'Im_LeonardoDiCaprio.png', 'Im_DanielCraig.png', 'Im_HughJackman.png', 'Im_DanielRadcliffe.png', 'Im_RobertDowneyJr.png', 'Im_BenStiller.png', 'Im_BradPitt.png', 'Im_ElijahWood.png', 'Im_GeorgeClooney.png'],diff,1,0.4083928999999671,13,76.19047619047619,
FRKA0706,train,inv,90,pos90_id11_im2.bmp_pos90_id11_im10.bmp,['Im_KeanuReeves.png', 'Im_LeonardoDiCaprio.png', 'Im_DanielCraig.png', 'Im_HughJackman.png', 'Im_DanielRadcliffe.png', 'Im_RobertDowneyJr.png', 'Im_BenStiller.png', 'Im_BradPitt.png', 'Im_ElijahWood.png', 'Im_GeorgeClooney.png'],diff,0,0.416872499999954,13,76.19047619047619,
FRKA0706,train,inv,150,pos150_id6_im12.bmp_pos150_id7_im14.bmp,['Im_KeanuReeves.png', 'Im_LeonardoDiCaprio.png', 'Im_DanielCraig.png', 'Im_HughJackman.png', 'Im_DanielRadcliffe.png', 'Im_RobertDowneyJr.png', 'Im_BenStiller.png', 'Im_BradPitt.png', 'Im_ElijahWood.png', 'Im_GeorgeClooney.png'],diff,1,0.4919262999999887,14,76.19047619047619,
FRKA0706,train,inv,60,pos60_id4_im20.bmp_pos60_id7_im15.bmp,['Im_KeanuReeves.png', 'Im_LeonardoDiCaprio.png', 'Im_DanielCraig.png', 'Im_HughJackman.png', 'Im_DanielRadcliffe.png', 'Im_RobertDowneyJr.png', 'Im_BenStiller.png', 'Im_BradPitt.png', 'Im_ElijahWood.png', 'Im_GeorgeClooney.png'],same,0,0.4085359999999696,14,76.19047619047619,
FRKA0706,train,inv,30,pos30_id7_im26.bmp_pos30_id7_im14.bmp,['Im_KeanuReeves.png', 'Im_LeonardoDiCaprio.png', 'Im_DanielCraig.png', 'Im_HughJackman.png', 'Im_DanielRadcliffe.png', 'Im_RobertDowneyJr.png', 'Im_BenStiller.png', 'Im_BradPitt.png', 'Im_ElijahWood.png', 'Im_GeorgeClooney.png'],same,1,0.5335920999999644,15,76.19047619047619,
FRKA0706,train,inv,30,pos30_id8_im13.bmp_pos30_id6_im18.bmp,['Im_KeanuReeves.png', 'Im_LeonardoDiCaprio.png', 'Im_DanielCraig.png', 'Im_HughJackman.png', 'Im_DanielRadcliffe.png', 'Im_RobertDowneyJr.png', 'Im_BenStiller.png', 'Im_BradPitt.png', 'Im_ElijahWood.png', 'Im_GeorgeClooney.png'],same,0,0.4336774999999875,15,76.19047619047619,
FRKA0706,train,inv,0,pos0_id7_im14.bmp_pos0_id7_im26.bmp,['Im_KeanuReeves.png', 'Im_LeonardoDiCaprio.png', 'Im_DanielCraig.png', 'Im_HughJackman.png', 'Im_DanielRadcliffe.png', 'Im_RobertDowneyJr.png', 'Im_BenStiller.png', 'Im_BradPitt.png', 'Im_ElijahWood.png', 'Im_GeorgeClooney.png'],diff,0,0.8166370000000143,15,76.19047619047619,
FRKA0706,train,inv,fs,posfs_id2_im3.bmp_posfs_id2_im16.bmp,['Im_KeanuReeves.png', 'Im_LeonardoDiCaprio.png', 'Im_DanielCraig.png', 'Im_HughJackman.png', 'Im_DanielRadcliffe.png', 'Im_RobertDowneyJr.png', 'Im_BenStiller.png', 'Im_BradPitt.png', 'Im_ElijahWood.png', 'Im_GeorgeClooney.png'],same,1,0.4167972999999847,16,76.19047619047619,
FRKA0706,train,inv,fs,posfs_id3_im8.bmp_posfs_id13_im10.bmp,['Im_KeanuReeves.png', 'Im_LeonardoDiCaprio.png', 'Im_DanielCraig.png', 'Im_HughJackman.png', 'Im_DanielRadcliffe.png', 'Im_RobertDowneyJr.png', 'Im_BenStiller.png', 'Im_BradPitt.png', 'Im_ElijahWood.png', 'Im_GeorgeClooney.png'],diff,1,0.43368899999995847,17,76.19047619047619,
FRKA0706,train,inv,0,pos0_id2_im2.bmp_pos0_id11_im10.bmp,['Im_KeanuReeves.png', 'Im_LeonardoDiCaprio.png', 'Im_DanielCraig.png', 'Im_HughJackman.png', 'Im_DanielRadcliffe.png', 'Im_RobertDowneyJr.png', 'Im_BenStiller.png', 'Im_BradPitt.png', 'Im_ElijahWood.png', 'Im_GeorgeClooney.png'],diff,1,0.4001974999999902,18,76.19047619047619,
FRKA0706,train,inv,60,pos60_id5_im20.bmp_pos60_id2_im16.bmp,['Im_KeanuReeves.png', 'Im_LeonardoDiCaprio.png', 'Im_DanielCraig.png', 'Im_HughJackman.png', 'Im_DanielRadcliffe.png', 'Im_RobertDowneyJr.png', 'Im_BenStiller.png', 'Im_BradPitt.png', 'Im_ElijahWood.png', 'Im_GeorgeClooney.png'],diff,1,0.5167238000000225,19,76.19047619047619,
FRKA0706,train,inv,120,pos120_id7_im26.bmp_pos120_id7_im15.bmp,['Im_KeanuReeves.png', 'Im_LeonardoDiCaprio.png', 'Im_DanielCraig.png', 'Im_HughJackman.png', 'Im_DanielRadcliffe.png', 'Im_RobertDowneyJr.png', 'Im_BenStiller.png', 'Im_BradPitt.png', 'Im_ElijahWood.png', 'Im_GeorgeClooney.png'],same,1,0.40004619999996294,20,76.19047619047619,
FRKA0706,train,inv,90,pos90_id13_im15.bmp_pos90_id13_im29.bmp,['Im_KeanuReeves.png', 'Im_LeonardoDiCaprio.png', 'Im_DanielCraig.png', 'Im_HughJackman.png', 'Im_DanielRadcliffe.png', 'Im_RobertDowneyJr.png', 'Im_BenStiller.png', 'Im_BradPitt.png', 'Im_ElijahWood.png', 'Im_GeorgeClooney.png'],diff,0,0.5669035999999892,20,76.19047619047619,
FRKA0706,train,inv,150,pos150_id5_im10.bmp_pos150_id5_im20.bmp,['Im_KeanuReeves.png', 'Im_LeonardoDiCaprio.png', 'Im_DanielCraig.png', 'Im_HughJackman.png', 'Im_DanielRadcliffe.png', 'Im_RobertDowneyJr.png', 'Im_BenStiller.png', 'Im_BradPitt.png', 'Im_ElijahWood.png', 'Im_GeorgeClooney.png'],diff,0,0.4330287999999882,20,76.19047619047619,
FRKA0706,train,inv,120,pos120_id11_im10.bmp_pos120_id11_im1.bmp,['Im_KeanuReeves.png', 'Im_LeonardoDiCaprio.png', 'Im_DanielCraig.png', 'Im_HughJackman.png', 'Im_DanielRadcliffe.png', 'Im_RobertDowneyJr.png', 'Im_BenStiller.png', 'Im_BradPitt.png', 'Im_ElijahWood.png', 'Im_GeorgeClooney.png'],diff,0,0.43332500000002483,20,76.19047619047619,
FRKA0706,train,pos,0,pos0_id8_im13.bmp_pos0_id6_im18.bmp,['Im_KeanuReeves.png', 'Im_LeonardoDiCaprio.png', 'Im_DanielCraig.png', 'Im_HughJackman.png', 'Im_DanielRadcliffe.png', 'Im_RobertDowneyJr.png', 'Im_BenStiller.png', 'Im_BradPitt.png', 'Im_ElijahWood.png', 'Im_GeorgeClooney.png'],same,0,0.4165527000000111,20,76.19047619047619,
FRKA0706,train,pos,90,pos90_id7_im15.bmp_pos90_id4_im20.bmp,['Im_KeanuReeves.png', 'Im_LeonardoDiCaprio.png', 'Im_DanielCraig.png', 'Im_HughJackman.png', 'Im_DanielRadcliffe.png', 'Im_RobertDowneyJr.png', 'Im_BenStiller.png', 'Im_BradPitt.png', 'Im_ElijahWood.png', 'Im_GeorgeClooney.png'],diff,1,0.4168303000000151,21,76.19047619047619,
FRKA0706,train,pos,30,pos30_id13_im29.bmp_pos30_id5_im1.bmp,['Im_KeanuReeves.png', 'Im_LeonardoDiCaprio.png', 'Im_DanielCraig.png', 'Im_HughJackman.png', 'Im_DanielRadcliffe.png', 'Im_RobertDowneyJr.png', 'Im_BenStiller.png', 'Im_BradPitt.png', 'Im_ElijahWood.png', 'Im_GeorgeClooney.png'],diff,1,0.4165454999999838,22,76.19047619047619,
FRKA0706,train,pos,90,pos90_id13_im10.bmp_pos90_id13_im15.bmp,['Im_KeanuReeves.png', 'Im_LeonardoDiCaprio.png', 'Im_DanielCraig.png', 'Im_HughJackman.png', 'Im_DanielRadcliffe.png', 'Im_RobertDowneyJr.png', 'Im_BenStiller.png', 'Im_BradPitt.png', 'Im_ElijahWood.png', 'Im_GeorgeClooney.png'],same,1,0.4168523999999252,23,76.19047619047619,
FRKA0706,train,pos,150,pos150_id6_im18.bmp_pos150_id6_im19.bmp,['Im_KeanuReeves.png', 'Im_LeonardoDiCaprio.png', 'Im_DanielCraig.png', 'Im_HughJackman.png', 'Im_DanielRadcliffe.png', 'Im_RobertDowneyJr.png', 'Im_BenStiller.png', 'Im_BradPitt.png', 'Im_ElijahWood.png', 'Im_GeorgeClooney.png'],same,1,0.39990420000003724,24,76.19047619047619,
FRKA0706,train,pos,30,pos30_id7_im15.bmp_pos30_id7_im26.bmp,['Im_KeanuReeves.png', 'Im_LeonardoDiCaprio.png', 'Im_DanielCraig.png', 'Im_HughJackman.png', 'Im_DanielRadcliffe.png', 'Im_RobertDowneyJr.png', 'Im_BenStiller.png', 'Im_BradPitt.png', 'Im_ElijahWood.png', 'Im_GeorgeClooney.png'],same,1,0.6169517999999243,25,76.19047619047619,
FRKA0706,train,pos,150,pos150_id18_im18.bmp_pos150_id18_im11.bmp,['Im_KeanuReeves.png', 'Im_LeonardoDiCaprio.png', 'Im_DanielCraig.png', 'Im_HughJackman.png', 'Im_DanielRadcliffe.png', 'Im_RobertDowneyJr.png', 'Im_BenStiller.png', 'Im_BradPitt.png', 'Im_ElijahWood.png', 'Im_GeorgeClooney.png'],same,1,0.5500557999999955,26,76.19047619047619,
FRKA0706,train,pos,60,pos60_id7_im26.bmp_pos60_id7_im15.bmp,['Im_KeanuReeves.png', 'Im_LeonardoDiCaprio.png', 'Im_DanielCraig.png', 'Im_HughJackman.png', 'Im_DanielRadcliffe.png', 'Im_RobertDowneyJr.png', 'Im_BenStiller.png', 'Im_BradPitt.png', 'Im_ElijahWood.png', 'Im_GeorgeClooney.png'],same,1,0.41684699999996155,27,76.19047619047619,
FRKA0706,train,pos,0,pos0_id5_im10.bmp_pos0_id2_im3.bmp,['Im_KeanuReeves.png', 'Im_LeonardoDiCaprio.png', 'Im_DanielCraig.png', 'Im_HughJackman.png', 'Im_DanielRadcliffe.png', 'Im_RobertDowneyJr.png', 'Im_BenStiller.png', 'Im_BradPitt.png', 'Im_ElijahWood.png', 'Im_GeorgeClooney.png'],diff,1,0.40852460000007795,28,76.19047619047619,
FRKA0706,train,pos,120,pos120_id5_im20.bmp_pos120_id8_im21.bmp,['Im_KeanuReeves.png', 'Im_LeonardoDiCaprio.png', 'Im_DanielCraig.png', 'Im_HughJackman.png', 'Im_DanielRadcliffe.png', 'Im_RobertDowneyJr.png', 'Im_BenStiller.png', 'Im_BradPitt.png', 'Im_ElijahWood.png', 'Im_GeorgeClooney.png'],same,0,0.6001554000000624,28,76.19047619047619,
FRKA0706,train,pos,60,pos60_id4_im20.bmp_pos60_id7_im26.bmp,['Im_KeanuReeves.png', 'Im_LeonardoDiCaprio.png', 'Im_DanielCraig.png', 'Im_HughJackman.png', 'Im_DanielRadcliffe.png', 'Im_RobertDowneyJr.png', 'Im_BenStiller.png', 'Im_BradPitt.png', 'Im_ElijahWood.png', 'Im_GeorgeClooney.png'],diff,1,0.4081459999999879,29,76.19047619047619,
FRKA0706,train,pos,fs,posfs_id8_im20.bmp_posfs_id3_im6.bmp,['Im_KeanuReeves.png', 'Im_LeonardoDiCaprio.png', 'Im_DanielCraig.png', 'Im_HughJackman.png', 'Im_DanielRadcliffe.png', 'Im_RobertDowneyJr.png', 'Im_BenStiller.png', 'Im_BradPitt.png', 'Im_ElijahWood.png', 'Im_GeorgeClooney.png'],diff,1,0.41662990000008904,30,76.19047619047619,
FRKA0706,train,pos,120,pos120_id3_im6.bmp_pos120_id8_im20.bmp,['Im_KeanuReeves.png', 'Im_LeonardoDiCaprio.png', 'Im_DanielCraig.png', 'Im_HughJackman.png', 'Im_DanielRadcliffe.png', 'Im_RobertDowneyJr.png', 'Im_BenStiller.png', 'Im_BradPitt.png', 'Im_ElijahWood.png', 'Im_GeorgeClooney.png'],diff,1,0.41684280000004037,31,76.19047619047619,
FRKA0706,train,pos,fs,posfs_id13_im10.bmp_posfs_id18_im18.bmp,['Im_KeanuReeves.png', 'Im_LeonardoDiCaprio.png', 'Im_DanielCraig.png', 'Im_HughJackman.png', 'Im_DanielRadcliffe.png', 'Im_RobertDowneyJr.png', 'Im_BenStiller.png', 'Im_BradPitt.png', 'Im_ElijahWood.png', 'Im_GeorgeClooney.png'],diff,1,0.4666963999999325,32,76.19047619047619,
FRKA0706,0,pos,60,pos60_id11_im2.bmp_pos60_id4_im7.bmp,['Im_KeanuReeves.png', 'Im_LeonardoDiCaprio.png', 'Im_DanielCraig.png', 'Im_HughJackman.png', 'Im_DanielRadcliffe.png', 'Im_RobertDowneyJr.png', 'Im_BenStiller.png', 'Im_BradPitt.png', 'Im_ElijahWood.png', 'Im_GeorgeClooney.png'],diff,1,0.4083899999999403,1,0,
FRKA0706,0,pos,60,pos60_id4_im15.bmp_pos60_id4_im20.bmp,['Im_KeanuReeves.png', 'Im_LeonardoDiCaprio.png', 'Im_DanielCraig.png', 'Im_HughJackman.png', 'Im_DanielRadcliffe.png', 'Im_RobertDowneyJr.png', 'Im_BenStiller.png', 'Im_BradPitt.png', 'Im_ElijahWood.png', 'Im_GeorgeClooney.png'],same,1,0.40007279999997536,2,0,
FRKA0706,0,pos,90,pos90_id11_im10.bmp_pos90_id11_im1.bmp,['Im_KeanuReeves.png', 'Im_LeonardoDiCaprio.png', 'Im_DanielCraig.png', 'Im_HughJackman.png', 'Im_DanielRadcliffe.png', 'Im_RobertDowneyJr.png', 'Im_BenStiller.png', 'Im_BradPitt.png', 'Im_ElijahWood.png', 'Im_GeorgeClooney.png'],same,1,0.4586699999999837,3,0,
FRKA0706,0,pos,30,pos30_id11_im2.bmp_pos30_id11_im10.bmp,['Im_KeanuReeves.png', 'Im_LeonardoDiCaprio.png', 'Im_DanielCraig.png', 'Im_HughJackman.png', 'Im_DanielRadcliffe.png', 'Im_RobertDowneyJr.png', 'Im_BenStiller.png', 'Im_BradPitt.png', 'Im_ElijahWood.png', 'Im_GeorgeClooney.png'],same,1,0.4000788000000739,4,0,
FRKA0706,0,pos,120,pos120_id6_im18.bmp_pos120_id8_im13.bmp,['Im_KeanuReeves.png', 'Im_LeonardoDiCaprio.png', 'Im_DanielCraig.png', 'Im_HughJackman.png', 'Im_DanielRadcliffe.png', 'Im_RobertDowneyJr.png', 'Im_BenStiller.png', 'Im_BradPitt.png', 'Im_ElijahWood.png', 'Im_GeorgeClooney.png'],diff,1,0.4084088999999267,5,0,
FRKA0706,0,pos,0,pos0_id11_im1.bmp_pos0_id11_im10.bmp,['Im_KeanuReeves.png', 'Im_LeonardoDiCaprio.png', 'Im_DanielCraig.png', 'Im_HughJackman.png', 'Im_DanielRadcliffe.png', 'Im_RobertDowneyJr.png', 'Im_BenStiller.png', 'Im_BradPitt.png', 'Im_ElijahWood.png', 'Im_GeorgeClooney.png'],same,1,0.40839260000007016,6,0,
FRKA0706,0,pos,30,pos30_id6_im18.bmp_pos30_id6_im19.bmp,['Im_KeanuReeves.png', 'Im_LeonardoDiCaprio.png', 'Im_DanielCraig.png', 'Im_HughJackman.png', 'Im_DanielRadcliffe.png', 'Im_RobertDowneyJr.png', 'Im_BenStiller.png', 'Im_BradPitt.png', 'Im_ElijahWood.png', 'Im_GeorgeClooney.png'],same,1,0.40838059999998677,7,0,
FRKA0706,0,pos,120,pos120_id8_im21.bmp_pos120_id8_im13.bmp,['Im_KeanuReeves.png', 'Im_LeonardoDiCaprio.png', 'Im_DanielCraig.png', 'Im_HughJackman.png', 'Im_DanielRadcliffe.png', 'Im_RobertDowneyJr.png', 'Im_BenStiller.png', 'Im_BradPitt.png', 'Im_ElijahWood.png', 'Im_GeorgeClooney.png'],same,1,0.40833680000002914,8,0,
FRKA0706,0,pos,150,pos150_id8_im21.bmp_pos150_id8_im13.bmp,['Im_KeanuReeves.png', 'Im_LeonardoDiCaprio.png', 'Im_DanielCraig.png', 'Im_HughJackman.png', 'Im_DanielRadcliffe.png', 'Im_RobertDowneyJr.png', 'Im_BenStiller.png', 'Im_BradPitt.png', 'Im_ElijahWood.png', 'Im_GeorgeClooney.png'],same,1,0.40830770000002303,9,0,
FRKA0706,0,pos,150,pos150_id3_im17.bmp_pos150_id3_im6.bmp,['Im_KeanuReeves.png', 'Im_LeonardoDiCaprio.png', 'Im_DanielCraig.png', 'Im_HughJackman.png', 'Im_DanielRadcliffe.png', 'Im_RobertDowneyJr.png', 'Im_BenStiller.png', 'Im_BradPitt.png', 'Im_ElijahWood.png', 'Im_GeorgeClooney.png'],same,1,1.025180700000078,10,0,
FRKA0706,0,pos,90,pos90_id18_im11.bmp_pos90_id7_im26.bmp,['Im_KeanuReeves.png', 'Im_LeonardoDiCaprio.png', 'Im_DanielCraig.png', 'Im_HughJackman.png', 'Im_DanielRadcliffe.png', 'Im_RobertDowneyJr.png', 'Im_BenStiller.png', 'Im_BradPitt.png', 'Im_ElijahWood.png', 'Im_GeorgeClooney.png'],diff,1,0.5749104999999872,11,0,
FRKA0706,0,pos,fs,posfs_id18_im19.bmp_posfs_id18_im11.bmp,['Im_KeanuReeves.png', 'Im_LeonardoDiCaprio.png', 'Im_DanielCraig.png', 'Im_HughJackman.png', 'Im_DanielRadcliffe.png', 'Im_RobertDowneyJr.png', 'Im_BenStiller.png', 'Im_BradPitt.png', 'Im_ElijahWood.png', 'Im_GeorgeClooney.png'],diff,0,0.45027249999998276,11,0,
FRKA0706,0,pos,fs,posfs_id4_im15.bmp_posfs_id18_im11.bmp,['Im_KeanuReeves.png', 'Im_LeonardoDiCaprio.png', 'Im_DanielCraig.png', 'Im_HughJackman.png', 'Im_DanielRadcliffe.png', 'Im_RobertDowneyJr.png', 'Im_BenStiller.png', 'Im_BradPitt.png', 'Im_ElijahWood.png', 'Im_GeorgeClooney.png'],diff,1,0.4083781000000499,12,0,
FRKA0706,0,pos,0,pos0_id4_im7.bmp_pos0_id4_im20.bmp,['Im_KeanuReeves.png', 'Im_LeonardoDiCaprio.png', 'Im_DanielCraig.png', 'Im_HughJackman.png', 'Im_DanielRadcliffe.png', 'Im_RobertDowneyJr.png', 'Im_BenStiller.png', 'Im_BradPitt.png', 'Im_ElijahWood.png', 'Im_GeorgeClooney.png'],same,1,0.40032719999999244,13,0,
FRKA0706,1,pos,150,pos150_id8_im13.bmp_pos150_id18_im19.bmp,['Im_KeanuReeves.png', 'Im_LeonardoDiCaprio.png', 'Im_DanielCraig.png', 'Im_HughJackman.png', 'Im_DanielRadcliffe.png', 'Im_RobertDowneyJr.png', 'Im_BenStiller.png', 'Im_BradPitt.png', 'Im_ElijahWood.png', 'Im_GeorgeClooney.png'],diff,1,0.4167431000000761,14,0,
FRKA0706,1,pos,150,pos150_id4_im20.bmp_pos150_id7_im26.bmp,['Im_KeanuReeves.png', 'Im_LeonardoDiCaprio.png', 'Im_DanielCraig.png', 'Im_HughJackman.png', 'Im_DanielRadcliffe.png', 'Im_RobertDowneyJr.png', 'Im_BenStiller.png', 'Im_BradPitt.png', 'Im_ElijahWood.png', 'Im_GeorgeClooney.png'],diff,1,0.42526789999999437,15,0,
FRKA0706,1,pos,fs,posfs_id11_im1.bmp_posfs_id7_im14.bmp,['Im_KeanuReeves.png', 'Im_LeonardoDiCaprio.png', 'Im_DanielCraig.png', 'Im_HughJackman.png', 'Im_DanielRadcliffe.png', 'Im_RobertDowneyJr.png', 'Im_BenStiller.png', 'Im_BradPitt.png', 'Im_ElijahWood.png', 'Im_GeorgeClooney.png'],diff,1,0.41671870000004674,16,0,
FRKA0706,1,pos,60,pos60_id7_im15.bmp_pos60_id7_im14.bmp,['Im_KeanuReeves.png', 'Im_LeonardoDiCaprio.png', 'Im_DanielCraig.png', 'Im_HughJackman.png', 'Im_DanielRadcliffe.png', 'Im_RobertDowneyJr.png', 'Im_BenStiller.png', 'Im_BradPitt.png', 'Im_ElijahWood.png', 'Im_GeorgeClooney.png'],same,1,0.533403900000053,17,0,
FRKA0706,1,pos,90,pos90_id4_im20.bmp_pos90_id7_im26.bmp,['Im_KeanuReeves.png', 'Im_LeonardoDiCaprio.png', 'Im_DanielCraig.png', 'Im_HughJackman.png', 'Im_DanielRadcliffe.png', 'Im_RobertDowneyJr.png', 'Im_BenStiller.png', 'Im_BradPitt.png', 'Im_ElijahWood.png', 'Im_GeorgeClooney.png'],diff,1,0.4335175999999592,18,0,
FRKA0706,1,pos,30,pos30_id13_im29.bmp_pos30_id13_im15.bmp,['Im_KeanuReeves.png', 'Im_LeonardoDiCaprio.png', 'Im_DanielCraig.png', 'Im_HughJackman.png', 'Im_DanielRadcliffe.png', 'Im_RobertDowneyJr.png', 'Im_BenStiller.png', 'Im_BradPitt.png', 'Im_ElijahWood.png', 'Im_GeorgeClooney.png'],same,1,0.4250371000000541,19,0,
FRKA0706,1,pos,60,pos60_id8_im13.bmp_pos60_id18_im19.bmp,['Im_KeanuReeves.png', 'Im_LeonardoDiCaprio.png', 'Im_DanielCraig.png', 'Im_HughJackman.png', 'Im_DanielRadcliffe.png', 'Im_RobertDowneyJr.png', 'Im_BenStiller.png', 'Im_BradPitt.png', 'Im_ElijahWood.png', 'Im_GeorgeClooney.png'],diff,1,0.41674079999995683,20,0,
FRKA0706,1,pos,0,pos0_id3_im6.bmp_pos0_id3_im17.bmp,['Im_KeanuReeves.png', 'Im_LeonardoDiCaprio.png', 'Im_DanielCraig.png', 'Im_HughJackman.png', 'Im_DanielRadcliffe.png', 'Im_RobertDowneyJr.png', 'Im_BenStiller.png', 'Im_BradPitt.png', 'Im_ElijahWood.png', 'Im_GeorgeClooney.png'],diff,0,0.5082353999999896,20,0,
FRKA0706,1,pos,0,pos0_id8_im20.bmp_pos0_id3_im6.bmp,['Im_KeanuReeves.png', 'Im_LeonardoDiCaprio.png', 'Im_DanielCraig.png', 'Im_HughJackman.png', 'Im_DanielRadcliffe.png', 'Im_RobertDowneyJr.png', 'Im_BenStiller.png', 'Im_BradPitt.png', 'Im_ElijahWood.png', 'Im_GeorgeClooney.png'],diff,1,0.4248758999999609,21,0,
FRKA0706,1,pos,120,pos120_id7_im14.bmp_pos120_id6_im12.bmp,['Im_KeanuReeves.png', 'Im_LeonardoDiCaprio.png', 'Im_DanielCraig.png', 'Im_HughJackman.png', 'Im_DanielRadcliffe.png', 'Im_RobertDowneyJr.png', 'Im_BenStiller.png', 'Im_BradPitt.png', 'Im_ElijahWood.png', 'Im_GeorgeClooney.png'],diff,1,0.4250174999999672,22,0,
FRKA0706,1,pos,90,pos90_id4_im15.bmp_pos90_id4_im20.bmp,['Im_KeanuReeves.png', 'Im_LeonardoDiCaprio.png', 'Im_DanielCraig.png', 'Im_HughJackman.png', 'Im_DanielRadcliffe.png', 'Im_RobertDowneyJr.png', 'Im_BenStiller.png', 'Im_BradPitt.png', 'Im_ElijahWood.png', 'Im_GeorgeClooney.png'],same,1,0.42525499999999283,23,0,
FRKA0706,1,pos,120,pos120_id13_im29.bmp_pos120_id13_im10.bmp,['Im_KeanuReeves.png', 'Im_LeonardoDiCaprio.png', 'Im_DanielCraig.png', 'Im_HughJackman.png', 'Im_DanielRadcliffe.png', 'Im_RobertDowneyJr.png', 'Im_BenStiller.png', 'Im_BradPitt.png', 'Im_ElijahWood.png', 'Im_GeorgeClooney.png'],same,1,0.41648220000001857,24,0,
FRKA0706,1,pos,fs,posfs_id8_im20.bmp_posfs_id8_im13.bmp,['Im_KeanuReeves.png', 'Im_LeonardoDiCaprio.png', 'Im_DanielCraig.png', 'Im_HughJackman.png', 'Im_DanielRadcliffe.png', 'Im_RobertDowneyJr.png', 'Im_BenStiller.png', 'Im_BradPitt.png', 'Im_ElijahWood.png', 'Im_GeorgeClooney.png'],same,1,0.41673769999999877,25,0,
FRKA0706,1,pos,30,pos30_id3_im6.bmp_pos30_id3_im8.bmp,['Im_KeanuReeves.png', 'Im_LeonardoDiCaprio.png', 'Im_DanielCraig.png', 'Im_HughJackman.png', 'Im_DanielRadcliffe.png', 'Im_RobertDowneyJr.png', 'Im_BenStiller.png', 'Im_BradPitt.png', 'Im_ElijahWood.png', 'Im_GeorgeClooney.png'],same,1,0.416675600000076,26,0,
FRKA0706,2,inv,120,pos120_id4_im15.bmp_pos120_id4_im20.bmp,['Im_KeanuReeves.png', 'Im_LeonardoDiCaprio.png', 'Im_DanielCraig.png', 'Im_HughJackman.png', 'Im_DanielRadcliffe.png', 'Im_RobertDowneyJr.png', 'Im_BenStiller.png', 'Im_BradPitt.png', 'Im_ElijahWood.png', 'Im_GeorgeClooney.png'],diff,0,0.4167650000000549,26,0,
FRKA0706,2,inv,30,pos30_id4_im15.bmp_pos30_id18_im11.bmp,['Im_KeanuReeves.png', 'Im_LeonardoDiCaprio.png', 'Im_DanielCraig.png', 'Im_HughJackman.png', 'Im_DanielRadcliffe.png', 'Im_RobertDowneyJr.png', 'Im_BenStiller.png', 'Im_BradPitt.png', 'Im_ElijahWood.png', 'Im_GeorgeClooney.png'],same,0,0.416694800000073,26,0,
FRKA0706,2,inv,60,pos60_id5_im20.bmp_pos60_id8_im21.bmp,['Im_KeanuReeves.png', 'Im_LeonardoDiCaprio.png', 'Im_DanielCraig.png', 'Im_HughJackman.png', 'Im_DanielRadcliffe.png', 'Im_RobertDowneyJr.png', 'Im_BenStiller.png', 'Im_BradPitt.png', 'Im_ElijahWood.png', 'Im_GeorgeClooney.png'],diff,1,0.41674460000001545,27,0,
FRKA0706,2,inv,60,pos60_id18_im19.bmp_pos60_id18_im11.bmp,['Im_KeanuReeves.png', 'Im_LeonardoDiCaprio.png', 'Im_DanielCraig.png', 'Im_HughJackman.png', 'Im_DanielRadcliffe.png', 'Im_RobertDowneyJr.png', 'Im_BenStiller.png', 'Im_BradPitt.png', 'Im_ElijahWood.png', 'Im_GeorgeClooney.png'],same,1,0.5004934999999477,28,0,
FRKA0706,2,inv,0,pos0_id11_im10.bmp_pos0_id5_im10.bmp,['Im_KeanuReeves.png', 'Im_LeonardoDiCaprio.png', 'Im_DanielCraig.png', 'Im_HughJackman.png', 'Im_DanielRadcliffe.png', 'Im_RobertDowneyJr.png', 'Im_BenStiller.png', 'Im_BradPitt.png', 'Im_ElijahWood.png', 'Im_GeorgeClooney.png'],diff,1,0.42505980000009913,29,0,
FRKA0706,2,inv,150,pos150_id8_im21.bmp_pos150_id5_im20.bmp,['Im_KeanuReeves.png', 'Im_LeonardoDiCaprio.png', 'Im_DanielCraig.png', 'Im_HughJackman.png', 'Im_DanielRadcliffe.png', 'Im_RobertDowneyJr.png', 'Im_BenStiller.png', 'Im_BradPitt.png', 'Im_ElijahWood.png', 'Im_GeorgeClooney.png'],diff,1,0.4249333000000206,30,0,
FRKA0706,2,inv,fs,posfs_id11_im2.bmp_posfs_id11_im1.bmp,['Im_KeanuReeves.png', 'Im_LeonardoDiCaprio.png', 'Im_DanielCraig.png', 'Im_HughJackman.png', 'Im_DanielRadcliffe.png', 'Im_RobertDowneyJr.png', 'Im_BenStiller.png', 'Im_BradPitt.png', 'Im_ElijahWood.png', 'Im_GeorgeClooney.png'],same,1,0.4250167000000147,31,0,
FRKA0706,2,inv,fs,posfs_id2_im3.bmp_posfs_id6_im19.bmp,['Im_KeanuReeves.png', 'Im_LeonardoDiCaprio.png', 'Im_DanielCraig.png', 'Im_HughJackman.png', 'Im_DanielRadcliffe.png', 'Im_RobertDowneyJr.png', 'Im_BenStiller.png', 'Im_BradPitt.png', 'Im_ElijahWood.png', 'Im_GeorgeClooney.png'],diff,1,0.4167545999999902,32,0,
FRKA0706,2,inv,90,pos90_id7_im26.bmp_pos90_id7_im14.bmp,['Im_KeanuReeves.png', 'Im_LeonardoDiCaprio.png', 'Im_DanielCraig.png', 'Im_HughJackman.png', 'Im_DanielRadcliffe.png', 'Im_RobertDowneyJr.png', 'Im_BenStiller.png', 'Im_BradPitt.png', 'Im_ElijahWood.png', 'Im_GeorgeClooney.png'],same,1,0.6585893999999826,33,0,
FRKA0706,2,inv,90,pos90_id11_im1.bmp_pos90_id11_im10.bmp,['Im_KeanuReeves.png', 'Im_LeonardoDiCaprio.png', 'Im_DanielCraig.png', 'Im_HughJackman.png', 'Im_DanielRadcliffe.png', 'Im_RobertDowneyJr.png', 'Im_BenStiller.png', 'Im_BradPitt.png', 'Im_ElijahWood.png', 'Im_GeorgeClooney.png'],diff,0,0.4166896000000406,33,0,
FRKA0706,2,inv,150,pos150_id13_im10.bmp_pos150_id18_im18.bmp,['Im_KeanuReeves.png', 'Im_LeonardoDiCaprio.png', 'Im_DanielCraig.png', 'Im_HughJackman.png', 'Im_DanielRadcliffe.png', 'Im_RobertDowneyJr.png', 'Im_BenStiller.png', 'Im_BradPitt.png', 'Im_ElijahWood.png', 'Im_GeorgeClooney.png'],diff,1,0.4336880000000747,34,0,
FRKA0706,2,inv,30,pos30_id11_im2.bmp_pos30_id11_im1.bmp,['Im_KeanuReeves.png', 'Im_LeonardoDiCaprio.png', 'Im_DanielCraig.png', 'Im_HughJackman.png', 'Im_DanielRadcliffe.png', 'Im_RobertDowneyJr.png', 'Im_BenStiller.png', 'Im_BradPitt.png', 'Im_ElijahWood.png', 'Im_GeorgeClooney.png'],same,1,0.4083967000000257,35,0,
FRKA0706,2,inv,120,pos120_id18_im18.bmp_pos120_id13_im10.bmp,['Im_KeanuReeves.png', 'Im_LeonardoDiCaprio.png', 'Im_DanielCraig.png', 'Im_HughJackman.png', 'Im_DanielRadcliffe.png', 'Im_RobertDowneyJr.png', 'Im_BenStiller.png', 'Im_BradPitt.png', 'Im_ElijahWood.png', 'Im_GeorgeClooney.png'],diff,1,0.4333224000000655,36,0,
FRKA0706,2,inv,0,pos0_id7_im15.bmp_pos0_id4_im20.bmp,['Im_KeanuReeves.png', 'Im_LeonardoDiCaprio.png', 'Im_DanielCraig.png', 'Im_HughJackman.png', 'Im_DanielRadcliffe.png', 'Im_RobertDowneyJr.png', 'Im_BenStiller.png', 'Im_BradPitt.png', 'Im_ElijahWood.png', 'Im_GeorgeClooney.png'],diff,1,0.6584887999999864,37,0,
FRKA0706,3,neg,60,neg60_id3_im8.bmp_neg60_id13_im10.bmp,['Im_KeanuReeves.png', 'Im_LeonardoDiCaprio.png', 'Im_DanielCraig.png', 'Im_HughJackman.png', 'Im_DanielRadcliffe.png', 'Im_RobertDowneyJr.png', 'Im_BenStiller.png', 'Im_BradPitt.png', 'Im_ElijahWood.png', 'Im_GeorgeClooney.png'],same,0,0.4249360000000024,0,88.0952380952381,
FRKA0706,3,neg,120,neg120_id8_im13.bmp_neg120_id18_im19.bmp,['Im_KeanuReeves.png', 'Im_LeonardoDiCaprio.png', 'Im_DanielCraig.png', 'Im_HughJackman.png', 'Im_DanielRadcliffe.png', 'Im_RobertDowneyJr.png', 'Im_BenStiller.png', 'Im_BradPitt.png', 'Im_ElijahWood.png', 'Im_GeorgeClooney.png'],diff,1,0.42505979999998544,1,88.0952380952381,
FRKA0706,3,neg,90,neg90_id3_im8.bmp_neg90_id13_im10.bmp,['Im_KeanuReeves.png', 'Im_LeonardoDiCaprio.png', 'Im_DanielCraig.png', 'Im_HughJackman.png', 'Im_DanielRadcliffe.png', 'Im_RobertDowneyJr.png', 'Im_BenStiller.png', 'Im_BradPitt.png', 'Im_ElijahWood.png', 'Im_GeorgeClooney.png'],same,0,0.4167158999999856,1,88.0952380952381,
FRKA0706,3,neg,120,neg120_id18_im19.bmp_neg120_id18_im18.bmp,['Im_KeanuReeves.png', 'Im_LeonardoDiCaprio.png', 'Im_DanielCraig.png', 'Im_HughJackman.png', 'Im_DanielRadcliffe.png', 'Im_RobertDowneyJr.png', 'Im_BenStiller.png', 'Im_BradPitt.png', 'Im_ElijahWood.png', 'Im_GeorgeClooney.png'],same,1,0.42521239999996396,2,88.0952380952381,
FRKA0706,3,neg,30,neg30_id2_im16.bmp_neg30_id2_im3.bmp,['Im_KeanuReeves.png', 'Im_LeonardoDiCaprio.png', 'Im_DanielCraig.png', 'Im_HughJackman.png', 'Im_DanielRadcliffe.png', 'Im_RobertDowneyJr.png', 'Im_BenStiller.png', 'Im_BradPitt.png', 'Im_ElijahWood.png', 'Im_GeorgeClooney.png'],same,1,0.42501389999995354,3,88.0952380952381,
FRKA0706,3,neg,30,neg30_id4_im7.bmp_neg30_id4_im20.bmp,['Im_KeanuReeves.png', 'Im_LeonardoDiCaprio.png', 'Im_DanielCraig.png', 'Im_HughJackman.png', 'Im_DanielRadcliffe.png', 'Im_RobertDowneyJr.png', 'Im_BenStiller.png', 'Im_BradPitt.png', 'Im_ElijahWood.png', 'Im_GeorgeClooney.png'],diff,0,0.4251131000000896,3,88.0952380952381,
FRKA0706,3,neg,fs,negfs_id6_im18.bmp_negfs_id8_im13.bmp,['Im_KeanuReeves.png', 'Im_LeonardoDiCaprio.png', 'Im_DanielCraig.png', 'Im_HughJackman.png', 'Im_DanielRadcliffe.png', 'Im_RobertDowneyJr.png', 'Im_BenStiller.png', 'Im_BradPitt.png', 'Im_ElijahWood.png', 'Im_GeorgeClooney.png'],diff,1,0.4167175000000043,4,88.0952380952381,
FRKA0706,3,neg,0,neg0_id5_im20.bmp_neg0_id5_im1.bmp,['Im_KeanuReeves.png', 'Im_LeonardoDiCaprio.png', 'Im_DanielCraig.png', 'Im_HughJackman.png', 'Im_DanielRadcliffe.png', 'Im_RobertDowneyJr.png', 'Im_BenStiller.png', 'Im_BradPitt.png', 'Im_ElijahWood.png', 'Im_GeorgeClooney.png'],same,1,0.5918724000000566,5,88.0952380952381,
FRKA0706,3,neg,90,neg90_id3_im6.bmp_neg90_id8_im20.bmp,['Im_KeanuReeves.png', 'Im_LeonardoDiCaprio.png', 'Im_DanielCraig.png', 'Im_HughJackman.png', 'Im_DanielRadcliffe.png', 'Im_RobertDowneyJr.png', 'Im_BenStiller.png', 'Im_BradPitt.png', 'Im_ElijahWood.png', 'Im_GeorgeClooney.png'],same,0,0.48344750000001113,5,88.0952380952381,
FRKA0706,3,neg,fs,negfs_id7_im26.bmp_negfs_id18_im11.bmp,['Im_KeanuReeves.png', 'Im_LeonardoDiCaprio.png', 'Im_DanielCraig.png', 'Im_HughJackman.png', 'Im_DanielRadcliffe.png', 'Im_RobertDowneyJr.png', 'Im_BenStiller.png', 'Im_BradPitt.png', 'Im_ElijahWood.png', 'Im_GeorgeClooney.png'],diff,1,0.42562370000007377,6,88.0952380952381,
FRKA0706,3,neg,150,neg150_id8_im13.bmp_neg150_id6_im18.bmp,['Im_KeanuReeves.png', 'Im_LeonardoDiCaprio.png', 'Im_DanielCraig.png', 'Im_HughJackman.png', 'Im_DanielRadcliffe.png', 'Im_RobertDowneyJr.png', 'Im_BenStiller.png', 'Im_BradPitt.png', 'Im_ElijahWood.png', 'Im_GeorgeClooney.png'],diff,1,0.41674590000002354,7,88.0952380952381,
FRKA0706,3,neg,0,neg0_id13_im29.bmp_neg0_id13_im10.bmp,['Im_KeanuReeves.png', 'Im_LeonardoDiCaprio.png', 'Im_DanielCraig.png', 'Im_HughJackman.png', 'Im_DanielRadcliffe.png', 'Im_RobertDowneyJr.png', 'Im_BenStiller.png', 'Im_BradPitt.png', 'Im_ElijahWood.png', 'Im_GeorgeClooney.png'],same,1,0.41657020000002376,8,88.0952380952381,
FRKA0706,3,neg,150,neg150_id3_im6.bmp_neg150_id3_im17.bmp,['Im_KeanuReeves.png', 'Im_LeonardoDiCaprio.png', 'Im_DanielCraig.png', 'Im_HughJackman.png', 'Im_DanielRadcliffe.png', 'Im_RobertDowneyJr.png', 'Im_BenStiller.png', 'Im_BradPitt.png', 'Im_ElijahWood.png', 'Im_GeorgeClooney.png'],same,1,0.42507720000003246,9,88.0952380952381,
FRKA0706,3,neg,60,neg60_id4_im7.bmp_neg60_id6_im18.bmp,['Im_KeanuReeves.png', 'Im_LeonardoDiCaprio.png', 'Im_DanielCraig.png', 'Im_HughJackman.png', 'Im_DanielRadcliffe.png', 'Im_RobertDowneyJr.png', 'Im_BenStiller.png', 'Im_BradPitt.png', 'Im_ElijahWood.png', 'Im_GeorgeClooney.png'],diff,1,0.7915906000000632,10,88.0952380952381,
FRKA0706,4,neg,150,neg150_id13_im10.bmp_neg150_id13_im15.bmp,['Im_KeanuReeves.png', 'Im_LeonardoDiCaprio.png', 'Im_DanielCraig.png', 'Im_HughJackman.png', 'Im_DanielRadcliffe.png', 'Im_RobertDowneyJr.png', 'Im_BenStiller.png', 'Im_BradPitt.png', 'Im_ElijahWood.png', 'Im_GeorgeClooney.png'],same,1,0.4167135000000144,11,88.0952380952381,
FRKA0706,4,neg,0,neg0_id6_im18.bmp_neg0_id6_im19.bmp,['Im_KeanuReeves.png', 'Im_LeonardoDiCaprio.png', 'Im_DanielCraig.png', 'Im_HughJackman.png', 'Im_DanielRadcliffe.png', 'Im_RobertDowneyJr.png', 'Im_BenStiller.png', 'Im_BradPitt.png', 'Im_ElijahWood.png', 'Im_GeorgeClooney.png'],diff,0,0.4085223000000724,11,88.0952380952381,
FRKA0706,4,neg,30,neg30_id11_im10.bmp_neg30_id5_im10.bmp,['Im_KeanuReeves.png', 'Im_LeonardoDiCaprio.png', 'Im_DanielCraig.png', 'Im_HughJackman.png', 'Im_DanielRadcliffe.png', 'Im_RobertDowneyJr.png', 'Im_BenStiller.png', 'Im_BradPitt.png', 'Im_ElijahWood.png', 'Im_GeorgeClooney.png'],diff,1,0.4084488999999394,12,88.0952380952381,
FRKA0706,4,neg,90,neg90_id5_im1.bmp_neg90_id5_im20.bmp,['Im_KeanuReeves.png', 'Im_LeonardoDiCaprio.png', 'Im_DanielCraig.png', 'Im_HughJackman.png', 'Im_DanielRadcliffe.png', 'Im_RobertDowneyJr.png', 'Im_BenStiller.png', 'Im_BradPitt.png', 'Im_ElijahWood.png', 'Im_GeorgeClooney.png'],diff,0,0.416801200000009,12,88.0952380952381,
FRKA0706,4,neg,fs,negfs_id13_im10.bmp_negfs_id3_im8.bmp,['Im_KeanuReeves.png', 'Im_LeonardoDiCaprio.png', 'Im_DanielCraig.png', 'Im_HughJackman.png', 'Im_DanielRadcliffe.png', 'Im_RobertDowneyJr.png', 'Im_BenStiller.png', 'Im_BradPitt.png', 'Im_ElijahWood.png', 'Im_GeorgeClooney.png'],diff,1,0.41677370000002156,13,88.0952380952381,
FRKA0706,4,neg,150,neg150_id6_im12.bmp_neg150_id6_im19.bmp,['Im_KeanuReeves.png', 'Im_LeonardoDiCaprio.png', 'Im_DanielCraig.png', 'Im_HughJackman.png', 'Im_DanielRadcliffe.png', 'Im_RobertDowneyJr.png', 'Im_BenStiller.png', 'Im_BradPitt.png', 'Im_ElijahWood.png', 'Im_GeorgeClooney.png'],same,1,0.4250233999999864,14,88.0952380952381,
FRKA0706,4,neg,120,neg120_id6_im19.bmp_neg120_id2_im2.bmp,['Im_KeanuReeves.png', 'Im_LeonardoDiCaprio.png', 'Im_DanielCraig.png', 'Im_HughJackman.png', 'Im_DanielRadcliffe.png', 'Im_RobertDowneyJr.png', 'Im_BenStiller.png', 'Im_BradPitt.png', 'Im_ElijahWood.png', 'Im_GeorgeClooney.png'],diff,1,0.4251845000000003,15,88.0952380952381,
FRKA0706,4,neg,30,neg30_id4_im15.bmp_neg30_id18_im11.bmp,['Im_KeanuReeves.png', 'Im_LeonardoDiCaprio.png', 'Im_DanielCraig.png', 'Im_HughJackman.png', 'Im_DanielRadcliffe.png', 'Im_RobertDowneyJr.png', 'Im_BenStiller.png', 'Im_BradPitt.png', 'Im_ElijahWood.png', 'Im_GeorgeClooney.png'],diff,1,0.43339130000003934,16,88.0952380952381,
FRKA0706,4,neg,60,neg60_id18_im19.bmp_neg60_id18_im11.bmp,['Im_KeanuReeves.png', 'Im_LeonardoDiCaprio.png', 'Im_DanielCraig.png', 'Im_HughJackman.png', 'Im_DanielRadcliffe.png', 'Im_RobertDowneyJr.png', 'Im_BenStiller.png', 'Im_BradPitt.png', 'Im_ElijahWood.png', 'Im_GeorgeClooney.png'],diff,0,0.4167668000000049,16,88.0952380952381,
FRKA0706,4,neg,90,neg90_id18_im19.bmp_neg90_id18_im18.bmp,['Im_KeanuReeves.png', 'Im_LeonardoDiCaprio.png', 'Im_DanielCraig.png', 'Im_HughJackman.png', 'Im_DanielRadcliffe.png', 'Im_RobertDowneyJr.png', 'Im_BenStiller.png', 'Im_BradPitt.png', 'Im_ElijahWood.png', 'Im_GeorgeClooney.png'],diff,0,0.4250815999999986,16,88.0952380952381,
FRKA0706,4,neg,fs,negfs_id11_im10.bmp_negfs_id11_im1.bmp,['Im_KeanuReeves.png', 'Im_LeonardoDiCaprio.png', 'Im_DanielCraig.png', 'Im_HughJackman.png', 'Im_DanielRadcliffe.png', 'Im_RobertDowneyJr.png', 'Im_BenStiller.png', 'Im_BradPitt.png', 'Im_ElijahWood.png', 'Im_GeorgeClooney.png'],same,1,0.4167065999999977,17,88.0952380952381,
FRKA0706,4,neg,60,neg60_id13_im10.bmp_neg60_id18_im18.bmp,['Im_KeanuReeves.png', 'Im_LeonardoDiCaprio.png', 'Im_DanielCraig.png', 'Im_HughJackman.png', 'Im_DanielRadcliffe.png', 'Im_RobertDowneyJr.png', 'Im_BenStiller.png', 'Im_BradPitt.png', 'Im_ElijahWood.png', 'Im_GeorgeClooney.png'],diff,1,0.4251998999999387,18,88.0952380952381,
FRKA0706,4,neg,0,neg0_id13_im15.bmp_neg0_id13_im29.bmp,['Im_KeanuReeves.png', 'Im_LeonardoDiCaprio.png', 'Im_DanielCraig.png', 'Im_HughJackman.png', 'Im_DanielRadcliffe.png', 'Im_RobertDowneyJr.png', 'Im_BenStiller.png', 'Im_BradPitt.png', 'Im_ElijahWood.png', 'Im_GeorgeClooney.png'],same,1,0.41666829999996935,19,88.0952380952381,
FRKA0706,4,neg,120,neg120_id18_im11.bmp_neg120_id18_im19.bmp,['Im_KeanuReeves.png', 'Im_LeonardoDiCaprio.png', 'Im_DanielCraig.png', 'Im_HughJackman.png', 'Im_DanielRadcliffe.png', 'Im_RobertDowneyJr.png', 'Im_BenStiller.png', 'Im_BradPitt.png', 'Im_ElijahWood.png', 'Im_GeorgeClooney.png'],same,1,0.42522280000002866,20,88.0952380952381,
FRKA0706,5,inv,120,pos120_id4_im7.bmp_pos120_id6_im18.bmp,['Im_KeanuReeves.png', 'Im_LeonardoDiCaprio.png', 'Im_DanielCraig.png', 'Im_HughJackman.png', 'Im_DanielRadcliffe.png', 'Im_RobertDowneyJr.png', 'Im_BenStiller.png', 'Im_BradPitt.png', 'Im_ElijahWood.png', 'Im_GeorgeClooney.png'],diff,1,0.4335479999999734,21,88.0952380952381,
FRKA0706,5,inv,30,pos30_id13_im15.bmp_pos30_id13_im29.bmp,['Im_KeanuReeves.png', 'Im_LeonardoDiCaprio.png', 'Im_DanielCraig.png', 'Im_HughJackman.png', 'Im_DanielRadcliffe.png', 'Im_RobertDowneyJr.png', 'Im_BenStiller.png', 'Im_BradPitt.png', 'Im_ElijahWood.png', 'Im_GeorgeClooney.png'],same,1,0.43326649999994515,22,88.0952380952381,
FRKA0706,5,inv,120,pos120_id3_im17.bmp_pos120_id3_im6.bmp,['Im_KeanuReeves.png', 'Im_LeonardoDiCaprio.png', 'Im_DanielCraig.png', 'Im_HughJackman.png', 'Im_DanielRadcliffe.png', 'Im_RobertDowneyJr.png', 'Im_BenStiller.png', 'Im_BradPitt.png', 'Im_ElijahWood.png', 'Im_GeorgeClooney.png'],diff,0,0.425166699999977,22,88.0952380952381,
FRKA0706,5,inv,60,pos60_id3_im8.bmp_pos60_id13_im10.bmp,['Im_KeanuReeves.png', 'Im_LeonardoDiCaprio.png', 'Im_DanielCraig.png', 'Im_HughJackman.png', 'Im_DanielRadcliffe.png', 'Im_RobertDowneyJr.png', 'Im_BenStiller.png', 'Im_BradPitt.png', 'Im_ElijahWood.png', 'Im_GeorgeClooney.png'],diff,1,0.5082641000000194,23,88.0952380952381,
FRKA0706,5,inv,fs,posfs_id13_im15.bmp_posfs_id13_im10.bmp,['Im_KeanuReeves.png', 'Im_LeonardoDiCaprio.png', 'Im_DanielCraig.png', 'Im_HughJackman.png', 'Im_DanielRadcliffe.png', 'Im_RobertDowneyJr.png', 'Im_BenStiller.png', 'Im_BradPitt.png', 'Im_ElijahWood.png', 'Im_GeorgeClooney.png'],same,1,0.4166969999999992,24,88.0952380952381,
FRKA0706,5,inv,0,pos0_id18_im18.bmp_pos0_id18_im19.bmp,['Im_KeanuReeves.png', 'Im_LeonardoDiCaprio.png', 'Im_DanielCraig.png', 'Im_HughJackman.png', 'Im_DanielRadcliffe.png', 'Im_RobertDowneyJr.png', 'Im_BenStiller.png', 'Im_BradPitt.png', 'Im_ElijahWood.png', 'Im_GeorgeClooney.png'],same,1,0.41665709999995215,25,88.0952380952381,
FRKA0706,5,inv,fs,posfs_id11_im10.bmp_posfs_id5_im10.bmp,['Im_KeanuReeves.png', 'Im_LeonardoDiCaprio.png', 'Im_DanielCraig.png', 'Im_HughJackman.png', 'Im_DanielRadcliffe.png', 'Im_RobertDowneyJr.png', 'Im_BenStiller.png', 'Im_BradPitt.png', 'Im_ElijahWood.png', 'Im_GeorgeClooney.png'],diff,1,0.45031089999997675,26,88.0952380952381,
FRKA0706,5,inv,60,pos60_id18_im19.bmp_pos60_id8_im13.bmp,['Im_KeanuReeves.png', 'Im_LeonardoDiCaprio.png', 'Im_DanielCraig.png', 'Im_HughJackman.png', 'Im_DanielRadcliffe.png', 'Im_RobertDowneyJr.png', 'Im_BenStiller.png', 'Im_BradPitt.png', 'Im_ElijahWood.png', 'Im_GeorgeClooney.png'],diff,1,0.4167466000000104,27,88.0952380952381,
FRKA0706,5,inv,150,pos150_id8_im13.bmp_pos150_id8_im21.bmp,['Im_KeanuReeves.png', 'Im_LeonardoDiCaprio.png', 'Im_DanielCraig.png', 'Im_HughJackman.png', 'Im_DanielRadcliffe.png', 'Im_RobertDowneyJr.png', 'Im_BenStiller.png', 'Im_BradPitt.png', 'Im_ElijahWood.png', 'Im_GeorgeClooney.png'],same,1,0.416686000000027,28,88.0952380952381,
FRKA0706,5,inv,150,pos150_id6_im12.bmp_pos150_id3_im17.bmp,['Im_KeanuReeves.png', 'Im_LeonardoDiCaprio.png', 'Im_DanielCraig.png', 'Im_HughJackman.png', 'Im_DanielRadcliffe.png', 'Im_RobertDowneyJr.png', 'Im_BenStiller.png', 'Im_BradPitt.png', 'Im_ElijahWood.png', 'Im_GeorgeClooney.png'],diff,1,0.42502809999996316,29,88.0952380952381,
FRKA0706,5,inv,90,pos90_id6_im18.bmp_pos90_id6_im19.bmp,['Im_KeanuReeves.png', 'Im_LeonardoDiCaprio.png', 'Im_DanielCraig.png', 'Im_HughJackman.png', 'Im_DanielRadcliffe.png', 'Im_RobertDowneyJr.png', 'Im_BenStiller.png', 'Im_BradPitt.png', 'Im_ElijahWood.png', 'Im_GeorgeClooney.png'],diff,0,0.5002838999999994,29,88.0952380952381,
FRKA0706,5,inv,90,pos90_id4_im20.bmp_pos90_id4_im15.bmp,['Im_KeanuReeves.png', 'Im_LeonardoDiCaprio.png', 'Im_DanielCraig.png', 'Im_HughJackman.png', 'Im_DanielRadcliffe.png', 'Im_RobertDowneyJr.png', 'Im_BenStiller.png', 'Im_BradPitt.png', 'Im_ElijahWood.png', 'Im_GeorgeClooney.png'],diff,0,0.4248926999999867,29,88.0952380952381,
FRKA0706,5,inv,30,pos30_id6_im12.bmp_pos30_id7_im14.bmp,['Im_KeanuReeves.png', 'Im_LeonardoDiCaprio.png', 'Im_DanielCraig.png', 'Im_HughJackman.png', 'Im_DanielRadcliffe.png', 'Im_RobertDowneyJr.png', 'Im_BenStiller.png', 'Im_BradPitt.png', 'Im_ElijahWood.png', 'Im_GeorgeClooney.png'],diff,1,0.41681770000002416,30,88.0952380952381,
FRKA0706,5,inv,0,pos0_id18_im11.bmp_pos0_id18_im18.bmp,['Im_KeanuReeves.png', 'Im_LeonardoDiCaprio.png', 'Im_DanielCraig.png', 'Im_HughJackman.png', 'Im_DanielRadcliffe.png', 'Im_RobertDowneyJr.png', 'Im_BenStiller.png', 'Im_BradPitt.png', 'Im_ElijahWood.png', 'Im_GeorgeClooney.png'],same,1,0.4168334999999388,31,88.0952380952381,
FRKA0706,6,pos,0,pos0_id6_im12.bmp_pos0_id6_im19.bmp,['Im_KeanuReeves.png', 'Im_LeonardoDiCaprio.png', 'Im_DanielCraig.png', 'Im_HughJackman.png', 'Im_DanielRadcliffe.png', 'Im_RobertDowneyJr.png', 'Im_BenStiller.png', 'Im_BradPitt.png', 'Im_ElijahWood.png', 'Im_GeorgeClooney.png'],same,1,0.4167650000000549,1,73.80952380952381,
FRKA0706,6,pos,60,pos60_id18_im19.bmp_pos60_id18_im11.bmp,['Im_KeanuReeves.png', 'Im_LeonardoDiCaprio.png', 'Im_DanielCraig.png', 'Im_HughJackman.png', 'Im_DanielRadcliffe.png', 'Im_RobertDowneyJr.png', 'Im_BenStiller.png', 'Im_BradPitt.png', 'Im_ElijahWood.png', 'Im_GeorgeClooney.png'],same,1,0.4502810999999838,2,73.80952380952381,
FRKA0706,6,pos,150,pos150_id2_im16.bmp_pos150_id2_im3.bmp,['Im_KeanuReeves.png', 'Im_LeonardoDiCaprio.png', 'Im_DanielCraig.png', 'Im_HughJackman.png', 'Im_DanielRadcliffe.png', 'Im_RobertDowneyJr.png', 'Im_BenStiller.png', 'Im_BradPitt.png', 'Im_ElijahWood.png', 'Im_GeorgeClooney.png'],same,1,0.41674969999996847,3,73.80952380952381,
FRKA0706,6,pos,fs,posfs_id5_im1.bmp_posfs_id5_im20.bmp,['Im_KeanuReeves.png', 'Im_LeonardoDiCaprio.png', 'Im_DanielCraig.png', 'Im_HughJackman.png', 'Im_DanielRadcliffe.png', 'Im_RobertDowneyJr.png', 'Im_BenStiller.png', 'Im_BradPitt.png', 'Im_ElijahWood.png', 'Im_GeorgeClooney.png'],same,1,0.41674960000000283,4,73.80952380952381,
FRKA0706,6,pos,60,pos60_id13_im10.bmp_pos60_id13_im15.bmp,['Im_KeanuReeves.png', 'Im_LeonardoDiCaprio.png', 'Im_DanielCraig.png', 'Im_HughJackman.png', 'Im_DanielRadcliffe.png', 'Im_RobertDowneyJr.png', 'Im_BenStiller.png', 'Im_BradPitt.png', 'Im_ElijahWood.png', 'Im_GeorgeClooney.png'],same,1,0.4169100999998818,5,73.80952380952381,
FRKA0706,6,pos,120,pos120_id18_im11.bmp_pos120_id18_im18.bmp,['Im_KeanuReeves.png', 'Im_LeonardoDiCaprio.png', 'Im_DanielCraig.png', 'Im_HughJackman.png', 'Im_DanielRadcliffe.png', 'Im_RobertDowneyJr.png', 'Im_BenStiller.png', 'Im_BradPitt.png', 'Im_ElijahWood.png', 'Im_GeorgeClooney.png'],same,1,0.4166345999999521,6,73.80952380952381,
FRKA0706,6,pos,0,pos0_id3_im17.bmp_pos0_id13_im15.bmp,['Im_KeanuReeves.png', 'Im_LeonardoDiCaprio.png', 'Im_DanielCraig.png', 'Im_HughJackman.png', 'Im_DanielRadcliffe.png', 'Im_RobertDowneyJr.png', 'Im_BenStiller.png', 'Im_BradPitt.png', 'Im_ElijahWood.png', 'Im_GeorgeClooney.png'],diff,1,0.42525049999994735,7,73.80952380952381,
FRKA0706,6,pos,90,pos90_id5_im1.bmp_pos90_id5_im10.bmp,['Im_KeanuReeves.png', 'Im_LeonardoDiCaprio.png', 'Im_DanielCraig.png', 'Im_HughJackman.png', 'Im_DanielRadcliffe.png', 'Im_RobertDowneyJr.png', 'Im_BenStiller.png', 'Im_BradPitt.png', 'Im_ElijahWood.png', 'Im_GeorgeClooney.png'],same,1,0.40849309999998695,8,73.80952380952381,
FRKA0706,6,pos,150,pos150_id13_im10.bmp_pos150_id18_im18.bmp,['Im_KeanuReeves.png', 'Im_LeonardoDiCaprio.png', 'Im_DanielCraig.png', 'Im_HughJackman.png', 'Im_DanielRadcliffe.png', 'Im_RobertDowneyJr.png', 'Im_BenStiller.png', 'Im_BradPitt.png', 'Im_ElijahWood.png', 'Im_GeorgeClooney.png'],diff,1,0.41674109999985376,9,73.80952380952381,
FRKA0706,6,pos,30,pos30_id13_im15.bmp_pos30_id2_im16.bmp,['Im_KeanuReeves.png', 'Im_LeonardoDiCaprio.png', 'Im_DanielCraig.png', 'Im_HughJackman.png', 'Im_DanielRadcliffe.png', 'Im_RobertDowneyJr.png', 'Im_BenStiller.png', 'Im_BradPitt.png', 'Im_ElijahWood.png', 'Im_GeorgeClooney.png'],diff,1,0.42507670000009057,10,73.80952380952381,
FRKA0706,6,pos,30,pos30_id11_im10.bmp_pos30_id11_im1.bmp,['Im_KeanuReeves.png', 'Im_LeonardoDiCaprio.png', 'Im_DanielCraig.png', 'Im_HughJackman.png', 'Im_DanielRadcliffe.png', 'Im_RobertDowneyJr.png', 'Im_BenStiller.png', 'Im_BradPitt.png', 'Im_ElijahWood.png', 'Im_GeorgeClooney.png'],same,1,0.4250816000001123,11,73.80952380952381,
FRKA0706,6,pos,120,pos120_id13_im15.bmp_pos120_id13_im29.bmp,['Im_KeanuReeves.png', 'Im_LeonardoDiCaprio.png', 'Im_DanielCraig.png', 'Im_HughJackman.png', 'Im_DanielRadcliffe.png', 'Im_RobertDowneyJr.png', 'Im_BenStiller.png', 'Im_BradPitt.png', 'Im_ElijahWood.png', 'Im_GeorgeClooney.png'],same,1,0.4168151000001217,12,73.80952380952381,
FRKA0706,6,pos,fs,posfs_id8_im20.bmp_posfs_id4_im15.bmp,['Im_KeanuReeves.png', 'Im_LeonardoDiCaprio.png', 'Im_DanielCraig.png', 'Im_HughJackman.png', 'Im_DanielRadcliffe.png', 'Im_RobertDowneyJr.png', 'Im_BenStiller.png', 'Im_BradPitt.png', 'Im_ElijahWood.png', 'Im_GeorgeClooney.png'],diff,1,0.41661729999987074,13,73.80952380952381,
FRKA0706,6,pos,90,pos90_id8_im13.bmp_pos90_id6_im18.bmp,['Im_KeanuReeves.png', 'Im_LeonardoDiCaprio.png', 'Im_DanielCraig.png', 'Im_HughJackman.png', 'Im_DanielRadcliffe.png', 'Im_RobertDowneyJr.png', 'Im_BenStiller.png', 'Im_BradPitt.png', 'Im_ElijahWood.png', 'Im_GeorgeClooney.png'],diff,1,0.40847069999995256,14,73.80952380952381,
FRKA0706,7,pos,90,pos90_id2_im3.bmp_pos90_id2_im2.bmp,['Im_KeanuReeves.png', 'Im_LeonardoDiCaprio.png', 'Im_DanielCraig.png', 'Im_HughJackman.png', 'Im_DanielRadcliffe.png', 'Im_RobertDowneyJr.png', 'Im_BenStiller.png', 'Im_BradPitt.png', 'Im_ElijahWood.png', 'Im_GeorgeClooney.png'],diff,0,0.4251764999999068,14,73.80952380952381,
FRKA0706,7,pos,fs,posfs_id11_im1.bmp_posfs_id5_im1.bmp,['Im_KeanuReeves.png', 'Im_LeonardoDiCaprio.png', 'Im_DanielCraig.png', 'Im_HughJackman.png', 'Im_DanielRadcliffe.png', 'Im_RobertDowneyJr.png', 'Im_BenStiller.png', 'Im_BradPitt.png', 'Im_ElijahWood.png', 'Im_GeorgeClooney.png'],diff,1,0.41674379999994926,15,73.80952380952381,
FRKA0706,7,pos,0,pos0_id8_im13.bmp_pos0_id18_im19.bmp,['Im_KeanuReeves.png', 'Im_LeonardoDiCaprio.png', 'Im_DanielCraig.png', 'Im_HughJackman.png', 'Im_DanielRadcliffe.png', 'Im_RobertDowneyJr.png', 'Im_BenStiller.png', 'Im_BradPitt.png', 'Im_ElijahWood.png', 'Im_GeorgeClooney.png'],same,0,0.41671539999993,15,73.80952380952381,
FRKA0706,7,pos,90,pos90_id13_im29.bmp_pos90_id13_im10.bmp,['Im_KeanuReeves.png', 'Im_LeonardoDiCaprio.png', 'Im_DanielCraig.png', 'Im_HughJackman.png', 'Im_DanielRadcliffe.png', 'Im_RobertDowneyJr.png', 'Im_BenStiller.png', 'Im_BradPitt.png', 'Im_ElijahWood.png', 'Im_GeorgeClooney.png'],same,1,0.42500170000016624,16,73.80952380952381,
FRKA0706,7,pos,60,pos60_id6_im18.bmp_pos60_id8_im13.bmp,['Im_KeanuReeves.png', 'Im_LeonardoDiCaprio.png', 'Im_DanielCraig.png', 'Im_HughJackman.png', 'Im_DanielRadcliffe.png', 'Im_RobertDowneyJr.png', 'Im_BenStiller.png', 'Im_BradPitt.png', 'Im_ElijahWood.png', 'Im_GeorgeClooney.png'],diff,1,0.4252288000000135,17,73.80952380952381,
FRKA0706,7,pos,120,pos120_id3_im6.bmp_pos120_id3_im8.bmp,['Im_KeanuReeves.png', 'Im_LeonardoDiCaprio.png', 'Im_DanielCraig.png', 'Im_HughJackman.png', 'Im_DanielRadcliffe.png', 'Im_RobertDowneyJr.png', 'Im_BenStiller.png', 'Im_BradPitt.png', 'Im_ElijahWood.png', 'Im_GeorgeClooney.png'],same,1,0.6084321000000728,18,73.80952380952381,
FRKA0706,7,pos,30,pos30_id18_im18.bmp_pos30_id13_im10.bmp,['Im_KeanuReeves.png', 'Im_LeonardoDiCaprio.png', 'Im_DanielCraig.png', 'Im_HughJackman.png', 'Im_DanielRadcliffe.png', 'Im_RobertDowneyJr.png', 'Im_BenStiller.png', 'Im_BradPitt.png', 'Im_ElijahWood.png', 'Im_GeorgeClooney.png'],diff,1,0.4164568999999574,19,73.80952380952381,
FRKA0706,7,pos,120,pos120_id3_im17.bmp_pos120_id3_im8.bmp,['Im_KeanuReeves.png', 'Im_LeonardoDiCaprio.png', 'Im_DanielCraig.png', 'Im_HughJackman.png', 'Im_DanielRadcliffe.png', 'Im_RobertDowneyJr.png', 'Im_BenStiller.png', 'Im_BradPitt.png', 'Im_ElijahWood.png', 'Im_GeorgeClooney.png'],same,1,0.5832559999998921,20,73.80952380952381,
FRKA0706,7,pos,60,pos60_id13_im10.bmp_pos60_id18_im18.bmp,['Im_KeanuReeves.png', 'Im_LeonardoDiCaprio.png', 'Im_DanielCraig.png', 'Im_HughJackman.png', 'Im_DanielRadcliffe.png', 'Im_RobertDowneyJr.png', 'Im_BenStiller.png', 'Im_BradPitt.png', 'Im_ElijahWood.png', 'Im_GeorgeClooney.png'],diff,1,0.4168600999998944,21,73.80952380952381,
FRKA0706,7,pos,0,pos0_id13_im15.bmp_pos0_id13_im29.bmp,['Im_KeanuReeves.png', 'Im_LeonardoDiCaprio.png', 'Im_DanielCraig.png', 'Im_HughJackman.png', 'Im_DanielRadcliffe.png', 'Im_RobertDowneyJr.png', 'Im_BenStiller.png', 'Im_BradPitt.png', 'Im_ElijahWood.png', 'Im_GeorgeClooney.png'],same,1,0.42510760000004666,22,73.80952380952381,
FRKA0706,7,pos,fs,posfs_id13_im15.bmp_posfs_id3_im17.bmp,['Im_KeanuReeves.png', 'Im_LeonardoDiCaprio.png', 'Im_DanielCraig.png', 'Im_HughJackman.png', 'Im_DanielRadcliffe.png', 'Im_RobertDowneyJr.png', 'Im_BenStiller.png', 'Im_BradPitt.png', 'Im_ElijahWood.png', 'Im_GeorgeClooney.png'],same,0,0.7333842000000459,22,73.80952380952381,
FRKA0706,7,pos,150,pos150_id11_im2.bmp_pos150_id11_im10.bmp,['Im_KeanuReeves.png', 'Im_LeonardoDiCaprio.png', 'Im_DanielCraig.png', 'Im_HughJackman.png', 'Im_DanielRadcliffe.png', 'Im_RobertDowneyJr.png', 'Im_BenStiller.png', 'Im_BradPitt.png', 'Im_ElijahWood.png', 'Im_GeorgeClooney.png'],same,1,0.4168839999999818,23,73.80952380952381,
FRKA0706,7,pos,30,pos30_id6_im12.bmp_pos30_id7_im14.bmp,['Im_KeanuReeves.png', 'Im_LeonardoDiCaprio.png', 'Im_DanielCraig.png', 'Im_HughJackman.png', 'Im_DanielRadcliffe.png', 'Im_RobertDowneyJr.png', 'Im_BenStiller.png', 'Im_BradPitt.png', 'Im_ElijahWood.png', 'Im_GeorgeClooney.png'],diff,1,0.41671949999999924,24,73.80952380952381,
FRKA0706,7,pos,150,pos150_id11_im10.bmp_pos150_id2_im2.bmp,['Im_KeanuReeves.png', 'Im_LeonardoDiCaprio.png', 'Im_DanielCraig.png', 'Im_HughJackman.png', 'Im_DanielRadcliffe.png', 'Im_RobertDowneyJr.png', 'Im_BenStiller.png', 'Im_BradPitt.png', 'Im_ElijahWood.png', 'Im_GeorgeClooney.png'],diff,1,0.4250789000000168,25,73.80952380952381,
FRKA0706,8,inv,30,pos30_id18_im19.bmp_pos30_id8_im13.bmp,['Im_KeanuReeves.png', 'Im_LeonardoDiCaprio.png', 'Im_DanielCraig.png', 'Im_HughJackman.png', 'Im_DanielRadcliffe.png', 'Im_RobertDowneyJr.png', 'Im_BenStiller.png', 'Im_BradPitt.png', 'Im_ElijahWood.png', 'Im_GeorgeClooney.png'],same,0,0.4168314000000919,25,73.80952380952381,
FRKA0706,8,inv,0,pos0_id8_im20.bmp_pos0_id8_im21.bmp,['Im_KeanuReeves.png', 'Im_LeonardoDiCaprio.png', 'Im_DanielCraig.png', 'Im_HughJackman.png', 'Im_DanielRadcliffe.png', 'Im_RobertDowneyJr.png', 'Im_BenStiller.png', 'Im_BradPitt.png', 'Im_ElijahWood.png', 'Im_GeorgeClooney.png'],same,1,0.4248417999999674,26,73.80952380952381,
FRKA0706,8,inv,90,pos90_id2_im16.bmp_pos90_id2_im3.bmp,['Im_KeanuReeves.png', 'Im_LeonardoDiCaprio.png', 'Im_DanielCraig.png', 'Im_HughJackman.png', 'Im_DanielRadcliffe.png', 'Im_RobertDowneyJr.png', 'Im_BenStiller.png', 'Im_BradPitt.png', 'Im_ElijahWood.png', 'Im_GeorgeClooney.png'],same,1,0.43339050000008683,27,73.80952380952381,
FRKA0706,8,inv,30,pos30_id5_im20.bmp_pos30_id5_im1.bmp,['Im_KeanuReeves.png', 'Im_LeonardoDiCaprio.png', 'Im_DanielCraig.png', 'Im_HughJackman.png', 'Im_DanielRadcliffe.png', 'Im_RobertDowneyJr.png', 'Im_BenStiller.png', 'Im_BradPitt.png', 'Im_ElijahWood.png', 'Im_GeorgeClooney.png'],same,1,0.42507720000003246,28,73.80952380952381,
FRKA0706,8,inv,60,pos60_id13_im10.bmp_pos60_id13_im15.bmp,['Im_KeanuReeves.png', 'Im_LeonardoDiCaprio.png', 'Im_DanielCraig.png', 'Im_HughJackman.png', 'Im_DanielRadcliffe.png', 'Im_RobertDowneyJr.png', 'Im_BenStiller.png', 'Im_BradPitt.png', 'Im_ElijahWood.png', 'Im_GeorgeClooney.png'],same,1,0.41672410000001037,29,73.80952380952381,
FRKA0706,8,inv,90,pos90_id6_im12.bmp_pos90_id6_im18.bmp,['Im_KeanuReeves.png', 'Im_LeonardoDiCaprio.png', 'Im_DanielCraig.png', 'Im_HughJackman.png', 'Im_DanielRadcliffe.png', 'Im_RobertDowneyJr.png', 'Im_BenStiller.png', 'Im_BradPitt.png', 'Im_ElijahWood.png', 'Im_GeorgeClooney.png'],same,1,0.4251702000001387,30,73.80952380952381,
FRKA0706,8,inv,fs,posfs_id4_im20.bmp_posfs_id7_im26.bmp,['Im_KeanuReeves.png', 'Im_LeonardoDiCaprio.png', 'Im_DanielCraig.png', 'Im_HughJackman.png', 'Im_DanielRadcliffe.png', 'Im_RobertDowneyJr.png', 'Im_BenStiller.png', 'Im_BradPitt.png', 'Im_ElijahWood.png', 'Im_GeorgeClooney.png'],diff,1,0.40841199999999844,31,73.80952380952381,
FRKA0706,8,inv,60,pos60_id4_im15.bmp_pos60_id18_im11.bmp,['Im_KeanuReeves.png', 'Im_LeonardoDiCaprio.png', 'Im_DanielCraig.png', 'Im_HughJackman.png', 'Im_DanielRadcliffe.png', 'Im_RobertDowneyJr.png', 'Im_BenStiller.png', 'Im_BradPitt.png', 'Im_ElijahWood.png', 'Im_GeorgeClooney.png'],diff,1,0.4251425999998446,32,73.80952380952381,
FRKA0706,8,inv,150,pos150_id2_im16.bmp_pos150_id5_im20.bmp,['Im_KeanuReeves.png', 'Im_LeonardoDiCaprio.png', 'Im_DanielCraig.png', 'Im_HughJackman.png', 'Im_DanielRadcliffe.png', 'Im_RobertDowneyJr.png', 'Im_BenStiller.png', 'Im_BradPitt.png', 'Im_ElijahWood.png', 'Im_GeorgeClooney.png'],diff,1,0.425037699999848,33,73.80952380952381,
FRKA0706,8,inv,0,pos0_id4_im15.bmp_pos0_id8_im20.bmp,['Im_KeanuReeves.png', 'Im_LeonardoDiCaprio.png', 'Im_DanielCraig.png', 'Im_HughJackman.png', 'Im_DanielRadcliffe.png', 'Im_RobertDowneyJr.png', 'Im_BenStiller.png', 'Im_BradPitt.png', 'Im_ElijahWood.png', 'Im_GeorgeClooney.png'],diff,1,0.4086072999998578,34,73.80952380952381,
FRKA0706,8,inv,120,pos120_id2_im16.bmp_pos120_id5_im20.bmp,['Im_KeanuReeves.png', 'Im_LeonardoDiCaprio.png', 'Im_DanielCraig.png', 'Im_HughJackman.png', 'Im_DanielRadcliffe.png', 'Im_RobertDowneyJr.png', 'Im_BenStiller.png', 'Im_BradPitt.png', 'Im_ElijahWood.png', 'Im_GeorgeClooney.png'],same,0,0.43334980000008727,34,73.80952380952381,
FRKA0706,8,inv,120,pos120_id3_im6.bmp_pos120_id8_im21.bmp,['Im_KeanuReeves.png', 'Im_LeonardoDiCaprio.png', 'Im_DanielCraig.png', 'Im_HughJackman.png', 'Im_DanielRadcliffe.png', 'Im_RobertDowneyJr.png', 'Im_BenStiller.png', 'Im_BradPitt.png', 'Im_ElijahWood.png', 'Im_GeorgeClooney.png'],diff,1,0.41685439999992013,35,73.80952380952381,
FRKA0706,8,inv,150,pos150_id18_im11.bmp_pos150_id4_im15.bmp,['Im_KeanuReeves.png', 'Im_LeonardoDiCaprio.png', 'Im_DanielCraig.png', 'Im_HughJackman.png', 'Im_DanielRadcliffe.png', 'Im_RobertDowneyJr.png', 'Im_BenStiller.png', 'Im_BradPitt.png', 'Im_ElijahWood.png', 'Im_GeorgeClooney.png'],diff,1,0.4251438000001144,36,73.80952380952381,
FRKA0706,8,inv,fs,posfs_id6_im18.bmp_posfs_id8_im13.bmp,['Im_KeanuReeves.png', 'Im_LeonardoDiCaprio.png', 'Im_DanielCraig.png', 'Im_HughJackman.png', 'Im_DanielRadcliffe.png', 'Im_RobertDowneyJr.png', 'Im_BenStiller.png', 'Im_BradPitt.png', 'Im_ElijahWood.png', 'Im_GeorgeClooney.png'],same,0,0.5333499000000756,36,73.80952380952381,
FRKA0706,9,neg,90,neg90_id2_im16.bmp_neg90_id2_im3.bmp,['Im_KeanuReeves.png', 'Im_LeonardoDiCaprio.png', 'Im_DanielCraig.png', 'Im_HughJackman.png', 'Im_DanielRadcliffe.png', 'Im_RobertDowneyJr.png', 'Im_BenStiller.png', 'Im_BradPitt.png', 'Im_ElijahWood.png', 'Im_GeorgeClooney.png'],same,1,0.417806199999859,1,85.71428571428571,
FRKA0706,9,neg,150,neg150_id5_im10.bmp_neg150_id5_im20.bmp,['Im_KeanuReeves.png', 'Im_LeonardoDiCaprio.png', 'Im_DanielCraig.png', 'Im_HughJackman.png', 'Im_DanielRadcliffe.png', 'Im_RobertDowneyJr.png', 'Im_BenStiller.png', 'Im_BradPitt.png', 'Im_ElijahWood.png', 'Im_GeorgeClooney.png'],same,1,0.43337220000012167,2,85.71428571428571,
FRKA0706,9,neg,60,neg60_id4_im15.bmp_neg60_id4_im20.bmp,['Im_KeanuReeves.png', 'Im_LeonardoDiCaprio.png', 'Im_DanielCraig.png', 'Im_HughJackman.png', 'Im_DanielRadcliffe.png', 'Im_RobertDowneyJr.png', 'Im_BenStiller.png', 'Im_BradPitt.png', 'Im_ElijahWood.png', 'Im_GeorgeClooney.png'],same,1,0.42482060000020283,3,85.71428571428571,
FRKA0706,9,neg,30,neg30_id2_im16.bmp_neg30_id13_im15.bmp,['Im_KeanuReeves.png', 'Im_LeonardoDiCaprio.png', 'Im_DanielCraig.png', 'Im_HughJackman.png', 'Im_DanielRadcliffe.png', 'Im_RobertDowneyJr.png', 'Im_BenStiller.png', 'Im_BradPitt.png', 'Im_ElijahWood.png', 'Im_GeorgeClooney.png'],diff,1,0.41671519999999873,4,85.71428571428571,
FRKA0706,9,neg,0,neg0_id4_im15.bmp_neg0_id4_im7.bmp,['Im_KeanuReeves.png', 'Im_LeonardoDiCaprio.png', 'Im_DanielCraig.png', 'Im_HughJackman.png', 'Im_DanielRadcliffe.png', 'Im_RobertDowneyJr.png', 'Im_BenStiller.png', 'Im_BradPitt.png', 'Im_ElijahWood.png', 'Im_GeorgeClooney.png'],same,1,0.48334219999992456,5,85.71428571428571,
FRKA0706,9,neg,fs,negfs_id3_im6.bmp_negfs_id8_im21.bmp,['Im_KeanuReeves.png', 'Im_LeonardoDiCaprio.png', 'Im_DanielCraig.png', 'Im_HughJackman.png', 'Im_DanielRadcliffe.png', 'Im_RobertDowneyJr.png', 'Im_BenStiller.png', 'Im_BradPitt.png', 'Im_ElijahWood.png', 'Im_GeorgeClooney.png'],diff,1,0.43353750000005675,6,85.71428571428571,
FRKA0706,9,neg,120,neg120_id4_im15.bmp_neg120_id8_im20.bmp,['Im_KeanuReeves.png', 'Im_LeonardoDiCaprio.png', 'Im_DanielCraig.png', 'Im_HughJackman.png', 'Im_DanielRadcliffe.png', 'Im_RobertDowneyJr.png', 'Im_BenStiller.png', 'Im_BradPitt.png', 'Im_ElijahWood.png', 'Im_GeorgeClooney.png'],diff,1,0.42508169999996426,7,85.71428571428571,
FRKA0706,9,neg,90,neg90_id18_im11.bmp_neg90_id18_im19.bmp,['Im_KeanuReeves.png', 'Im_LeonardoDiCaprio.png', 'Im_DanielCraig.png', 'Im_HughJackman.png', 'Im_DanielRadcliffe.png', 'Im_RobertDowneyJr.png', 'Im_BenStiller.png', 'Im_BradPitt.png', 'Im_ElijahWood.png', 'Im_GeorgeClooney.png'],diff,0,0.4168165000000954,7,85.71428571428571,
FRKA0706,9,neg,0,neg0_id3_im17.bmp_neg0_id13_im15.bmp,['Im_KeanuReeves.png', 'Im_LeonardoDiCaprio.png', 'Im_DanielCraig.png', 'Im_HughJackman.png', 'Im_DanielRadcliffe.png', 'Im_RobertDowneyJr.png', 'Im_BenStiller.png', 'Im_BradPitt.png', 'Im_ElijahWood.png', 'Im_GeorgeClooney.png'],diff,1,0.4166959000001498,8,85.71428571428571,
FRKA0706,9,neg,120,neg120_id2_im3.bmp_neg120_id6_im19.bmp,['Im_KeanuReeves.png', 'Im_LeonardoDiCaprio.png', 'Im_DanielCraig.png', 'Im_HughJackman.png', 'Im_DanielRadcliffe.png', 'Im_RobertDowneyJr.png', 'Im_BenStiller.png', 'Im_BradPitt.png', 'Im_ElijahWood.png', 'Im_GeorgeClooney.png'],diff,1,0.42506939999998394,9,85.71428571428571,
FRKA0706,9,neg,30,neg30_id6_im12.bmp_neg30_id7_im14.bmp,['Im_KeanuReeves.png', 'Im_LeonardoDiCaprio.png', 'Im_DanielCraig.png', 'Im_HughJackman.png', 'Im_DanielRadcliffe.png', 'Im_RobertDowneyJr.png', 'Im_BenStiller.png', 'Im_BradPitt.png', 'Im_ElijahWood.png', 'Im_GeorgeClooney.png'],diff,1,0.41698350000001483,10,85.71428571428571,
FRKA0706,9,neg,60,neg60_id6_im12.bmp_neg60_id6_im18.bmp,['Im_KeanuReeves.png', 'Im_LeonardoDiCaprio.png', 'Im_DanielCraig.png', 'Im_HughJackman.png', 'Im_DanielRadcliffe.png', 'Im_RobertDowneyJr.png', 'Im_BenStiller.png', 'Im_BradPitt.png', 'Im_ElijahWood.png', 'Im_GeorgeClooney.png'],diff,0,0.41676109999980326,10,85.71428571428571,
FRKA0706,9,neg,fs,negfs_id11_im1.bmp_negfs_id5_im1.bmp,['Im_KeanuReeves.png', 'Im_LeonardoDiCaprio.png', 'Im_DanielCraig.png', 'Im_HughJackman.png', 'Im_DanielRadcliffe.png', 'Im_RobertDowneyJr.png', 'Im_BenStiller.png', 'Im_BradPitt.png', 'Im_ElijahWood.png', 'Im_GeorgeClooney.png'],diff,1,0.41691869999999653,11,85.71428571428571,
FRKA0706,9,neg,150,neg150_id8_im21.bmp_neg150_id8_im20.bmp,['Im_KeanuReeves.png', 'Im_LeonardoDiCaprio.png', 'Im_DanielCraig.png', 'Im_HughJackman.png', 'Im_DanielRadcliffe.png', 'Im_RobertDowneyJr.png', 'Im_BenStiller.png', 'Im_BradPitt.png', 'Im_ElijahWood.png', 'Im_GeorgeClooney.png'],same,1,0.42501960000004146,12,85.71428571428571,
FRKA0706,10,pos,60,pos60_id6_im12.bmp_pos60_id6_im19.bmp,['Im_KeanuReeves.png', 'Im_LeonardoDiCaprio.png', 'Im_DanielCraig.png', 'Im_HughJackman.png', 'Im_DanielRadcliffe.png', 'Im_RobertDowneyJr.png', 'Im_BenStiller.png', 'Im_BradPitt.png', 'Im_ElijahWood.png', 'Im_GeorgeClooney.png'],same,1,0.4085293000000547,13,85.71428571428571,
FRKA0706,10,pos,0,pos0_id7_im15.bmp_pos0_id7_im26.bmp,['Im_KeanuReeves.png', 'Im_LeonardoDiCaprio.png', 'Im_DanielCraig.png', 'Im_HughJackman.png', 'Im_DanielRadcliffe.png', 'Im_RobertDowneyJr.png', 'Im_BenStiller.png', 'Im_BradPitt.png', 'Im_ElijahWood.png', 'Im_GeorgeClooney.png'],same,1,0.4252813000000515,14,85.71428571428571,
FRKA0706,10,pos,30,pos30_id2_im16.bmp_pos30_id5_im20.bmp,['Im_KeanuReeves.png', 'Im_LeonardoDiCaprio.png', 'Im_DanielCraig.png', 'Im_HughJackman.png', 'Im_DanielRadcliffe.png', 'Im_RobertDowneyJr.png', 'Im_BenStiller.png', 'Im_BradPitt.png', 'Im_ElijahWood.png', 'Im_GeorgeClooney.png'],diff,1,0.41684409999993477,15,85.71428571428571,
FRKA0706,10,pos,120,pos120_id5_im10.bmp_pos120_id2_im3.bmp,['Im_KeanuReeves.png', 'Im_LeonardoDiCaprio.png', 'Im_DanielCraig.png', 'Im_HughJackman.png', 'Im_DanielRadcliffe.png', 'Im_RobertDowneyJr.png', 'Im_BenStiller.png', 'Im_BradPitt.png', 'Im_ElijahWood.png', 'Im_GeorgeClooney.png'],diff,1,0.4250804999999218,16,85.71428571428571,
FRKA0706,10,pos,120,pos120_id4_im7.bmp_pos120_id11_im2.bmp,['Im_KeanuReeves.png', 'Im_LeonardoDiCaprio.png', 'Im_DanielCraig.png', 'Im_HughJackman.png', 'Im_DanielRadcliffe.png', 'Im_RobertDowneyJr.png', 'Im_BenStiller.png', 'Im_BradPitt.png', 'Im_ElijahWood.png', 'Im_GeorgeClooney.png'],diff,1,0.4082877999999255,17,85.71428571428571,
FRKA0706,10,pos,fs,posfs_id18_im11.bmp_posfs_id18_im18.bmp,['Im_KeanuReeves.png', 'Im_LeonardoDiCaprio.png', 'Im_DanielCraig.png', 'Im_HughJackman.png', 'Im_DanielRadcliffe.png', 'Im_RobertDowneyJr.png', 'Im_BenStiller.png', 'Im_BradPitt.png', 'Im_ElijahWood.png', 'Im_GeorgeClooney.png'],same,1,0.4250061000000187,18,85.71428571428571,
FRKA0706,10,pos,fs,posfs_id3_im6.bmp_posfs_id8_im21.bmp,['Im_KeanuReeves.png', 'Im_LeonardoDiCaprio.png', 'Im_DanielCraig.png', 'Im_HughJackman.png', 'Im_DanielRadcliffe.png', 'Im_RobertDowneyJr.png', 'Im_BenStiller.png', 'Im_BradPitt.png', 'Im_ElijahWood.png', 'Im_GeorgeClooney.png'],diff,1,0.42515660000003663,19,85.71428571428571,
FRKA0706,10,pos,150,pos150_id11_im1.bmp_pos150_id11_im2.bmp,['Im_KeanuReeves.png', 'Im_LeonardoDiCaprio.png', 'Im_DanielCraig.png', 'Im_HughJackman.png', 'Im_DanielRadcliffe.png', 'Im_RobertDowneyJr.png', 'Im_BenStiller.png', 'Im_BradPitt.png', 'Im_ElijahWood.png', 'Im_GeorgeClooney.png'],same,1,0.43335209999986546,20,85.71428571428571,
FRKA0706,10,pos,90,pos90_id3_im6.bmp_pos90_id8_im20.bmp,['Im_KeanuReeves.png', 'Im_LeonardoDiCaprio.png', 'Im_DanielCraig.png', 'Im_HughJackman.png', 'Im_DanielRadcliffe.png', 'Im_RobertDowneyJr.png', 'Im_BenStiller.png', 'Im_BradPitt.png', 'Im_ElijahWood.png', 'Im_GeorgeClooney.png'],diff,1,0.41669240000010177,21,85.71428571428571,
FRKA0706,10,pos,150,pos150_id7_im15.bmp_pos150_id7_im14.bmp,['Im_KeanuReeves.png', 'Im_LeonardoDiCaprio.png', 'Im_DanielCraig.png', 'Im_HughJackman.png', 'Im_DanielRadcliffe.png', 'Im_RobertDowneyJr.png', 'Im_BenStiller.png', 'Im_BradPitt.png', 'Im_ElijahWood.png', 'Im_GeorgeClooney.png'],same,1,0.4168707999999697,22,85.71428571428571,
FRKA0706,10,pos,30,pos30_id11_im2.bmp_pos30_id13_im29.bmp,['Im_KeanuReeves.png', 'Im_LeonardoDiCaprio.png', 'Im_DanielCraig.png', 'Im_HughJackman.png', 'Im_DanielRadcliffe.png', 'Im_RobertDowneyJr.png', 'Im_BenStiller.png', 'Im_BradPitt.png', 'Im_ElijahWood.png', 'Im_GeorgeClooney.png'],diff,1,0.4166944999999487,23,85.71428571428571,
FRKA0706,10,pos,60,pos60_id11_im2.bmp_pos60_id11_im10.bmp,['Im_KeanuReeves.png', 'Im_LeonardoDiCaprio.png', 'Im_DanielCraig.png', 'Im_HughJackman.png', 'Im_DanielRadcliffe.png', 'Im_RobertDowneyJr.png', 'Im_BenStiller.png', 'Im_BradPitt.png', 'Im_ElijahWood.png', 'Im_GeorgeClooney.png'],same,1,0.4249185999999554,24,85.71428571428571,
FRKA0706,10,pos,0,pos0_id11_im10.bmp_pos0_id11_im2.bmp,['Im_KeanuReeves.png', 'Im_LeonardoDiCaprio.png', 'Im_DanielCraig.png', 'Im_HughJackman.png', 'Im_DanielRadcliffe.png', 'Im_RobertDowneyJr.png', 'Im_BenStiller.png', 'Im_BradPitt.png', 'Im_ElijahWood.png', 'Im_GeorgeClooney.png'],same,1,0.433564300000171,25,85.71428571428571,
FRKA0706,10,pos,90,pos90_id2_im2.bmp_pos90_id11_im10.bmp,['Im_KeanuReeves.png', 'Im_LeonardoDiCaprio.png', 'Im_DanielCraig.png', 'Im_HughJackman.png', 'Im_DanielRadcliffe.png', 'Im_RobertDowneyJr.png', 'Im_BenStiller.png', 'Im_BradPitt.png', 'Im_ElijahWood.png', 'Im_GeorgeClooney.png'],diff,1,0.6087023000000045,26,85.71428571428571,
FRKA0706,11,neg,120,neg120_id18_im18.bmp_neg120_id18_im11.bmp,['Im_KeanuReeves.png', 'Im_LeonardoDiCaprio.png', 'Im_DanielCraig.png', 'Im_HughJackman.png', 'Im_DanielRadcliffe.png', 'Im_RobertDowneyJr.png', 'Im_BenStiller.png', 'Im_BradPitt.png', 'Im_ElijahWood.png', 'Im_GeorgeClooney.png'],diff,0,0.40839839999989636,26,85.71428571428571,
FRKA0706,11,neg,120,neg120_id4_im20.bmp_neg120_id7_im15.bmp,['Im_KeanuReeves.png', 'Im_LeonardoDiCaprio.png', 'Im_DanielCraig.png', 'Im_HughJackman.png', 'Im_DanielRadcliffe.png', 'Im_RobertDowneyJr.png', 'Im_BenStiller.png', 'Im_BradPitt.png', 'Im_ElijahWood.png', 'Im_GeorgeClooney.png'],same,0,0.42509510000013506,26,85.71428571428571,
FRKA0706,11,neg,0,neg0_id4_im20.bmp_neg0_id4_im15.bmp,['Im_KeanuReeves.png', 'Im_LeonardoDiCaprio.png', 'Im_DanielCraig.png', 'Im_HughJackman.png', 'Im_DanielRadcliffe.png', 'Im_RobertDowneyJr.png', 'Im_BenStiller.png', 'Im_BradPitt.png', 'Im_ElijahWood.png', 'Im_GeorgeClooney.png'],same,1,0.4166938000000755,27,85.71428571428571,
FRKA0706,11,neg,0,neg0_id5_im10.bmp_neg0_id11_im10.bmp,['Im_KeanuReeves.png', 'Im_LeonardoDiCaprio.png', 'Im_DanielCraig.png', 'Im_HughJackman.png', 'Im_DanielRadcliffe.png', 'Im_RobertDowneyJr.png', 'Im_BenStiller.png', 'Im_BradPitt.png', 'Im_ElijahWood.png', 'Im_GeorgeClooney.png'],diff,1,0.4166970000001129,28,85.71428571428571,
FRKA0706,11,neg,150,neg150_id13_im10.bmp_neg150_id13_im29.bmp,['Im_KeanuReeves.png', 'Im_LeonardoDiCaprio.png', 'Im_DanielCraig.png', 'Im_HughJackman.png', 'Im_DanielRadcliffe.png', 'Im_RobertDowneyJr.png', 'Im_BenStiller.png', 'Im_BradPitt.png', 'Im_ElijahWood.png', 'Im_GeorgeClooney.png'],diff,0,0.5000645999998596,28,85.71428571428571,
FRKA0706,11,neg,fs,negfs_id7_im14.bmp_negfs_id7_im26.bmp,['Im_KeanuReeves.png', 'Im_LeonardoDiCaprio.png', 'Im_DanielCraig.png', 'Im_HughJackman.png', 'Im_DanielRadcliffe.png', 'Im_RobertDowneyJr.png', 'Im_BenStiller.png', 'Im_BradPitt.png', 'Im_ElijahWood.png', 'Im_GeorgeClooney.png'],same,1,0.41664960000002793,29,85.71428571428571,
FRKA0706,11,neg,60,neg60_id3_im17.bmp_neg60_id3_im8.bmp,['Im_KeanuReeves.png', 'Im_LeonardoDiCaprio.png', 'Im_DanielCraig.png', 'Im_HughJackman.png', 'Im_DanielRadcliffe.png', 'Im_RobertDowneyJr.png', 'Im_BenStiller.png', 'Im_BradPitt.png', 'Im_ElijahWood.png', 'Im_GeorgeClooney.png'],same,1,0.42521929999998065,30,85.71428571428571,
FRKA0706,11,neg,150,neg150_id4_im15.bmp_neg150_id8_im20.bmp,['Im_KeanuReeves.png', 'Im_LeonardoDiCaprio.png', 'Im_DanielCraig.png', 'Im_HughJackman.png', 'Im_DanielRadcliffe.png', 'Im_RobertDowneyJr.png', 'Im_BenStiller.png', 'Im_BradPitt.png', 'Im_ElijahWood.png', 'Im_GeorgeClooney.png'],diff,1,0.42508250000014414,31,85.71428571428571,
FRKA0706,11,neg,60,neg60_id11_im10.bmp_neg60_id2_im2.bmp,['Im_KeanuReeves.png', 'Im_LeonardoDiCaprio.png', 'Im_DanielCraig.png', 'Im_HughJackman.png', 'Im_DanielRadcliffe.png', 'Im_RobertDowneyJr.png', 'Im_BenStiller.png', 'Im_BradPitt.png', 'Im_ElijahWood.png', 'Im_GeorgeClooney.png'],diff,1,0.4250397000000703,32,85.71428571428571,
FRKA0706,11,neg,fs,negfs_id4_im7.bmp_negfs_id11_im2.bmp,['Im_KeanuReeves.png', 'Im_LeonardoDiCaprio.png', 'Im_DanielCraig.png', 'Im_HughJackman.png', 'Im_DanielRadcliffe.png', 'Im_RobertDowneyJr.png', 'Im_BenStiller.png', 'Im_BradPitt.png', 'Im_ElijahWood.png', 'Im_GeorgeClooney.png'],diff,1,0.4251096000000416,33,85.71428571428571,
FRKA0706,11,neg,90,neg90_id7_im15.bmp_neg90_id18_im18.bmp,['Im_KeanuReeves.png', 'Im_LeonardoDiCaprio.png', 'Im_DanielCraig.png', 'Im_HughJackman.png', 'Im_DanielRadcliffe.png', 'Im_RobertDowneyJr.png', 'Im_BenStiller.png', 'Im_BradPitt.png', 'Im_ElijahWood.png', 'Im_GeorgeClooney.png'],diff,1,0.41671629999996185,34,85.71428571428571,
FRKA0706,11,neg,90,neg90_id4_im15.bmp_neg90_id18_im11.bmp,['Im_KeanuReeves.png', 'Im_LeonardoDiCaprio.png', 'Im_DanielCraig.png', 'Im_HughJackman.png', 'Im_DanielRadcliffe.png', 'Im_RobertDowneyJr.png', 'Im_BenStiller.png', 'Im_BradPitt.png', 'Im_ElijahWood.png', 'Im_GeorgeClooney.png'],diff,1,0.42520009999998365,35,85.71428571428571,
FRKA0706,11,neg,30,neg30_id5_im20.bmp_neg30_id5_im10.bmp,['Im_KeanuReeves.png', 'Im_LeonardoDiCaprio.png', 'Im_DanielCraig.png', 'Im_HughJackman.png', 'Im_DanielRadcliffe.png', 'Im_RobertDowneyJr.png', 'Im_BenStiller.png', 'Im_BradPitt.png', 'Im_ElijahWood.png', 'Im_GeorgeClooney.png'],same,1,0.441978699999936,36,85.71428571428571,
FRKA0706,11,neg,30,neg30_id6_im19.bmp_neg30_id6_im12.bmp,['Im_KeanuReeves.png', 'Im_LeonardoDiCaprio.png', 'Im_DanielCraig.png', 'Im_HughJackman.png', 'Im_DanielRadcliffe.png', 'Im_RobertDowneyJr.png', 'Im_BenStiller.png', 'Im_BradPitt.png', 'Im_ElijahWood.png', 'Im_GeorgeClooney.png'],same,1,0.4250585999998293,37,85.71428571428571,
FRKA0706,12,inv,0,pos0_id5_im20.bmp_pos0_id5_im10.bmp,['Im_KeanuReeves.png', 'Im_LeonardoDiCaprio.png', 'Im_DanielCraig.png', 'Im_HughJackman.png', 'Im_DanielRadcliffe.png', 'Im_RobertDowneyJr.png', 'Im_BenStiller.png', 'Im_BradPitt.png', 'Im_ElijahWood.png', 'Im_GeorgeClooney.png'],diff,0,0.41674349999993865,0,88.0952380952381,
FRKA0706,12,inv,30,pos30_id4_im15.bmp_pos30_id4_im7.bmp,['Im_KeanuReeves.png', 'Im_LeonardoDiCaprio.png', 'Im_DanielCraig.png', 'Im_HughJackman.png', 'Im_DanielRadcliffe.png', 'Im_RobertDowneyJr.png', 'Im_BenStiller.png', 'Im_BradPitt.png', 'Im_ElijahWood.png', 'Im_GeorgeClooney.png'],same,1,0.4252380999998877,1,88.0952380952381,
FRKA0706,12,inv,60,pos60_id7_im26.bmp_pos60_id7_im15.bmp,['Im_KeanuReeves.png', 'Im_LeonardoDiCaprio.png', 'Im_DanielCraig.png', 'Im_HughJackman.png', 'Im_DanielRadcliffe.png', 'Im_RobertDowneyJr.png', 'Im_BenStiller.png', 'Im_BradPitt.png', 'Im_ElijahWood.png', 'Im_GeorgeClooney.png'],same,1,0.4168372999999974,2,88.0952380952381,
FRKA0706,12,inv,90,pos90_id13_im10.bmp_pos90_id13_im29.bmp,['Im_KeanuReeves.png', 'Im_LeonardoDiCaprio.png', 'Im_DanielCraig.png', 'Im_HughJackman.png', 'Im_DanielRadcliffe.png', 'Im_RobertDowneyJr.png', 'Im_BenStiller.png', 'Im_BradPitt.png', 'Im_ElijahWood.png', 'Im_GeorgeClooney.png'],diff,0,0.4167254999999841,2,88.0952380952381,
FRKA0706,12,inv,60,pos60_id6_im12.bmp_pos60_id6_im18.bmp,['Im_KeanuReeves.png', 'Im_LeonardoDiCaprio.png', 'Im_DanielCraig.png', 'Im_HughJackman.png', 'Im_DanielRadcliffe.png', 'Im_RobertDowneyJr.png', 'Im_BenStiller.png', 'Im_BradPitt.png', 'Im_ElijahWood.png', 'Im_GeorgeClooney.png'],same,1,0.41674220000004425,3,88.0952380952381,
FRKA0706,12,inv,150,pos150_id3_im8.bmp_pos150_id3_im6.bmp,['Im_KeanuReeves.png', 'Im_LeonardoDiCaprio.png', 'Im_DanielCraig.png', 'Im_HughJackman.png', 'Im_DanielRadcliffe.png', 'Im_RobertDowneyJr.png', 'Im_BenStiller.png', 'Im_BradPitt.png', 'Im_ElijahWood.png', 'Im_GeorgeClooney.png'],diff,0,0.42511899999999514,3,88.0952380952381,
FRKA0706,12,inv,120,pos120_id11_im2.bmp_pos120_id4_im7.bmp,['Im_KeanuReeves.png', 'Im_LeonardoDiCaprio.png', 'Im_DanielCraig.png', 'Im_HughJackman.png', 'Im_DanielRadcliffe.png', 'Im_RobertDowneyJr.png', 'Im_BenStiller.png', 'Im_BradPitt.png', 'Im_ElijahWood.png', 'Im_GeorgeClooney.png'],diff,1,0.42500109999991764,4,88.0952380952381,
FRKA0706,12,inv,90,pos90_id8_im20.bmp_pos90_id8_im13.bmp,['Im_KeanuReeves.png', 'Im_LeonardoDiCaprio.png', 'Im_DanielCraig.png', 'Im_HughJackman.png', 'Im_DanielRadcliffe.png', 'Im_RobertDowneyJr.png', 'Im_BenStiller.png', 'Im_BradPitt.png', 'Im_ElijahWood.png', 'Im_GeorgeClooney.png'],same,1,0.4249045000001388,5,88.0952380952381,
FRKA0706,12,inv,120,pos120_id8_im21.bmp_pos120_id8_im13.bmp,['Im_KeanuReeves.png', 'Im_LeonardoDiCaprio.png', 'Im_DanielCraig.png', 'Im_HughJackman.png', 'Im_DanielRadcliffe.png', 'Im_RobertDowneyJr.png', 'Im_BenStiller.png', 'Im_BradPitt.png', 'Im_ElijahWood.png', 'Im_GeorgeClooney.png'],same,1,0.44989140000006955,6,88.0952380952381,
FRKA0706,12,inv,fs,posfs_id2_im2.bmp_posfs_id11_im10.bmp,['Im_KeanuReeves.png', 'Im_LeonardoDiCaprio.png', 'Im_DanielCraig.png', 'Im_HughJackman.png', 'Im_DanielRadcliffe.png', 'Im_RobertDowneyJr.png', 'Im_BenStiller.png', 'Im_BradPitt.png', 'Im_ElijahWood.png', 'Im_GeorgeClooney.png'],diff,1,0.42505289999985507,7,88.0952380952381,
FRKA0706,12,inv,0,pos0_id8_im21.bmp_pos0_id3_im6.bmp,['Im_KeanuReeves.png', 'Im_LeonardoDiCaprio.png', 'Im_DanielCraig.png', 'Im_HughJackman.png', 'Im_DanielRadcliffe.png', 'Im_RobertDowneyJr.png', 'Im_BenStiller.png', 'Im_BradPitt.png', 'Im_ElijahWood.png', 'Im_GeorgeClooney.png'],diff,1,0.4251032999998188,8,88.0952380952381,
FRKA0706,12,inv,30,pos30_id2_im2.bmp_pos30_id2_im3.bmp,['Im_KeanuReeves.png', 'Im_LeonardoDiCaprio.png', 'Im_DanielCraig.png', 'Im_HughJackman.png', 'Im_DanielRadcliffe.png', 'Im_RobertDowneyJr.png', 'Im_BenStiller.png', 'Im_BradPitt.png', 'Im_ElijahWood.png', 'Im_GeorgeClooney.png'],same,1,0.41674909999983356,9,88.0952380952381,
FRKA0706,12,inv,fs,posfs_id8_im21.bmp_posfs_id3_im6.bmp,['Im_KeanuReeves.png', 'Im_LeonardoDiCaprio.png', 'Im_DanielCraig.png', 'Im_HughJackman.png', 'Im_DanielRadcliffe.png', 'Im_RobertDowneyJr.png', 'Im_BenStiller.png', 'Im_BradPitt.png', 'Im_ElijahWood.png', 'Im_GeorgeClooney.png'],diff,1,0.4167383000001337,10,88.0952380952381,
FRKA0706,12,inv,150,pos150_id13_im29.bmp_pos150_id13_im15.bmp,['Im_KeanuReeves.png', 'Im_LeonardoDiCaprio.png', 'Im_DanielCraig.png', 'Im_HughJackman.png', 'Im_DanielRadcliffe.png', 'Im_RobertDowneyJr.png', 'Im_BenStiller.png', 'Im_BradPitt.png', 'Im_ElijahWood.png', 'Im_GeorgeClooney.png'],diff,0,0.45009589999995114,10,88.0952380952381,
FRKA0706,13,neg,30,neg30_id11_im2.bmp_neg30_id11_im1.bmp,['Im_KeanuReeves.png', 'Im_LeonardoDiCaprio.png', 'Im_DanielCraig.png', 'Im_HughJackman.png', 'Im_DanielRadcliffe.png', 'Im_RobertDowneyJr.png', 'Im_BenStiller.png', 'Im_BradPitt.png', 'Im_ElijahWood.png', 'Im_GeorgeClooney.png'],diff,0,0.4167069000000083,10,88.0952380952381,
FRKA0706,13,neg,60,neg60_id2_im3.bmp_neg60_id6_im19.bmp,['Im_KeanuReeves.png', 'Im_LeonardoDiCaprio.png', 'Im_DanielCraig.png', 'Im_HughJackman.png', 'Im_DanielRadcliffe.png', 'Im_RobertDowneyJr.png', 'Im_BenStiller.png', 'Im_BradPitt.png', 'Im_ElijahWood.png', 'Im_GeorgeClooney.png'],diff,1,0.4334483000000091,11,88.0952380952381,
FRKA0706,13,neg,120,neg120_id13_im29.bmp_neg120_id13_im10.bmp,['Im_KeanuReeves.png', 'Im_LeonardoDiCaprio.png', 'Im_DanielCraig.png', 'Im_HughJackman.png', 'Im_DanielRadcliffe.png', 'Im_RobertDowneyJr.png', 'Im_BenStiller.png', 'Im_BradPitt.png', 'Im_ElijahWood.png', 'Im_GeorgeClooney.png'],same,1,0.4250784000000749,12,88.0952380952381,
FRKA0706,13,neg,0,neg0_id8_im20.bmp_neg0_id3_im6.bmp,['Im_KeanuReeves.png', 'Im_LeonardoDiCaprio.png', 'Im_DanielCraig.png', 'Im_HughJackman.png', 'Im_DanielRadcliffe.png', 'Im_RobertDowneyJr.png', 'Im_BenStiller.png', 'Im_BradPitt.png', 'Im_ElijahWood.png', 'Im_GeorgeClooney.png'],diff,1,0.4335344000000987,13,88.0952380952381,
FRKA0706,13,neg,150,neg150_id6_im12.bmp_neg150_id3_im17.bmp,['Im_KeanuReeves.png', 'Im_LeonardoDiCaprio.png', 'Im_DanielCraig.png', 'Im_HughJackman.png', 'Im_DanielRadcliffe.png', 'Im_RobertDowneyJr.png', 'Im_BenStiller.png', 'Im_BradPitt.png', 'Im_ElijahWood.png', 'Im_GeorgeClooney.png'],diff,1,0.416768200000206,14,88.0952380952381,
FRKA0706,13,neg,60,neg60_id6_im19.bmp_neg60_id2_im2.bmp,['Im_KeanuReeves.png', 'Im_LeonardoDiCaprio.png', 'Im_DanielCraig.png', 'Im_HughJackman.png', 'Im_DanielRadcliffe.png', 'Im_RobertDowneyJr.png', 'Im_BenStiller.png', 'Im_BradPitt.png', 'Im_ElijahWood.png', 'Im_GeorgeClooney.png'],diff,1,0.5839590000000499,15,88.0952380952381,
FRKA0706,13,neg,90,neg90_id6_im18.bmp_neg90_id6_im19.bmp,['Im_KeanuReeves.png', 'Im_LeonardoDiCaprio.png', 'Im_DanielCraig.png', 'Im_HughJackman.png', 'Im_DanielRadcliffe.png', 'Im_RobertDowneyJr.png', 'Im_BenStiller.png', 'Im_BradPitt.png', 'Im_ElijahWood.png', 'Im_GeorgeClooney.png'],same,1,0.4083669000001464,16,88.0952380952381,
FRKA0706,13,neg,0,neg0_id3_im8.bmp_neg0_id3_im17.bmp,['Im_KeanuReeves.png', 'Im_LeonardoDiCaprio.png', 'Im_DanielCraig.png', 'Im_HughJackman.png', 'Im_DanielRadcliffe.png', 'Im_RobertDowneyJr.png', 'Im_BenStiller.png', 'Im_BradPitt.png', 'Im_ElijahWood.png', 'Im_GeorgeClooney.png'],same,1,0.4250851000001603,17,88.0952380952381,
FRKA0706,13,neg,fs,negfs_id11_im10.bmp_negfs_id2_im2.bmp,['Im_KeanuReeves.png', 'Im_LeonardoDiCaprio.png', 'Im_DanielCraig.png', 'Im_HughJackman.png', 'Im_DanielRadcliffe.png', 'Im_RobertDowneyJr.png', 'Im_BenStiller.png', 'Im_BradPitt.png', 'Im_ElijahWood.png', 'Im_GeorgeClooney.png'],diff,1,0.4250825999999961,18,88.0952380952381,
FRKA0706,13,neg,150,neg150_id7_im15.bmp_neg150_id18_im18.bmp,['Im_KeanuReeves.png', 'Im_LeonardoDiCaprio.png', 'Im_DanielCraig.png', 'Im_HughJackman.png', 'Im_DanielRadcliffe.png', 'Im_RobertDowneyJr.png', 'Im_BenStiller.png', 'Im_BradPitt.png', 'Im_ElijahWood.png', 'Im_GeorgeClooney.png'],diff,1,0.42517739999993864,19,88.0952380952381,
FRKA0706,13,neg,fs,negfs_id7_im14.bmp_negfs_id11_im1.bmp,['Im_KeanuReeves.png', 'Im_LeonardoDiCaprio.png', 'Im_DanielCraig.png', 'Im_HughJackman.png', 'Im_DanielRadcliffe.png', 'Im_RobertDowneyJr.png', 'Im_BenStiller.png', 'Im_BradPitt.png', 'Im_ElijahWood.png', 'Im_GeorgeClooney.png'],diff,1,0.42508120000002236,20,88.0952380952381,
FRKA0706,13,neg,90,neg90_id4_im20.bmp_neg90_id7_im26.bmp,['Im_KeanuReeves.png', 'Im_LeonardoDiCaprio.png', 'Im_DanielCraig.png', 'Im_HughJackman.png', 'Im_DanielRadcliffe.png', 'Im_RobertDowneyJr.png', 'Im_BenStiller.png', 'Im_BradPitt.png', 'Im_ElijahWood.png', 'Im_GeorgeClooney.png'],diff,1,0.4169944000000214,21,88.0952380952381,
FRKA0706,13,neg,30,neg30_id13_im29.bmp_neg30_id11_im2.bmp,['Im_KeanuReeves.png', 'Im_LeonardoDiCaprio.png', 'Im_DanielCraig.png', 'Im_HughJackman.png', 'Im_DanielRadcliffe.png', 'Im_RobertDowneyJr.png', 'Im_BenStiller.png', 'Im_BradPitt.png', 'Im_ElijahWood.png', 'Im_GeorgeClooney.png'],diff,1,0.4248049999998784,22,88.0952380952381,
FRKA0706,13,neg,120,neg120_id7_im26.bmp_neg120_id4_im20.bmp,['Im_KeanuReeves.png', 'Im_LeonardoDiCaprio.png', 'Im_DanielCraig.png', 'Im_HughJackman.png', 'Im_DanielRadcliffe.png', 'Im_RobertDowneyJr.png', 'Im_BenStiller.png', 'Im_BradPitt.png', 'Im_ElijahWood.png', 'Im_GeorgeClooney.png'],diff,1,0.40821200000004865,23,88.0952380952381,
FRKA0706,14,inv,60,pos60_id11_im2.bmp_pos60_id11_im1.bmp,['Im_KeanuReeves.png', 'Im_LeonardoDiCaprio.png', 'Im_DanielCraig.png', 'Im_HughJackman.png', 'Im_DanielRadcliffe.png', 'Im_RobertDowneyJr.png', 'Im_BenStiller.png', 'Im_BradPitt.png', 'Im_ElijahWood.png', 'Im_GeorgeClooney.png'],diff,0,0.4164860000000772,23,88.0952380952381,
FRKA0706,14,inv,90,pos90_id3_im8.bmp_pos90_id18_im19.bmp,['Im_KeanuReeves.png', 'Im_LeonardoDiCaprio.png', 'Im_DanielCraig.png', 'Im_HughJackman.png', 'Im_DanielRadcliffe.png', 'Im_RobertDowneyJr.png', 'Im_BenStiller.png', 'Im_BradPitt.png', 'Im_ElijahWood.png', 'Im_GeorgeClooney.png'],same,0,0.425130099999933,23,88.0952380952381,
FRKA0706,14,inv,150,pos150_id4_im20.bmp_pos150_id4_im7.bmp,['Im_KeanuReeves.png', 'Im_LeonardoDiCaprio.png', 'Im_DanielCraig.png', 'Im_HughJackman.png', 'Im_DanielRadcliffe.png', 'Im_RobertDowneyJr.png', 'Im_BenStiller.png', 'Im_BradPitt.png', 'Im_ElijahWood.png', 'Im_GeorgeClooney.png'],same,1,0.4584138999998686,24,88.0952380952381,
FRKA0706,14,inv,fs,posfs_id3_im17.bmp_posfs_id6_im12.bmp,['Im_KeanuReeves.png', 'Im_LeonardoDiCaprio.png', 'Im_DanielCraig.png', 'Im_HughJackman.png', 'Im_DanielRadcliffe.png', 'Im_RobertDowneyJr.png', 'Im_BenStiller.png', 'Im_BradPitt.png', 'Im_ElijahWood.png', 'Im_GeorgeClooney.png'],diff,1,0.4250974000001406,25,88.0952380952381,
FRKA0706,14,inv,150,pos150_id6_im18.bmp_pos150_id8_im13.bmp,['Im_KeanuReeves.png', 'Im_LeonardoDiCaprio.png', 'Im_DanielCraig.png', 'Im_HughJackman.png', 'Im_DanielRadcliffe.png', 'Im_RobertDowneyJr.png', 'Im_BenStiller.png', 'Im_BradPitt.png', 'Im_ElijahWood.png', 'Im_GeorgeClooney.png'],same,0,0.40840370000000803,25,88.0952380952381,
FRKA0706,14,inv,fs,posfs_id11_im2.bmp_posfs_id13_im29.bmp,['Im_KeanuReeves.png', 'Im_LeonardoDiCaprio.png', 'Im_DanielCraig.png', 'Im_HughJackman.png', 'Im_DanielRadcliffe.png', 'Im_RobertDowneyJr.png', 'Im_BenStiller.png', 'Im_BradPitt.png', 'Im_ElijahWood.png', 'Im_GeorgeClooney.png'],diff,1,0.41698710000014216,26,88.0952380952381,
FRKA0706,14,inv,0,pos0_id8_im21.bmp_pos0_id5_im20.bmp,['Im_KeanuReeves.png', 'Im_LeonardoDiCaprio.png', 'Im_DanielCraig.png', 'Im_HughJackman.png', 'Im_DanielRadcliffe.png', 'Im_RobertDowneyJr.png', 'Im_BenStiller.png', 'Im_BradPitt.png', 'Im_ElijahWood.png', 'Im_GeorgeClooney.png'],diff,1,0.43334709999999177,27,88.0952380952381,
FRKA0706,14,inv,60,pos60_id11_im1.bmp_pos60_id7_im14.bmp,['Im_KeanuReeves.png', 'Im_LeonardoDiCaprio.png', 'Im_DanielCraig.png', 'Im_HughJackman.png', 'Im_DanielRadcliffe.png', 'Im_RobertDowneyJr.png', 'Im_BenStiller.png', 'Im_BradPitt.png', 'Im_ElijahWood.png', 'Im_GeorgeClooney.png'],diff,1,0.41675149999991845,28,88.0952380952381,
FRKA0706,14,inv,30,pos30_id6_im12.bmp_pos30_id3_im17.bmp,['Im_KeanuReeves.png', 'Im_LeonardoDiCaprio.png', 'Im_DanielCraig.png', 'Im_HughJackman.png', 'Im_DanielRadcliffe.png', 'Im_RobertDowneyJr.png', 'Im_BenStiller.png', 'Im_BradPitt.png', 'Im_ElijahWood.png', 'Im_GeorgeClooney.png'],diff,1,0.433394700000008,29,88.0952380952381,
FRKA0706,14,inv,0,pos0_id3_im8.bmp_pos0_id3_im6.bmp,['Im_KeanuReeves.png', 'Im_LeonardoDiCaprio.png', 'Im_DanielCraig.png', 'Im_HughJackman.png', 'Im_DanielRadcliffe.png', 'Im_RobertDowneyJr.png', 'Im_BenStiller.png', 'Im_BradPitt.png', 'Im_ElijahWood.png', 'Im_GeorgeClooney.png'],diff,0,0.49190939999994043,29,88.0952380952381,
FRKA0706,14,inv,120,pos120_id5_im10.bmp_pos120_id11_im10.bmp,['Im_KeanuReeves.png', 'Im_LeonardoDiCaprio.png', 'Im_DanielCraig.png', 'Im_HughJackman.png', 'Im_DanielRadcliffe.png', 'Im_RobertDowneyJr.png', 'Im_BenStiller.png', 'Im_BradPitt.png', 'Im_ElijahWood.png', 'Im_GeorgeClooney.png'],diff,1,0.4248744000001352,30,88.0952380952381,
FRKA0706,14,inv,90,pos90_id2_im2.bmp_pos90_id6_im19.bmp,['Im_KeanuReeves.png', 'Im_LeonardoDiCaprio.png', 'Im_DanielCraig.png', 'Im_HughJackman.png', 'Im_DanielRadcliffe.png', 'Im_RobertDowneyJr.png', 'Im_BenStiller.png', 'Im_BradPitt.png', 'Im_ElijahWood.png', 'Im_GeorgeClooney.png'],same,0,0.5584289999999328,30,88.0952380952381,
FRKA0706,14,inv,30,pos30_id2_im16.bmp_pos30_id2_im2.bmp,['Im_KeanuReeves.png', 'Im_LeonardoDiCaprio.png', 'Im_DanielCraig.png', 'Im_HughJackman.png', 'Im_DanielRadcliffe.png', 'Im_RobertDowneyJr.png', 'Im_BenStiller.png', 'Im_BradPitt.png', 'Im_ElijahWood.png', 'Im_GeorgeClooney.png'],diff,0,0.41672029999995175,30,88.0952380952381,
FRKA0706,14,inv,120,pos120_id2_im16.bmp_pos120_id2_im3.bmp,['Im_KeanuReeves.png', 'Im_LeonardoDiCaprio.png', 'Im_DanielCraig.png', 'Im_HughJackman.png', 'Im_DanielRadcliffe.png', 'Im_RobertDowneyJr.png', 'Im_BenStiller.png', 'Im_BradPitt.png', 'Im_ElijahWood.png', 'Im_GeorgeClooney.png'],same,1,0.5003701000000547,31,88.0952380952381,
FRKA0706,15,pos,60,pos60_id7_im15.bmp_pos60_id18_im18.bmp,['Im_KeanuReeves.png', 'Im_LeonardoDiCaprio.png', 'Im_DanielCraig.png', 'Im_HughJackman.png', 'Im_DanielRadcliffe.png', 'Im_RobertDowneyJr.png', 'Im_BenStiller.png', 'Im_BradPitt.png', 'Im_ElijahWood.png', 'Im_GeorgeClooney.png'],diff,1,0.41664079999986825,1,73.80952380952381,
FRKA0706,15,pos,30,pos30_id3_im8.bmp_pos30_id18_im19.bmp,['Im_KeanuReeves.png', 'Im_LeonardoDiCaprio.png', 'Im_DanielCraig.png', 'Im_HughJackman.png', 'Im_DanielRadcliffe.png', 'Im_RobertDowneyJr.png', 'Im_BenStiller.png', 'Im_BradPitt.png', 'Im_ElijahWood.png', 'Im_GeorgeClooney.png'],diff,1,0.4250197000001208,2,73.80952380952381,
FRKA0706,15,pos,60,pos60_id6_im19.bmp_pos60_id2_im2.bmp,['Im_KeanuReeves.png', 'Im_LeonardoDiCaprio.png', 'Im_DanielCraig.png', 'Im_HughJackman.png', 'Im_DanielRadcliffe.png', 'Im_RobertDowneyJr.png', 'Im_BenStiller.png', 'Im_BradPitt.png', 'Im_ElijahWood.png', 'Im_GeorgeClooney.png'],diff,1,0.42489290000003166,3,73.80952380952381,
FRKA0706,15,pos,120,pos120_id4_im7.bmp_pos120_id4_im15.bmp,['Im_KeanuReeves.png', 'Im_LeonardoDiCaprio.png', 'Im_DanielCraig.png', 'Im_HughJackman.png', 'Im_DanielRadcliffe.png', 'Im_RobertDowneyJr.png', 'Im_BenStiller.png', 'Im_BradPitt.png', 'Im_ElijahWood.png', 'Im_GeorgeClooney.png'],same,1,0.4249898000000485,4,73.80952380952381,
FRKA0706,15,pos,fs,posfs_id4_im20.bmp_posfs_id7_im15.bmp,['Im_KeanuReeves.png', 'Im_LeonardoDiCaprio.png', 'Im_DanielCraig.png', 'Im_HughJackman.png', 'Im_DanielRadcliffe.png', 'Im_RobertDowneyJr.png', 'Im_BenStiller.png', 'Im_BradPitt.png', 'Im_ElijahWood.png', 'Im_GeorgeClooney.png'],diff,1,0.4250941000000239,5,73.80952380952381,
FRKA0706,15,pos,0,pos0_id4_im20.bmp_pos0_id7_im26.bmp,['Im_KeanuReeves.png', 'Im_LeonardoDiCaprio.png', 'Im_DanielCraig.png', 'Im_HughJackman.png', 'Im_DanielRadcliffe.png', 'Im_RobertDowneyJr.png', 'Im_BenStiller.png', 'Im_BradPitt.png', 'Im_ElijahWood.png', 'Im_GeorgeClooney.png'],diff,1,0.4166572999999971,6,73.80952380952381,
