Sujet,Trial,Condition,Filter,Imname,Actor0,Actor1,Actor2,Actor3,Actor4,Actor5,Actor6,Actor7,Actor8,Actor9,Answer,Accu,RT,Score,Scoreperc, 
GUES1603,train,pos,fs,posfs_id3_im17.bmp_posfs_id3_im6.bmp,['Im_DanielCraig.png', 'Im_PatrickDempsey.png', 'Im_GeorgeClooney.png', 'Im_ElijahWood.png', 'Im_KeanuReeves.png', 'Im_JustinTimberlake.png', 'Im_OrlandoBloom.png', 'Im_BradPitt.png', 'Im_RobertPattinson.png', 'Im_HughJackman.png'],diff,0,2.1750067999996645,0,0,
GUES1603,train,pos,fs,posfs_id16_im19.bmp_posfs_id3_im17.bmp,['Im_DanielCraig.png', 'Im_PatrickDempsey.png', 'Im_GeorgeClooney.png', 'Im_ElijahWood.png', 'Im_KeanuReeves.png', 'Im_JustinTimberlake.png', 'Im_OrlandoBloom.png', 'Im_BradPitt.png', 'Im_RobertPattinson.png', 'Im_HughJackman.png'],diff,1,1.4833545999999842,1,0,
GUES1603,train,pos,fs,posfs_id16_im3.bmp_posfs_id16_im19.bmp,['Im_DanielCraig.png', 'Im_PatrickDempsey.png', 'Im_GeorgeClooney.png', 'Im_ElijahWood.png', 'Im_KeanuReeves.png', 'Im_JustinTimberlake.png', 'Im_OrlandoBloom.png', 'Im_BradPitt.png', 'Im_RobertPattinson.png', 'Im_HughJackman.png'],same,1,1.2335014000000228,2,0,
GUES1603,train,pos,fs,posfs_id7_im26.bmp_posfs_id3_im6.bmp,['Im_DanielCraig.png', 'Im_PatrickDempsey.png', 'Im_GeorgeClooney.png', 'Im_ElijahWood.png', 'Im_KeanuReeves.png', 'Im_JustinTimberlake.png', 'Im_OrlandoBloom.png', 'Im_BradPitt.png', 'Im_RobertPattinson.png', 'Im_HughJackman.png'],diff,1,0.9412194999999883,3,0,
GUES1603,train,pos,fs,posfs_id7_im14.bmp_posfs_id7_im26.bmp,['Im_DanielCraig.png', 'Im_PatrickDempsey.png', 'Im_GeorgeClooney.png', 'Im_ElijahWood.png', 'Im_KeanuReeves.png', 'Im_JustinTimberlake.png', 'Im_OrlandoBloom.png', 'Im_BradPitt.png', 'Im_RobertPattinson.png', 'Im_HughJackman.png'],same,1,1.124997599999915,4,0,
GUES1603,train,pos,fs,posfs_id4_im15.bmp_posfs_id4_im20.bmp,['Im_DanielCraig.png', 'Im_PatrickDempsey.png', 'Im_GeorgeClooney.png', 'Im_ElijahWood.png', 'Im_KeanuReeves.png', 'Im_JustinTimberlake.png', 'Im_OrlandoBloom.png', 'Im_BradPitt.png', 'Im_RobertPattinson.png', 'Im_HughJackman.png'],same,1,0.9252870000000257,5,0,
GUES1603,train,pos,fs,posfs_id11_im10.bmp_posfs_id17_im14.bmp,['Im_DanielCraig.png', 'Im_PatrickDempsey.png', 'Im_GeorgeClooney.png', 'Im_ElijahWood.png', 'Im_KeanuReeves.png', 'Im_JustinTimberlake.png', 'Im_OrlandoBloom.png', 'Im_BradPitt.png', 'Im_RobertPattinson.png', 'Im_HughJackman.png'],diff,1,0.9751749000001837,6,0,
GUES1603,train,pos,fs,posfs_id7_im14.bmp_posfs_id7_im15.bmp,['Im_DanielCraig.png', 'Im_PatrickDempsey.png', 'Im_GeorgeClooney.png', 'Im_ElijahWood.png', 'Im_KeanuReeves.png', 'Im_JustinTimberlake.png', 'Im_OrlandoBloom.png', 'Im_BradPitt.png', 'Im_RobertPattinson.png', 'Im_HughJackman.png'],same,1,1.1500711999997293,7,0,
GUES1603,train,pos,fs,posfs_id4_im20.bmp_posfs_id4_im7.bmp,['Im_DanielCraig.png', 'Im_PatrickDempsey.png', 'Im_GeorgeClooney.png', 'Im_ElijahWood.png', 'Im_KeanuReeves.png', 'Im_JustinTimberlake.png', 'Im_OrlandoBloom.png', 'Im_BradPitt.png', 'Im_RobertPattinson.png', 'Im_HughJackman.png'],same,1,0.9164876999998341,8,0,
GUES1603,train,pos,fs,posfs_id19_im27.bmp_posfs_id19_im8.bmp,['Im_DanielCraig.png', 'Im_PatrickDempsey.png', 'Im_GeorgeClooney.png', 'Im_ElijahWood.png', 'Im_KeanuReeves.png', 'Im_JustinTimberlake.png', 'Im_OrlandoBloom.png', 'Im_BradPitt.png', 'Im_RobertPattinson.png', 'Im_HughJackman.png'],same,1,0.8249505999997382,9,0,
GUES1603,train,pos,fs,posfs_id7_im26.bmp_posfs_id7_im15.bmp,['Im_DanielCraig.png', 'Im_PatrickDempsey.png', 'Im_GeorgeClooney.png', 'Im_ElijahWood.png', 'Im_KeanuReeves.png', 'Im_JustinTimberlake.png', 'Im_OrlandoBloom.png', 'Im_BradPitt.png', 'Im_RobertPattinson.png', 'Im_HughJackman.png'],same,1,0.9418331000001672,10,0,
GUES1603,train,pos,fs,posfs_id11_im2.bmp_posfs_id10_im18.bmp,['Im_DanielCraig.png', 'Im_PatrickDempsey.png', 'Im_GeorgeClooney.png', 'Im_ElijahWood.png', 'Im_KeanuReeves.png', 'Im_JustinTimberlake.png', 'Im_OrlandoBloom.png', 'Im_BradPitt.png', 'Im_RobertPattinson.png', 'Im_HughJackman.png'],diff,1,0.808660300000156,11,0,
GUES1603,train,pos,fs,posfs_id16_im3.bmp_posfs_id19_im8.bmp,['Im_DanielCraig.png', 'Im_PatrickDempsey.png', 'Im_GeorgeClooney.png', 'Im_ElijahWood.png', 'Im_KeanuReeves.png', 'Im_JustinTimberlake.png', 'Im_OrlandoBloom.png', 'Im_BradPitt.png', 'Im_RobertPattinson.png', 'Im_HughJackman.png'],diff,1,1.133631400000013,12,0,
GUES1603,train,pos,fs,posfs_id11_im2.bmp_posfs_id11_im10.bmp,['Im_DanielCraig.png', 'Im_PatrickDempsey.png', 'Im_GeorgeClooney.png', 'Im_ElijahWood.png', 'Im_KeanuReeves.png', 'Im_JustinTimberlake.png', 'Im_OrlandoBloom.png', 'Im_BradPitt.png', 'Im_RobertPattinson.png', 'Im_HughJackman.png'],same,1,0.7668637000001581,13,0,
GUES1603,train,pos,fs,posfs_id10_im1.bmp_posfs_id7_im14.bmp,['Im_DanielCraig.png', 'Im_PatrickDempsey.png', 'Im_GeorgeClooney.png', 'Im_ElijahWood.png', 'Im_KeanuReeves.png', 'Im_JustinTimberlake.png', 'Im_OrlandoBloom.png', 'Im_BradPitt.png', 'Im_RobertPattinson.png', 'Im_HughJackman.png'],diff,1,0.8167852000001403,14,0,
GUES1603,train,pos,fs,posfs_id16_im2.bmp_posfs_id16_im3.bmp,['Im_DanielCraig.png', 'Im_PatrickDempsey.png', 'Im_GeorgeClooney.png', 'Im_ElijahWood.png', 'Im_KeanuReeves.png', 'Im_JustinTimberlake.png', 'Im_OrlandoBloom.png', 'Im_BradPitt.png', 'Im_RobertPattinson.png', 'Im_HughJackman.png'],same,1,0.7998935999999048,15,0,
GUES1603,train,pos,fs,posfs_id19_im27.bmp_posfs_id19_im4.bmp,['Im_DanielCraig.png', 'Im_PatrickDempsey.png', 'Im_GeorgeClooney.png', 'Im_ElijahWood.png', 'Im_KeanuReeves.png', 'Im_JustinTimberlake.png', 'Im_OrlandoBloom.png', 'Im_BradPitt.png', 'Im_RobertPattinson.png', 'Im_HughJackman.png'],same,1,0.7918440999997074,16,0,
GUES1603,train,pos,fs,posfs_id6_im18.bmp_posfs_id6_im19.bmp,['Im_DanielCraig.png', 'Im_PatrickDempsey.png', 'Im_GeorgeClooney.png', 'Im_ElijahWood.png', 'Im_KeanuReeves.png', 'Im_JustinTimberlake.png', 'Im_OrlandoBloom.png', 'Im_BradPitt.png', 'Im_RobertPattinson.png', 'Im_HughJackman.png'],same,1,0.774963200000002,17,0,
GUES1603,train,pos,fs,posfs_id17_im14.bmp_posfs_id17_im9.bmp,['Im_DanielCraig.png', 'Im_PatrickDempsey.png', 'Im_GeorgeClooney.png', 'Im_ElijahWood.png', 'Im_KeanuReeves.png', 'Im_JustinTimberlake.png', 'Im_OrlandoBloom.png', 'Im_BradPitt.png', 'Im_RobertPattinson.png', 'Im_HughJackman.png'],same,1,0.9419416999999157,18,0,
GUES1603,train,pos,fs,posfs_id4_im20.bmp_posfs_id17_im9.bmp,['Im_DanielCraig.png', 'Im_PatrickDempsey.png', 'Im_GeorgeClooney.png', 'Im_ElijahWood.png', 'Im_KeanuReeves.png', 'Im_JustinTimberlake.png', 'Im_OrlandoBloom.png', 'Im_BradPitt.png', 'Im_RobertPattinson.png', 'Im_HughJackman.png'],diff,1,0.8499394000000393,19,0,
GUES1603,train,neg,fs,negfs_id16_im19.bmp_negfs_id7_im26.bmp,['Im_DanielCraig.png', 'Im_PatrickDempsey.png', 'Im_GeorgeClooney.png', 'Im_ElijahWood.png', 'Im_KeanuReeves.png', 'Im_JustinTimberlake.png', 'Im_OrlandoBloom.png', 'Im_BradPitt.png', 'Im_RobertPattinson.png', 'Im_HughJackman.png'],diff,1,0.7003429000001233,1,0,
GUES1603,train,pos,fs,posfs_id10_im1.bmp_posfs_id4_im15.bmp,['Im_DanielCraig.png', 'Im_PatrickDempsey.png', 'Im_GeorgeClooney.png', 'Im_ElijahWood.png', 'Im_KeanuReeves.png', 'Im_JustinTimberlake.png', 'Im_OrlandoBloom.png', 'Im_BradPitt.png', 'Im_RobertPattinson.png', 'Im_HughJackman.png'],diff,1,1.033561600000212,2,0,
GUES1603,train,pos,fs,posfs_id10_im18.bmp_posfs_id10_im1.bmp,['Im_DanielCraig.png', 'Im_PatrickDempsey.png', 'Im_GeorgeClooney.png', 'Im_ElijahWood.png', 'Im_KeanuReeves.png', 'Im_JustinTimberlake.png', 'Im_OrlandoBloom.png', 'Im_BradPitt.png', 'Im_RobertPattinson.png', 'Im_HughJackman.png'],same,1,0.48365919999969265,3,0,
GUES1603,train,inv,fs,posfs_id3_im17.bmp_posfs_id8_im20.bmp,['Im_DanielCraig.png', 'Im_PatrickDempsey.png', 'Im_GeorgeClooney.png', 'Im_ElijahWood.png', 'Im_KeanuReeves.png', 'Im_JustinTimberlake.png', 'Im_OrlandoBloom.png', 'Im_BradPitt.png', 'Im_RobertPattinson.png', 'Im_HughJackman.png'],diff,1,0.6834869000003891,4,0,
GUES1603,train,pos,fs,posfs_id3_im17.bmp_posfs_id3_im6.bmp,['Im_DanielCraig.png', 'Im_PatrickDempsey.png', 'Im_GeorgeClooney.png', 'Im_ElijahWood.png', 'Im_KeanuReeves.png', 'Im_JustinTimberlake.png', 'Im_OrlandoBloom.png', 'Im_BradPitt.png', 'Im_RobertPattinson.png', 'Im_HughJackman.png'],diff,0,0.5499744999997347,4,0,
GUES1603,train,pos,fs,posfs_id7_im14.bmp_posfs_id7_im15.bmp,['Im_DanielCraig.png', 'Im_PatrickDempsey.png', 'Im_GeorgeClooney.png', 'Im_ElijahWood.png', 'Im_KeanuReeves.png', 'Im_JustinTimberlake.png', 'Im_OrlandoBloom.png', 'Im_BradPitt.png', 'Im_RobertPattinson.png', 'Im_HughJackman.png'],same,1,0.5332243999996535,5,0,
GUES1603,train,inv,fs,posfs_id7_im15.bmp_posfs_id7_im26.bmp,['Im_DanielCraig.png', 'Im_PatrickDempsey.png', 'Im_GeorgeClooney.png', 'Im_ElijahWood.png', 'Im_KeanuReeves.png', 'Im_JustinTimberlake.png', 'Im_OrlandoBloom.png', 'Im_BradPitt.png', 'Im_RobertPattinson.png', 'Im_HughJackman.png'],same,1,0.6675303000001804,6,0,
GUES1603,train,neg,fs,negfs_id16_im19.bmp_negfs_id3_im17.bmp,['Im_DanielCraig.png', 'Im_PatrickDempsey.png', 'Im_GeorgeClooney.png', 'Im_ElijahWood.png', 'Im_KeanuReeves.png', 'Im_JustinTimberlake.png', 'Im_OrlandoBloom.png', 'Im_BradPitt.png', 'Im_RobertPattinson.png', 'Im_HughJackman.png'],diff,1,0.5002445999998599,7,0,
GUES1603,train,inv,fs,posfs_id17_im14.bmp_posfs_id11_im10.bmp,['Im_DanielCraig.png', 'Im_PatrickDempsey.png', 'Im_GeorgeClooney.png', 'Im_ElijahWood.png', 'Im_KeanuReeves.png', 'Im_JustinTimberlake.png', 'Im_OrlandoBloom.png', 'Im_BradPitt.png', 'Im_RobertPattinson.png', 'Im_HughJackman.png'],diff,1,0.8502677999999833,8,0,
GUES1603,train,pos,fs,posfs_id3_im8.bmp_posfs_id6_im18.bmp,['Im_DanielCraig.png', 'Im_PatrickDempsey.png', 'Im_GeorgeClooney.png', 'Im_ElijahWood.png', 'Im_KeanuReeves.png', 'Im_JustinTimberlake.png', 'Im_OrlandoBloom.png', 'Im_BradPitt.png', 'Im_RobertPattinson.png', 'Im_HughJackman.png'],diff,1,0.45864069999970525,9,0,
GUES1603,train,inv,fs,posfs_id6_im12.bmp_posfs_id6_im18.bmp,['Im_DanielCraig.png', 'Im_PatrickDempsey.png', 'Im_GeorgeClooney.png', 'Im_ElijahWood.png', 'Im_KeanuReeves.png', 'Im_JustinTimberlake.png', 'Im_OrlandoBloom.png', 'Im_BradPitt.png', 'Im_RobertPattinson.png', 'Im_HughJackman.png'],diff,0,1.1500878000001649,9,0,
GUES1603,train,pos,fs,posfs_id7_im15.bmp_posfs_id7_im26.bmp,['Im_DanielCraig.png', 'Im_PatrickDempsey.png', 'Im_GeorgeClooney.png', 'Im_ElijahWood.png', 'Im_KeanuReeves.png', 'Im_JustinTimberlake.png', 'Im_OrlandoBloom.png', 'Im_BradPitt.png', 'Im_RobertPattinson.png', 'Im_HughJackman.png'],same,1,0.6506078000002162,10,0,
GUES1603,train,pos,fs,posfs_id17_im8.bmp_posfs_id6_im19.bmp,['Im_DanielCraig.png', 'Im_PatrickDempsey.png', 'Im_GeorgeClooney.png', 'Im_ElijahWood.png', 'Im_KeanuReeves.png', 'Im_JustinTimberlake.png', 'Im_OrlandoBloom.png', 'Im_BradPitt.png', 'Im_RobertPattinson.png', 'Im_HughJackman.png'],diff,1,0.41674830000010843,11,0,
GUES1603,train,pos,fs,posfs_id16_im3.bmp_posfs_id8_im13.bmp,['Im_DanielCraig.png', 'Im_PatrickDempsey.png', 'Im_GeorgeClooney.png', 'Im_ElijahWood.png', 'Im_KeanuReeves.png', 'Im_JustinTimberlake.png', 'Im_OrlandoBloom.png', 'Im_BradPitt.png', 'Im_RobertPattinson.png', 'Im_HughJackman.png'],diff,1,0.433371999999963,12,0,
GUES1603,train,pos,fs,posfs_id3_im8.bmp_posfs_id3_im17.bmp,['Im_DanielCraig.png', 'Im_PatrickDempsey.png', 'Im_GeorgeClooney.png', 'Im_ElijahWood.png', 'Im_KeanuReeves.png', 'Im_JustinTimberlake.png', 'Im_OrlandoBloom.png', 'Im_BradPitt.png', 'Im_RobertPattinson.png', 'Im_HughJackman.png'],same,1,1.0918550000001233,13,0,
GUES1603,train,inv,fs,posfs_id6_im18.bmp_posfs_id3_im8.bmp,['Im_DanielCraig.png', 'Im_PatrickDempsey.png', 'Im_GeorgeClooney.png', 'Im_ElijahWood.png', 'Im_KeanuReeves.png', 'Im_JustinTimberlake.png', 'Im_OrlandoBloom.png', 'Im_BradPitt.png', 'Im_RobertPattinson.png', 'Im_HughJackman.png'],diff,1,0.5500389000003452,14,0,
GUES1603,train,pos,fs,posfs_id11_im10.bmp_posfs_id11_im2.bmp,['Im_DanielCraig.png', 'Im_PatrickDempsey.png', 'Im_GeorgeClooney.png', 'Im_ElijahWood.png', 'Im_KeanuReeves.png', 'Im_JustinTimberlake.png', 'Im_OrlandoBloom.png', 'Im_BradPitt.png', 'Im_RobertPattinson.png', 'Im_HughJackman.png'],same,1,0.4835417999997844,15,0,
GUES1603,train,neg,fs,negfs_id8_im13.bmp_negfs_id8_im21.bmp,['Im_DanielCraig.png', 'Im_PatrickDempsey.png', 'Im_GeorgeClooney.png', 'Im_ElijahWood.png', 'Im_KeanuReeves.png', 'Im_JustinTimberlake.png', 'Im_OrlandoBloom.png', 'Im_BradPitt.png', 'Im_RobertPattinson.png', 'Im_HughJackman.png'],same,1,0.6335128000000623,16,0,
GUES1603,train,pos,fs,posfs_id11_im2.bmp_posfs_id4_im15.bmp,['Im_DanielCraig.png', 'Im_PatrickDempsey.png', 'Im_GeorgeClooney.png', 'Im_ElijahWood.png', 'Im_KeanuReeves.png', 'Im_JustinTimberlake.png', 'Im_OrlandoBloom.png', 'Im_BradPitt.png', 'Im_RobertPattinson.png', 'Im_HughJackman.png'],diff,1,0.40833840000004784,17,0,
GUES1603,train,inv,fs,posfs_id10_im17.bmp_posfs_id10_im18.bmp,['Im_DanielCraig.png', 'Im_PatrickDempsey.png', 'Im_GeorgeClooney.png', 'Im_ElijahWood.png', 'Im_KeanuReeves.png', 'Im_JustinTimberlake.png', 'Im_OrlandoBloom.png', 'Im_BradPitt.png', 'Im_RobertPattinson.png', 'Im_HughJackman.png'],diff,0,0.708359499999915,17,0,
GUES1603,train,pos,120,pos120_id11_im2.bmp_pos120_id11_im1.bmp,['Im_DanielCraig.png', 'Im_PatrickDempsey.png', 'Im_GeorgeClooney.png', 'Im_ElijahWood.png', 'Im_KeanuReeves.png', 'Im_JustinTimberlake.png', 'Im_OrlandoBloom.png', 'Im_BradPitt.png', 'Im_RobertPattinson.png', 'Im_HughJackman.png'],diff,0,0.6834601999998995,0,0,
GUES1603,train,pos,150,pos150_id6_im12.bmp_pos150_id19_im27.bmp,['Im_DanielCraig.png', 'Im_PatrickDempsey.png', 'Im_GeorgeClooney.png', 'Im_ElijahWood.png', 'Im_KeanuReeves.png', 'Im_JustinTimberlake.png', 'Im_OrlandoBloom.png', 'Im_BradPitt.png', 'Im_RobertPattinson.png', 'Im_HughJackman.png'],diff,1,0.5002368000000388,1,0,
GUES1603,train,pos,90,pos90_id17_im8.bmp_pos90_id6_im19.bmp,['Im_DanielCraig.png', 'Im_PatrickDempsey.png', 'Im_GeorgeClooney.png', 'Im_ElijahWood.png', 'Im_KeanuReeves.png', 'Im_JustinTimberlake.png', 'Im_OrlandoBloom.png', 'Im_BradPitt.png', 'Im_RobertPattinson.png', 'Im_HughJackman.png'],diff,1,0.875288300000193,2,0,
GUES1603,train,pos,30,pos30_id4_im20.bmp_pos30_id4_im15.bmp,['Im_DanielCraig.png', 'Im_PatrickDempsey.png', 'Im_GeorgeClooney.png', 'Im_ElijahWood.png', 'Im_KeanuReeves.png', 'Im_JustinTimberlake.png', 'Im_OrlandoBloom.png', 'Im_BradPitt.png', 'Im_RobertPattinson.png', 'Im_HughJackman.png'],same,1,0.45837399999982154,3,0,
GUES1603,train,pos,fs,posfs_id6_im18.bmp_posfs_id6_im19.bmp,['Im_DanielCraig.png', 'Im_PatrickDempsey.png', 'Im_GeorgeClooney.png', 'Im_ElijahWood.png', 'Im_KeanuReeves.png', 'Im_JustinTimberlake.png', 'Im_OrlandoBloom.png', 'Im_BradPitt.png', 'Im_RobertPattinson.png', 'Im_HughJackman.png'],same,1,0.48353469999983645,4,0,
GUES1603,train,pos,90,pos90_id6_im12.bmp_pos90_id6_im18.bmp,['Im_DanielCraig.png', 'Im_PatrickDempsey.png', 'Im_GeorgeClooney.png', 'Im_ElijahWood.png', 'Im_KeanuReeves.png', 'Im_JustinTimberlake.png', 'Im_OrlandoBloom.png', 'Im_BradPitt.png', 'Im_RobertPattinson.png', 'Im_HughJackman.png'],same,1,0.5584152999999787,5,0,
GUES1603,train,pos,0,pos0_id10_im1.bmp_pos0_id7_im14.bmp,['Im_DanielCraig.png', 'Im_PatrickDempsey.png', 'Im_GeorgeClooney.png', 'Im_ElijahWood.png', 'Im_KeanuReeves.png', 'Im_JustinTimberlake.png', 'Im_OrlandoBloom.png', 'Im_BradPitt.png', 'Im_RobertPattinson.png', 'Im_HughJackman.png'],diff,1,0.5669467000002442,6,0,
GUES1603,train,pos,0,pos0_id11_im2.bmp_pos0_id11_im10.bmp,['Im_DanielCraig.png', 'Im_PatrickDempsey.png', 'Im_GeorgeClooney.png', 'Im_ElijahWood.png', 'Im_KeanuReeves.png', 'Im_JustinTimberlake.png', 'Im_OrlandoBloom.png', 'Im_BradPitt.png', 'Im_RobertPattinson.png', 'Im_HughJackman.png'],same,1,0.4166635999999926,7,0,
GUES1603,train,pos,fs,posfs_id19_im27.bmp_posfs_id19_im4.bmp,['Im_DanielCraig.png', 'Im_PatrickDempsey.png', 'Im_GeorgeClooney.png', 'Im_ElijahWood.png', 'Im_KeanuReeves.png', 'Im_JustinTimberlake.png', 'Im_OrlandoBloom.png', 'Im_BradPitt.png', 'Im_RobertPattinson.png', 'Im_HughJackman.png'],same,1,0.708375100000012,8,0,
GUES1603,train,pos,30,pos30_id6_im19.bmp_pos30_id6_im12.bmp,['Im_DanielCraig.png', 'Im_PatrickDempsey.png', 'Im_GeorgeClooney.png', 'Im_ElijahWood.png', 'Im_KeanuReeves.png', 'Im_JustinTimberlake.png', 'Im_OrlandoBloom.png', 'Im_BradPitt.png', 'Im_RobertPattinson.png', 'Im_HughJackman.png'],same,1,0.5665404999999737,9,0,
GUES1603,train,pos,60,pos60_id19_im8.bmp_pos60_id16_im3.bmp,['Im_DanielCraig.png', 'Im_PatrickDempsey.png', 'Im_GeorgeClooney.png', 'Im_ElijahWood.png', 'Im_KeanuReeves.png', 'Im_JustinTimberlake.png', 'Im_OrlandoBloom.png', 'Im_BradPitt.png', 'Im_RobertPattinson.png', 'Im_HughJackman.png'],diff,1,0.8083403000000544,10,0,
GUES1603,train,pos,120,pos120_id16_im2.bmp_pos120_id7_im15.bmp,['Im_DanielCraig.png', 'Im_PatrickDempsey.png', 'Im_GeorgeClooney.png', 'Im_ElijahWood.png', 'Im_KeanuReeves.png', 'Im_JustinTimberlake.png', 'Im_OrlandoBloom.png', 'Im_BradPitt.png', 'Im_RobertPattinson.png', 'Im_HughJackman.png'],diff,1,0.5419378999999935,11,0,
GUES1603,train,pos,150,pos150_id17_im14.bmp_pos150_id17_im8.bmp,['Im_DanielCraig.png', 'Im_PatrickDempsey.png', 'Im_GeorgeClooney.png', 'Im_ElijahWood.png', 'Im_KeanuReeves.png', 'Im_JustinTimberlake.png', 'Im_OrlandoBloom.png', 'Im_BradPitt.png', 'Im_RobertPattinson.png', 'Im_HughJackman.png'],same,1,0.8331020999999055,12,0,
GUES1603,train,pos,60,pos60_id4_im7.bmp_pos60_id17_im14.bmp,['Im_DanielCraig.png', 'Im_PatrickDempsey.png', 'Im_GeorgeClooney.png', 'Im_ElijahWood.png', 'Im_KeanuReeves.png', 'Im_JustinTimberlake.png', 'Im_OrlandoBloom.png', 'Im_BradPitt.png', 'Im_RobertPattinson.png', 'Im_HughJackman.png'],diff,1,0.5251054000000295,13,0,
GUES1603,train,inv,90,pos90_id17_im9.bmp_pos90_id17_im8.bmp,['Im_DanielCraig.png', 'Im_PatrickDempsey.png', 'Im_GeorgeClooney.png', 'Im_ElijahWood.png', 'Im_KeanuReeves.png', 'Im_JustinTimberlake.png', 'Im_OrlandoBloom.png', 'Im_BradPitt.png', 'Im_RobertPattinson.png', 'Im_HughJackman.png'],diff,0,0.9166847999999845,13,0,
GUES1603,train,inv,60,pos60_id8_im20.bmp_pos60_id19_im4.bmp,['Im_DanielCraig.png', 'Im_PatrickDempsey.png', 'Im_GeorgeClooney.png', 'Im_ElijahWood.png', 'Im_KeanuReeves.png', 'Im_JustinTimberlake.png', 'Im_OrlandoBloom.png', 'Im_BradPitt.png', 'Im_RobertPattinson.png', 'Im_HughJackman.png'],diff,1,0.8748962999998184,14,0,
GUES1603,train,inv,120,pos120_id8_im21.bmp_pos120_id19_im4.bmp,['Im_DanielCraig.png', 'Im_PatrickDempsey.png', 'Im_GeorgeClooney.png', 'Im_ElijahWood.png', 'Im_KeanuReeves.png', 'Im_JustinTimberlake.png', 'Im_OrlandoBloom.png', 'Im_BradPitt.png', 'Im_RobertPattinson.png', 'Im_HughJackman.png'],diff,1,0.7342293000001519,15,0,
GUES1603,train,inv,fs,posfs_id17_im9.bmp_posfs_id17_im14.bmp,['Im_DanielCraig.png', 'Im_PatrickDempsey.png', 'Im_GeorgeClooney.png', 'Im_ElijahWood.png', 'Im_KeanuReeves.png', 'Im_JustinTimberlake.png', 'Im_OrlandoBloom.png', 'Im_BradPitt.png', 'Im_RobertPattinson.png', 'Im_HughJackman.png'],diff,0,1.0250568999999814,15,0,
GUES1603,train,inv,60,pos60_id17_im9.bmp_pos60_id17_im14.bmp,['Im_DanielCraig.png', 'Im_PatrickDempsey.png', 'Im_GeorgeClooney.png', 'Im_ElijahWood.png', 'Im_KeanuReeves.png', 'Im_JustinTimberlake.png', 'Im_OrlandoBloom.png', 'Im_BradPitt.png', 'Im_RobertPattinson.png', 'Im_HughJackman.png'],diff,0,1.0417262000000846,15,0,
GUES1603,train,inv,120,pos120_id3_im8.bmp_pos120_id10_im18.bmp,['Im_DanielCraig.png', 'Im_PatrickDempsey.png', 'Im_GeorgeClooney.png', 'Im_ElijahWood.png', 'Im_KeanuReeves.png', 'Im_JustinTimberlake.png', 'Im_OrlandoBloom.png', 'Im_BradPitt.png', 'Im_RobertPattinson.png', 'Im_HughJackman.png'],diff,1,1.000032899999951,16,0,
GUES1603,train,inv,30,pos30_id6_im18.bmp_pos30_id6_im12.bmp,['Im_DanielCraig.png', 'Im_PatrickDempsey.png', 'Im_GeorgeClooney.png', 'Im_ElijahWood.png', 'Im_KeanuReeves.png', 'Im_JustinTimberlake.png', 'Im_OrlandoBloom.png', 'Im_BradPitt.png', 'Im_RobertPattinson.png', 'Im_HughJackman.png'],diff,0,0.5835339000000204,16,0,
GUES1603,train,inv,0,pos0_id8_im20.bmp_pos0_id19_im4.bmp,['Im_DanielCraig.png', 'Im_PatrickDempsey.png', 'Im_GeorgeClooney.png', 'Im_ElijahWood.png', 'Im_KeanuReeves.png', 'Im_JustinTimberlake.png', 'Im_OrlandoBloom.png', 'Im_BradPitt.png', 'Im_RobertPattinson.png', 'Im_HughJackman.png'],same,0,0.6750393000002077,16,0,
GUES1603,train,inv,fs,posfs_id19_im8.bmp_posfs_id11_im1.bmp,['Im_DanielCraig.png', 'Im_PatrickDempsey.png', 'Im_GeorgeClooney.png', 'Im_ElijahWood.png', 'Im_KeanuReeves.png', 'Im_JustinTimberlake.png', 'Im_OrlandoBloom.png', 'Im_BradPitt.png', 'Im_RobertPattinson.png', 'Im_HughJackman.png'],diff,1,0.6502443999997922,17,0,
GUES1603,train,inv,0,pos0_id10_im17.bmp_pos0_id10_im1.bmp,['Im_DanielCraig.png', 'Im_PatrickDempsey.png', 'Im_GeorgeClooney.png', 'Im_ElijahWood.png', 'Im_KeanuReeves.png', 'Im_JustinTimberlake.png', 'Im_OrlandoBloom.png', 'Im_BradPitt.png', 'Im_RobertPattinson.png', 'Im_HughJackman.png'],diff,0,1.3585674000000836,17,0,
GUES1603,train,inv,90,pos90_id6_im12.bmp_pos90_id6_im18.bmp,['Im_DanielCraig.png', 'Im_PatrickDempsey.png', 'Im_GeorgeClooney.png', 'Im_ElijahWood.png', 'Im_KeanuReeves.png', 'Im_JustinTimberlake.png', 'Im_OrlandoBloom.png', 'Im_BradPitt.png', 'Im_RobertPattinson.png', 'Im_HughJackman.png'],diff,0,0.9498455999996622,17,0,
GUES1603,train,inv,30,pos30_id8_im21.bmp_pos30_id8_im20.bmp,['Im_DanielCraig.png', 'Im_PatrickDempsey.png', 'Im_GeorgeClooney.png', 'Im_ElijahWood.png', 'Im_KeanuReeves.png', 'Im_JustinTimberlake.png', 'Im_OrlandoBloom.png', 'Im_BradPitt.png', 'Im_RobertPattinson.png', 'Im_HughJackman.png'],same,1,0.55026799999996,18,0,
GUES1603,train,inv,150,pos150_id4_im7.bmp_pos150_id4_im20.bmp,['Im_DanielCraig.png', 'Im_PatrickDempsey.png', 'Im_GeorgeClooney.png', 'Im_ElijahWood.png', 'Im_KeanuReeves.png', 'Im_JustinTimberlake.png', 'Im_OrlandoBloom.png', 'Im_BradPitt.png', 'Im_RobertPattinson.png', 'Im_HughJackman.png'],same,1,0.5832519999999022,19,0,
GUES1603,train,inv,150,pos150_id6_im19.bmp_pos150_id17_im8.bmp,['Im_DanielCraig.png', 'Im_PatrickDempsey.png', 'Im_GeorgeClooney.png', 'Im_ElijahWood.png', 'Im_KeanuReeves.png', 'Im_JustinTimberlake.png', 'Im_OrlandoBloom.png', 'Im_BradPitt.png', 'Im_RobertPattinson.png', 'Im_HughJackman.png'],same,0,0.7087307000001601,19,0,
GUES1603,train,neg,fs,negfs_id3_im17.bmp_negfs_id8_im20.bmp,['Im_DanielCraig.png', 'Im_PatrickDempsey.png', 'Im_GeorgeClooney.png', 'Im_ElijahWood.png', 'Im_KeanuReeves.png', 'Im_JustinTimberlake.png', 'Im_OrlandoBloom.png', 'Im_BradPitt.png', 'Im_RobertPattinson.png', 'Im_HughJackman.png'],diff,1,0.5002279000000271,20,0,
GUES1603,train,neg,0,neg0_id8_im20.bmp_neg0_id3_im17.bmp,['Im_DanielCraig.png', 'Im_PatrickDempsey.png', 'Im_GeorgeClooney.png', 'Im_ElijahWood.png', 'Im_KeanuReeves.png', 'Im_JustinTimberlake.png', 'Im_OrlandoBloom.png', 'Im_BradPitt.png', 'Im_RobertPattinson.png', 'Im_HughJackman.png'],diff,1,0.4917085000001862,21,0,
GUES1603,train,neg,60,neg60_id7_im26.bmp_neg60_id7_im15.bmp,['Im_DanielCraig.png', 'Im_PatrickDempsey.png', 'Im_GeorgeClooney.png', 'Im_ElijahWood.png', 'Im_KeanuReeves.png', 'Im_JustinTimberlake.png', 'Im_OrlandoBloom.png', 'Im_BradPitt.png', 'Im_RobertPattinson.png', 'Im_HughJackman.png'],same,1,0.9422157000003608,22,0,
GUES1603,train,neg,90,neg90_id8_im20.bmp_neg90_id8_im21.bmp,['Im_DanielCraig.png', 'Im_PatrickDempsey.png', 'Im_GeorgeClooney.png', 'Im_ElijahWood.png', 'Im_KeanuReeves.png', 'Im_JustinTimberlake.png', 'Im_OrlandoBloom.png', 'Im_BradPitt.png', 'Im_RobertPattinson.png', 'Im_HughJackman.png'],same,1,0.6752569000000221,23,0,
GUES1603,train,neg,150,neg150_id16_im2.bmp_neg150_id7_im15.bmp,['Im_DanielCraig.png', 'Im_PatrickDempsey.png', 'Im_GeorgeClooney.png', 'Im_ElijahWood.png', 'Im_KeanuReeves.png', 'Im_JustinTimberlake.png', 'Im_OrlandoBloom.png', 'Im_BradPitt.png', 'Im_RobertPattinson.png', 'Im_HughJackman.png'],same,0,1.0001781999999366,23,0,
GUES1603,train,neg,120,neg120_id19_im4.bmp_neg120_id8_im21.bmp,['Im_DanielCraig.png', 'Im_PatrickDempsey.png', 'Im_GeorgeClooney.png', 'Im_ElijahWood.png', 'Im_KeanuReeves.png', 'Im_JustinTimberlake.png', 'Im_OrlandoBloom.png', 'Im_BradPitt.png', 'Im_RobertPattinson.png', 'Im_HughJackman.png'],diff,1,0.5168729000001804,24,0,
GUES1603,train,neg,fs,negfs_id11_im2.bmp_negfs_id11_im1.bmp,['Im_DanielCraig.png', 'Im_PatrickDempsey.png', 'Im_GeorgeClooney.png', 'Im_ElijahWood.png', 'Im_KeanuReeves.png', 'Im_JustinTimberlake.png', 'Im_OrlandoBloom.png', 'Im_BradPitt.png', 'Im_RobertPattinson.png', 'Im_HughJackman.png'],same,1,0.5085808999997425,25,0,
GUES1603,train,neg,30,neg30_id10_im17.bmp_neg30_id10_im1.bmp,['Im_DanielCraig.png', 'Im_PatrickDempsey.png', 'Im_GeorgeClooney.png', 'Im_ElijahWood.png', 'Im_KeanuReeves.png', 'Im_JustinTimberlake.png', 'Im_OrlandoBloom.png', 'Im_BradPitt.png', 'Im_RobertPattinson.png', 'Im_HughJackman.png'],same,1,0.5415753000002042,26,0,
GUES1603,train,neg,30,neg30_id10_im17.bmp_neg30_id17_im8.bmp,['Im_DanielCraig.png', 'Im_PatrickDempsey.png', 'Im_GeorgeClooney.png', 'Im_ElijahWood.png', 'Im_KeanuReeves.png', 'Im_JustinTimberlake.png', 'Im_OrlandoBloom.png', 'Im_BradPitt.png', 'Im_RobertPattinson.png', 'Im_HughJackman.png'],diff,1,0.6254361999999674,27,0,
GUES1603,train,neg,120,neg120_id10_im17.bmp_neg120_id17_im8.bmp,['Im_DanielCraig.png', 'Im_PatrickDempsey.png', 'Im_GeorgeClooney.png', 'Im_ElijahWood.png', 'Im_KeanuReeves.png', 'Im_JustinTimberlake.png', 'Im_OrlandoBloom.png', 'Im_BradPitt.png', 'Im_RobertPattinson.png', 'Im_HughJackman.png'],same,0,0.5085925000003044,27,0,
GUES1603,train,neg,150,neg150_id7_im15.bmp_neg150_id3_im6.bmp,['Im_DanielCraig.png', 'Im_PatrickDempsey.png', 'Im_GeorgeClooney.png', 'Im_ElijahWood.png', 'Im_KeanuReeves.png', 'Im_JustinTimberlake.png', 'Im_OrlandoBloom.png', 'Im_BradPitt.png', 'Im_RobertPattinson.png', 'Im_HughJackman.png'],diff,1,0.6996454999998605,28,0,
GUES1603,train,neg,60,neg60_id8_im20.bmp_neg60_id19_im4.bmp,['Im_DanielCraig.png', 'Im_PatrickDempsey.png', 'Im_GeorgeClooney.png', 'Im_ElijahWood.png', 'Im_KeanuReeves.png', 'Im_JustinTimberlake.png', 'Im_OrlandoBloom.png', 'Im_BradPitt.png', 'Im_RobertPattinson.png', 'Im_HughJackman.png'],diff,1,0.6833888999999544,29,0,
GUES1603,train,neg,90,neg90_id17_im14.bmp_neg90_id17_im9.bmp,['Im_DanielCraig.png', 'Im_PatrickDempsey.png', 'Im_GeorgeClooney.png', 'Im_ElijahWood.png', 'Im_KeanuReeves.png', 'Im_JustinTimberlake.png', 'Im_OrlandoBloom.png', 'Im_BradPitt.png', 'Im_RobertPattinson.png', 'Im_HughJackman.png'],same,1,0.5751603999997315,30,0,
GUES1603,train,neg,0,neg0_id17_im8.bmp_neg0_id17_im9.bmp,['Im_DanielCraig.png', 'Im_PatrickDempsey.png', 'Im_GeorgeClooney.png', 'Im_ElijahWood.png', 'Im_KeanuReeves.png', 'Im_JustinTimberlake.png', 'Im_OrlandoBloom.png', 'Im_BradPitt.png', 'Im_RobertPattinson.png', 'Im_HughJackman.png'],same,1,0.4167414999997163,31,0,
GUES1603,train,neg,120,neg120_id11_im1.bmp_neg120_id11_im2.bmp,['Im_DanielCraig.png', 'Im_PatrickDempsey.png', 'Im_GeorgeClooney.png', 'Im_ElijahWood.png', 'Im_KeanuReeves.png', 'Im_JustinTimberlake.png', 'Im_OrlandoBloom.png', 'Im_BradPitt.png', 'Im_RobertPattinson.png', 'Im_HughJackman.png'],diff,0,1.5417960999998286,0,73.80952380952381,
GUES1603,train,neg,90,neg90_id7_im26.bmp_neg90_id7_im14.bmp,['Im_DanielCraig.png', 'Im_PatrickDempsey.png', 'Im_GeorgeClooney.png', 'Im_ElijahWood.png', 'Im_KeanuReeves.png', 'Im_JustinTimberlake.png', 'Im_OrlandoBloom.png', 'Im_BradPitt.png', 'Im_RobertPattinson.png', 'Im_HughJackman.png'],same,1,0.7498821999997745,1,73.80952380952381,
GUES1603,train,neg,90,neg90_id3_im17.bmp_neg90_id3_im6.bmp,['Im_DanielCraig.png', 'Im_PatrickDempsey.png', 'Im_GeorgeClooney.png', 'Im_ElijahWood.png', 'Im_KeanuReeves.png', 'Im_JustinTimberlake.png', 'Im_OrlandoBloom.png', 'Im_BradPitt.png', 'Im_RobertPattinson.png', 'Im_HughJackman.png'],same,1,0.8418464000001222,2,73.80952380952381,
GUES1603,train,neg,150,neg150_id7_im26.bmp_neg150_id7_im14.bmp,['Im_DanielCraig.png', 'Im_PatrickDempsey.png', 'Im_GeorgeClooney.png', 'Im_ElijahWood.png', 'Im_KeanuReeves.png', 'Im_JustinTimberlake.png', 'Im_OrlandoBloom.png', 'Im_BradPitt.png', 'Im_RobertPattinson.png', 'Im_HughJackman.png'],same,1,0.5167288000002372,3,73.80952380952381,
GUES1603,train,neg,120,neg120_id8_im13.bmp_neg120_id16_im3.bmp,['Im_DanielCraig.png', 'Im_PatrickDempsey.png', 'Im_GeorgeClooney.png', 'Im_ElijahWood.png', 'Im_KeanuReeves.png', 'Im_JustinTimberlake.png', 'Im_OrlandoBloom.png', 'Im_BradPitt.png', 'Im_RobertPattinson.png', 'Im_HughJackman.png'],diff,1,0.5334932000000663,4,73.80952380952381,
GUES1603,train,neg,60,neg60_id10_im17.bmp_neg60_id10_im1.bmp,['Im_DanielCraig.png', 'Im_PatrickDempsey.png', 'Im_GeorgeClooney.png', 'Im_ElijahWood.png', 'Im_KeanuReeves.png', 'Im_JustinTimberlake.png', 'Im_OrlandoBloom.png', 'Im_BradPitt.png', 'Im_RobertPattinson.png', 'Im_HughJackman.png'],same,1,0.7502230000000054,5,73.80952380952381,
GUES1603,train,neg,60,neg60_id11_im2.bmp_neg60_id11_im1.bmp,['Im_DanielCraig.png', 'Im_PatrickDempsey.png', 'Im_GeorgeClooney.png', 'Im_ElijahWood.png', 'Im_KeanuReeves.png', 'Im_JustinTimberlake.png', 'Im_OrlandoBloom.png', 'Im_BradPitt.png', 'Im_RobertPattinson.png', 'Im_HughJackman.png'],same,1,0.7253217000002223,6,73.80952380952381,
GUES1603,train,neg,150,neg150_id8_im20.bmp_neg150_id8_im21.bmp,['Im_DanielCraig.png', 'Im_PatrickDempsey.png', 'Im_GeorgeClooney.png', 'Im_ElijahWood.png', 'Im_KeanuReeves.png', 'Im_JustinTimberlake.png', 'Im_OrlandoBloom.png', 'Im_BradPitt.png', 'Im_RobertPattinson.png', 'Im_HughJackman.png'],same,1,0.42476329999999507,7,73.80952380952381,
GUES1603,train,neg,0,neg0_id6_im18.bmp_neg0_id6_im12.bmp,['Im_DanielCraig.png', 'Im_PatrickDempsey.png', 'Im_GeorgeClooney.png', 'Im_ElijahWood.png', 'Im_KeanuReeves.png', 'Im_JustinTimberlake.png', 'Im_OrlandoBloom.png', 'Im_BradPitt.png', 'Im_RobertPattinson.png', 'Im_HughJackman.png'],diff,0,0.9749471999998605,7,73.80952380952381,
GUES1603,train,neg,30,neg30_id7_im15.bmp_neg30_id3_im6.bmp,['Im_DanielCraig.png', 'Im_PatrickDempsey.png', 'Im_GeorgeClooney.png', 'Im_ElijahWood.png', 'Im_KeanuReeves.png', 'Im_JustinTimberlake.png', 'Im_OrlandoBloom.png', 'Im_BradPitt.png', 'Im_RobertPattinson.png', 'Im_HughJackman.png'],diff,1,1.0495624000000134,8,73.80952380952381,
GUES1603,train,neg,fs,negfs_id11_im1.bmp_negfs_id19_im8.bmp,['Im_DanielCraig.png', 'Im_PatrickDempsey.png', 'Im_GeorgeClooney.png', 'Im_ElijahWood.png', 'Im_KeanuReeves.png', 'Im_JustinTimberlake.png', 'Im_OrlandoBloom.png', 'Im_BradPitt.png', 'Im_RobertPattinson.png', 'Im_HughJackman.png'],diff,1,0.5333129000000554,9,73.80952380952381,
GUES1603,train,neg,fs,negfs_id17_im8.bmp_negfs_id6_im19.bmp,['Im_DanielCraig.png', 'Im_PatrickDempsey.png', 'Im_GeorgeClooney.png', 'Im_ElijahWood.png', 'Im_KeanuReeves.png', 'Im_JustinTimberlake.png', 'Im_OrlandoBloom.png', 'Im_BradPitt.png', 'Im_RobertPattinson.png', 'Im_HughJackman.png'],diff,1,0.5836575000002995,10,73.80952380952381,
GUES1603,train,neg,30,neg30_id16_im2.bmp_neg30_id16_im3.bmp,['Im_DanielCraig.png', 'Im_PatrickDempsey.png', 'Im_GeorgeClooney.png', 'Im_ElijahWood.png', 'Im_KeanuReeves.png', 'Im_JustinTimberlake.png', 'Im_OrlandoBloom.png', 'Im_BradPitt.png', 'Im_RobertPattinson.png', 'Im_HughJackman.png'],same,1,0.7583521999999903,11,73.80952380952381,
GUES1603,train,neg,0,neg0_id17_im9.bmp_neg0_id17_im14.bmp,['Im_DanielCraig.png', 'Im_PatrickDempsey.png', 'Im_GeorgeClooney.png', 'Im_ElijahWood.png', 'Im_KeanuReeves.png', 'Im_JustinTimberlake.png', 'Im_OrlandoBloom.png', 'Im_BradPitt.png', 'Im_RobertPattinson.png', 'Im_HughJackman.png'],same,1,0.5001866000002337,12,73.80952380952381,
GUES1603,train,pos,120,pos120_id17_im9.bmp_pos120_id4_im20.bmp,['Im_DanielCraig.png', 'Im_PatrickDempsey.png', 'Im_GeorgeClooney.png', 'Im_ElijahWood.png', 'Im_KeanuReeves.png', 'Im_JustinTimberlake.png', 'Im_OrlandoBloom.png', 'Im_BradPitt.png', 'Im_RobertPattinson.png', 'Im_HughJackman.png'],diff,1,0.4169830999999249,13,73.80952380952381,
GUES1603,train,pos,150,pos150_id10_im17.bmp_pos150_id10_im1.bmp,['Im_DanielCraig.png', 'Im_PatrickDempsey.png', 'Im_GeorgeClooney.png', 'Im_ElijahWood.png', 'Im_KeanuReeves.png', 'Im_JustinTimberlake.png', 'Im_OrlandoBloom.png', 'Im_BradPitt.png', 'Im_RobertPattinson.png', 'Im_HughJackman.png'],same,1,0.5336151999999856,14,73.80952380952381,
GUES1603,train,pos,90,pos90_id4_im7.bmp_pos90_id4_im20.bmp,['Im_DanielCraig.png', 'Im_PatrickDempsey.png', 'Im_GeorgeClooney.png', 'Im_ElijahWood.png', 'Im_KeanuReeves.png', 'Im_JustinTimberlake.png', 'Im_OrlandoBloom.png', 'Im_BradPitt.png', 'Im_RobertPattinson.png', 'Im_HughJackman.png'],same,1,0.4083995999999388,15,73.80952380952381,
GUES1603,train,pos,150,pos150_id19_im4.bmp_pos150_id8_im21.bmp,['Im_DanielCraig.png', 'Im_PatrickDempsey.png', 'Im_GeorgeClooney.png', 'Im_ElijahWood.png', 'Im_KeanuReeves.png', 'Im_JustinTimberlake.png', 'Im_OrlandoBloom.png', 'Im_BradPitt.png', 'Im_RobertPattinson.png', 'Im_HughJackman.png'],diff,1,0.425025199999709,16,73.80952380952381,
GUES1603,train,pos,fs,posfs_id17_im14.bmp_posfs_id17_im9.bmp,['Im_DanielCraig.png', 'Im_PatrickDempsey.png', 'Im_GeorgeClooney.png', 'Im_ElijahWood.png', 'Im_KeanuReeves.png', 'Im_JustinTimberlake.png', 'Im_OrlandoBloom.png', 'Im_BradPitt.png', 'Im_RobertPattinson.png', 'Im_HughJackman.png'],same,1,0.41679130000011355,17,73.80952380952381,
GUES1603,train,pos,0,pos0_id16_im3.bmp_pos0_id19_im8.bmp,['Im_DanielCraig.png', 'Im_PatrickDempsey.png', 'Im_GeorgeClooney.png', 'Im_ElijahWood.png', 'Im_KeanuReeves.png', 'Im_JustinTimberlake.png', 'Im_OrlandoBloom.png', 'Im_BradPitt.png', 'Im_RobertPattinson.png', 'Im_HughJackman.png'],same,0,1.2999873999997362,17,73.80952380952381,
GUES1603,train,pos,120,pos120_id17_im14.bmp_pos120_id11_im10.bmp,['Im_DanielCraig.png', 'Im_PatrickDempsey.png', 'Im_GeorgeClooney.png', 'Im_ElijahWood.png', 'Im_KeanuReeves.png', 'Im_JustinTimberlake.png', 'Im_OrlandoBloom.png', 'Im_BradPitt.png', 'Im_RobertPattinson.png', 'Im_HughJackman.png'],diff,1,0.4999710000001869,18,73.80952380952381,
GUES1603,train,pos,60,pos60_id16_im2.bmp_pos60_id11_im1.bmp,['Im_DanielCraig.png', 'Im_PatrickDempsey.png', 'Im_GeorgeClooney.png', 'Im_ElijahWood.png', 'Im_KeanuReeves.png', 'Im_JustinTimberlake.png', 'Im_OrlandoBloom.png', 'Im_BradPitt.png', 'Im_RobertPattinson.png', 'Im_HughJackman.png'],diff,1,0.5000638999999865,19,73.80952380952381,
GUES1603,train,pos,fs,posfs_id17_im9.bmp_posfs_id4_im20.bmp,['Im_DanielCraig.png', 'Im_PatrickDempsey.png', 'Im_GeorgeClooney.png', 'Im_ElijahWood.png', 'Im_KeanuReeves.png', 'Im_JustinTimberlake.png', 'Im_OrlandoBloom.png', 'Im_BradPitt.png', 'Im_RobertPattinson.png', 'Im_HughJackman.png'],diff,1,0.41683980000016163,20,73.80952380952381,
GUES1603,train,pos,0,pos0_id19_im27.bmp_pos0_id11_im10.bmp,['Im_DanielCraig.png', 'Im_PatrickDempsey.png', 'Im_GeorgeClooney.png', 'Im_ElijahWood.png', 'Im_KeanuReeves.png', 'Im_JustinTimberlake.png', 'Im_OrlandoBloom.png', 'Im_BradPitt.png', 'Im_RobertPattinson.png', 'Im_HughJackman.png'],diff,1,0.4250139999999192,21,73.80952380952381,
GUES1603,train,pos,60,pos60_id8_im21.bmp_pos60_id19_im4.bmp,['Im_DanielCraig.png', 'Im_PatrickDempsey.png', 'Im_GeorgeClooney.png', 'Im_ElijahWood.png', 'Im_KeanuReeves.png', 'Im_JustinTimberlake.png', 'Im_OrlandoBloom.png', 'Im_BradPitt.png', 'Im_RobertPattinson.png', 'Im_HughJackman.png'],diff,1,0.41672239999979865,22,73.80952380952381,
GUES1603,train,pos,30,pos30_id19_im4.bmp_pos30_id19_im27.bmp,['Im_DanielCraig.png', 'Im_PatrickDempsey.png', 'Im_GeorgeClooney.png', 'Im_ElijahWood.png', 'Im_KeanuReeves.png', 'Im_JustinTimberlake.png', 'Im_OrlandoBloom.png', 'Im_BradPitt.png', 'Im_RobertPattinson.png', 'Im_HughJackman.png'],same,1,0.4250963999998021,23,73.80952380952381,
GUES1603,train,pos,30,pos30_id19_im8.bmp_pos30_id19_im4.bmp,['Im_DanielCraig.png', 'Im_PatrickDempsey.png', 'Im_GeorgeClooney.png', 'Im_ElijahWood.png', 'Im_KeanuReeves.png', 'Im_JustinTimberlake.png', 'Im_OrlandoBloom.png', 'Im_BradPitt.png', 'Im_RobertPattinson.png', 'Im_HughJackman.png'],same,1,0.5417540999997073,24,73.80952380952381,
GUES1603,train,pos,90,pos90_id19_im27.bmp_pos90_id19_im8.bmp,['Im_DanielCraig.png', 'Im_PatrickDempsey.png', 'Im_GeorgeClooney.png', 'Im_ElijahWood.png', 'Im_KeanuReeves.png', 'Im_JustinTimberlake.png', 'Im_OrlandoBloom.png', 'Im_BradPitt.png', 'Im_RobertPattinson.png', 'Im_HughJackman.png'],same,1,0.7250432999999248,25,73.80952380952381,
GUES1603,train,inv,0,pos0_id3_im17.bmp_pos0_id8_im20.bmp,['Im_DanielCraig.png', 'Im_PatrickDempsey.png', 'Im_GeorgeClooney.png', 'Im_ElijahWood.png', 'Im_KeanuReeves.png', 'Im_JustinTimberlake.png', 'Im_OrlandoBloom.png', 'Im_BradPitt.png', 'Im_RobertPattinson.png', 'Im_HughJackman.png'],same,0,0.5751778999997441,25,73.80952380952381,
GUES1603,train,inv,30,pos30_id11_im1.bmp_pos30_id11_im10.bmp,['Im_DanielCraig.png', 'Im_PatrickDempsey.png', 'Im_GeorgeClooney.png', 'Im_ElijahWood.png', 'Im_KeanuReeves.png', 'Im_JustinTimberlake.png', 'Im_OrlandoBloom.png', 'Im_BradPitt.png', 'Im_RobertPattinson.png', 'Im_HughJackman.png'],same,1,1.0750155000000632,26,73.80952380952381,
GUES1603,train,inv,60,pos60_id7_im14.bmp_pos60_id10_im1.bmp,['Im_DanielCraig.png', 'Im_PatrickDempsey.png', 'Im_GeorgeClooney.png', 'Im_ElijahWood.png', 'Im_KeanuReeves.png', 'Im_JustinTimberlake.png', 'Im_OrlandoBloom.png', 'Im_BradPitt.png', 'Im_RobertPattinson.png', 'Im_HughJackman.png'],same,0,0.7584530999997696,26,73.80952380952381,
GUES1603,train,inv,120,pos120_id19_im4.bmp_pos120_id19_im27.bmp,['Im_DanielCraig.png', 'Im_PatrickDempsey.png', 'Im_GeorgeClooney.png', 'Im_ElijahWood.png', 'Im_KeanuReeves.png', 'Im_JustinTimberlake.png', 'Im_OrlandoBloom.png', 'Im_BradPitt.png', 'Im_RobertPattinson.png', 'Im_HughJackman.png'],same,1,0.866695300000174,27,73.80952380952381,
GUES1603,train,inv,60,pos60_id10_im17.bmp_pos60_id17_im8.bmp,['Im_DanielCraig.png', 'Im_PatrickDempsey.png', 'Im_GeorgeClooney.png', 'Im_ElijahWood.png', 'Im_KeanuReeves.png', 'Im_JustinTimberlake.png', 'Im_OrlandoBloom.png', 'Im_BradPitt.png', 'Im_RobertPattinson.png', 'Im_HughJackman.png'],diff,1,0.7000471000001198,28,73.80952380952381,
GUES1603,train,inv,fs,posfs_id17_im8.bmp_posfs_id10_im17.bmp,['Im_DanielCraig.png', 'Im_PatrickDempsey.png', 'Im_GeorgeClooney.png', 'Im_ElijahWood.png', 'Im_KeanuReeves.png', 'Im_JustinTimberlake.png', 'Im_OrlandoBloom.png', 'Im_BradPitt.png', 'Im_RobertPattinson.png', 'Im_HughJackman.png'],diff,1,0.5918879999999263,29,73.80952380952381,
GUES1603,train,inv,30,pos30_id16_im3.bmp_pos30_id8_im13.bmp,['Im_DanielCraig.png', 'Im_PatrickDempsey.png', 'Im_GeorgeClooney.png', 'Im_ElijahWood.png', 'Im_KeanuReeves.png', 'Im_JustinTimberlake.png', 'Im_OrlandoBloom.png', 'Im_BradPitt.png', 'Im_RobertPattinson.png', 'Im_HughJackman.png'],same,0,0.8750660000000607,29,73.80952380952381,
GUES1603,train,inv,150,pos150_id8_im20.bmp_pos150_id8_im21.bmp,['Im_DanielCraig.png', 'Im_PatrickDempsey.png', 'Im_GeorgeClooney.png', 'Im_ElijahWood.png', 'Im_KeanuReeves.png', 'Im_JustinTimberlake.png', 'Im_OrlandoBloom.png', 'Im_BradPitt.png', 'Im_RobertPattinson.png', 'Im_HughJackman.png'],same,1,0.5502200999999332,30,73.80952380952381,
GUES1603,train,inv,120,pos120_id17_im8.bmp_pos120_id10_im17.bmp,['Im_DanielCraig.png', 'Im_PatrickDempsey.png', 'Im_GeorgeClooney.png', 'Im_ElijahWood.png', 'Im_KeanuReeves.png', 'Im_JustinTimberlake.png', 'Im_OrlandoBloom.png', 'Im_BradPitt.png', 'Im_RobertPattinson.png', 'Im_HughJackman.png'],same,0,0.6834288000000015,30,73.80952380952381,
GUES1603,train,inv,150,pos150_id16_im3.bmp_pos150_id16_im19.bmp,['Im_DanielCraig.png', 'Im_PatrickDempsey.png', 'Im_GeorgeClooney.png', 'Im_ElijahWood.png', 'Im_KeanuReeves.png', 'Im_JustinTimberlake.png', 'Im_OrlandoBloom.png', 'Im_BradPitt.png', 'Im_RobertPattinson.png', 'Im_HughJackman.png'],same,1,0.4415537999998378,31,73.80952380952381,
GUES1603,train,inv,90,pos90_id8_im21.bmp_pos90_id8_im20.bmp,['Im_DanielCraig.png', 'Im_PatrickDempsey.png', 'Im_GeorgeClooney.png', 'Im_ElijahWood.png', 'Im_KeanuReeves.png', 'Im_JustinTimberlake.png', 'Im_OrlandoBloom.png', 'Im_BradPitt.png', 'Im_RobertPattinson.png', 'Im_HughJackman.png'],same,1,0.7249906000001829,32,73.80952380952381,
GUES1603,train,inv,fs,posfs_id10_im18.bmp_posfs_id10_im17.bmp,['Im_DanielCraig.png', 'Im_PatrickDempsey.png', 'Im_GeorgeClooney.png', 'Im_ElijahWood.png', 'Im_KeanuReeves.png', 'Im_JustinTimberlake.png', 'Im_OrlandoBloom.png', 'Im_BradPitt.png', 'Im_RobertPattinson.png', 'Im_HughJackman.png'],same,1,0.5754211999997096,33,73.80952380952381,
GUES1603,train,inv,90,pos90_id10_im1.bmp_pos90_id10_im18.bmp,['Im_DanielCraig.png', 'Im_PatrickDempsey.png', 'Im_GeorgeClooney.png', 'Im_ElijahWood.png', 'Im_KeanuReeves.png', 'Im_JustinTimberlake.png', 'Im_OrlandoBloom.png', 'Im_BradPitt.png', 'Im_RobertPattinson.png', 'Im_HughJackman.png'],diff,0,0.8752575999997134,33,73.80952380952381,
GUES1603,train,inv,0,pos0_id6_im19.bmp_pos0_id6_im12.bmp,['Im_DanielCraig.png', 'Im_PatrickDempsey.png', 'Im_GeorgeClooney.png', 'Im_ElijahWood.png', 'Im_KeanuReeves.png', 'Im_JustinTimberlake.png', 'Im_OrlandoBloom.png', 'Im_BradPitt.png', 'Im_RobertPattinson.png', 'Im_HughJackman.png'],same,1,0.9249949000000015,34,73.80952380952381,
GUES1603,train,neg,30,neg30_id19_im8.bmp_neg30_id19_im4.bmp,['Im_DanielCraig.png', 'Im_PatrickDempsey.png', 'Im_GeorgeClooney.png', 'Im_ElijahWood.png', 'Im_KeanuReeves.png', 'Im_JustinTimberlake.png', 'Im_OrlandoBloom.png', 'Im_BradPitt.png', 'Im_RobertPattinson.png', 'Im_HughJackman.png'],same,1,1.3669177000001582,1,80.95238095238095,
GUES1603,train,neg,90,neg90_id19_im4.bmp_neg90_id19_im27.bmp,['Im_DanielCraig.png', 'Im_PatrickDempsey.png', 'Im_GeorgeClooney.png', 'Im_ElijahWood.png', 'Im_KeanuReeves.png', 'Im_JustinTimberlake.png', 'Im_OrlandoBloom.png', 'Im_BradPitt.png', 'Im_RobertPattinson.png', 'Im_HughJackman.png'],same,1,0.4839844999996785,2,80.95238095238095,
GUES1603,train,neg,120,neg120_id6_im19.bmp_neg120_id6_im12.bmp,['Im_DanielCraig.png', 'Im_PatrickDempsey.png', 'Im_GeorgeClooney.png', 'Im_ElijahWood.png', 'Im_KeanuReeves.png', 'Im_JustinTimberlake.png', 'Im_OrlandoBloom.png', 'Im_BradPitt.png', 'Im_RobertPattinson.png', 'Im_HughJackman.png'],same,1,0.6167083000000275,3,80.95238095238095,
GUES1603,train,neg,150,neg150_id3_im6.bmp_neg150_id3_im17.bmp,['Im_DanielCraig.png', 'Im_PatrickDempsey.png', 'Im_GeorgeClooney.png', 'Im_ElijahWood.png', 'Im_KeanuReeves.png', 'Im_JustinTimberlake.png', 'Im_OrlandoBloom.png', 'Im_BradPitt.png', 'Im_RobertPattinson.png', 'Im_HughJackman.png'],same,1,0.42505750000009357,4,80.95238095238095,
GUES1603,train,neg,60,neg60_id11_im2.bmp_neg60_id4_im15.bmp,['Im_DanielCraig.png', 'Im_PatrickDempsey.png', 'Im_GeorgeClooney.png', 'Im_ElijahWood.png', 'Im_KeanuReeves.png', 'Im_JustinTimberlake.png', 'Im_OrlandoBloom.png', 'Im_BradPitt.png', 'Im_RobertPattinson.png', 'Im_HughJackman.png'],diff,1,0.44160790000023553,5,80.95238095238095,
GUES1603,train,neg,fs,negfs_id4_im7.bmp_negfs_id17_im14.bmp,['Im_DanielCraig.png', 'Im_PatrickDempsey.png', 'Im_GeorgeClooney.png', 'Im_ElijahWood.png', 'Im_KeanuReeves.png', 'Im_JustinTimberlake.png', 'Im_OrlandoBloom.png', 'Im_BradPitt.png', 'Im_RobertPattinson.png', 'Im_HughJackman.png'],diff,1,0.5083188999997219,6,80.95238095238095,
GUES1603,train,neg,30,neg30_id8_im13.bmp_neg30_id8_im21.bmp,['Im_DanielCraig.png', 'Im_PatrickDempsey.png', 'Im_GeorgeClooney.png', 'Im_ElijahWood.png', 'Im_KeanuReeves.png', 'Im_JustinTimberlake.png', 'Im_OrlandoBloom.png', 'Im_BradPitt.png', 'Im_RobertPattinson.png', 'Im_HughJackman.png'],same,1,0.5919281999999839,7,80.95238095238095,
GUES1603,train,neg,0,neg0_id10_im18.bmp_neg0_id10_im17.bmp,['Im_DanielCraig.png', 'Im_PatrickDempsey.png', 'Im_GeorgeClooney.png', 'Im_ElijahWood.png', 'Im_KeanuReeves.png', 'Im_JustinTimberlake.png', 'Im_OrlandoBloom.png', 'Im_BradPitt.png', 'Im_RobertPattinson.png', 'Im_HughJackman.png'],same,1,0.5169074000000364,8,80.95238095238095,
GUES1603,train,neg,60,neg60_id3_im8.bmp_neg60_id10_im18.bmp,['Im_DanielCraig.png', 'Im_PatrickDempsey.png', 'Im_GeorgeClooney.png', 'Im_ElijahWood.png', 'Im_KeanuReeves.png', 'Im_JustinTimberlake.png', 'Im_OrlandoBloom.png', 'Im_BradPitt.png', 'Im_RobertPattinson.png', 'Im_HughJackman.png'],diff,1,1.2417262999997547,9,80.95238095238095,
GUES1603,train,neg,150,neg150_id8_im21.bmp_neg150_id19_im4.bmp,['Im_DanielCraig.png', 'Im_PatrickDempsey.png', 'Im_GeorgeClooney.png', 'Im_ElijahWood.png', 'Im_KeanuReeves.png', 'Im_JustinTimberlake.png', 'Im_OrlandoBloom.png', 'Im_BradPitt.png', 'Im_RobertPattinson.png', 'Im_HughJackman.png'],diff,1,0.4167441999998118,10,80.95238095238095,
GUES1603,train,neg,fs,negfs_id16_im19.bmp_negfs_id16_im2.bmp,['Im_DanielCraig.png', 'Im_PatrickDempsey.png', 'Im_GeorgeClooney.png', 'Im_ElijahWood.png', 'Im_KeanuReeves.png', 'Im_JustinTimberlake.png', 'Im_OrlandoBloom.png', 'Im_BradPitt.png', 'Im_RobertPattinson.png', 'Im_HughJackman.png'],same,1,0.4083946000000651,11,80.95238095238095,
GUES1603,train,neg,0,neg0_id4_im20.bmp_neg0_id10_im17.bmp,['Im_DanielCraig.png', 'Im_PatrickDempsey.png', 'Im_GeorgeClooney.png', 'Im_ElijahWood.png', 'Im_KeanuReeves.png', 'Im_JustinTimberlake.png', 'Im_OrlandoBloom.png', 'Im_BradPitt.png', 'Im_RobertPattinson.png', 'Im_HughJackman.png'],same,0,0.7668936000000031,11,80.95238095238095,
GUES1603,train,neg,120,neg120_id17_im8.bmp_neg120_id17_im9.bmp,['Im_DanielCraig.png', 'Im_PatrickDempsey.png', 'Im_GeorgeClooney.png', 'Im_ElijahWood.png', 'Im_KeanuReeves.png', 'Im_JustinTimberlake.png', 'Im_OrlandoBloom.png', 'Im_BradPitt.png', 'Im_RobertPattinson.png', 'Im_HughJackman.png'],same,1,0.5420384999997623,12,80.95238095238095,
GUES1603,train,neg,90,neg90_id17_im8.bmp_neg90_id17_im9.bmp,['Im_DanielCraig.png', 'Im_PatrickDempsey.png', 'Im_GeorgeClooney.png', 'Im_ElijahWood.png', 'Im_KeanuReeves.png', 'Im_JustinTimberlake.png', 'Im_OrlandoBloom.png', 'Im_BradPitt.png', 'Im_RobertPattinson.png', 'Im_HughJackman.png'],diff,0,0.5584567000000789,12,80.95238095238095,
GUES1603,train,inv,30,pos30_id6_im19.bmp_pos30_id6_im18.bmp,['Im_DanielCraig.png', 'Im_PatrickDempsey.png', 'Im_GeorgeClooney.png', 'Im_ElijahWood.png', 'Im_KeanuReeves.png', 'Im_JustinTimberlake.png', 'Im_OrlandoBloom.png', 'Im_BradPitt.png', 'Im_RobertPattinson.png', 'Im_HughJackman.png'],same,1,0.5917233999998643,13,80.95238095238095,
GUES1603,train,inv,0,pos0_id17_im14.bmp_pos0_id17_im8.bmp,['Im_DanielCraig.png', 'Im_PatrickDempsey.png', 'Im_GeorgeClooney.png', 'Im_ElijahWood.png', 'Im_KeanuReeves.png', 'Im_JustinTimberlake.png', 'Im_OrlandoBloom.png', 'Im_BradPitt.png', 'Im_RobertPattinson.png', 'Im_HughJackman.png'],diff,0,0.5917875999998614,13,80.95238095238095,
GUES1603,train,inv,150,pos150_id3_im6.bmp_pos150_id7_im26.bmp,['Im_DanielCraig.png', 'Im_PatrickDempsey.png', 'Im_GeorgeClooney.png', 'Im_ElijahWood.png', 'Im_KeanuReeves.png', 'Im_JustinTimberlake.png', 'Im_OrlandoBloom.png', 'Im_BradPitt.png', 'Im_RobertPattinson.png', 'Im_HughJackman.png'],same,0,1.3332335000000057,13,80.95238095238095,
GUES1603,train,inv,fs,posfs_id16_im19.bmp_posfs_id16_im2.bmp,['Im_DanielCraig.png', 'Im_PatrickDempsey.png', 'Im_GeorgeClooney.png', 'Im_ElijahWood.png', 'Im_KeanuReeves.png', 'Im_JustinTimberlake.png', 'Im_OrlandoBloom.png', 'Im_BradPitt.png', 'Im_RobertPattinson.png', 'Im_HughJackman.png'],same,1,0.5085985000000619,14,80.95238095238095,
GUES1603,train,inv,30,pos30_id3_im17.bmp_pos30_id8_im20.bmp,['Im_DanielCraig.png', 'Im_PatrickDempsey.png', 'Im_GeorgeClooney.png', 'Im_ElijahWood.png', 'Im_KeanuReeves.png', 'Im_JustinTimberlake.png', 'Im_OrlandoBloom.png', 'Im_BradPitt.png', 'Im_RobertPattinson.png', 'Im_HughJackman.png'],same,0,0.5502339999998185,14,80.95238095238095,
GUES1603,train,inv,60,pos60_id19_im27.bmp_pos60_id6_im12.bmp,['Im_DanielCraig.png', 'Im_PatrickDempsey.png', 'Im_GeorgeClooney.png', 'Im_ElijahWood.png', 'Im_KeanuReeves.png', 'Im_JustinTimberlake.png', 'Im_OrlandoBloom.png', 'Im_BradPitt.png', 'Im_RobertPattinson.png', 'Im_HughJackman.png'],diff,1,1.4583929000000353,15,80.95238095238095,
GUES1603,train,inv,fs,posfs_id19_im27.bmp_posfs_id11_im10.bmp,['Im_DanielCraig.png', 'Im_PatrickDempsey.png', 'Im_GeorgeClooney.png', 'Im_ElijahWood.png', 'Im_KeanuReeves.png', 'Im_JustinTimberlake.png', 'Im_OrlandoBloom.png', 'Im_BradPitt.png', 'Im_RobertPattinson.png', 'Im_HughJackman.png'],diff,1,0.6083401999999296,16,80.95238095238095,
GUES1603,train,inv,0,pos0_id17_im14.bmp_pos0_id17_im9.bmp,['Im_DanielCraig.png', 'Im_PatrickDempsey.png', 'Im_GeorgeClooney.png', 'Im_ElijahWood.png', 'Im_KeanuReeves.png', 'Im_JustinTimberlake.png', 'Im_OrlandoBloom.png', 'Im_BradPitt.png', 'Im_RobertPattinson.png', 'Im_HughJackman.png'],same,1,0.8250363000001926,17,80.95238095238095,
GUES1603,train,inv,60,pos60_id6_im12.bmp_pos60_id6_im19.bmp,['Im_DanielCraig.png', 'Im_PatrickDempsey.png', 'Im_GeorgeClooney.png', 'Im_ElijahWood.png', 'Im_KeanuReeves.png', 'Im_JustinTimberlake.png', 'Im_OrlandoBloom.png', 'Im_BradPitt.png', 'Im_RobertPattinson.png', 'Im_HughJackman.png'],same,1,1.291874800000187,18,80.95238095238095,
GUES1603,train,inv,150,pos150_id10_im17.bmp_pos150_id10_im1.bmp,['Im_DanielCraig.png', 'Im_PatrickDempsey.png', 'Im_GeorgeClooney.png', 'Im_ElijahWood.png', 'Im_KeanuReeves.png', 'Im_JustinTimberlake.png', 'Im_OrlandoBloom.png', 'Im_BradPitt.png', 'Im_RobertPattinson.png', 'Im_HughJackman.png'],same,1,0.6585703999999168,19,80.95238095238095,
GUES1603,train,inv,90,pos90_id6_im19.bmp_pos90_id17_im9.bmp,['Im_DanielCraig.png', 'Im_PatrickDempsey.png', 'Im_GeorgeClooney.png', 'Im_ElijahWood.png', 'Im_KeanuReeves.png', 'Im_JustinTimberlake.png', 'Im_OrlandoBloom.png', 'Im_BradPitt.png', 'Im_RobertPattinson.png', 'Im_HughJackman.png'],same,0,0.7919065999999475,19,80.95238095238095,
GUES1603,train,inv,120,pos120_id11_im1.bmp_pos120_id11_im10.bmp,['Im_DanielCraig.png', 'Im_PatrickDempsey.png', 'Im_GeorgeClooney.png', 'Im_ElijahWood.png', 'Im_KeanuReeves.png', 'Im_JustinTimberlake.png', 'Im_OrlandoBloom.png', 'Im_BradPitt.png', 'Im_RobertPattinson.png', 'Im_HughJackman.png'],diff,0,0.7917647000003853,19,80.95238095238095,
GUES1603,train,inv,120,pos120_id7_im15.bmp_pos120_id7_im14.bmp,['Im_DanielCraig.png', 'Im_PatrickDempsey.png', 'Im_GeorgeClooney.png', 'Im_ElijahWood.png', 'Im_KeanuReeves.png', 'Im_JustinTimberlake.png', 'Im_OrlandoBloom.png', 'Im_BradPitt.png', 'Im_RobertPattinson.png', 'Im_HughJackman.png'],same,1,1.1919262000001254,20,80.95238095238095,
GUES1603,train,inv,90,pos90_id3_im8.bmp_pos90_id6_im18.bmp,['Im_DanielCraig.png', 'Im_PatrickDempsey.png', 'Im_GeorgeClooney.png', 'Im_ElijahWood.png', 'Im_KeanuReeves.png', 'Im_JustinTimberlake.png', 'Im_OrlandoBloom.png', 'Im_BradPitt.png', 'Im_RobertPattinson.png', 'Im_HughJackman.png'],same,0,0.8748118999997132,20,80.95238095238095,
GUES1603,train,pos,fs,posfs_id6_im18.bmp_posfs_id6_im12.bmp,['Im_DanielCraig.png', 'Im_PatrickDempsey.png', 'Im_GeorgeClooney.png', 'Im_ElijahWood.png', 'Im_KeanuReeves.png', 'Im_JustinTimberlake.png', 'Im_OrlandoBloom.png', 'Im_BradPitt.png', 'Im_RobertPattinson.png', 'Im_HughJackman.png'],same,1,0.5501033000000461,21,80.95238095238095,
GUES1603,train,pos,30,pos30_id19_im8.bmp_pos30_id19_im27.bmp,['Im_DanielCraig.png', 'Im_PatrickDempsey.png', 'Im_GeorgeClooney.png', 'Im_ElijahWood.png', 'Im_KeanuReeves.png', 'Im_JustinTimberlake.png', 'Im_OrlandoBloom.png', 'Im_BradPitt.png', 'Im_RobertPattinson.png', 'Im_HughJackman.png'],same,1,0.5834144999998898,22,80.95238095238095,
GUES1603,train,pos,120,pos120_id4_im15.bmp_pos120_id4_im7.bmp,['Im_DanielCraig.png', 'Im_PatrickDempsey.png', 'Im_GeorgeClooney.png', 'Im_ElijahWood.png', 'Im_KeanuReeves.png', 'Im_JustinTimberlake.png', 'Im_OrlandoBloom.png', 'Im_BradPitt.png', 'Im_RobertPattinson.png', 'Im_HughJackman.png'],same,1,0.40839199999982156,23,80.95238095238095,
GUES1603,train,pos,0,pos0_id16_im19.bmp_pos0_id7_im26.bmp,['Im_DanielCraig.png', 'Im_PatrickDempsey.png', 'Im_GeorgeClooney.png', 'Im_ElijahWood.png', 'Im_KeanuReeves.png', 'Im_JustinTimberlake.png', 'Im_OrlandoBloom.png', 'Im_BradPitt.png', 'Im_RobertPattinson.png', 'Im_HughJackman.png'],diff,1,0.40799220000008063,24,80.95238095238095,
GUES1603,train,pos,150,pos150_id10_im1.bmp_pos150_id4_im15.bmp,['Im_DanielCraig.png', 'Im_PatrickDempsey.png', 'Im_GeorgeClooney.png', 'Im_ElijahWood.png', 'Im_KeanuReeves.png', 'Im_JustinTimberlake.png', 'Im_OrlandoBloom.png', 'Im_BradPitt.png', 'Im_RobertPattinson.png', 'Im_HughJackman.png'],diff,1,0.40853610000021945,25,80.95238095238095,
GUES1603,train,pos,90,pos90_id7_im14.bmp_pos90_id10_im1.bmp,['Im_DanielCraig.png', 'Im_PatrickDempsey.png', 'Im_GeorgeClooney.png', 'Im_ElijahWood.png', 'Im_KeanuReeves.png', 'Im_JustinTimberlake.png', 'Im_OrlandoBloom.png', 'Im_BradPitt.png', 'Im_RobertPattinson.png', 'Im_HughJackman.png'],diff,1,0.6165848000000551,26,80.95238095238095,
GUES1603,train,pos,60,pos60_id3_im6.bmp_pos60_id3_im17.bmp,['Im_DanielCraig.png', 'Im_PatrickDempsey.png', 'Im_GeorgeClooney.png', 'Im_ElijahWood.png', 'Im_KeanuReeves.png', 'Im_JustinTimberlake.png', 'Im_OrlandoBloom.png', 'Im_BradPitt.png', 'Im_RobertPattinson.png', 'Im_HughJackman.png'],same,1,0.458730999999716,27,80.95238095238095,
GUES1603,train,pos,60,pos60_id11_im2.bmp_pos60_id11_im10.bmp,['Im_DanielCraig.png', 'Im_PatrickDempsey.png', 'Im_GeorgeClooney.png', 'Im_ElijahWood.png', 'Im_KeanuReeves.png', 'Im_JustinTimberlake.png', 'Im_OrlandoBloom.png', 'Im_BradPitt.png', 'Im_RobertPattinson.png', 'Im_HughJackman.png'],same,1,0.5919152000001304,28,80.95238095238095,
GUES1603,train,pos,0,pos0_id7_im14.bmp_pos0_id6_im12.bmp,['Im_DanielCraig.png', 'Im_PatrickDempsey.png', 'Im_GeorgeClooney.png', 'Im_ElijahWood.png', 'Im_KeanuReeves.png', 'Im_JustinTimberlake.png', 'Im_OrlandoBloom.png', 'Im_BradPitt.png', 'Im_RobertPattinson.png', 'Im_HughJackman.png'],diff,1,0.4250590999999986,29,80.95238095238095,
GUES1603,train,pos,30,pos30_id3_im6.bmp_pos30_id3_im17.bmp,['Im_DanielCraig.png', 'Im_PatrickDempsey.png', 'Im_GeorgeClooney.png', 'Im_ElijahWood.png', 'Im_KeanuReeves.png', 'Im_JustinTimberlake.png', 'Im_OrlandoBloom.png', 'Im_BradPitt.png', 'Im_RobertPattinson.png', 'Im_HughJackman.png'],diff,0,0.42501739999988786,29,80.95238095238095,
GUES1603,train,pos,90,pos90_id11_im2.bmp_pos90_id11_im1.bmp,['Im_DanielCraig.png', 'Im_PatrickDempsey.png', 'Im_GeorgeClooney.png', 'Im_ElijahWood.png', 'Im_KeanuReeves.png', 'Im_JustinTimberlake.png', 'Im_OrlandoBloom.png', 'Im_BradPitt.png', 'Im_RobertPattinson.png', 'Im_HughJackman.png'],same,1,0.6172198999997818,30,80.95238095238095,
GUES1603,train,pos,150,pos150_id4_im15.bmp_pos150_id11_im2.bmp,['Im_DanielCraig.png', 'Im_PatrickDempsey.png', 'Im_GeorgeClooney.png', 'Im_ElijahWood.png', 'Im_KeanuReeves.png', 'Im_JustinTimberlake.png', 'Im_OrlandoBloom.png', 'Im_BradPitt.png', 'Im_RobertPattinson.png', 'Im_HughJackman.png'],diff,1,0.41671850000011545,31,80.95238095238095,
GUES1603,train,pos,fs,posfs_id8_im21.bmp_posfs_id8_im20.bmp,['Im_DanielCraig.png', 'Im_PatrickDempsey.png', 'Im_GeorgeClooney.png', 'Im_ElijahWood.png', 'Im_KeanuReeves.png', 'Im_JustinTimberlake.png', 'Im_OrlandoBloom.png', 'Im_BradPitt.png', 'Im_RobertPattinson.png', 'Im_HughJackman.png'],same,1,0.4248992000002545,32,80.95238095238095,
GUES1603,train,pos,120,pos120_id8_im13.bmp_pos120_id16_im3.bmp,['Im_DanielCraig.png', 'Im_PatrickDempsey.png', 'Im_GeorgeClooney.png', 'Im_ElijahWood.png', 'Im_KeanuReeves.png', 'Im_JustinTimberlake.png', 'Im_OrlandoBloom.png', 'Im_BradPitt.png', 'Im_RobertPattinson.png', 'Im_HughJackman.png'],diff,1,0.45836359999975684,33,80.95238095238095,
GUES1603,0,inv,0,pos0_id16_im19.bmp_pos0_id16_im3.bmp,['Im_DanielCraig.png', 'Im_PatrickDempsey.png', 'Im_GeorgeClooney.png', 'Im_ElijahWood.png', 'Im_KeanuReeves.png', 'Im_JustinTimberlake.png', 'Im_OrlandoBloom.png', 'Im_BradPitt.png', 'Im_RobertPattinson.png', 'Im_HughJackman.png'],same,1,0.5084609999998975,1,0,
GUES1603,0,inv,fs,posfs_id8_im21.bmp_posfs_id8_im20.bmp,['Im_DanielCraig.png', 'Im_PatrickDempsey.png', 'Im_GeorgeClooney.png', 'Im_ElijahWood.png', 'Im_KeanuReeves.png', 'Im_JustinTimberlake.png', 'Im_OrlandoBloom.png', 'Im_BradPitt.png', 'Im_RobertPattinson.png', 'Im_HughJackman.png'],same,1,0.4417346999998699,2,0,
GUES1603,0,inv,30,pos30_id3_im17.bmp_pos30_id3_im8.bmp,['Im_DanielCraig.png', 'Im_PatrickDempsey.png', 'Im_GeorgeClooney.png', 'Im_ElijahWood.png', 'Im_KeanuReeves.png', 'Im_JustinTimberlake.png', 'Im_OrlandoBloom.png', 'Im_BradPitt.png', 'Im_RobertPattinson.png', 'Im_HughJackman.png'],diff,0,0.5002988999999616,2,0,
GUES1603,0,inv,30,pos30_id16_im3.bmp_pos30_id16_im2.bmp,['Im_DanielCraig.png', 'Im_PatrickDempsey.png', 'Im_GeorgeClooney.png', 'Im_ElijahWood.png', 'Im_KeanuReeves.png', 'Im_JustinTimberlake.png', 'Im_OrlandoBloom.png', 'Im_BradPitt.png', 'Im_RobertPattinson.png', 'Im_HughJackman.png'],diff,0,0.7340389999999388,2,0,
GUES1603,0,inv,90,pos90_id8_im13.bmp_pos90_id8_im20.bmp,['Im_DanielCraig.png', 'Im_PatrickDempsey.png', 'Im_GeorgeClooney.png', 'Im_ElijahWood.png', 'Im_KeanuReeves.png', 'Im_JustinTimberlake.png', 'Im_OrlandoBloom.png', 'Im_BradPitt.png', 'Im_RobertPattinson.png', 'Im_HughJackman.png'],same,1,0.5915718999999626,3,0,
GUES1603,0,inv,0,pos0_id16_im3.bmp_pos0_id16_im2.bmp,['Im_DanielCraig.png', 'Im_PatrickDempsey.png', 'Im_GeorgeClooney.png', 'Im_ElijahWood.png', 'Im_KeanuReeves.png', 'Im_JustinTimberlake.png', 'Im_OrlandoBloom.png', 'Im_BradPitt.png', 'Im_RobertPattinson.png', 'Im_HughJackman.png'],same,1,0.433393100000103,4,0,
GUES1603,0,inv,120,pos120_id8_im20.bmp_pos120_id8_im13.bmp,['Im_DanielCraig.png', 'Im_PatrickDempsey.png', 'Im_GeorgeClooney.png', 'Im_ElijahWood.png', 'Im_KeanuReeves.png', 'Im_JustinTimberlake.png', 'Im_OrlandoBloom.png', 'Im_BradPitt.png', 'Im_RobertPattinson.png', 'Im_HughJackman.png'],same,1,0.4582255999998779,5,0,
GUES1603,0,inv,120,pos120_id16_im19.bmp_pos120_id16_im3.bmp,['Im_DanielCraig.png', 'Im_PatrickDempsey.png', 'Im_GeorgeClooney.png', 'Im_ElijahWood.png', 'Im_KeanuReeves.png', 'Im_JustinTimberlake.png', 'Im_OrlandoBloom.png', 'Im_BradPitt.png', 'Im_RobertPattinson.png', 'Im_HughJackman.png'],same,1,0.4168991999999889,6,0,
GUES1603,0,inv,60,pos60_id10_im17.bmp_pos60_id10_im18.bmp,['Im_DanielCraig.png', 'Im_PatrickDempsey.png', 'Im_GeorgeClooney.png', 'Im_ElijahWood.png', 'Im_KeanuReeves.png', 'Im_JustinTimberlake.png', 'Im_OrlandoBloom.png', 'Im_BradPitt.png', 'Im_RobertPattinson.png', 'Im_HughJackman.png'],diff,0,0.4167533999998341,6,0,
GUES1603,0,inv,fs,posfs_id10_im18.bmp_posfs_id3_im8.bmp,['Im_DanielCraig.png', 'Im_PatrickDempsey.png', 'Im_GeorgeClooney.png', 'Im_ElijahWood.png', 'Im_KeanuReeves.png', 'Im_JustinTimberlake.png', 'Im_OrlandoBloom.png', 'Im_BradPitt.png', 'Im_RobertPattinson.png', 'Im_HughJackman.png'],diff,1,0.4332619000001614,7,0,
GUES1603,0,inv,90,pos90_id19_im27.bmp_pos90_id6_im12.bmp,['Im_DanielCraig.png', 'Im_PatrickDempsey.png', 'Im_GeorgeClooney.png', 'Im_ElijahWood.png', 'Im_KeanuReeves.png', 'Im_JustinTimberlake.png', 'Im_OrlandoBloom.png', 'Im_BradPitt.png', 'Im_RobertPattinson.png', 'Im_HughJackman.png'],diff,1,0.43329210000001694,8,0,
GUES1603,0,inv,150,pos150_id7_im26.bmp_pos150_id7_im15.bmp,['Im_DanielCraig.png', 'Im_PatrickDempsey.png', 'Im_GeorgeClooney.png', 'Im_ElijahWood.png', 'Im_KeanuReeves.png', 'Im_JustinTimberlake.png', 'Im_OrlandoBloom.png', 'Im_BradPitt.png', 'Im_RobertPattinson.png', 'Im_HughJackman.png'],same,1,0.6167093000003661,9,0,
GUES1603,0,inv,150,pos150_id16_im2.bmp_pos150_id16_im19.bmp,['Im_DanielCraig.png', 'Im_PatrickDempsey.png', 'Im_GeorgeClooney.png', 'Im_ElijahWood.png', 'Im_KeanuReeves.png', 'Im_JustinTimberlake.png', 'Im_OrlandoBloom.png', 'Im_BradPitt.png', 'Im_RobertPattinson.png', 'Im_HughJackman.png'],same,1,0.7334915999999794,10,0,
GUES1603,0,inv,60,pos60_id4_im20.bmp_pos60_id4_im15.bmp,['Im_DanielCraig.png', 'Im_PatrickDempsey.png', 'Im_GeorgeClooney.png', 'Im_ElijahWood.png', 'Im_KeanuReeves.png', 'Im_JustinTimberlake.png', 'Im_OrlandoBloom.png', 'Im_BradPitt.png', 'Im_RobertPattinson.png', 'Im_HughJackman.png'],same,1,0.6670718000000306,11,0,
GUES1603,1,pos,60,pos60_id6_im12.bmp_pos60_id19_im27.bmp,['Im_DanielCraig.png', 'Im_PatrickDempsey.png', 'Im_GeorgeClooney.png', 'Im_ElijahWood.png', 'Im_KeanuReeves.png', 'Im_JustinTimberlake.png', 'Im_OrlandoBloom.png', 'Im_BradPitt.png', 'Im_RobertPattinson.png', 'Im_HughJackman.png'],diff,1,0.4250053000000662,12,0,
GUES1603,1,pos,60,pos60_id3_im8.bmp_pos60_id3_im17.bmp,['Im_DanielCraig.png', 'Im_PatrickDempsey.png', 'Im_GeorgeClooney.png', 'Im_ElijahWood.png', 'Im_KeanuReeves.png', 'Im_JustinTimberlake.png', 'Im_OrlandoBloom.png', 'Im_BradPitt.png', 'Im_RobertPattinson.png', 'Im_HughJackman.png'],diff,0,0.4249597000002723,12,0,
GUES1603,1,pos,150,pos150_id3_im8.bmp_pos150_id10_im18.bmp,['Im_DanielCraig.png', 'Im_PatrickDempsey.png', 'Im_GeorgeClooney.png', 'Im_ElijahWood.png', 'Im_KeanuReeves.png', 'Im_JustinTimberlake.png', 'Im_OrlandoBloom.png', 'Im_BradPitt.png', 'Im_RobertPattinson.png', 'Im_HughJackman.png'],diff,1,0.42520250000006854,13,0,
GUES1603,1,pos,fs,posfs_id16_im19.bmp_posfs_id3_im17.bmp,['Im_DanielCraig.png', 'Im_PatrickDempsey.png', 'Im_GeorgeClooney.png', 'Im_ElijahWood.png', 'Im_KeanuReeves.png', 'Im_JustinTimberlake.png', 'Im_OrlandoBloom.png', 'Im_BradPitt.png', 'Im_RobertPattinson.png', 'Im_HughJackman.png'],diff,1,0.4167576999998346,14,0,
GUES1603,1,pos,fs,posfs_id3_im17.bmp_posfs_id3_im6.bmp,['Im_DanielCraig.png', 'Im_PatrickDempsey.png', 'Im_GeorgeClooney.png', 'Im_ElijahWood.png', 'Im_KeanuReeves.png', 'Im_JustinTimberlake.png', 'Im_OrlandoBloom.png', 'Im_BradPitt.png', 'Im_RobertPattinson.png', 'Im_HughJackman.png'],diff,0,0.4252572999998847,14,0,
GUES1603,1,pos,150,pos150_id16_im19.bmp_pos150_id16_im3.bmp,['Im_DanielCraig.png', 'Im_PatrickDempsey.png', 'Im_GeorgeClooney.png', 'Im_ElijahWood.png', 'Im_KeanuReeves.png', 'Im_JustinTimberlake.png', 'Im_OrlandoBloom.png', 'Im_BradPitt.png', 'Im_RobertPattinson.png', 'Im_HughJackman.png'],same,1,0.45825950000016746,15,0,
GUES1603,1,pos,0,pos0_id11_im1.bmp_pos0_id11_im10.bmp,['Im_DanielCraig.png', 'Im_PatrickDempsey.png', 'Im_GeorgeClooney.png', 'Im_ElijahWood.png', 'Im_KeanuReeves.png', 'Im_JustinTimberlake.png', 'Im_OrlandoBloom.png', 'Im_BradPitt.png', 'Im_RobertPattinson.png', 'Im_HughJackman.png'],same,1,1.2583040999998047,16,0,
GUES1603,1,pos,120,pos120_id16_im19.bmp_pos120_id16_im3.bmp,['Im_DanielCraig.png', 'Im_PatrickDempsey.png', 'Im_GeorgeClooney.png', 'Im_ElijahWood.png', 'Im_KeanuReeves.png', 'Im_JustinTimberlake.png', 'Im_OrlandoBloom.png', 'Im_BradPitt.png', 'Im_RobertPattinson.png', 'Im_HughJackman.png'],same,1,0.466859900000145,17,0,
GUES1603,1,pos,120,pos120_id7_im26.bmp_pos120_id3_im6.bmp,['Im_DanielCraig.png', 'Im_PatrickDempsey.png', 'Im_GeorgeClooney.png', 'Im_ElijahWood.png', 'Im_KeanuReeves.png', 'Im_JustinTimberlake.png', 'Im_OrlandoBloom.png', 'Im_BradPitt.png', 'Im_RobertPattinson.png', 'Im_HughJackman.png'],diff,1,0.4168483999997079,18,0,
GUES1603,1,pos,30,pos30_id7_im26.bmp_pos30_id7_im15.bmp,['Im_DanielCraig.png', 'Im_PatrickDempsey.png', 'Im_GeorgeClooney.png', 'Im_ElijahWood.png', 'Im_KeanuReeves.png', 'Im_JustinTimberlake.png', 'Im_OrlandoBloom.png', 'Im_BradPitt.png', 'Im_RobertPattinson.png', 'Im_HughJackman.png'],same,1,0.5415829000003214,19,0,
GUES1603,1,pos,0,pos0_id8_im20.bmp_pos0_id8_im21.bmp,['Im_DanielCraig.png', 'Im_PatrickDempsey.png', 'Im_GeorgeClooney.png', 'Im_ElijahWood.png', 'Im_KeanuReeves.png', 'Im_JustinTimberlake.png', 'Im_OrlandoBloom.png', 'Im_BradPitt.png', 'Im_RobertPattinson.png', 'Im_HughJackman.png'],same,1,0.4250867000000653,20,0,
GUES1603,1,pos,90,pos90_id19_im4.bmp_pos90_id19_im8.bmp,['Im_DanielCraig.png', 'Im_PatrickDempsey.png', 'Im_GeorgeClooney.png', 'Im_ElijahWood.png', 'Im_KeanuReeves.png', 'Im_JustinTimberlake.png', 'Im_OrlandoBloom.png', 'Im_BradPitt.png', 'Im_RobertPattinson.png', 'Im_HughJackman.png'],same,1,0.41668570000001637,21,0,
GUES1603,1,pos,90,pos90_id10_im1.bmp_pos90_id10_im18.bmp,['Im_DanielCraig.png', 'Im_PatrickDempsey.png', 'Im_GeorgeClooney.png', 'Im_ElijahWood.png', 'Im_KeanuReeves.png', 'Im_JustinTimberlake.png', 'Im_OrlandoBloom.png', 'Im_BradPitt.png', 'Im_RobertPattinson.png', 'Im_HughJackman.png'],same,1,0.4168300999999701,22,0,
GUES1603,1,pos,30,pos30_id7_im14.bmp_pos30_id7_im15.bmp,['Im_DanielCraig.png', 'Im_PatrickDempsey.png', 'Im_GeorgeClooney.png', 'Im_ElijahWood.png', 'Im_KeanuReeves.png', 'Im_JustinTimberlake.png', 'Im_OrlandoBloom.png', 'Im_BradPitt.png', 'Im_RobertPattinson.png', 'Im_HughJackman.png'],same,1,0.42502630000035424,23,0,
GUES1603,2,neg,90,neg90_id16_im2.bmp_neg90_id16_im19.bmp,['Im_DanielCraig.png', 'Im_PatrickDempsey.png', 'Im_GeorgeClooney.png', 'Im_ElijahWood.png', 'Im_KeanuReeves.png', 'Im_JustinTimberlake.png', 'Im_OrlandoBloom.png', 'Im_BradPitt.png', 'Im_RobertPattinson.png', 'Im_HughJackman.png'],diff,0,0.8084641000000374,23,0,
GUES1603,2,neg,fs,negfs_id10_im1.bmp_negfs_id4_im15.bmp,['Im_DanielCraig.png', 'Im_PatrickDempsey.png', 'Im_GeorgeClooney.png', 'Im_ElijahWood.png', 'Im_KeanuReeves.png', 'Im_JustinTimberlake.png', 'Im_OrlandoBloom.png', 'Im_BradPitt.png', 'Im_RobertPattinson.png', 'Im_HughJackman.png'],diff,1,0.4251783000004252,24,0,
GUES1603,2,neg,30,neg30_id6_im19.bmp_neg30_id17_im9.bmp,['Im_DanielCraig.png', 'Im_PatrickDempsey.png', 'Im_GeorgeClooney.png', 'Im_ElijahWood.png', 'Im_KeanuReeves.png', 'Im_JustinTimberlake.png', 'Im_OrlandoBloom.png', 'Im_BradPitt.png', 'Im_RobertPattinson.png', 'Im_HughJackman.png'],same,0,0.8916555999999218,24,0,
GUES1603,2,neg,fs,negfs_id7_im26.bmp_negfs_id7_im14.bmp,['Im_DanielCraig.png', 'Im_PatrickDempsey.png', 'Im_GeorgeClooney.png', 'Im_ElijahWood.png', 'Im_KeanuReeves.png', 'Im_JustinTimberlake.png', 'Im_OrlandoBloom.png', 'Im_BradPitt.png', 'Im_RobertPattinson.png', 'Im_HughJackman.png'],same,1,0.4250170000000253,25,0,
GUES1603,2,neg,60,neg60_id4_im20.bmp_neg60_id10_im17.bmp,['Im_DanielCraig.png', 'Im_PatrickDempsey.png', 'Im_GeorgeClooney.png', 'Im_ElijahWood.png', 'Im_KeanuReeves.png', 'Im_JustinTimberlake.png', 'Im_OrlandoBloom.png', 'Im_BradPitt.png', 'Im_RobertPattinson.png', 'Im_HughJackman.png'],diff,1,0.7583441000001585,26,0,
GUES1603,2,neg,120,neg120_id4_im15.bmp_neg120_id11_im2.bmp,['Im_DanielCraig.png', 'Im_PatrickDempsey.png', 'Im_GeorgeClooney.png', 'Im_ElijahWood.png', 'Im_KeanuReeves.png', 'Im_JustinTimberlake.png', 'Im_OrlandoBloom.png', 'Im_BradPitt.png', 'Im_RobertPattinson.png', 'Im_HughJackman.png'],diff,1,0.4252472999996826,27,0,
GUES1603,2,neg,30,neg30_id10_im1.bmp_neg30_id4_im15.bmp,['Im_DanielCraig.png', 'Im_PatrickDempsey.png', 'Im_GeorgeClooney.png', 'Im_ElijahWood.png', 'Im_KeanuReeves.png', 'Im_JustinTimberlake.png', 'Im_OrlandoBloom.png', 'Im_BradPitt.png', 'Im_RobertPattinson.png', 'Im_HughJackman.png'],diff,1,0.42507819999991625,28,0,
GUES1603,2,neg,60,neg60_id3_im17.bmp_neg60_id3_im8.bmp,['Im_DanielCraig.png', 'Im_PatrickDempsey.png', 'Im_GeorgeClooney.png', 'Im_ElijahWood.png', 'Im_KeanuReeves.png', 'Im_JustinTimberlake.png', 'Im_OrlandoBloom.png', 'Im_BradPitt.png', 'Im_RobertPattinson.png', 'Im_HughJackman.png'],diff,0,0.9584928999997828,28,0,
GUES1603,2,neg,150,neg150_id6_im19.bmp_neg150_id17_im8.bmp,['Im_DanielCraig.png', 'Im_PatrickDempsey.png', 'Im_GeorgeClooney.png', 'Im_ElijahWood.png', 'Im_KeanuReeves.png', 'Im_JustinTimberlake.png', 'Im_OrlandoBloom.png', 'Im_BradPitt.png', 'Im_RobertPattinson.png', 'Im_HughJackman.png'],diff,1,0.5918686999998499,29,0,
GUES1603,2,neg,0,neg0_id3_im8.bmp_neg0_id3_im17.bmp,['Im_DanielCraig.png', 'Im_PatrickDempsey.png', 'Im_GeorgeClooney.png', 'Im_ElijahWood.png', 'Im_KeanuReeves.png', 'Im_JustinTimberlake.png', 'Im_OrlandoBloom.png', 'Im_BradPitt.png', 'Im_RobertPattinson.png', 'Im_HughJackman.png'],same,1,0.4254399999999805,30,0,
GUES1603,2,neg,120,neg120_id4_im15.bmp_neg120_id4_im7.bmp,['Im_DanielCraig.png', 'Im_PatrickDempsey.png', 'Im_GeorgeClooney.png', 'Im_ElijahWood.png', 'Im_KeanuReeves.png', 'Im_JustinTimberlake.png', 'Im_OrlandoBloom.png', 'Im_BradPitt.png', 'Im_RobertPattinson.png', 'Im_HughJackman.png'],same,1,0.4166731999998774,31,0,
GUES1603,2,neg,0,neg0_id16_im3.bmp_neg0_id8_im13.bmp,['Im_DanielCraig.png', 'Im_PatrickDempsey.png', 'Im_GeorgeClooney.png', 'Im_ElijahWood.png', 'Im_KeanuReeves.png', 'Im_JustinTimberlake.png', 'Im_OrlandoBloom.png', 'Im_BradPitt.png', 'Im_RobertPattinson.png', 'Im_HughJackman.png'],same,0,0.9249757000002319,31,0,
GUES1603,2,neg,150,neg150_id7_im15.bmp_neg150_id7_im26.bmp,['Im_DanielCraig.png', 'Im_PatrickDempsey.png', 'Im_GeorgeClooney.png', 'Im_ElijahWood.png', 'Im_KeanuReeves.png', 'Im_JustinTimberlake.png', 'Im_OrlandoBloom.png', 'Im_BradPitt.png', 'Im_RobertPattinson.png', 'Im_HughJackman.png'],same,1,0.4167422999998962,32,0,
GUES1603,2,neg,90,neg90_id8_im21.bmp_neg90_id8_im13.bmp,['Im_DanielCraig.png', 'Im_PatrickDempsey.png', 'Im_GeorgeClooney.png', 'Im_ElijahWood.png', 'Im_KeanuReeves.png', 'Im_JustinTimberlake.png', 'Im_OrlandoBloom.png', 'Im_BradPitt.png', 'Im_RobertPattinson.png', 'Im_HughJackman.png'],same,1,0.41658400000005713,33,0,
GUES1603,3,neg,90,neg90_id10_im17.bmp_neg90_id10_im1.bmp,['Im_DanielCraig.png', 'Im_PatrickDempsey.png', 'Im_GeorgeClooney.png', 'Im_ElijahWood.png', 'Im_KeanuReeves.png', 'Im_JustinTimberlake.png', 'Im_OrlandoBloom.png', 'Im_BradPitt.png', 'Im_RobertPattinson.png', 'Im_HughJackman.png'],diff,0,0.9250435999997535,0,78.57142857142857,
GUES1603,3,neg,30,neg30_id11_im10.bmp_neg30_id11_im2.bmp,['Im_DanielCraig.png', 'Im_PatrickDempsey.png', 'Im_GeorgeClooney.png', 'Im_ElijahWood.png', 'Im_KeanuReeves.png', 'Im_JustinTimberlake.png', 'Im_OrlandoBloom.png', 'Im_BradPitt.png', 'Im_RobertPattinson.png', 'Im_HughJackman.png'],same,1,0.42517999999972744,1,78.57142857142857,
GUES1603,3,neg,0,neg0_id6_im12.bmp_neg0_id7_im14.bmp,['Im_DanielCraig.png', 'Im_PatrickDempsey.png', 'Im_GeorgeClooney.png', 'Im_ElijahWood.png', 'Im_KeanuReeves.png', 'Im_JustinTimberlake.png', 'Im_OrlandoBloom.png', 'Im_BradPitt.png', 'Im_RobertPattinson.png', 'Im_HughJackman.png'],diff,1,0.42487789999995584,2,78.57142857142857,
GUES1603,3,neg,120,neg120_id17_im9.bmp_neg120_id6_im19.bmp,['Im_DanielCraig.png', 'Im_PatrickDempsey.png', 'Im_GeorgeClooney.png', 'Im_ElijahWood.png', 'Im_KeanuReeves.png', 'Im_JustinTimberlake.png', 'Im_OrlandoBloom.png', 'Im_BradPitt.png', 'Im_RobertPattinson.png', 'Im_HughJackman.png'],diff,1,0.5336247999998704,3,78.57142857142857,
GUES1603,3,neg,150,neg150_id4_im15.bmp_neg150_id4_im7.bmp,['Im_DanielCraig.png', 'Im_PatrickDempsey.png', 'Im_GeorgeClooney.png', 'Im_ElijahWood.png', 'Im_KeanuReeves.png', 'Im_JustinTimberlake.png', 'Im_OrlandoBloom.png', 'Im_BradPitt.png', 'Im_RobertPattinson.png', 'Im_HughJackman.png'],same,1,0.41677389999995285,4,78.57142857142857,
GUES1603,3,neg,fs,negfs_id3_im8.bmp_negfs_id10_im18.bmp,['Im_DanielCraig.png', 'Im_PatrickDempsey.png', 'Im_GeorgeClooney.png', 'Im_ElijahWood.png', 'Im_KeanuReeves.png', 'Im_JustinTimberlake.png', 'Im_OrlandoBloom.png', 'Im_BradPitt.png', 'Im_RobertPattinson.png', 'Im_HughJackman.png'],diff,1,0.5502786000001834,5,78.57142857142857,
GUES1603,3,neg,90,neg90_id6_im19.bmp_neg90_id17_im8.bmp,['Im_DanielCraig.png', 'Im_PatrickDempsey.png', 'Im_GeorgeClooney.png', 'Im_ElijahWood.png', 'Im_KeanuReeves.png', 'Im_JustinTimberlake.png', 'Im_OrlandoBloom.png', 'Im_BradPitt.png', 'Im_RobertPattinson.png', 'Im_HughJackman.png'],diff,1,0.6753477999995994,6,78.57142857142857,
GUES1603,3,neg,fs,negfs_id6_im19.bmp_negfs_id6_im18.bmp,['Im_DanielCraig.png', 'Im_PatrickDempsey.png', 'Im_GeorgeClooney.png', 'Im_ElijahWood.png', 'Im_KeanuReeves.png', 'Im_JustinTimberlake.png', 'Im_OrlandoBloom.png', 'Im_BradPitt.png', 'Im_RobertPattinson.png', 'Im_HughJackman.png'],same,1,0.9498591000001397,7,78.57142857142857,
GUES1603,3,neg,120,neg120_id3_im8.bmp_neg120_id3_im17.bmp,['Im_DanielCraig.png', 'Im_PatrickDempsey.png', 'Im_GeorgeClooney.png', 'Im_ElijahWood.png', 'Im_KeanuReeves.png', 'Im_JustinTimberlake.png', 'Im_OrlandoBloom.png', 'Im_BradPitt.png', 'Im_RobertPattinson.png', 'Im_HughJackman.png'],same,1,0.5169283000000178,8,78.57142857142857,
GUES1603,3,neg,60,neg60_id16_im2.bmp_neg60_id16_im19.bmp,['Im_DanielCraig.png', 'Im_PatrickDempsey.png', 'Im_GeorgeClooney.png', 'Im_ElijahWood.png', 'Im_KeanuReeves.png', 'Im_JustinTimberlake.png', 'Im_OrlandoBloom.png', 'Im_BradPitt.png', 'Im_RobertPattinson.png', 'Im_HughJackman.png'],same,1,1.4667214999999487,9,78.57142857142857,
GUES1603,3,neg,150,neg150_id19_im27.bmp_neg150_id6_im12.bmp,['Im_DanielCraig.png', 'Im_PatrickDempsey.png', 'Im_GeorgeClooney.png', 'Im_ElijahWood.png', 'Im_KeanuReeves.png', 'Im_JustinTimberlake.png', 'Im_OrlandoBloom.png', 'Im_BradPitt.png', 'Im_RobertPattinson.png', 'Im_HughJackman.png'],diff,1,0.4084081999999398,10,78.57142857142857,
GUES1603,3,neg,30,neg30_id17_im8.bmp_neg30_id17_im14.bmp,['Im_DanielCraig.png', 'Im_PatrickDempsey.png', 'Im_GeorgeClooney.png', 'Im_ElijahWood.png', 'Im_KeanuReeves.png', 'Im_JustinTimberlake.png', 'Im_OrlandoBloom.png', 'Im_BradPitt.png', 'Im_RobertPattinson.png', 'Im_HughJackman.png'],same,1,0.43341719999989436,11,78.57142857142857,
GUES1603,3,neg,60,neg60_id19_im27.bmp_neg60_id19_im4.bmp,['Im_DanielCraig.png', 'Im_PatrickDempsey.png', 'Im_GeorgeClooney.png', 'Im_ElijahWood.png', 'Im_KeanuReeves.png', 'Im_JustinTimberlake.png', 'Im_OrlandoBloom.png', 'Im_BradPitt.png', 'Im_RobertPattinson.png', 'Im_HughJackman.png'],diff,0,1.0416212000000087,11,78.57142857142857,
GUES1603,3,neg,0,neg0_id17_im14.bmp_neg0_id4_im7.bmp,['Im_DanielCraig.png', 'Im_PatrickDempsey.png', 'Im_GeorgeClooney.png', 'Im_ElijahWood.png', 'Im_KeanuReeves.png', 'Im_JustinTimberlake.png', 'Im_OrlandoBloom.png', 'Im_BradPitt.png', 'Im_RobertPattinson.png', 'Im_HughJackman.png'],same,0,0.716911799999707,11,78.57142857142857,
GUES1603,4,pos,fs,posfs_id3_im6.bmp_posfs_id7_im26.bmp,['Im_DanielCraig.png', 'Im_PatrickDempsey.png', 'Im_GeorgeClooney.png', 'Im_ElijahWood.png', 'Im_KeanuReeves.png', 'Im_JustinTimberlake.png', 'Im_OrlandoBloom.png', 'Im_BradPitt.png', 'Im_RobertPattinson.png', 'Im_HughJackman.png'],diff,1,0.4167152999998507,12,78.57142857142857,
GUES1603,4,pos,0,pos0_id17_im9.bmp_pos0_id6_im19.bmp,['Im_DanielCraig.png', 'Im_PatrickDempsey.png', 'Im_GeorgeClooney.png', 'Im_ElijahWood.png', 'Im_KeanuReeves.png', 'Im_JustinTimberlake.png', 'Im_OrlandoBloom.png', 'Im_BradPitt.png', 'Im_RobertPattinson.png', 'Im_HughJackman.png'],diff,1,0.4253363000002537,13,78.57142857142857,
GUES1603,4,pos,90,pos90_id17_im8.bmp_pos90_id17_im9.bmp,['Im_DanielCraig.png', 'Im_PatrickDempsey.png', 'Im_GeorgeClooney.png', 'Im_ElijahWood.png', 'Im_KeanuReeves.png', 'Im_JustinTimberlake.png', 'Im_OrlandoBloom.png', 'Im_BradPitt.png', 'Im_RobertPattinson.png', 'Im_HughJackman.png'],same,1,0.8169434999999794,14,78.57142857142857,
GUES1603,4,pos,150,pos150_id8_im13.bmp_pos150_id8_im20.bmp,['Im_DanielCraig.png', 'Im_PatrickDempsey.png', 'Im_GeorgeClooney.png', 'Im_ElijahWood.png', 'Im_KeanuReeves.png', 'Im_JustinTimberlake.png', 'Im_OrlandoBloom.png', 'Im_BradPitt.png', 'Im_RobertPattinson.png', 'Im_HughJackman.png'],same,1,0.42522490000010293,15,78.57142857142857,
GUES1603,4,pos,60,pos60_id17_im8.bmp_pos60_id17_im14.bmp,['Im_DanielCraig.png', 'Im_PatrickDempsey.png', 'Im_GeorgeClooney.png', 'Im_ElijahWood.png', 'Im_KeanuReeves.png', 'Im_JustinTimberlake.png', 'Im_OrlandoBloom.png', 'Im_BradPitt.png', 'Im_RobertPattinson.png', 'Im_HughJackman.png'],same,1,0.4667431999996552,16,78.57142857142857,
GUES1603,4,pos,150,pos150_id16_im19.bmp_pos150_id16_im2.bmp,['Im_DanielCraig.png', 'Im_PatrickDempsey.png', 'Im_GeorgeClooney.png', 'Im_ElijahWood.png', 'Im_KeanuReeves.png', 'Im_JustinTimberlake.png', 'Im_OrlandoBloom.png', 'Im_BradPitt.png', 'Im_RobertPattinson.png', 'Im_HughJackman.png'],same,1,0.424940300000344,17,78.57142857142857,
GUES1603,4,pos,90,pos90_id19_im27.bmp_pos90_id19_im4.bmp,['Im_DanielCraig.png', 'Im_PatrickDempsey.png', 'Im_GeorgeClooney.png', 'Im_ElijahWood.png', 'Im_KeanuReeves.png', 'Im_JustinTimberlake.png', 'Im_OrlandoBloom.png', 'Im_BradPitt.png', 'Im_RobertPattinson.png', 'Im_HughJackman.png'],same,1,0.4167405000002873,18,78.57142857142857,
GUES1603,4,pos,fs,posfs_id16_im19.bmp_posfs_id16_im3.bmp,['Im_DanielCraig.png', 'Im_PatrickDempsey.png', 'Im_GeorgeClooney.png', 'Im_ElijahWood.png', 'Im_KeanuReeves.png', 'Im_JustinTimberlake.png', 'Im_OrlandoBloom.png', 'Im_BradPitt.png', 'Im_RobertPattinson.png', 'Im_HughJackman.png'],same,1,0.4250723999998627,19,78.57142857142857,
GUES1603,4,pos,120,pos120_id3_im8.bmp_pos120_id3_im17.bmp,['Im_DanielCraig.png', 'Im_PatrickDempsey.png', 'Im_GeorgeClooney.png', 'Im_ElijahWood.png', 'Im_KeanuReeves.png', 'Im_JustinTimberlake.png', 'Im_OrlandoBloom.png', 'Im_BradPitt.png', 'Im_RobertPattinson.png', 'Im_HughJackman.png'],same,1,0.5000409999997828,20,78.57142857142857,
GUES1603,4,pos,60,pos60_id8_im20.bmp_pos60_id3_im17.bmp,['Im_DanielCraig.png', 'Im_PatrickDempsey.png', 'Im_GeorgeClooney.png', 'Im_ElijahWood.png', 'Im_KeanuReeves.png', 'Im_JustinTimberlake.png', 'Im_OrlandoBloom.png', 'Im_BradPitt.png', 'Im_RobertPattinson.png', 'Im_HughJackman.png'],diff,1,0.4252099000000271,21,78.57142857142857,
GUES1603,4,pos,120,pos120_id7_im14.bmp_pos120_id7_im15.bmp,['Im_DanielCraig.png', 'Im_PatrickDempsey.png', 'Im_GeorgeClooney.png', 'Im_ElijahWood.png', 'Im_KeanuReeves.png', 'Im_JustinTimberlake.png', 'Im_OrlandoBloom.png', 'Im_BradPitt.png', 'Im_RobertPattinson.png', 'Im_HughJackman.png'],same,1,0.4249789000000419,22,78.57142857142857,
GUES1603,4,pos,30,pos30_id8_im21.bmp_pos30_id4_im7.bmp,['Im_DanielCraig.png', 'Im_PatrickDempsey.png', 'Im_GeorgeClooney.png', 'Im_ElijahWood.png', 'Im_KeanuReeves.png', 'Im_JustinTimberlake.png', 'Im_OrlandoBloom.png', 'Im_BradPitt.png', 'Im_RobertPattinson.png', 'Im_HughJackman.png'],diff,1,0.4166872999999214,23,78.57142857142857,
GUES1603,4,pos,0,pos0_id6_im12.bmp_pos0_id6_im18.bmp,['Im_DanielCraig.png', 'Im_PatrickDempsey.png', 'Im_GeorgeClooney.png', 'Im_ElijahWood.png', 'Im_KeanuReeves.png', 'Im_JustinTimberlake.png', 'Im_OrlandoBloom.png', 'Im_BradPitt.png', 'Im_RobertPattinson.png', 'Im_HughJackman.png'],same,1,0.41665530000000217,24,78.57142857142857,
GUES1603,4,pos,30,pos30_id16_im19.bmp_pos30_id16_im2.bmp,['Im_DanielCraig.png', 'Im_PatrickDempsey.png', 'Im_GeorgeClooney.png', 'Im_ElijahWood.png', 'Im_KeanuReeves.png', 'Im_JustinTimberlake.png', 'Im_OrlandoBloom.png', 'Im_BradPitt.png', 'Im_RobertPattinson.png', 'Im_HughJackman.png'],same,1,0.40845709999985047,25,78.57142857142857,
GUES1603,5,inv,90,pos90_id7_im15.bmp_pos90_id3_im6.bmp,['Im_DanielCraig.png', 'Im_PatrickDempsey.png', 'Im_GeorgeClooney.png', 'Im_ElijahWood.png', 'Im_KeanuReeves.png', 'Im_JustinTimberlake.png', 'Im_OrlandoBloom.png', 'Im_BradPitt.png', 'Im_RobertPattinson.png', 'Im_HughJackman.png'],diff,1,0.6752347000001464,26,78.57142857142857,
GUES1603,5,inv,120,pos120_id7_im14.bmp_pos120_id6_im12.bmp,['Im_DanielCraig.png', 'Im_PatrickDempsey.png', 'Im_GeorgeClooney.png', 'Im_ElijahWood.png', 'Im_KeanuReeves.png', 'Im_JustinTimberlake.png', 'Im_OrlandoBloom.png', 'Im_BradPitt.png', 'Im_RobertPattinson.png', 'Im_HughJackman.png'],diff,1,0.4166112000002613,27,78.57142857142857,
GUES1603,5,inv,fs,posfs_id10_im1.bmp_posfs_id7_im14.bmp,['Im_DanielCraig.png', 'Im_PatrickDempsey.png', 'Im_GeorgeClooney.png', 'Im_ElijahWood.png', 'Im_KeanuReeves.png', 'Im_JustinTimberlake.png', 'Im_OrlandoBloom.png', 'Im_BradPitt.png', 'Im_RobertPattinson.png', 'Im_HughJackman.png'],diff,1,0.4500697999997101,28,78.57142857142857,
GUES1603,5,inv,60,pos60_id19_im4.bmp_pos60_id19_im27.bmp,['Im_DanielCraig.png', 'Im_PatrickDempsey.png', 'Im_GeorgeClooney.png', 'Im_ElijahWood.png', 'Im_KeanuReeves.png', 'Im_JustinTimberlake.png', 'Im_OrlandoBloom.png', 'Im_BradPitt.png', 'Im_RobertPattinson.png', 'Im_HughJackman.png'],same,1,0.425083099999938,29,78.57142857142857,
GUES1603,5,inv,30,pos30_id11_im1.bmp_pos30_id19_im8.bmp,['Im_DanielCraig.png', 'Im_PatrickDempsey.png', 'Im_GeorgeClooney.png', 'Im_ElijahWood.png', 'Im_KeanuReeves.png', 'Im_JustinTimberlake.png', 'Im_OrlandoBloom.png', 'Im_BradPitt.png', 'Im_RobertPattinson.png', 'Im_HughJackman.png'],diff,1,0.5666725999999471,30,78.57142857142857,
GUES1603,5,inv,30,pos30_id6_im18.bmp_pos30_id3_im8.bmp,['Im_DanielCraig.png', 'Im_PatrickDempsey.png', 'Im_GeorgeClooney.png', 'Im_ElijahWood.png', 'Im_KeanuReeves.png', 'Im_JustinTimberlake.png', 'Im_OrlandoBloom.png', 'Im_BradPitt.png', 'Im_RobertPattinson.png', 'Im_HughJackman.png'],diff,1,0.42509900000004563,31,78.57142857142857,
GUES1603,5,inv,0,pos0_id3_im6.bmp_pos0_id3_im8.bmp,['Im_DanielCraig.png', 'Im_PatrickDempsey.png', 'Im_GeorgeClooney.png', 'Im_ElijahWood.png', 'Im_KeanuReeves.png', 'Im_JustinTimberlake.png', 'Im_OrlandoBloom.png', 'Im_BradPitt.png', 'Im_RobertPattinson.png', 'Im_HughJackman.png'],same,1,0.41676689999985683,32,78.57142857142857,
GUES1603,5,inv,150,pos150_id4_im7.bmp_pos150_id17_im14.bmp,['Im_DanielCraig.png', 'Im_PatrickDempsey.png', 'Im_GeorgeClooney.png', 'Im_ElijahWood.png', 'Im_KeanuReeves.png', 'Im_JustinTimberlake.png', 'Im_OrlandoBloom.png', 'Im_BradPitt.png', 'Im_RobertPattinson.png', 'Im_HughJackman.png'],diff,1,0.7083906000002571,33,78.57142857142857,
GUES1603,5,inv,90,pos90_id7_im26.bmp_pos90_id7_im14.bmp,['Im_DanielCraig.png', 'Im_PatrickDempsey.png', 'Im_GeorgeClooney.png', 'Im_ElijahWood.png', 'Im_KeanuReeves.png', 'Im_JustinTimberlake.png', 'Im_OrlandoBloom.png', 'Im_BradPitt.png', 'Im_RobertPattinson.png', 'Im_HughJackman.png'],same,1,0.6250190000000657,34,78.57142857142857,
GUES1603,5,inv,0,pos0_id7_im14.bmp_pos0_id6_im12.bmp,['Im_DanielCraig.png', 'Im_PatrickDempsey.png', 'Im_GeorgeClooney.png', 'Im_ElijahWood.png', 'Im_KeanuReeves.png', 'Im_JustinTimberlake.png', 'Im_OrlandoBloom.png', 'Im_BradPitt.png', 'Im_RobertPattinson.png', 'Im_HughJackman.png'],diff,1,0.4253914999999324,35,78.57142857142857,
GUES1603,5,inv,150,pos150_id11_im10.bmp_pos150_id11_im2.bmp,['Im_DanielCraig.png', 'Im_PatrickDempsey.png', 'Im_GeorgeClooney.png', 'Im_ElijahWood.png', 'Im_KeanuReeves.png', 'Im_JustinTimberlake.png', 'Im_OrlandoBloom.png', 'Im_BradPitt.png', 'Im_RobertPattinson.png', 'Im_HughJackman.png'],same,1,0.4084146000000146,36,78.57142857142857,
GUES1603,5,inv,120,pos120_id6_im12.bmp_pos120_id19_im27.bmp,['Im_DanielCraig.png', 'Im_PatrickDempsey.png', 'Im_GeorgeClooney.png', 'Im_ElijahWood.png', 'Im_KeanuReeves.png', 'Im_JustinTimberlake.png', 'Im_OrlandoBloom.png', 'Im_BradPitt.png', 'Im_RobertPattinson.png', 'Im_HughJackman.png'],diff,1,0.42489830000022266,37,78.57142857142857,
GUES1603,5,inv,fs,posfs_id11_im10.bmp_posfs_id17_im14.bmp,['Im_DanielCraig.png', 'Im_PatrickDempsey.png', 'Im_GeorgeClooney.png', 'Im_ElijahWood.png', 'Im_KeanuReeves.png', 'Im_JustinTimberlake.png', 'Im_OrlandoBloom.png', 'Im_BradPitt.png', 'Im_RobertPattinson.png', 'Im_HughJackman.png'],diff,1,0.4333535999999185,38,78.57142857142857,
GUES1603,5,inv,60,pos60_id6_im12.bmp_pos60_id6_im18.bmp,['Im_DanielCraig.png', 'Im_PatrickDempsey.png', 'Im_GeorgeClooney.png', 'Im_ElijahWood.png', 'Im_KeanuReeves.png', 'Im_JustinTimberlake.png', 'Im_OrlandoBloom.png', 'Im_BradPitt.png', 'Im_RobertPattinson.png', 'Im_HughJackman.png'],diff,0,0.46696469999960755,38,78.57142857142857,
GUES1603,6,inv,fs,posfs_id16_im2.bmp_posfs_id11_im1.bmp,['Im_DanielCraig.png', 'Im_PatrickDempsey.png', 'Im_GeorgeClooney.png', 'Im_ElijahWood.png', 'Im_KeanuReeves.png', 'Im_JustinTimberlake.png', 'Im_OrlandoBloom.png', 'Im_BradPitt.png', 'Im_RobertPattinson.png', 'Im_HughJackman.png'],diff,1,0.4250756999999794,1,90.47619047619048,
GUES1603,6,inv,120,pos120_id10_im18.bmp_pos120_id10_im17.bmp,['Im_DanielCraig.png', 'Im_PatrickDempsey.png', 'Im_GeorgeClooney.png', 'Im_ElijahWood.png', 'Im_KeanuReeves.png', 'Im_JustinTimberlake.png', 'Im_OrlandoBloom.png', 'Im_BradPitt.png', 'Im_RobertPattinson.png', 'Im_HughJackman.png'],diff,0,0.5251201000000947,1,90.47619047619048,
GUES1603,6,inv,60,pos60_id3_im6.bmp_pos60_id7_im15.bmp,['Im_DanielCraig.png', 'Im_PatrickDempsey.png', 'Im_GeorgeClooney.png', 'Im_ElijahWood.png', 'Im_KeanuReeves.png', 'Im_JustinTimberlake.png', 'Im_OrlandoBloom.png', 'Im_BradPitt.png', 'Im_RobertPattinson.png', 'Im_HughJackman.png'],diff,1,0.7000441000000137,2,90.47619047619048,
GUES1603,6,inv,fs,posfs_id6_im12.bmp_posfs_id6_im18.bmp,['Im_DanielCraig.png', 'Im_PatrickDempsey.png', 'Im_GeorgeClooney.png', 'Im_ElijahWood.png', 'Im_KeanuReeves.png', 'Im_JustinTimberlake.png', 'Im_OrlandoBloom.png', 'Im_BradPitt.png', 'Im_RobertPattinson.png', 'Im_HughJackman.png'],same,1,0.4916281999999228,3,90.47619047619048,
GUES1603,6,inv,90,pos90_id4_im7.bmp_pos90_id4_im15.bmp,['Im_DanielCraig.png', 'Im_PatrickDempsey.png', 'Im_GeorgeClooney.png', 'Im_ElijahWood.png', 'Im_KeanuReeves.png', 'Im_JustinTimberlake.png', 'Im_OrlandoBloom.png', 'Im_BradPitt.png', 'Im_RobertPattinson.png', 'Im_HughJackman.png'],same,1,0.4419403000001694,4,90.47619047619048,
GUES1603,6,inv,150,pos150_id19_im8.bmp_pos150_id16_im3.bmp,['Im_DanielCraig.png', 'Im_PatrickDempsey.png', 'Im_GeorgeClooney.png', 'Im_ElijahWood.png', 'Im_KeanuReeves.png', 'Im_JustinTimberlake.png', 'Im_OrlandoBloom.png', 'Im_BradPitt.png', 'Im_RobertPattinson.png', 'Im_HughJackman.png'],same,0,0.41690079999989393,4,90.47619047619048,
GUES1603,6,inv,0,pos0_id4_im20.bmp_pos0_id10_im17.bmp,['Im_DanielCraig.png', 'Im_PatrickDempsey.png', 'Im_GeorgeClooney.png', 'Im_ElijahWood.png', 'Im_KeanuReeves.png', 'Im_JustinTimberlake.png', 'Im_OrlandoBloom.png', 'Im_BradPitt.png', 'Im_RobertPattinson.png', 'Im_HughJackman.png'],same,0,0.9082963000000746,4,90.47619047619048,
GUES1603,6,inv,30,pos30_id7_im14.bmp_pos30_id6_im12.bmp,['Im_DanielCraig.png', 'Im_PatrickDempsey.png', 'Im_GeorgeClooney.png', 'Im_ElijahWood.png', 'Im_KeanuReeves.png', 'Im_JustinTimberlake.png', 'Im_OrlandoBloom.png', 'Im_BradPitt.png', 'Im_RobertPattinson.png', 'Im_HughJackman.png'],diff,1,0.42513259999986985,5,90.47619047619048,
GUES1603,6,inv,60,pos60_id3_im17.bmp_pos60_id3_im6.bmp,['Im_DanielCraig.png', 'Im_PatrickDempsey.png', 'Im_GeorgeClooney.png', 'Im_ElijahWood.png', 'Im_KeanuReeves.png', 'Im_JustinTimberlake.png', 'Im_OrlandoBloom.png', 'Im_BradPitt.png', 'Im_RobertPattinson.png', 'Im_HughJackman.png'],same,1,0.9167235999998411,6,90.47619047619048,
GUES1603,6,inv,150,pos150_id4_im15.bmp_pos150_id10_im1.bmp,['Im_DanielCraig.png', 'Im_PatrickDempsey.png', 'Im_GeorgeClooney.png', 'Im_ElijahWood.png', 'Im_KeanuReeves.png', 'Im_JustinTimberlake.png', 'Im_OrlandoBloom.png', 'Im_BradPitt.png', 'Im_RobertPattinson.png', 'Im_HughJackman.png'],same,0,0.6418438999999125,6,90.47619047619048,
GUES1603,6,inv,0,pos0_id4_im7.bmp_pos0_id4_im20.bmp,['Im_DanielCraig.png', 'Im_PatrickDempsey.png', 'Im_GeorgeClooney.png', 'Im_ElijahWood.png', 'Im_KeanuReeves.png', 'Im_JustinTimberlake.png', 'Im_OrlandoBloom.png', 'Im_BradPitt.png', 'Im_RobertPattinson.png', 'Im_HughJackman.png'],same,1,0.41669850000016595,7,90.47619047619048,
GUES1603,6,inv,120,pos120_id8_im21.bmp_pos120_id8_im13.bmp,['Im_DanielCraig.png', 'Im_PatrickDempsey.png', 'Im_GeorgeClooney.png', 'Im_ElijahWood.png', 'Im_KeanuReeves.png', 'Im_JustinTimberlake.png', 'Im_OrlandoBloom.png', 'Im_BradPitt.png', 'Im_RobertPattinson.png', 'Im_HughJackman.png'],same,1,0.5501538999997138,8,90.47619047619048,
GUES1603,6,inv,90,pos90_id7_im15.bmp_pos90_id7_im26.bmp,['Im_DanielCraig.png', 'Im_PatrickDempsey.png', 'Im_GeorgeClooney.png', 'Im_ElijahWood.png', 'Im_KeanuReeves.png', 'Im_JustinTimberlake.png', 'Im_OrlandoBloom.png', 'Im_BradPitt.png', 'Im_RobertPattinson.png', 'Im_HughJackman.png'],diff,0,1.0584549999998671,8,90.47619047619048,
GUES1603,6,inv,30,pos30_id17_im8.bmp_pos30_id10_im17.bmp,['Im_DanielCraig.png', 'Im_PatrickDempsey.png', 'Im_GeorgeClooney.png', 'Im_ElijahWood.png', 'Im_KeanuReeves.png', 'Im_JustinTimberlake.png', 'Im_OrlandoBloom.png', 'Im_BradPitt.png', 'Im_RobertPattinson.png', 'Im_HughJackman.png'],diff,1,0.6335841000000073,9,90.47619047619048,
GUES1603,7,neg,fs,negfs_id19_im4.bmp_negfs_id8_im20.bmp,['Im_DanielCraig.png', 'Im_PatrickDempsey.png', 'Im_GeorgeClooney.png', 'Im_ElijahWood.png', 'Im_KeanuReeves.png', 'Im_JustinTimberlake.png', 'Im_OrlandoBloom.png', 'Im_BradPitt.png', 'Im_RobertPattinson.png', 'Im_HughJackman.png'],diff,1,0.42507430000023305,10,90.47619047619048,
GUES1603,7,neg,90,neg90_id6_im18.bmp_neg90_id6_im12.bmp,['Im_DanielCraig.png', 'Im_PatrickDempsey.png', 'Im_GeorgeClooney.png', 'Im_ElijahWood.png', 'Im_KeanuReeves.png', 'Im_JustinTimberlake.png', 'Im_OrlandoBloom.png', 'Im_BradPitt.png', 'Im_RobertPattinson.png', 'Im_HughJackman.png'],diff,0,0.4167164000000412,10,90.47619047619048,
GUES1603,7,neg,30,neg30_id4_im7.bmp_neg30_id4_im20.bmp,['Im_DanielCraig.png', 'Im_PatrickDempsey.png', 'Im_GeorgeClooney.png', 'Im_ElijahWood.png', 'Im_KeanuReeves.png', 'Im_JustinTimberlake.png', 'Im_OrlandoBloom.png', 'Im_BradPitt.png', 'Im_RobertPattinson.png', 'Im_HughJackman.png'],same,1,0.5419426000003114,11,90.47619047619048,
GUES1603,7,neg,60,neg60_id7_im26.bmp_neg60_id3_im6.bmp,['Im_DanielCraig.png', 'Im_PatrickDempsey.png', 'Im_GeorgeClooney.png', 'Im_ElijahWood.png', 'Im_KeanuReeves.png', 'Im_JustinTimberlake.png', 'Im_OrlandoBloom.png', 'Im_BradPitt.png', 'Im_RobertPattinson.png', 'Im_HughJackman.png'],diff,1,0.6500614999999925,12,90.47619047619048,
GUES1603,7,neg,150,neg150_id4_im15.bmp_neg150_id4_im20.bmp,['Im_DanielCraig.png', 'Im_PatrickDempsey.png', 'Im_GeorgeClooney.png', 'Im_ElijahWood.png', 'Im_KeanuReeves.png', 'Im_JustinTimberlake.png', 'Im_OrlandoBloom.png', 'Im_BradPitt.png', 'Im_RobertPattinson.png', 'Im_HughJackman.png'],same,1,0.4168626000000586,13,90.47619047619048,
GUES1603,7,neg,30,neg30_id8_im21.bmp_neg30_id19_im4.bmp,['Im_DanielCraig.png', 'Im_PatrickDempsey.png', 'Im_GeorgeClooney.png', 'Im_ElijahWood.png', 'Im_KeanuReeves.png', 'Im_JustinTimberlake.png', 'Im_OrlandoBloom.png', 'Im_BradPitt.png', 'Im_RobertPattinson.png', 'Im_HughJackman.png'],diff,1,0.41673679999985325,14,90.47619047619048,
GUES1603,7,neg,60,neg60_id4_im20.bmp_neg60_id4_im7.bmp,['Im_DanielCraig.png', 'Im_PatrickDempsey.png', 'Im_GeorgeClooney.png', 'Im_ElijahWood.png', 'Im_KeanuReeves.png', 'Im_JustinTimberlake.png', 'Im_OrlandoBloom.png', 'Im_BradPitt.png', 'Im_RobertPattinson.png', 'Im_HughJackman.png'],same,1,0.42521949999991193,15,90.47619047619048,
GUES1603,7,neg,150,neg150_id10_im17.bmp_neg150_id17_im8.bmp,['Im_DanielCraig.png', 'Im_PatrickDempsey.png', 'Im_GeorgeClooney.png', 'Im_ElijahWood.png', 'Im_KeanuReeves.png', 'Im_JustinTimberlake.png', 'Im_OrlandoBloom.png', 'Im_BradPitt.png', 'Im_RobertPattinson.png', 'Im_HughJackman.png'],diff,1,0.4167668000000049,16,90.47619047619048,
GUES1603,7,neg,fs,negfs_id4_im20.bmp_negfs_id4_im7.bmp,['Im_DanielCraig.png', 'Im_PatrickDempsey.png', 'Im_GeorgeClooney.png', 'Im_ElijahWood.png', 'Im_KeanuReeves.png', 'Im_JustinTimberlake.png', 'Im_OrlandoBloom.png', 'Im_BradPitt.png', 'Im_RobertPattinson.png', 'Im_HughJackman.png'],same,1,0.42501979999997275,17,90.47619047619048,
GUES1603,7,neg,120,neg120_id3_im17.bmp_neg120_id8_im20.bmp,['Im_DanielCraig.png', 'Im_PatrickDempsey.png', 'Im_GeorgeClooney.png', 'Im_ElijahWood.png', 'Im_KeanuReeves.png', 'Im_JustinTimberlake.png', 'Im_OrlandoBloom.png', 'Im_BradPitt.png', 'Im_RobertPattinson.png', 'Im_HughJackman.png'],diff,1,0.4585778000000573,18,90.47619047619048,
GUES1603,7,neg,120,neg120_id7_im15.bmp_neg120_id3_im6.bmp,['Im_DanielCraig.png', 'Im_PatrickDempsey.png', 'Im_GeorgeClooney.png', 'Im_ElijahWood.png', 'Im_KeanuReeves.png', 'Im_JustinTimberlake.png', 'Im_OrlandoBloom.png', 'Im_BradPitt.png', 'Im_RobertPattinson.png', 'Im_HughJackman.png'],diff,1,0.9087644000001092,19,90.47619047619048,
GUES1603,7,neg,90,neg90_id19_im27.bmp_neg90_id6_im12.bmp,['Im_DanielCraig.png', 'Im_PatrickDempsey.png', 'Im_GeorgeClooney.png', 'Im_ElijahWood.png', 'Im_KeanuReeves.png', 'Im_JustinTimberlake.png', 'Im_OrlandoBloom.png', 'Im_BradPitt.png', 'Im_RobertPattinson.png', 'Im_HughJackman.png'],diff,1,0.416734599999927,20,90.47619047619048,
GUES1603,7,neg,0,neg0_id10_im1.bmp_neg0_id4_im15.bmp,['Im_DanielCraig.png', 'Im_PatrickDempsey.png', 'Im_GeorgeClooney.png', 'Im_ElijahWood.png', 'Im_KeanuReeves.png', 'Im_JustinTimberlake.png', 'Im_OrlandoBloom.png', 'Im_BradPitt.png', 'Im_RobertPattinson.png', 'Im_HughJackman.png'],diff,1,0.4250880999998117,21,90.47619047619048,
GUES1603,7,neg,0,neg0_id6_im19.bmp_neg0_id17_im9.bmp,['Im_DanielCraig.png', 'Im_PatrickDempsey.png', 'Im_GeorgeClooney.png', 'Im_ElijahWood.png', 'Im_KeanuReeves.png', 'Im_JustinTimberlake.png', 'Im_OrlandoBloom.png', 'Im_BradPitt.png', 'Im_RobertPattinson.png', 'Im_HughJackman.png'],diff,1,0.6668475999999828,22,90.47619047619048,
GUES1603,8,pos,90,pos90_id10_im17.bmp_pos90_id4_im20.bmp,['Im_DanielCraig.png', 'Im_PatrickDempsey.png', 'Im_GeorgeClooney.png', 'Im_ElijahWood.png', 'Im_KeanuReeves.png', 'Im_JustinTimberlake.png', 'Im_OrlandoBloom.png', 'Im_BradPitt.png', 'Im_RobertPattinson.png', 'Im_HughJackman.png'],diff,1,0.4250465999998596,23,90.47619047619048,
GUES1603,8,pos,0,pos0_id3_im6.bmp_pos0_id7_im26.bmp,['Im_DanielCraig.png', 'Im_PatrickDempsey.png', 'Im_GeorgeClooney.png', 'Im_ElijahWood.png', 'Im_KeanuReeves.png', 'Im_JustinTimberlake.png', 'Im_OrlandoBloom.png', 'Im_BradPitt.png', 'Im_RobertPattinson.png', 'Im_HughJackman.png'],diff,1,0.5583446000000549,24,90.47619047619048,
GUES1603,8,pos,fs,posfs_id7_im26.bmp_posfs_id7_im14.bmp,['Im_DanielCraig.png', 'Im_PatrickDempsey.png', 'Im_GeorgeClooney.png', 'Im_ElijahWood.png', 'Im_KeanuReeves.png', 'Im_JustinTimberlake.png', 'Im_OrlandoBloom.png', 'Im_BradPitt.png', 'Im_RobertPattinson.png', 'Im_HughJackman.png'],same,1,0.4333990000000085,25,90.47619047619048,
GUES1603,8,pos,90,pos90_id16_im2.bmp_pos90_id7_im15.bmp,['Im_DanielCraig.png', 'Im_PatrickDempsey.png', 'Im_GeorgeClooney.png', 'Im_ElijahWood.png', 'Im_KeanuReeves.png', 'Im_JustinTimberlake.png', 'Im_OrlandoBloom.png', 'Im_BradPitt.png', 'Im_RobertPattinson.png', 'Im_HughJackman.png'],diff,1,0.4250526999999238,26,90.47619047619048,
GUES1603,8,pos,30,pos30_id8_im13.bmp_pos30_id8_im21.bmp,['Im_DanielCraig.png', 'Im_PatrickDempsey.png', 'Im_GeorgeClooney.png', 'Im_ElijahWood.png', 'Im_KeanuReeves.png', 'Im_JustinTimberlake.png', 'Im_OrlandoBloom.png', 'Im_BradPitt.png', 'Im_RobertPattinson.png', 'Im_HughJackman.png'],same,1,0.6166981999999734,27,90.47619047619048,
GUES1603,8,pos,fs,posfs_id4_im20.bmp_posfs_id4_im15.bmp,['Im_DanielCraig.png', 'Im_PatrickDempsey.png', 'Im_GeorgeClooney.png', 'Im_ElijahWood.png', 'Im_KeanuReeves.png', 'Im_JustinTimberlake.png', 'Im_OrlandoBloom.png', 'Im_BradPitt.png', 'Im_RobertPattinson.png', 'Im_HughJackman.png'],same,1,0.42507330000034926,28,90.47619047619048,
GUES1603,8,pos,60,pos60_id7_im14.bmp_pos60_id7_im15.bmp,['Im_DanielCraig.png', 'Im_PatrickDempsey.png', 'Im_GeorgeClooney.png', 'Im_ElijahWood.png', 'Im_KeanuReeves.png', 'Im_JustinTimberlake.png', 'Im_OrlandoBloom.png', 'Im_BradPitt.png', 'Im_RobertPattinson.png', 'Im_HughJackman.png'],same,1,0.4333855999998377,29,90.47619047619048,
GUES1603,8,pos,150,pos150_id6_im18.bmp_pos150_id6_im19.bmp,['Im_DanielCraig.png', 'Im_PatrickDempsey.png', 'Im_GeorgeClooney.png', 'Im_ElijahWood.png', 'Im_KeanuReeves.png', 'Im_JustinTimberlake.png', 'Im_OrlandoBloom.png', 'Im_BradPitt.png', 'Im_RobertPattinson.png', 'Im_HughJackman.png'],same,1,0.424960800000008,30,90.47619047619048,
GUES1603,8,pos,120,pos120_id10_im17.bmp_pos120_id10_im18.bmp,['Im_DanielCraig.png', 'Im_PatrickDempsey.png', 'Im_GeorgeClooney.png', 'Im_ElijahWood.png', 'Im_KeanuReeves.png', 'Im_JustinTimberlake.png', 'Im_OrlandoBloom.png', 'Im_BradPitt.png', 'Im_RobertPattinson.png', 'Im_HughJackman.png'],same,1,0.4083988999996109,31,90.47619047619048,
GUES1603,8,pos,30,pos30_id11_im10.bmp_pos30_id11_im1.bmp,['Im_DanielCraig.png', 'Im_PatrickDempsey.png', 'Im_GeorgeClooney.png', 'Im_ElijahWood.png', 'Im_KeanuReeves.png', 'Im_JustinTimberlake.png', 'Im_OrlandoBloom.png', 'Im_BradPitt.png', 'Im_RobertPattinson.png', 'Im_HughJackman.png'],same,1,0.4167287000000215,32,90.47619047619048,
GUES1603,8,pos,60,pos60_id10_im1.bmp_pos60_id7_im14.bmp,['Im_DanielCraig.png', 'Im_PatrickDempsey.png', 'Im_GeorgeClooney.png', 'Im_ElijahWood.png', 'Im_KeanuReeves.png', 'Im_JustinTimberlake.png', 'Im_OrlandoBloom.png', 'Im_BradPitt.png', 'Im_RobertPattinson.png', 'Im_HughJackman.png'],diff,1,0.46669740000015736,33,90.47619047619048,
GUES1603,8,pos,0,pos0_id11_im2.bmp_pos0_id10_im18.bmp,['Im_DanielCraig.png', 'Im_PatrickDempsey.png', 'Im_GeorgeClooney.png', 'Im_ElijahWood.png', 'Im_KeanuReeves.png', 'Im_JustinTimberlake.png', 'Im_OrlandoBloom.png', 'Im_BradPitt.png', 'Im_RobertPattinson.png', 'Im_HughJackman.png'],diff,1,0.41673990000026606,34,90.47619047619048,
GUES1603,8,pos,150,pos150_id17_im9.bmp_pos150_id17_im14.bmp,['Im_DanielCraig.png', 'Im_PatrickDempsey.png', 'Im_GeorgeClooney.png', 'Im_ElijahWood.png', 'Im_KeanuReeves.png', 'Im_JustinTimberlake.png', 'Im_OrlandoBloom.png', 'Im_BradPitt.png', 'Im_RobertPattinson.png', 'Im_HughJackman.png'],same,1,0.4250111999999717,35,90.47619047619048,
GUES1603,8,pos,120,pos120_id8_im21.bmp_pos120_id4_im7.bmp,['Im_DanielCraig.png', 'Im_PatrickDempsey.png', 'Im_GeorgeClooney.png', 'Im_ElijahWood.png', 'Im_KeanuReeves.png', 'Im_JustinTimberlake.png', 'Im_OrlandoBloom.png', 'Im_BradPitt.png', 'Im_RobertPattinson.png', 'Im_HughJackman.png'],diff,1,0.41667899999993097,36,90.47619047619048,
