Sujet,Trial,Condition,Filter,Imname,Actor0,Actor1,Actor2,Actor3,Actor4,Actor5,Actor6,Actor7,Actor8,Actor9,Answer,Accu,RT,Score,Scoreperc, 
GUES1603,train,inv,120,pos120_id7_im15.bmp_pos120_id16_im2.bmp,['Im_OrlandoBloom.png', 'Im_BradPitt.png', 'Im_ElijahWood.png', 'Im_HughJackman.png', 'Im_PatrickDempsey.png', 'Im_DanielCraig.png', 'Im_RobertPattinson.png', 'Im_JustinTimberlake.png', 'Im_GeorgeClooney.png', 'Im_KeanuReeves.png'],diff,1,0.4083155000007537,1,0,
GUES1603,train,inv,0,pos0_id7_im15.bmp_pos0_id7_im14.bmp,['Im_OrlandoBloom.png', 'Im_BradPitt.png', 'Im_ElijahWood.png', 'Im_HughJackman.png', 'Im_PatrickDempsey.png', 'Im_DanielCraig.png', 'Im_RobertPattinson.png', 'Im_JustinTimberlake.png', 'Im_GeorgeClooney.png', 'Im_KeanuReeves.png'],diff,0,0.4752691000003324,1,0,
GUES1603,train,inv,fs,posfs_id10_im18.bmp_posfs_id11_im2.bmp,['Im_OrlandoBloom.png', 'Im_BradPitt.png', 'Im_ElijahWood.png', 'Im_HughJackman.png', 'Im_PatrickDempsey.png', 'Im_DanielCraig.png', 'Im_RobertPattinson.png', 'Im_JustinTimberlake.png', 'Im_GeorgeClooney.png', 'Im_KeanuReeves.png'],diff,1,0.43337979999978415,2,0,
GUES1603,train,inv,150,pos150_id17_im8.bmp_pos150_id10_im17.bmp,['Im_OrlandoBloom.png', 'Im_BradPitt.png', 'Im_ElijahWood.png', 'Im_HughJackman.png', 'Im_PatrickDempsey.png', 'Im_DanielCraig.png', 'Im_RobertPattinson.png', 'Im_JustinTimberlake.png', 'Im_GeorgeClooney.png', 'Im_KeanuReeves.png'],diff,1,0.5668484999996508,3,0,
GUES1603,train,inv,30,pos30_id4_im15.bmp_pos30_id4_im7.bmp,['Im_OrlandoBloom.png', 'Im_BradPitt.png', 'Im_ElijahWood.png', 'Im_HughJackman.png', 'Im_PatrickDempsey.png', 'Im_DanielCraig.png', 'Im_RobertPattinson.png', 'Im_JustinTimberlake.png', 'Im_GeorgeClooney.png', 'Im_KeanuReeves.png'],same,1,0.40840839999964373,4,0,
GUES1603,train,inv,0,pos0_id4_im20.bmp_pos0_id17_im9.bmp,['Im_OrlandoBloom.png', 'Im_BradPitt.png', 'Im_ElijahWood.png', 'Im_HughJackman.png', 'Im_PatrickDempsey.png', 'Im_DanielCraig.png', 'Im_RobertPattinson.png', 'Im_JustinTimberlake.png', 'Im_GeorgeClooney.png', 'Im_KeanuReeves.png'],same,0,0.4584303000001455,4,0,
GUES1603,train,inv,60,pos60_id7_im26.bmp_pos60_id3_im6.bmp,['Im_OrlandoBloom.png', 'Im_BradPitt.png', 'Im_ElijahWood.png', 'Im_HughJackman.png', 'Im_PatrickDempsey.png', 'Im_DanielCraig.png', 'Im_RobertPattinson.png', 'Im_JustinTimberlake.png', 'Im_GeorgeClooney.png', 'Im_KeanuReeves.png'],diff,1,0.5918843999997989,5,0,
GUES1603,train,inv,60,pos60_id11_im10.bmp_pos60_id17_im14.bmp,['Im_OrlandoBloom.png', 'Im_BradPitt.png', 'Im_ElijahWood.png', 'Im_HughJackman.png', 'Im_PatrickDempsey.png', 'Im_DanielCraig.png', 'Im_RobertPattinson.png', 'Im_JustinTimberlake.png', 'Im_GeorgeClooney.png', 'Im_KeanuReeves.png'],diff,1,0.4251561999999467,6,0,
GUES1603,train,inv,fs,posfs_id8_im13.bmp_posfs_id6_im18.bmp,['Im_OrlandoBloom.png', 'Im_BradPitt.png', 'Im_ElijahWood.png', 'Im_HughJackman.png', 'Im_PatrickDempsey.png', 'Im_DanielCraig.png', 'Im_RobertPattinson.png', 'Im_JustinTimberlake.png', 'Im_GeorgeClooney.png', 'Im_KeanuReeves.png'],diff,1,0.4249638999999661,7,0,
GUES1603,train,inv,90,pos90_id11_im10.bmp_pos90_id17_im14.bmp,['Im_OrlandoBloom.png', 'Im_BradPitt.png', 'Im_ElijahWood.png', 'Im_HughJackman.png', 'Im_PatrickDempsey.png', 'Im_DanielCraig.png', 'Im_RobertPattinson.png', 'Im_JustinTimberlake.png', 'Im_GeorgeClooney.png', 'Im_KeanuReeves.png'],diff,1,0.6916228999998566,8,0,
GUES1603,train,inv,120,pos120_id3_im8.bmp_pos120_id3_im6.bmp,['Im_OrlandoBloom.png', 'Im_BradPitt.png', 'Im_ElijahWood.png', 'Im_HughJackman.png', 'Im_PatrickDempsey.png', 'Im_DanielCraig.png', 'Im_RobertPattinson.png', 'Im_JustinTimberlake.png', 'Im_GeorgeClooney.png', 'Im_KeanuReeves.png'],diff,0,0.41679040000053647,8,0,
GUES1603,train,inv,150,pos150_id19_im4.bmp_pos150_id8_im21.bmp,['Im_OrlandoBloom.png', 'Im_BradPitt.png', 'Im_ElijahWood.png', 'Im_HughJackman.png', 'Im_PatrickDempsey.png', 'Im_DanielCraig.png', 'Im_RobertPattinson.png', 'Im_JustinTimberlake.png', 'Im_GeorgeClooney.png', 'Im_KeanuReeves.png'],diff,1,0.43319289999999455,9,0,
GUES1603,train,inv,90,pos90_id3_im17.bmp_pos90_id3_im6.bmp,['Im_OrlandoBloom.png', 'Im_BradPitt.png', 'Im_ElijahWood.png', 'Im_HughJackman.png', 'Im_PatrickDempsey.png', 'Im_DanielCraig.png', 'Im_RobertPattinson.png', 'Im_JustinTimberlake.png', 'Im_GeorgeClooney.png', 'Im_KeanuReeves.png'],same,1,0.4081949000001259,10,0,
GUES1603,train,inv,30,pos30_id19_im8.bmp_pos30_id19_im4.bmp,['Im_OrlandoBloom.png', 'Im_BradPitt.png', 'Im_ElijahWood.png', 'Im_HughJackman.png', 'Im_PatrickDempsey.png', 'Im_DanielCraig.png', 'Im_RobertPattinson.png', 'Im_JustinTimberlake.png', 'Im_GeorgeClooney.png', 'Im_KeanuReeves.png'],same,1,0.42498990000058257,11,0,
GUES1603,train,neg,150,neg150_id6_im19.bmp_neg150_id17_im9.bmp,['Im_OrlandoBloom.png', 'Im_BradPitt.png', 'Im_ElijahWood.png', 'Im_HughJackman.png', 'Im_PatrickDempsey.png', 'Im_DanielCraig.png', 'Im_RobertPattinson.png', 'Im_JustinTimberlake.png', 'Im_GeorgeClooney.png', 'Im_KeanuReeves.png'],diff,1,0.433361700000205,12,0,
GUES1603,train,neg,150,neg150_id4_im20.bmp_neg150_id4_im7.bmp,['Im_OrlandoBloom.png', 'Im_BradPitt.png', 'Im_ElijahWood.png', 'Im_HughJackman.png', 'Im_PatrickDempsey.png', 'Im_DanielCraig.png', 'Im_RobertPattinson.png', 'Im_JustinTimberlake.png', 'Im_GeorgeClooney.png', 'Im_KeanuReeves.png'],same,1,0.49193950000062614,13,0,
GUES1603,train,neg,fs,negfs_id19_im8.bmp_negfs_id19_im27.bmp,['Im_OrlandoBloom.png', 'Im_BradPitt.png', 'Im_ElijahWood.png', 'Im_HughJackman.png', 'Im_PatrickDempsey.png', 'Im_DanielCraig.png', 'Im_RobertPattinson.png', 'Im_JustinTimberlake.png', 'Im_GeorgeClooney.png', 'Im_KeanuReeves.png'],same,1,0.42515129999992496,14,0,
GUES1603,train,neg,90,neg90_id7_im14.bmp_neg90_id10_im1.bmp,['Im_OrlandoBloom.png', 'Im_BradPitt.png', 'Im_ElijahWood.png', 'Im_HughJackman.png', 'Im_PatrickDempsey.png', 'Im_DanielCraig.png', 'Im_RobertPattinson.png', 'Im_JustinTimberlake.png', 'Im_GeorgeClooney.png', 'Im_KeanuReeves.png'],same,0,0.4249497999999221,14,0,
GUES1603,train,neg,fs,negfs_id6_im12.bmp_negfs_id6_im18.bmp,['Im_OrlandoBloom.png', 'Im_BradPitt.png', 'Im_ElijahWood.png', 'Im_HughJackman.png', 'Im_PatrickDempsey.png', 'Im_DanielCraig.png', 'Im_RobertPattinson.png', 'Im_JustinTimberlake.png', 'Im_GeorgeClooney.png', 'Im_KeanuReeves.png'],same,1,0.6667176999999356,15,0,
GUES1603,train,neg,0,neg0_id11_im2.bmp_neg0_id11_im10.bmp,['Im_OrlandoBloom.png', 'Im_BradPitt.png', 'Im_ElijahWood.png', 'Im_HughJackman.png', 'Im_PatrickDempsey.png', 'Im_DanielCraig.png', 'Im_RobertPattinson.png', 'Im_JustinTimberlake.png', 'Im_GeorgeClooney.png', 'Im_KeanuReeves.png'],same,1,0.43319119999978284,16,0,
GUES1603,train,neg,90,neg90_id6_im18.bmp_neg90_id3_im8.bmp,['Im_OrlandoBloom.png', 'Im_BradPitt.png', 'Im_ElijahWood.png', 'Im_HughJackman.png', 'Im_PatrickDempsey.png', 'Im_DanielCraig.png', 'Im_RobertPattinson.png', 'Im_JustinTimberlake.png', 'Im_GeorgeClooney.png', 'Im_KeanuReeves.png'],diff,1,0.44166969999969297,17,0,
GUES1603,train,neg,120,neg120_id4_im20.bmp_neg120_id10_im17.bmp,['Im_OrlandoBloom.png', 'Im_BradPitt.png', 'Im_ElijahWood.png', 'Im_HughJackman.png', 'Im_PatrickDempsey.png', 'Im_DanielCraig.png', 'Im_RobertPattinson.png', 'Im_JustinTimberlake.png', 'Im_GeorgeClooney.png', 'Im_KeanuReeves.png'],diff,1,0.6582485999997516,18,0,
GUES1603,train,neg,0,neg0_id7_im14.bmp_neg0_id7_im26.bmp,['Im_OrlandoBloom.png', 'Im_BradPitt.png', 'Im_ElijahWood.png', 'Im_HughJackman.png', 'Im_PatrickDempsey.png', 'Im_DanielCraig.png', 'Im_RobertPattinson.png', 'Im_JustinTimberlake.png', 'Im_GeorgeClooney.png', 'Im_KeanuReeves.png'],same,1,0.41674069999953645,19,0,
GUES1603,train,neg,60,neg60_id10_im1.bmp_neg60_id10_im18.bmp,['Im_OrlandoBloom.png', 'Im_BradPitt.png', 'Im_ElijahWood.png', 'Im_HughJackman.png', 'Im_PatrickDempsey.png', 'Im_DanielCraig.png', 'Im_RobertPattinson.png', 'Im_JustinTimberlake.png', 'Im_GeorgeClooney.png', 'Im_KeanuReeves.png'],same,1,0.4168002999995224,20,0,
GUES1603,train,neg,60,neg60_id3_im17.bmp_neg60_id3_im6.bmp,['Im_OrlandoBloom.png', 'Im_BradPitt.png', 'Im_ElijahWood.png', 'Im_HughJackman.png', 'Im_PatrickDempsey.png', 'Im_DanielCraig.png', 'Im_RobertPattinson.png', 'Im_JustinTimberlake.png', 'Im_GeorgeClooney.png', 'Im_KeanuReeves.png'],same,1,0.43333499999971536,21,0,
GUES1603,train,neg,30,neg30_id3_im6.bmp_neg30_id3_im17.bmp,['Im_OrlandoBloom.png', 'Im_BradPitt.png', 'Im_ElijahWood.png', 'Im_HughJackman.png', 'Im_PatrickDempsey.png', 'Im_DanielCraig.png', 'Im_RobertPattinson.png', 'Im_JustinTimberlake.png', 'Im_GeorgeClooney.png', 'Im_KeanuReeves.png'],same,1,0.43343779999941034,22,0,
GUES1603,train,neg,120,neg120_id10_im1.bmp_neg120_id10_im17.bmp,['Im_OrlandoBloom.png', 'Im_BradPitt.png', 'Im_ElijahWood.png', 'Im_HughJackman.png', 'Im_PatrickDempsey.png', 'Im_DanielCraig.png', 'Im_RobertPattinson.png', 'Im_JustinTimberlake.png', 'Im_GeorgeClooney.png', 'Im_KeanuReeves.png'],same,1,0.4167251999997461,23,0,
GUES1603,train,neg,30,neg30_id6_im18.bmp_neg30_id8_im13.bmp,['Im_OrlandoBloom.png', 'Im_BradPitt.png', 'Im_ElijahWood.png', 'Im_HughJackman.png', 'Im_PatrickDempsey.png', 'Im_DanielCraig.png', 'Im_RobertPattinson.png', 'Im_JustinTimberlake.png', 'Im_GeorgeClooney.png', 'Im_KeanuReeves.png'],diff,1,0.41662210000049527,24,0,
GUES1603,train,inv,0,pos0_id6_im18.bmp_pos0_id6_im12.bmp,['Im_OrlandoBloom.png', 'Im_BradPitt.png', 'Im_ElijahWood.png', 'Im_HughJackman.png', 'Im_PatrickDempsey.png', 'Im_DanielCraig.png', 'Im_RobertPattinson.png', 'Im_JustinTimberlake.png', 'Im_GeorgeClooney.png', 'Im_KeanuReeves.png'],same,1,0.8917025000000649,25,0,
GUES1603,train,inv,150,pos150_id17_im14.bmp_pos150_id17_im8.bmp,['Im_OrlandoBloom.png', 'Im_BradPitt.png', 'Im_ElijahWood.png', 'Im_HughJackman.png', 'Im_PatrickDempsey.png', 'Im_DanielCraig.png', 'Im_RobertPattinson.png', 'Im_JustinTimberlake.png', 'Im_GeorgeClooney.png', 'Im_KeanuReeves.png'],same,1,0.43317060000026686,26,0,
GUES1603,train,inv,120,pos120_id7_im15.bmp_pos120_id7_im26.bmp,['Im_OrlandoBloom.png', 'Im_BradPitt.png', 'Im_ElijahWood.png', 'Im_HughJackman.png', 'Im_PatrickDempsey.png', 'Im_DanielCraig.png', 'Im_RobertPattinson.png', 'Im_JustinTimberlake.png', 'Im_GeorgeClooney.png', 'Im_KeanuReeves.png'],same,1,0.4082493000005343,27,0,
GUES1603,train,inv,30,pos30_id11_im2.bmp_pos30_id11_im1.bmp,['Im_OrlandoBloom.png', 'Im_BradPitt.png', 'Im_ElijahWood.png', 'Im_HughJackman.png', 'Im_PatrickDempsey.png', 'Im_DanielCraig.png', 'Im_RobertPattinson.png', 'Im_JustinTimberlake.png', 'Im_GeorgeClooney.png', 'Im_KeanuReeves.png'],same,1,0.43326949999936915,28,0,
GUES1603,train,inv,fs,posfs_id19_im8.bmp_posfs_id19_im27.bmp,['Im_OrlandoBloom.png', 'Im_BradPitt.png', 'Im_ElijahWood.png', 'Im_HughJackman.png', 'Im_PatrickDempsey.png', 'Im_DanielCraig.png', 'Im_RobertPattinson.png', 'Im_JustinTimberlake.png', 'Im_GeorgeClooney.png', 'Im_KeanuReeves.png'],same,1,0.4165960999998788,29,0,
GUES1603,train,inv,30,pos30_id6_im19.bmp_pos30_id17_im9.bmp,['Im_OrlandoBloom.png', 'Im_BradPitt.png', 'Im_ElijahWood.png', 'Im_HughJackman.png', 'Im_PatrickDempsey.png', 'Im_DanielCraig.png', 'Im_RobertPattinson.png', 'Im_JustinTimberlake.png', 'Im_GeorgeClooney.png', 'Im_KeanuReeves.png'],same,0,0.42506929999944987,29,0,
GUES1603,train,inv,fs,posfs_id7_im14.bmp_posfs_id7_im26.bmp,['Im_OrlandoBloom.png', 'Im_BradPitt.png', 'Im_ElijahWood.png', 'Im_HughJackman.png', 'Im_PatrickDempsey.png', 'Im_DanielCraig.png', 'Im_RobertPattinson.png', 'Im_JustinTimberlake.png', 'Im_GeorgeClooney.png', 'Im_KeanuReeves.png'],same,1,0.42505810000056954,30,0,
GUES1603,train,inv,0,pos0_id11_im2.bmp_pos0_id4_im15.bmp,['Im_OrlandoBloom.png', 'Im_BradPitt.png', 'Im_ElijahWood.png', 'Im_HughJackman.png', 'Im_PatrickDempsey.png', 'Im_DanielCraig.png', 'Im_RobertPattinson.png', 'Im_JustinTimberlake.png', 'Im_GeorgeClooney.png', 'Im_KeanuReeves.png'],diff,1,0.42488030000004073,31,0,
GUES1603,train,inv,60,pos60_id4_im15.bmp_pos60_id10_im1.bmp,['Im_OrlandoBloom.png', 'Im_BradPitt.png', 'Im_ElijahWood.png', 'Im_HughJackman.png', 'Im_PatrickDempsey.png', 'Im_DanielCraig.png', 'Im_RobertPattinson.png', 'Im_JustinTimberlake.png', 'Im_GeorgeClooney.png', 'Im_KeanuReeves.png'],same,0,0.40847020000001066,31,0,
GUES1603,train,inv,120,pos120_id10_im1.bmp_pos120_id10_im17.bmp,['Im_OrlandoBloom.png', 'Im_BradPitt.png', 'Im_ElijahWood.png', 'Im_HughJackman.png', 'Im_PatrickDempsey.png', 'Im_DanielCraig.png', 'Im_RobertPattinson.png', 'Im_JustinTimberlake.png', 'Im_GeorgeClooney.png', 'Im_KeanuReeves.png'],diff,0,0.7250227000004088,31,0,
GUES1603,train,inv,90,pos90_id16_im19.bmp_pos90_id16_im2.bmp,['Im_OrlandoBloom.png', 'Im_BradPitt.png', 'Im_ElijahWood.png', 'Im_HughJackman.png', 'Im_PatrickDempsey.png', 'Im_DanielCraig.png', 'Im_RobertPattinson.png', 'Im_JustinTimberlake.png', 'Im_GeorgeClooney.png', 'Im_KeanuReeves.png'],same,1,0.425025800000185,32,0,
GUES1603,train,inv,60,pos60_id17_im9.bmp_pos60_id6_im19.bmp,['Im_OrlandoBloom.png', 'Im_BradPitt.png', 'Im_ElijahWood.png', 'Im_HughJackman.png', 'Im_PatrickDempsey.png', 'Im_DanielCraig.png', 'Im_RobertPattinson.png', 'Im_JustinTimberlake.png', 'Im_GeorgeClooney.png', 'Im_KeanuReeves.png'],same,0,0.4250747999994928,32,0,
GUES1603,train,inv,150,pos150_id11_im2.bmp_pos150_id11_im1.bmp,['Im_OrlandoBloom.png', 'Im_BradPitt.png', 'Im_ElijahWood.png', 'Im_HughJackman.png', 'Im_PatrickDempsey.png', 'Im_DanielCraig.png', 'Im_RobertPattinson.png', 'Im_JustinTimberlake.png', 'Im_GeorgeClooney.png', 'Im_KeanuReeves.png'],same,1,0.5671127999994496,33,0,
GUES1603,train,inv,90,pos90_id7_im14.bmp_pos90_id10_im1.bmp,['Im_OrlandoBloom.png', 'Im_BradPitt.png', 'Im_ElijahWood.png', 'Im_HughJackman.png', 'Im_PatrickDempsey.png', 'Im_DanielCraig.png', 'Im_RobertPattinson.png', 'Im_JustinTimberlake.png', 'Im_GeorgeClooney.png', 'Im_KeanuReeves.png'],diff,1,0.4250619000004008,34,0,
GUES1603,train,pos,150,pos150_id6_im12.bmp_pos150_id7_im14.bmp,['Im_OrlandoBloom.png', 'Im_BradPitt.png', 'Im_ElijahWood.png', 'Im_HughJackman.png', 'Im_PatrickDempsey.png', 'Im_DanielCraig.png', 'Im_RobertPattinson.png', 'Im_JustinTimberlake.png', 'Im_GeorgeClooney.png', 'Im_KeanuReeves.png'],diff,1,0.4250434999994468,1,80.95238095238095,
GUES1603,train,pos,0,pos0_id17_im8.bmp_pos0_id17_im14.bmp,['Im_OrlandoBloom.png', 'Im_BradPitt.png', 'Im_ElijahWood.png', 'Im_HughJackman.png', 'Im_PatrickDempsey.png', 'Im_DanielCraig.png', 'Im_RobertPattinson.png', 'Im_JustinTimberlake.png', 'Im_GeorgeClooney.png', 'Im_KeanuReeves.png'],same,1,0.4084096000005957,2,80.95238095238095,
GUES1603,train,pos,fs,posfs_id7_im15.bmp_posfs_id3_im6.bmp,['Im_OrlandoBloom.png', 'Im_BradPitt.png', 'Im_ElijahWood.png', 'Im_HughJackman.png', 'Im_PatrickDempsey.png', 'Im_DanielCraig.png', 'Im_RobertPattinson.png', 'Im_JustinTimberlake.png', 'Im_GeorgeClooney.png', 'Im_KeanuReeves.png'],diff,1,0.42498109999996814,3,80.95238095238095,
GUES1603,train,pos,0,pos0_id3_im17.bmp_pos0_id3_im8.bmp,['Im_OrlandoBloom.png', 'Im_BradPitt.png', 'Im_ElijahWood.png', 'Im_HughJackman.png', 'Im_PatrickDempsey.png', 'Im_DanielCraig.png', 'Im_RobertPattinson.png', 'Im_JustinTimberlake.png', 'Im_GeorgeClooney.png', 'Im_KeanuReeves.png'],same,1,0.7415582000003269,4,80.95238095238095,
GUES1603,train,pos,60,pos60_id17_im14.bmp_pos60_id17_im9.bmp,['Im_OrlandoBloom.png', 'Im_BradPitt.png', 'Im_ElijahWood.png', 'Im_HughJackman.png', 'Im_PatrickDempsey.png', 'Im_DanielCraig.png', 'Im_RobertPattinson.png', 'Im_JustinTimberlake.png', 'Im_GeorgeClooney.png', 'Im_KeanuReeves.png'],same,1,0.4167294999997466,5,80.95238095238095,
GUES1603,train,pos,30,pos30_id6_im18.bmp_pos30_id6_im12.bmp,['Im_OrlandoBloom.png', 'Im_BradPitt.png', 'Im_ElijahWood.png', 'Im_HughJackman.png', 'Im_PatrickDempsey.png', 'Im_DanielCraig.png', 'Im_RobertPattinson.png', 'Im_JustinTimberlake.png', 'Im_GeorgeClooney.png', 'Im_KeanuReeves.png'],same,1,0.40837760000067647,6,80.95238095238095,
GUES1603,train,pos,60,pos60_id4_im7.bmp_pos60_id4_im20.bmp,['Im_OrlandoBloom.png', 'Im_BradPitt.png', 'Im_ElijahWood.png', 'Im_HughJackman.png', 'Im_PatrickDempsey.png', 'Im_DanielCraig.png', 'Im_RobertPattinson.png', 'Im_JustinTimberlake.png', 'Im_GeorgeClooney.png', 'Im_KeanuReeves.png'],same,1,0.4250411000002714,7,80.95238095238095,
GUES1603,train,pos,120,pos120_id8_im13.bmp_pos120_id6_im18.bmp,['Im_OrlandoBloom.png', 'Im_BradPitt.png', 'Im_ElijahWood.png', 'Im_HughJackman.png', 'Im_PatrickDempsey.png', 'Im_DanielCraig.png', 'Im_RobertPattinson.png', 'Im_JustinTimberlake.png', 'Im_GeorgeClooney.png', 'Im_KeanuReeves.png'],diff,1,0.42494299999998475,8,80.95238095238095,
GUES1603,train,pos,120,pos120_id19_im27.bmp_pos120_id19_im8.bmp,['Im_OrlandoBloom.png', 'Im_BradPitt.png', 'Im_ElijahWood.png', 'Im_HughJackman.png', 'Im_PatrickDempsey.png', 'Im_DanielCraig.png', 'Im_RobertPattinson.png', 'Im_JustinTimberlake.png', 'Im_GeorgeClooney.png', 'Im_KeanuReeves.png'],same,1,0.40822750000006636,9,80.95238095238095,
GUES1603,train,pos,90,pos90_id11_im2.bmp_pos90_id4_im15.bmp,['Im_OrlandoBloom.png', 'Im_BradPitt.png', 'Im_ElijahWood.png', 'Im_HughJackman.png', 'Im_PatrickDempsey.png', 'Im_DanielCraig.png', 'Im_RobertPattinson.png', 'Im_JustinTimberlake.png', 'Im_GeorgeClooney.png', 'Im_KeanuReeves.png'],diff,1,0.4252158999997846,10,80.95238095238095,
GUES1603,train,pos,30,pos30_id10_im18.bmp_pos30_id10_im17.bmp,['Im_OrlandoBloom.png', 'Im_BradPitt.png', 'Im_ElijahWood.png', 'Im_HughJackman.png', 'Im_PatrickDempsey.png', 'Im_DanielCraig.png', 'Im_RobertPattinson.png', 'Im_JustinTimberlake.png', 'Im_GeorgeClooney.png', 'Im_KeanuReeves.png'],same,1,0.43303179999929853,11,80.95238095238095,
GUES1603,train,pos,fs,posfs_id10_im17.bmp_posfs_id10_im1.bmp,['Im_OrlandoBloom.png', 'Im_BradPitt.png', 'Im_ElijahWood.png', 'Im_HughJackman.png', 'Im_PatrickDempsey.png', 'Im_DanielCraig.png', 'Im_RobertPattinson.png', 'Im_JustinTimberlake.png', 'Im_GeorgeClooney.png', 'Im_KeanuReeves.png'],same,1,0.4333974000001035,12,80.95238095238095,
GUES1603,train,pos,150,pos150_id7_im26.bmp_pos150_id7_im15.bmp,['Im_OrlandoBloom.png', 'Im_BradPitt.png', 'Im_ElijahWood.png', 'Im_HughJackman.png', 'Im_PatrickDempsey.png', 'Im_DanielCraig.png', 'Im_RobertPattinson.png', 'Im_JustinTimberlake.png', 'Im_GeorgeClooney.png', 'Im_KeanuReeves.png'],same,1,0.4166806999992332,13,80.95238095238095,
GUES1603,train,pos,90,pos90_id8_im13.bmp_pos90_id6_im18.bmp,['Im_OrlandoBloom.png', 'Im_BradPitt.png', 'Im_ElijahWood.png', 'Im_HughJackman.png', 'Im_PatrickDempsey.png', 'Im_DanielCraig.png', 'Im_RobertPattinson.png', 'Im_JustinTimberlake.png', 'Im_GeorgeClooney.png', 'Im_KeanuReeves.png'],diff,1,0.42496870000013587,14,80.95238095238095,
GUES1603,train,inv,0,pos0_id8_im13.bmp_pos0_id16_im3.bmp,['Im_OrlandoBloom.png', 'Im_BradPitt.png', 'Im_ElijahWood.png', 'Im_HughJackman.png', 'Im_PatrickDempsey.png', 'Im_DanielCraig.png', 'Im_RobertPattinson.png', 'Im_JustinTimberlake.png', 'Im_GeorgeClooney.png', 'Im_KeanuReeves.png'],diff,1,0.41668810000010126,15,80.95238095238095,
GUES1603,train,inv,0,pos0_id6_im18.bmp_pos0_id8_im13.bmp,['Im_OrlandoBloom.png', 'Im_BradPitt.png', 'Im_ElijahWood.png', 'Im_HughJackman.png', 'Im_PatrickDempsey.png', 'Im_DanielCraig.png', 'Im_RobertPattinson.png', 'Im_JustinTimberlake.png', 'Im_GeorgeClooney.png', 'Im_KeanuReeves.png'],diff,1,0.4167711000000054,16,80.95238095238095,
GUES1603,train,inv,150,pos150_id8_im13.bmp_pos150_id8_im20.bmp,['Im_OrlandoBloom.png', 'Im_BradPitt.png', 'Im_ElijahWood.png', 'Im_HughJackman.png', 'Im_PatrickDempsey.png', 'Im_DanielCraig.png', 'Im_RobertPattinson.png', 'Im_JustinTimberlake.png', 'Im_GeorgeClooney.png', 'Im_KeanuReeves.png'],diff,0,0.42484890000014275,16,80.95238095238095,
GUES1603,train,inv,90,pos90_id17_im14.bmp_pos90_id4_im7.bmp,['Im_OrlandoBloom.png', 'Im_BradPitt.png', 'Im_ElijahWood.png', 'Im_HughJackman.png', 'Im_PatrickDempsey.png', 'Im_DanielCraig.png', 'Im_RobertPattinson.png', 'Im_JustinTimberlake.png', 'Im_GeorgeClooney.png', 'Im_KeanuReeves.png'],same,0,0.4081981999997879,16,80.95238095238095,
GUES1603,train,inv,60,pos60_id4_im7.bmp_pos60_id4_im20.bmp,['Im_OrlandoBloom.png', 'Im_BradPitt.png', 'Im_ElijahWood.png', 'Im_HughJackman.png', 'Im_PatrickDempsey.png', 'Im_DanielCraig.png', 'Im_RobertPattinson.png', 'Im_JustinTimberlake.png', 'Im_GeorgeClooney.png', 'Im_KeanuReeves.png'],same,1,0.42509079999945243,17,80.95238095238095,
GUES1603,train,inv,30,pos30_id17_im9.bmp_pos30_id17_im8.bmp,['Im_OrlandoBloom.png', 'Im_BradPitt.png', 'Im_ElijahWood.png', 'Im_HughJackman.png', 'Im_PatrickDempsey.png', 'Im_DanielCraig.png', 'Im_RobertPattinson.png', 'Im_JustinTimberlake.png', 'Im_GeorgeClooney.png', 'Im_KeanuReeves.png'],same,1,0.4168294999999489,18,80.95238095238095,
GUES1603,train,inv,90,pos90_id11_im2.bmp_pos90_id4_im15.bmp,['Im_OrlandoBloom.png', 'Im_BradPitt.png', 'Im_ElijahWood.png', 'Im_HughJackman.png', 'Im_PatrickDempsey.png', 'Im_DanielCraig.png', 'Im_RobertPattinson.png', 'Im_JustinTimberlake.png', 'Im_GeorgeClooney.png', 'Im_KeanuReeves.png'],same,0,0.41661130000011326,18,80.95238095238095,
GUES1603,train,inv,120,pos120_id6_im19.bmp_pos120_id6_im12.bmp,['Im_OrlandoBloom.png', 'Im_BradPitt.png', 'Im_ElijahWood.png', 'Im_HughJackman.png', 'Im_PatrickDempsey.png', 'Im_DanielCraig.png', 'Im_RobertPattinson.png', 'Im_JustinTimberlake.png', 'Im_GeorgeClooney.png', 'Im_KeanuReeves.png'],same,1,0.416727599999831,19,80.95238095238095,
GUES1603,train,inv,150,pos150_id6_im12.bmp_pos150_id7_im14.bmp,['Im_OrlandoBloom.png', 'Im_BradPitt.png', 'Im_ElijahWood.png', 'Im_HughJackman.png', 'Im_PatrickDempsey.png', 'Im_DanielCraig.png', 'Im_RobertPattinson.png', 'Im_JustinTimberlake.png', 'Im_GeorgeClooney.png', 'Im_KeanuReeves.png'],diff,1,0.42514739999933226,20,80.95238095238095,
GUES1603,train,inv,120,pos120_id17_im14.bmp_pos120_id4_im7.bmp,['Im_OrlandoBloom.png', 'Im_BradPitt.png', 'Im_ElijahWood.png', 'Im_HughJackman.png', 'Im_PatrickDempsey.png', 'Im_DanielCraig.png', 'Im_RobertPattinson.png', 'Im_JustinTimberlake.png', 'Im_GeorgeClooney.png', 'Im_KeanuReeves.png'],diff,1,0.4419348000001264,21,80.95238095238095,
GUES1603,train,inv,fs,posfs_id4_im7.bmp_posfs_id17_im14.bmp,['Im_OrlandoBloom.png', 'Im_BradPitt.png', 'Im_ElijahWood.png', 'Im_HughJackman.png', 'Im_PatrickDempsey.png', 'Im_DanielCraig.png', 'Im_RobertPattinson.png', 'Im_JustinTimberlake.png', 'Im_GeorgeClooney.png', 'Im_KeanuReeves.png'],diff,1,0.49195740000050137,22,80.95238095238095,
GUES1603,train,inv,60,pos60_id19_im8.bmp_pos60_id19_im4.bmp,['Im_OrlandoBloom.png', 'Im_BradPitt.png', 'Im_ElijahWood.png', 'Im_HughJackman.png', 'Im_PatrickDempsey.png', 'Im_DanielCraig.png', 'Im_RobertPattinson.png', 'Im_JustinTimberlake.png', 'Im_GeorgeClooney.png', 'Im_KeanuReeves.png'],diff,0,0.4666925000001356,22,80.95238095238095,
GUES1603,train,inv,fs,posfs_id17_im8.bmp_posfs_id6_im19.bmp,['Im_OrlandoBloom.png', 'Im_BradPitt.png', 'Im_ElijahWood.png', 'Im_HughJackman.png', 'Im_PatrickDempsey.png', 'Im_DanielCraig.png', 'Im_RobertPattinson.png', 'Im_JustinTimberlake.png', 'Im_GeorgeClooney.png', 'Im_KeanuReeves.png'],diff,1,0.4084865999993781,23,80.95238095238095,
GUES1603,train,inv,30,pos30_id8_im20.bmp_pos30_id8_im13.bmp,['Im_OrlandoBloom.png', 'Im_BradPitt.png', 'Im_ElijahWood.png', 'Im_HughJackman.png', 'Im_PatrickDempsey.png', 'Im_DanielCraig.png', 'Im_RobertPattinson.png', 'Im_JustinTimberlake.png', 'Im_GeorgeClooney.png', 'Im_KeanuReeves.png'],same,1,0.42505789999995613,24,80.95238095238095,
GUES1603,train,pos,60,pos60_id6_im18.bmp_pos60_id8_im13.bmp,['Im_OrlandoBloom.png', 'Im_BradPitt.png', 'Im_ElijahWood.png', 'Im_HughJackman.png', 'Im_PatrickDempsey.png', 'Im_DanielCraig.png', 'Im_RobertPattinson.png', 'Im_JustinTimberlake.png', 'Im_GeorgeClooney.png', 'Im_KeanuReeves.png'],diff,1,0.41673050000008516,25,80.95238095238095,
GUES1603,train,pos,30,pos30_id17_im8.bmp_pos30_id10_im17.bmp,['Im_OrlandoBloom.png', 'Im_BradPitt.png', 'Im_ElijahWood.png', 'Im_HughJackman.png', 'Im_PatrickDempsey.png', 'Im_DanielCraig.png', 'Im_RobertPattinson.png', 'Im_JustinTimberlake.png', 'Im_GeorgeClooney.png', 'Im_KeanuReeves.png'],diff,1,0.4084259999999631,26,80.95238095238095,
GUES1603,train,pos,120,pos120_id11_im1.bmp_pos120_id19_im8.bmp,['Im_OrlandoBloom.png', 'Im_BradPitt.png', 'Im_ElijahWood.png', 'Im_HughJackman.png', 'Im_PatrickDempsey.png', 'Im_DanielCraig.png', 'Im_RobertPattinson.png', 'Im_JustinTimberlake.png', 'Im_GeorgeClooney.png', 'Im_KeanuReeves.png'],diff,1,0.4250498000001244,27,80.95238095238095,
GUES1603,train,pos,90,pos90_id11_im10.bmp_pos90_id17_im14.bmp,['Im_OrlandoBloom.png', 'Im_BradPitt.png', 'Im_ElijahWood.png', 'Im_HughJackman.png', 'Im_PatrickDempsey.png', 'Im_DanielCraig.png', 'Im_RobertPattinson.png', 'Im_JustinTimberlake.png', 'Im_GeorgeClooney.png', 'Im_KeanuReeves.png'],diff,1,0.4250190000002476,28,80.95238095238095,
GUES1603,train,pos,150,pos150_id8_im20.bmp_pos150_id3_im17.bmp,['Im_OrlandoBloom.png', 'Im_BradPitt.png', 'Im_ElijahWood.png', 'Im_HughJackman.png', 'Im_PatrickDempsey.png', 'Im_DanielCraig.png', 'Im_RobertPattinson.png', 'Im_JustinTimberlake.png', 'Im_GeorgeClooney.png', 'Im_KeanuReeves.png'],diff,1,0.4082762999996703,29,80.95238095238095,
GUES1603,train,pos,fs,posfs_id10_im18.bmp_posfs_id3_im8.bmp,['Im_OrlandoBloom.png', 'Im_BradPitt.png', 'Im_ElijahWood.png', 'Im_HughJackman.png', 'Im_PatrickDempsey.png', 'Im_DanielCraig.png', 'Im_RobertPattinson.png', 'Im_JustinTimberlake.png', 'Im_GeorgeClooney.png', 'Im_KeanuReeves.png'],diff,1,0.4249448000000484,30,80.95238095238095,
GUES1603,train,pos,30,pos30_id4_im7.bmp_pos30_id4_im15.bmp,['Im_OrlandoBloom.png', 'Im_BradPitt.png', 'Im_ElijahWood.png', 'Im_HughJackman.png', 'Im_PatrickDempsey.png', 'Im_DanielCraig.png', 'Im_RobertPattinson.png', 'Im_JustinTimberlake.png', 'Im_GeorgeClooney.png', 'Im_KeanuReeves.png'],same,1,0.42487179999989166,31,80.95238095238095,
GUES1603,train,pos,0,pos0_id16_im2.bmp_pos0_id7_im15.bmp,['Im_OrlandoBloom.png', 'Im_BradPitt.png', 'Im_ElijahWood.png', 'Im_HughJackman.png', 'Im_PatrickDempsey.png', 'Im_DanielCraig.png', 'Im_RobertPattinson.png', 'Im_JustinTimberlake.png', 'Im_GeorgeClooney.png', 'Im_KeanuReeves.png'],diff,1,0.4249642999993739,32,80.95238095238095,
GUES1603,train,pos,fs,posfs_id10_im17.bmp_posfs_id17_im8.bmp,['Im_OrlandoBloom.png', 'Im_BradPitt.png', 'Im_ElijahWood.png', 'Im_HughJackman.png', 'Im_PatrickDempsey.png', 'Im_DanielCraig.png', 'Im_RobertPattinson.png', 'Im_JustinTimberlake.png', 'Im_GeorgeClooney.png', 'Im_KeanuReeves.png'],diff,1,0.4167004999999335,33,80.95238095238095,
GUES1603,train,pos,150,pos150_id10_im17.bmp_pos150_id4_im20.bmp,['Im_OrlandoBloom.png', 'Im_BradPitt.png', 'Im_ElijahWood.png', 'Im_HughJackman.png', 'Im_PatrickDempsey.png', 'Im_DanielCraig.png', 'Im_RobertPattinson.png', 'Im_JustinTimberlake.png', 'Im_GeorgeClooney.png', 'Im_KeanuReeves.png'],diff,1,0.4084100000000035,34,80.95238095238095,
GUES1603,train,pos,0,pos0_id16_im3.bmp_pos0_id16_im2.bmp,['Im_OrlandoBloom.png', 'Im_BradPitt.png', 'Im_ElijahWood.png', 'Im_HughJackman.png', 'Im_PatrickDempsey.png', 'Im_DanielCraig.png', 'Im_RobertPattinson.png', 'Im_JustinTimberlake.png', 'Im_GeorgeClooney.png', 'Im_KeanuReeves.png'],diff,0,0.416861699999572,34,80.95238095238095,
GUES1603,train,pos,90,pos90_id10_im17.bmp_pos90_id10_im1.bmp,['Im_OrlandoBloom.png', 'Im_BradPitt.png', 'Im_ElijahWood.png', 'Im_HughJackman.png', 'Im_PatrickDempsey.png', 'Im_DanielCraig.png', 'Im_RobertPattinson.png', 'Im_JustinTimberlake.png', 'Im_GeorgeClooney.png', 'Im_KeanuReeves.png'],same,1,0.4083519999994678,35,80.95238095238095,
GUES1603,train,pos,60,pos60_id16_im19.bmp_pos60_id7_im26.bmp,['Im_OrlandoBloom.png', 'Im_BradPitt.png', 'Im_ElijahWood.png', 'Im_HughJackman.png', 'Im_PatrickDempsey.png', 'Im_DanielCraig.png', 'Im_RobertPattinson.png', 'Im_JustinTimberlake.png', 'Im_GeorgeClooney.png', 'Im_KeanuReeves.png'],diff,1,0.4083792999999787,36,80.95238095238095,
GUES1603,train,pos,120,pos120_id16_im19.bmp_pos120_id3_im17.bmp,['Im_OrlandoBloom.png', 'Im_BradPitt.png', 'Im_ElijahWood.png', 'Im_HughJackman.png', 'Im_PatrickDempsey.png', 'Im_DanielCraig.png', 'Im_RobertPattinson.png', 'Im_JustinTimberlake.png', 'Im_GeorgeClooney.png', 'Im_KeanuReeves.png'],diff,1,0.4083650000002308,37,80.95238095238095,
GUES1603,0,pos,fs,posfs_id17_im8.bmp_posfs_id6_im19.bmp,['Im_OrlandoBloom.png', 'Im_BradPitt.png', 'Im_ElijahWood.png', 'Im_HughJackman.png', 'Im_PatrickDempsey.png', 'Im_DanielCraig.png', 'Im_RobertPattinson.png', 'Im_JustinTimberlake.png', 'Im_GeorgeClooney.png', 'Im_KeanuReeves.png'],diff,1,0.40836080000008224,1,0,
GUES1603,0,pos,150,pos150_id3_im8.bmp_pos150_id3_im17.bmp,['Im_OrlandoBloom.png', 'Im_BradPitt.png', 'Im_ElijahWood.png', 'Im_HughJackman.png', 'Im_PatrickDempsey.png', 'Im_DanielCraig.png', 'Im_RobertPattinson.png', 'Im_JustinTimberlake.png', 'Im_GeorgeClooney.png', 'Im_KeanuReeves.png'],same,1,0.41672190000008413,2,0,
GUES1603,0,pos,60,pos60_id10_im1.bmp_pos60_id10_im17.bmp,['Im_OrlandoBloom.png', 'Im_BradPitt.png', 'Im_ElijahWood.png', 'Im_HughJackman.png', 'Im_PatrickDempsey.png', 'Im_DanielCraig.png', 'Im_RobertPattinson.png', 'Im_JustinTimberlake.png', 'Im_GeorgeClooney.png', 'Im_KeanuReeves.png'],same,1,0.4249817999998413,3,0,
GUES1603,0,pos,120,pos120_id4_im20.bmp_pos120_id4_im7.bmp,['Im_OrlandoBloom.png', 'Im_BradPitt.png', 'Im_ElijahWood.png', 'Im_HughJackman.png', 'Im_PatrickDempsey.png', 'Im_DanielCraig.png', 'Im_RobertPattinson.png', 'Im_JustinTimberlake.png', 'Im_GeorgeClooney.png', 'Im_KeanuReeves.png'],same,1,0.43323439999949187,4,0,
GUES1603,0,pos,30,pos30_id10_im1.bmp_pos30_id10_im18.bmp,['Im_OrlandoBloom.png', 'Im_BradPitt.png', 'Im_ElijahWood.png', 'Im_HughJackman.png', 'Im_PatrickDempsey.png', 'Im_DanielCraig.png', 'Im_RobertPattinson.png', 'Im_JustinTimberlake.png', 'Im_GeorgeClooney.png', 'Im_KeanuReeves.png'],same,1,0.41682700000001205,5,0,
GUES1603,0,pos,0,pos0_id8_im20.bmp_pos0_id19_im4.bmp,['Im_OrlandoBloom.png', 'Im_BradPitt.png', 'Im_ElijahWood.png', 'Im_HughJackman.png', 'Im_PatrickDempsey.png', 'Im_DanielCraig.png', 'Im_RobertPattinson.png', 'Im_JustinTimberlake.png', 'Im_GeorgeClooney.png', 'Im_KeanuReeves.png'],diff,1,0.4167144000002736,6,0,
GUES1603,0,pos,30,pos30_id3_im6.bmp_pos30_id7_im26.bmp,['Im_OrlandoBloom.png', 'Im_BradPitt.png', 'Im_ElijahWood.png', 'Im_HughJackman.png', 'Im_PatrickDempsey.png', 'Im_DanielCraig.png', 'Im_RobertPattinson.png', 'Im_JustinTimberlake.png', 'Im_GeorgeClooney.png', 'Im_KeanuReeves.png'],diff,1,0.4250886999998329,7,0,
GUES1603,0,pos,60,pos60_id3_im6.bmp_pos60_id7_im26.bmp,['Im_OrlandoBloom.png', 'Im_BradPitt.png', 'Im_ElijahWood.png', 'Im_HughJackman.png', 'Im_PatrickDempsey.png', 'Im_DanielCraig.png', 'Im_RobertPattinson.png', 'Im_JustinTimberlake.png', 'Im_GeorgeClooney.png', 'Im_KeanuReeves.png'],diff,1,0.43331839999973454,8,0,
GUES1603,0,pos,90,pos90_id7_im26.bmp_pos90_id7_im15.bmp,['Im_OrlandoBloom.png', 'Im_BradPitt.png', 'Im_ElijahWood.png', 'Im_HughJackman.png', 'Im_PatrickDempsey.png', 'Im_DanielCraig.png', 'Im_RobertPattinson.png', 'Im_JustinTimberlake.png', 'Im_GeorgeClooney.png', 'Im_KeanuReeves.png'],same,1,0.42504899999948975,9,0,
GUES1603,0,pos,fs,posfs_id10_im1.bmp_posfs_id4_im15.bmp,['Im_OrlandoBloom.png', 'Im_BradPitt.png', 'Im_ElijahWood.png', 'Im_HughJackman.png', 'Im_PatrickDempsey.png', 'Im_DanielCraig.png', 'Im_RobertPattinson.png', 'Im_JustinTimberlake.png', 'Im_GeorgeClooney.png', 'Im_KeanuReeves.png'],diff,1,0.41674799999964307,10,0,
GUES1603,0,pos,120,pos120_id7_im15.bmp_pos120_id3_im6.bmp,['Im_OrlandoBloom.png', 'Im_BradPitt.png', 'Im_ElijahWood.png', 'Im_HughJackman.png', 'Im_PatrickDempsey.png', 'Im_DanielCraig.png', 'Im_RobertPattinson.png', 'Im_JustinTimberlake.png', 'Im_GeorgeClooney.png', 'Im_KeanuReeves.png'],diff,1,0.4250855000000229,11,0,
GUES1603,0,pos,150,pos150_id4_im20.bmp_pos150_id4_im7.bmp,['Im_OrlandoBloom.png', 'Im_BradPitt.png', 'Im_ElijahWood.png', 'Im_HughJackman.png', 'Im_PatrickDempsey.png', 'Im_DanielCraig.png', 'Im_RobertPattinson.png', 'Im_JustinTimberlake.png', 'Im_GeorgeClooney.png', 'Im_KeanuReeves.png'],same,1,0.41670110000086424,12,0,
GUES1603,0,pos,90,pos90_id17_im14.bmp_pos90_id17_im8.bmp,['Im_OrlandoBloom.png', 'Im_BradPitt.png', 'Im_ElijahWood.png', 'Im_HughJackman.png', 'Im_PatrickDempsey.png', 'Im_DanielCraig.png', 'Im_RobertPattinson.png', 'Im_JustinTimberlake.png', 'Im_GeorgeClooney.png', 'Im_KeanuReeves.png'],diff,0,0.5588130000005549,12,0,
GUES1603,0,pos,0,pos0_id19_im27.bmp_pos0_id19_im8.bmp,['Im_OrlandoBloom.png', 'Im_BradPitt.png', 'Im_ElijahWood.png', 'Im_HughJackman.png', 'Im_PatrickDempsey.png', 'Im_DanielCraig.png', 'Im_RobertPattinson.png', 'Im_JustinTimberlake.png', 'Im_GeorgeClooney.png', 'Im_KeanuReeves.png'],same,1,0.41667340000003605,13,0,
GUES1603,1,inv,0,pos0_id17_im9.bmp_pos0_id6_im19.bmp,['Im_OrlandoBloom.png', 'Im_BradPitt.png', 'Im_ElijahWood.png', 'Im_HughJackman.png', 'Im_PatrickDempsey.png', 'Im_DanielCraig.png', 'Im_RobertPattinson.png', 'Im_JustinTimberlake.png', 'Im_GeorgeClooney.png', 'Im_KeanuReeves.png'],diff,1,0.5167775999998412,14,0,
GUES1603,1,inv,fs,posfs_id8_im13.bmp_posfs_id8_im20.bmp,['Im_OrlandoBloom.png', 'Im_BradPitt.png', 'Im_ElijahWood.png', 'Im_HughJackman.png', 'Im_PatrickDempsey.png', 'Im_DanielCraig.png', 'Im_RobertPattinson.png', 'Im_JustinTimberlake.png', 'Im_GeorgeClooney.png', 'Im_KeanuReeves.png'],same,1,0.4250891000001502,15,0,
GUES1603,1,inv,90,pos90_id7_im26.bmp_pos90_id3_im6.bmp,['Im_OrlandoBloom.png', 'Im_BradPitt.png', 'Im_ElijahWood.png', 'Im_HughJackman.png', 'Im_PatrickDempsey.png', 'Im_DanielCraig.png', 'Im_RobertPattinson.png', 'Im_JustinTimberlake.png', 'Im_GeorgeClooney.png', 'Im_KeanuReeves.png'],same,0,0.41675629999917874,15,0,
GUES1603,1,inv,30,pos30_id8_im21.bmp_pos30_id4_im7.bmp,['Im_OrlandoBloom.png', 'Im_BradPitt.png', 'Im_ElijahWood.png', 'Im_HughJackman.png', 'Im_PatrickDempsey.png', 'Im_DanielCraig.png', 'Im_RobertPattinson.png', 'Im_JustinTimberlake.png', 'Im_GeorgeClooney.png', 'Im_KeanuReeves.png'],same,0,0.4167148999995334,15,0,
GUES1603,1,inv,90,pos90_id11_im2.bmp_pos90_id11_im10.bmp,['Im_OrlandoBloom.png', 'Im_BradPitt.png', 'Im_ElijahWood.png', 'Im_HughJackman.png', 'Im_PatrickDempsey.png', 'Im_DanielCraig.png', 'Im_RobertPattinson.png', 'Im_JustinTimberlake.png', 'Im_GeorgeClooney.png', 'Im_KeanuReeves.png'],same,1,0.4250670000001264,16,0,
GUES1603,1,inv,60,pos60_id19_im8.bmp_pos60_id19_im27.bmp,['Im_OrlandoBloom.png', 'Im_BradPitt.png', 'Im_ElijahWood.png', 'Im_HughJackman.png', 'Im_PatrickDempsey.png', 'Im_DanielCraig.png', 'Im_RobertPattinson.png', 'Im_JustinTimberlake.png', 'Im_GeorgeClooney.png', 'Im_KeanuReeves.png'],same,1,0.40817520000018703,17,0,
GUES1603,1,inv,30,pos30_id4_im20.bmp_pos30_id17_im9.bmp,['Im_OrlandoBloom.png', 'Im_BradPitt.png', 'Im_ElijahWood.png', 'Im_HughJackman.png', 'Im_PatrickDempsey.png', 'Im_DanielCraig.png', 'Im_RobertPattinson.png', 'Im_JustinTimberlake.png', 'Im_GeorgeClooney.png', 'Im_KeanuReeves.png'],diff,1,0.41667120000056457,18,0,
GUES1603,1,inv,60,pos60_id11_im1.bmp_pos60_id11_im10.bmp,['Im_OrlandoBloom.png', 'Im_BradPitt.png', 'Im_ElijahWood.png', 'Im_HughJackman.png', 'Im_PatrickDempsey.png', 'Im_DanielCraig.png', 'Im_RobertPattinson.png', 'Im_JustinTimberlake.png', 'Im_GeorgeClooney.png', 'Im_KeanuReeves.png'],same,1,0.4417966000000888,19,0,
GUES1603,1,inv,120,pos120_id11_im2.bmp_pos120_id11_im10.bmp,['Im_OrlandoBloom.png', 'Im_BradPitt.png', 'Im_ElijahWood.png', 'Im_HughJackman.png', 'Im_PatrickDempsey.png', 'Im_DanielCraig.png', 'Im_RobertPattinson.png', 'Im_JustinTimberlake.png', 'Im_GeorgeClooney.png', 'Im_KeanuReeves.png'],same,1,0.4168331999999282,20,0,
GUES1603,1,inv,fs,posfs_id11_im1.bmp_posfs_id11_im2.bmp,['Im_OrlandoBloom.png', 'Im_BradPitt.png', 'Im_ElijahWood.png', 'Im_HughJackman.png', 'Im_PatrickDempsey.png', 'Im_DanielCraig.png', 'Im_RobertPattinson.png', 'Im_JustinTimberlake.png', 'Im_GeorgeClooney.png', 'Im_KeanuReeves.png'],same,1,0.41677399999935005,21,0,
GUES1603,1,inv,120,pos120_id11_im1.bmp_pos120_id19_im8.bmp,['Im_OrlandoBloom.png', 'Im_BradPitt.png', 'Im_ElijahWood.png', 'Im_HughJackman.png', 'Im_PatrickDempsey.png', 'Im_DanielCraig.png', 'Im_RobertPattinson.png', 'Im_JustinTimberlake.png', 'Im_GeorgeClooney.png', 'Im_KeanuReeves.png'],same,0,0.4083648000005269,21,0,
GUES1603,1,inv,150,pos150_id7_im15.bmp_pos150_id3_im6.bmp,['Im_OrlandoBloom.png', 'Im_BradPitt.png', 'Im_ElijahWood.png', 'Im_HughJackman.png', 'Im_PatrickDempsey.png', 'Im_DanielCraig.png', 'Im_RobertPattinson.png', 'Im_JustinTimberlake.png', 'Im_GeorgeClooney.png', 'Im_KeanuReeves.png'],diff,1,0.42507260000002134,22,0,
GUES1603,1,inv,150,pos150_id16_im2.bmp_pos150_id16_im3.bmp,['Im_OrlandoBloom.png', 'Im_BradPitt.png', 'Im_ElijahWood.png', 'Im_HughJackman.png', 'Im_PatrickDempsey.png', 'Im_DanielCraig.png', 'Im_RobertPattinson.png', 'Im_JustinTimberlake.png', 'Im_GeorgeClooney.png', 'Im_KeanuReeves.png'],same,1,0.5669711999998981,23,0,
GUES1603,1,inv,0,pos0_id8_im21.bmp_pos0_id8_im13.bmp,['Im_OrlandoBloom.png', 'Im_BradPitt.png', 'Im_ElijahWood.png', 'Im_HughJackman.png', 'Im_PatrickDempsey.png', 'Im_DanielCraig.png', 'Im_RobertPattinson.png', 'Im_JustinTimberlake.png', 'Im_GeorgeClooney.png', 'Im_KeanuReeves.png'],same,1,0.41667770000003657,24,0,
GUES1603,2,pos,150,pos150_id10_im1.bmp_pos150_id7_im14.bmp,['Im_OrlandoBloom.png', 'Im_BradPitt.png', 'Im_ElijahWood.png', 'Im_HughJackman.png', 'Im_PatrickDempsey.png', 'Im_DanielCraig.png', 'Im_RobertPattinson.png', 'Im_JustinTimberlake.png', 'Im_GeorgeClooney.png', 'Im_KeanuReeves.png'],diff,1,0.4167712999997093,25,0,
GUES1603,2,pos,0,pos0_id8_im20.bmp_pos0_id8_im13.bmp,['Im_OrlandoBloom.png', 'Im_BradPitt.png', 'Im_ElijahWood.png', 'Im_HughJackman.png', 'Im_PatrickDempsey.png', 'Im_DanielCraig.png', 'Im_RobertPattinson.png', 'Im_JustinTimberlake.png', 'Im_GeorgeClooney.png', 'Im_KeanuReeves.png'],same,1,0.4084874000000127,26,0,
GUES1603,2,pos,0,pos0_id10_im1.bmp_pos0_id10_im18.bmp,['Im_OrlandoBloom.png', 'Im_BradPitt.png', 'Im_ElijahWood.png', 'Im_HughJackman.png', 'Im_PatrickDempsey.png', 'Im_DanielCraig.png', 'Im_RobertPattinson.png', 'Im_JustinTimberlake.png', 'Im_GeorgeClooney.png', 'Im_KeanuReeves.png'],same,1,0.416827099999864,27,0,
GUES1603,2,pos,fs,posfs_id4_im15.bmp_posfs_id11_im2.bmp,['Im_OrlandoBloom.png', 'Im_BradPitt.png', 'Im_ElijahWood.png', 'Im_HughJackman.png', 'Im_PatrickDempsey.png', 'Im_DanielCraig.png', 'Im_RobertPattinson.png', 'Im_JustinTimberlake.png', 'Im_GeorgeClooney.png', 'Im_KeanuReeves.png'],diff,1,0.4333910000004835,28,0,
GUES1603,2,pos,30,pos30_id16_im3.bmp_pos30_id16_im19.bmp,['Im_OrlandoBloom.png', 'Im_BradPitt.png', 'Im_ElijahWood.png', 'Im_HughJackman.png', 'Im_PatrickDempsey.png', 'Im_DanielCraig.png', 'Im_RobertPattinson.png', 'Im_JustinTimberlake.png', 'Im_GeorgeClooney.png', 'Im_KeanuReeves.png'],same,1,0.42506070000035834,29,0,
GUES1603,2,pos,30,pos30_id17_im9.bmp_pos30_id6_im19.bmp,['Im_OrlandoBloom.png', 'Im_BradPitt.png', 'Im_ElijahWood.png', 'Im_HughJackman.png', 'Im_PatrickDempsey.png', 'Im_DanielCraig.png', 'Im_RobertPattinson.png', 'Im_JustinTimberlake.png', 'Im_GeorgeClooney.png', 'Im_KeanuReeves.png'],diff,1,0.4166707000003953,30,0,
GUES1603,2,pos,90,pos90_id3_im8.bmp_pos90_id3_im6.bmp,['Im_OrlandoBloom.png', 'Im_BradPitt.png', 'Im_ElijahWood.png', 'Im_HughJackman.png', 'Im_PatrickDempsey.png', 'Im_DanielCraig.png', 'Im_RobertPattinson.png', 'Im_JustinTimberlake.png', 'Im_GeorgeClooney.png', 'Im_KeanuReeves.png'],same,1,0.4250992999996015,31,0,
GUES1603,2,pos,150,pos150_id4_im15.bmp_pos150_id4_im20.bmp,['Im_OrlandoBloom.png', 'Im_BradPitt.png', 'Im_ElijahWood.png', 'Im_HughJackman.png', 'Im_PatrickDempsey.png', 'Im_DanielCraig.png', 'Im_RobertPattinson.png', 'Im_JustinTimberlake.png', 'Im_GeorgeClooney.png', 'Im_KeanuReeves.png'],same,1,0.41686980000031326,32,0,
GUES1603,2,pos,60,pos60_id3_im8.bmp_pos60_id3_im6.bmp,['Im_OrlandoBloom.png', 'Im_BradPitt.png', 'Im_ElijahWood.png', 'Im_HughJackman.png', 'Im_PatrickDempsey.png', 'Im_DanielCraig.png', 'Im_RobertPattinson.png', 'Im_JustinTimberlake.png', 'Im_GeorgeClooney.png', 'Im_KeanuReeves.png'],same,1,0.41684170000007725,33,0,
GUES1603,2,pos,120,pos120_id6_im19.bmp_pos120_id6_im18.bmp,['Im_OrlandoBloom.png', 'Im_BradPitt.png', 'Im_ElijahWood.png', 'Im_HughJackman.png', 'Im_PatrickDempsey.png', 'Im_DanielCraig.png', 'Im_RobertPattinson.png', 'Im_JustinTimberlake.png', 'Im_GeorgeClooney.png', 'Im_KeanuReeves.png'],same,1,0.41673069999978907,34,0,
GUES1603,2,pos,60,pos60_id8_im21.bmp_pos60_id4_im7.bmp,['Im_OrlandoBloom.png', 'Im_BradPitt.png', 'Im_ElijahWood.png', 'Im_HughJackman.png', 'Im_PatrickDempsey.png', 'Im_DanielCraig.png', 'Im_RobertPattinson.png', 'Im_JustinTimberlake.png', 'Im_GeorgeClooney.png', 'Im_KeanuReeves.png'],same,0,0.42511760000070353,34,0,
GUES1603,2,pos,fs,posfs_id3_im17.bmp_posfs_id8_im20.bmp,['Im_OrlandoBloom.png', 'Im_BradPitt.png', 'Im_ElijahWood.png', 'Im_HughJackman.png', 'Im_PatrickDempsey.png', 'Im_DanielCraig.png', 'Im_RobertPattinson.png', 'Im_JustinTimberlake.png', 'Im_GeorgeClooney.png', 'Im_KeanuReeves.png'],diff,1,0.408461900000475,35,0,
GUES1603,2,pos,120,pos120_id8_im20.bmp_pos120_id19_im4.bmp,['Im_OrlandoBloom.png', 'Im_BradPitt.png', 'Im_ElijahWood.png', 'Im_HughJackman.png', 'Im_PatrickDempsey.png', 'Im_DanielCraig.png', 'Im_RobertPattinson.png', 'Im_JustinTimberlake.png', 'Im_GeorgeClooney.png', 'Im_KeanuReeves.png'],diff,1,0.6499799000002895,36,0,
GUES1603,2,pos,90,pos90_id16_im2.bmp_pos90_id11_im1.bmp,['Im_OrlandoBloom.png', 'Im_BradPitt.png', 'Im_ElijahWood.png', 'Im_HughJackman.png', 'Im_PatrickDempsey.png', 'Im_DanielCraig.png', 'Im_RobertPattinson.png', 'Im_JustinTimberlake.png', 'Im_GeorgeClooney.png', 'Im_KeanuReeves.png'],diff,1,0.5751942999995663,37,0,
GUES1603,3,neg,30,neg30_id10_im1.bmp_neg30_id10_im18.bmp,['Im_OrlandoBloom.png', 'Im_BradPitt.png', 'Im_ElijahWood.png', 'Im_HughJackman.png', 'Im_PatrickDempsey.png', 'Im_DanielCraig.png', 'Im_RobertPattinson.png', 'Im_JustinTimberlake.png', 'Im_GeorgeClooney.png', 'Im_KeanuReeves.png'],same,1,0.4084220999993704,1,88.0952380952381,
GUES1603,3,neg,90,neg90_id8_im20.bmp_neg90_id3_im17.bmp,['Im_OrlandoBloom.png', 'Im_BradPitt.png', 'Im_ElijahWood.png', 'Im_HughJackman.png', 'Im_PatrickDempsey.png', 'Im_DanielCraig.png', 'Im_RobertPattinson.png', 'Im_JustinTimberlake.png', 'Im_GeorgeClooney.png', 'Im_KeanuReeves.png'],diff,1,0.4248035999999047,2,88.0952380952381,
GUES1603,3,neg,60,neg60_id17_im14.bmp_neg60_id11_im10.bmp,['Im_OrlandoBloom.png', 'Im_BradPitt.png', 'Im_ElijahWood.png', 'Im_HughJackman.png', 'Im_PatrickDempsey.png', 'Im_DanielCraig.png', 'Im_RobertPattinson.png', 'Im_JustinTimberlake.png', 'Im_GeorgeClooney.png', 'Im_KeanuReeves.png'],same,0,0.4084173000001101,2,88.0952380952381,
GUES1603,3,neg,90,neg90_id16_im3.bmp_neg90_id8_im13.bmp,['Im_OrlandoBloom.png', 'Im_BradPitt.png', 'Im_ElijahWood.png', 'Im_HughJackman.png', 'Im_PatrickDempsey.png', 'Im_DanielCraig.png', 'Im_RobertPattinson.png', 'Im_JustinTimberlake.png', 'Im_GeorgeClooney.png', 'Im_KeanuReeves.png'],diff,1,0.4250844000007419,3,88.0952380952381,
GUES1603,3,neg,150,neg150_id7_im26.bmp_neg150_id3_im6.bmp,['Im_OrlandoBloom.png', 'Im_BradPitt.png', 'Im_ElijahWood.png', 'Im_HughJackman.png', 'Im_PatrickDempsey.png', 'Im_DanielCraig.png', 'Im_RobertPattinson.png', 'Im_JustinTimberlake.png', 'Im_GeorgeClooney.png', 'Im_KeanuReeves.png'],diff,1,0.43347710000034567,4,88.0952380952381,
GUES1603,3,neg,fs,negfs_id7_im15.bmp_negfs_id16_im2.bmp,['Im_OrlandoBloom.png', 'Im_BradPitt.png', 'Im_ElijahWood.png', 'Im_HughJackman.png', 'Im_PatrickDempsey.png', 'Im_DanielCraig.png', 'Im_RobertPattinson.png', 'Im_JustinTimberlake.png', 'Im_GeorgeClooney.png', 'Im_KeanuReeves.png'],diff,1,0.4251073000004908,5,88.0952380952381,
GUES1603,3,neg,fs,negfs_id8_im21.bmp_negfs_id8_im20.bmp,['Im_OrlandoBloom.png', 'Im_BradPitt.png', 'Im_ElijahWood.png', 'Im_HughJackman.png', 'Im_PatrickDempsey.png', 'Im_DanielCraig.png', 'Im_RobertPattinson.png', 'Im_JustinTimberlake.png', 'Im_GeorgeClooney.png', 'Im_KeanuReeves.png'],same,1,0.42509270000027755,6,88.0952380952381,
GUES1603,3,neg,0,neg0_id11_im1.bmp_neg0_id11_im10.bmp,['Im_OrlandoBloom.png', 'Im_BradPitt.png', 'Im_ElijahWood.png', 'Im_HughJackman.png', 'Im_PatrickDempsey.png', 'Im_DanielCraig.png', 'Im_RobertPattinson.png', 'Im_JustinTimberlake.png', 'Im_GeorgeClooney.png', 'Im_KeanuReeves.png'],same,1,0.41676270000061777,7,88.0952380952381,
GUES1603,3,neg,120,neg120_id6_im19.bmp_neg120_id17_im8.bmp,['Im_OrlandoBloom.png', 'Im_BradPitt.png', 'Im_ElijahWood.png', 'Im_HughJackman.png', 'Im_PatrickDempsey.png', 'Im_DanielCraig.png', 'Im_RobertPattinson.png', 'Im_JustinTimberlake.png', 'Im_GeorgeClooney.png', 'Im_KeanuReeves.png'],diff,1,0.4167421000001923,8,88.0952380952381,
GUES1603,3,neg,120,neg120_id4_im20.bmp_neg120_id4_im15.bmp,['Im_OrlandoBloom.png', 'Im_BradPitt.png', 'Im_ElijahWood.png', 'Im_HughJackman.png', 'Im_PatrickDempsey.png', 'Im_DanielCraig.png', 'Im_RobertPattinson.png', 'Im_JustinTimberlake.png', 'Im_GeorgeClooney.png', 'Im_KeanuReeves.png'],same,1,0.42496729999948,9,88.0952380952381,
GUES1603,3,neg,150,neg150_id7_im15.bmp_neg150_id7_im14.bmp,['Im_OrlandoBloom.png', 'Im_BradPitt.png', 'Im_ElijahWood.png', 'Im_HughJackman.png', 'Im_PatrickDempsey.png', 'Im_DanielCraig.png', 'Im_RobertPattinson.png', 'Im_JustinTimberlake.png', 'Im_GeorgeClooney.png', 'Im_KeanuReeves.png'],same,1,0.4250404000003982,10,88.0952380952381,
GUES1603,3,neg,30,neg30_id17_im14.bmp_neg30_id11_im10.bmp,['Im_OrlandoBloom.png', 'Im_BradPitt.png', 'Im_ElijahWood.png', 'Im_HughJackman.png', 'Im_PatrickDempsey.png', 'Im_DanielCraig.png', 'Im_RobertPattinson.png', 'Im_JustinTimberlake.png', 'Im_GeorgeClooney.png', 'Im_KeanuReeves.png'],same,0,0.4166812999992544,10,88.0952380952381,
GUES1603,3,neg,60,neg60_id16_im3.bmp_neg60_id8_im13.bmp,['Im_OrlandoBloom.png', 'Im_BradPitt.png', 'Im_ElijahWood.png', 'Im_HughJackman.png', 'Im_PatrickDempsey.png', 'Im_DanielCraig.png', 'Im_RobertPattinson.png', 'Im_JustinTimberlake.png', 'Im_GeorgeClooney.png', 'Im_KeanuReeves.png'],diff,1,0.41676870000083,11,88.0952380952381,
GUES1603,3,neg,0,neg0_id19_im4.bmp_neg0_id19_im27.bmp,['Im_OrlandoBloom.png', 'Im_BradPitt.png', 'Im_ElijahWood.png', 'Im_HughJackman.png', 'Im_PatrickDempsey.png', 'Im_DanielCraig.png', 'Im_RobertPattinson.png', 'Im_JustinTimberlake.png', 'Im_GeorgeClooney.png', 'Im_KeanuReeves.png'],same,1,0.40840449999996054,12,88.0952380952381,
GUES1603,4,pos,fs,posfs_id19_im4.bmp_posfs_id8_im20.bmp,['Im_OrlandoBloom.png', 'Im_BradPitt.png', 'Im_ElijahWood.png', 'Im_HughJackman.png', 'Im_PatrickDempsey.png', 'Im_DanielCraig.png', 'Im_RobertPattinson.png', 'Im_JustinTimberlake.png', 'Im_GeorgeClooney.png', 'Im_KeanuReeves.png'],diff,1,0.4167657000007239,13,88.0952380952381,
GUES1603,4,pos,fs,posfs_id7_im14.bmp_posfs_id6_im12.bmp,['Im_OrlandoBloom.png', 'Im_BradPitt.png', 'Im_ElijahWood.png', 'Im_HughJackman.png', 'Im_PatrickDempsey.png', 'Im_DanielCraig.png', 'Im_RobertPattinson.png', 'Im_JustinTimberlake.png', 'Im_GeorgeClooney.png', 'Im_KeanuReeves.png'],diff,1,0.41660330000013346,14,88.0952380952381,
GUES1603,4,pos,120,pos120_id6_im18.bmp_pos120_id3_im8.bmp,['Im_OrlandoBloom.png', 'Im_BradPitt.png', 'Im_ElijahWood.png', 'Im_HughJackman.png', 'Im_PatrickDempsey.png', 'Im_DanielCraig.png', 'Im_RobertPattinson.png', 'Im_JustinTimberlake.png', 'Im_GeorgeClooney.png', 'Im_KeanuReeves.png'],diff,1,0.42500879999988683,15,88.0952380952381,
GUES1603,4,pos,30,pos30_id10_im17.bmp_pos30_id10_im1.bmp,['Im_OrlandoBloom.png', 'Im_BradPitt.png', 'Im_ElijahWood.png', 'Im_HughJackman.png', 'Im_PatrickDempsey.png', 'Im_DanielCraig.png', 'Im_RobertPattinson.png', 'Im_JustinTimberlake.png', 'Im_GeorgeClooney.png', 'Im_KeanuReeves.png'],same,1,0.4334042000000409,16,88.0952380952381,
GUES1603,4,pos,0,pos0_id4_im20.bmp_pos0_id4_im15.bmp,['Im_OrlandoBloom.png', 'Im_BradPitt.png', 'Im_ElijahWood.png', 'Im_HughJackman.png', 'Im_PatrickDempsey.png', 'Im_DanielCraig.png', 'Im_RobertPattinson.png', 'Im_JustinTimberlake.png', 'Im_GeorgeClooney.png', 'Im_KeanuReeves.png'],same,1,0.4251451999998608,17,88.0952380952381,
GUES1603,4,pos,0,pos0_id11_im2.bmp_pos0_id4_im15.bmp,['Im_OrlandoBloom.png', 'Im_BradPitt.png', 'Im_ElijahWood.png', 'Im_HughJackman.png', 'Im_PatrickDempsey.png', 'Im_DanielCraig.png', 'Im_RobertPattinson.png', 'Im_JustinTimberlake.png', 'Im_GeorgeClooney.png', 'Im_KeanuReeves.png'],diff,1,0.41672120000021096,18,88.0952380952381,
GUES1603,4,pos,90,pos90_id4_im7.bmp_pos90_id17_im14.bmp,['Im_OrlandoBloom.png', 'Im_BradPitt.png', 'Im_ElijahWood.png', 'Im_HughJackman.png', 'Im_PatrickDempsey.png', 'Im_DanielCraig.png', 'Im_RobertPattinson.png', 'Im_JustinTimberlake.png', 'Im_GeorgeClooney.png', 'Im_KeanuReeves.png'],diff,1,0.4167324000000008,19,88.0952380952381,
GUES1603,4,pos,150,pos150_id19_im8.bmp_pos150_id11_im1.bmp,['Im_OrlandoBloom.png', 'Im_BradPitt.png', 'Im_ElijahWood.png', 'Im_HughJackman.png', 'Im_PatrickDempsey.png', 'Im_DanielCraig.png', 'Im_RobertPattinson.png', 'Im_JustinTimberlake.png', 'Im_GeorgeClooney.png', 'Im_KeanuReeves.png'],diff,1,0.42504209999970044,20,88.0952380952381,
GUES1603,4,pos,60,pos60_id7_im14.bmp_pos60_id6_im12.bmp,['Im_OrlandoBloom.png', 'Im_BradPitt.png', 'Im_ElijahWood.png', 'Im_HughJackman.png', 'Im_PatrickDempsey.png', 'Im_DanielCraig.png', 'Im_RobertPattinson.png', 'Im_JustinTimberlake.png', 'Im_GeorgeClooney.png', 'Im_KeanuReeves.png'],diff,1,0.4166823999994449,21,88.0952380952381,
GUES1603,4,pos,90,pos90_id4_im20.bmp_pos90_id4_im15.bmp,['Im_OrlandoBloom.png', 'Im_BradPitt.png', 'Im_ElijahWood.png', 'Im_HughJackman.png', 'Im_PatrickDempsey.png', 'Im_DanielCraig.png', 'Im_RobertPattinson.png', 'Im_JustinTimberlake.png', 'Im_GeorgeClooney.png', 'Im_KeanuReeves.png'],same,1,0.4250572999999349,22,88.0952380952381,
GUES1603,4,pos,30,pos30_id11_im2.bmp_pos30_id11_im10.bmp,['Im_OrlandoBloom.png', 'Im_BradPitt.png', 'Im_ElijahWood.png', 'Im_HughJackman.png', 'Im_PatrickDempsey.png', 'Im_DanielCraig.png', 'Im_RobertPattinson.png', 'Im_JustinTimberlake.png', 'Im_GeorgeClooney.png', 'Im_KeanuReeves.png'],same,1,0.42510069999934785,23,88.0952380952381,
GUES1603,4,pos,150,pos150_id16_im2.bmp_pos150_id16_im3.bmp,['Im_OrlandoBloom.png', 'Im_BradPitt.png', 'Im_ElijahWood.png', 'Im_HughJackman.png', 'Im_PatrickDempsey.png', 'Im_DanielCraig.png', 'Im_RobertPattinson.png', 'Im_JustinTimberlake.png', 'Im_GeorgeClooney.png', 'Im_KeanuReeves.png'],same,1,0.4167147999996814,24,88.0952380952381,
GUES1603,4,pos,60,pos60_id17_im14.bmp_pos60_id11_im10.bmp,['Im_OrlandoBloom.png', 'Im_BradPitt.png', 'Im_ElijahWood.png', 'Im_HughJackman.png', 'Im_PatrickDempsey.png', 'Im_DanielCraig.png', 'Im_RobertPattinson.png', 'Im_JustinTimberlake.png', 'Im_GeorgeClooney.png', 'Im_KeanuReeves.png'],diff,1,0.4250947000000451,25,88.0952380952381,
GUES1603,4,pos,120,pos120_id17_im14.bmp_pos120_id17_im8.bmp,['Im_OrlandoBloom.png', 'Im_BradPitt.png', 'Im_ElijahWood.png', 'Im_HughJackman.png', 'Im_PatrickDempsey.png', 'Im_DanielCraig.png', 'Im_RobertPattinson.png', 'Im_JustinTimberlake.png', 'Im_GeorgeClooney.png', 'Im_KeanuReeves.png'],diff,0,0.4167009999991933,25,88.0952380952381,
GUES1603,5,inv,150,pos150_id16_im2.bmp_pos150_id7_im15.bmp,['Im_OrlandoBloom.png', 'Im_BradPitt.png', 'Im_ElijahWood.png', 'Im_HughJackman.png', 'Im_PatrickDempsey.png', 'Im_DanielCraig.png', 'Im_RobertPattinson.png', 'Im_JustinTimberlake.png', 'Im_GeorgeClooney.png', 'Im_KeanuReeves.png'],diff,1,0.4167969999998604,26,88.0952380952381,
GUES1603,5,inv,120,pos120_id3_im17.bmp_pos120_id8_im20.bmp,['Im_OrlandoBloom.png', 'Im_BradPitt.png', 'Im_ElijahWood.png', 'Im_HughJackman.png', 'Im_PatrickDempsey.png', 'Im_DanielCraig.png', 'Im_RobertPattinson.png', 'Im_JustinTimberlake.png', 'Im_GeorgeClooney.png', 'Im_KeanuReeves.png'],same,0,0.5502692000000025,26,88.0952380952381,
GUES1603,5,inv,90,pos90_id19_im27.bmp_pos90_id19_im8.bmp,['Im_OrlandoBloom.png', 'Im_BradPitt.png', 'Im_ElijahWood.png', 'Im_HughJackman.png', 'Im_PatrickDempsey.png', 'Im_DanielCraig.png', 'Im_RobertPattinson.png', 'Im_JustinTimberlake.png', 'Im_GeorgeClooney.png', 'Im_KeanuReeves.png'],same,1,0.4250609999999142,27,88.0952380952381,
GUES1603,5,inv,fs,posfs_id10_im17.bmp_posfs_id4_im20.bmp,['Im_OrlandoBloom.png', 'Im_BradPitt.png', 'Im_ElijahWood.png', 'Im_HughJackman.png', 'Im_PatrickDempsey.png', 'Im_DanielCraig.png', 'Im_RobertPattinson.png', 'Im_JustinTimberlake.png', 'Im_GeorgeClooney.png', 'Im_KeanuReeves.png'],diff,1,0.41672360000029585,28,88.0952380952381,
GUES1603,5,inv,0,pos0_id16_im19.bmp_pos0_id3_im17.bmp,['Im_OrlandoBloom.png', 'Im_BradPitt.png', 'Im_ElijahWood.png', 'Im_HughJackman.png', 'Im_PatrickDempsey.png', 'Im_DanielCraig.png', 'Im_RobertPattinson.png', 'Im_JustinTimberlake.png', 'Im_GeorgeClooney.png', 'Im_KeanuReeves.png'],diff,1,0.42509710000013,29,88.0952380952381,
GUES1603,5,inv,30,pos30_id4_im20.bmp_pos30_id10_im17.bmp,['Im_OrlandoBloom.png', 'Im_BradPitt.png', 'Im_ElijahWood.png', 'Im_HughJackman.png', 'Im_PatrickDempsey.png', 'Im_DanielCraig.png', 'Im_RobertPattinson.png', 'Im_JustinTimberlake.png', 'Im_GeorgeClooney.png', 'Im_KeanuReeves.png'],diff,1,0.42507279999972525,30,88.0952380952381,
GUES1603,5,inv,0,pos0_id19_im27.bmp_pos0_id19_im4.bmp,['Im_OrlandoBloom.png', 'Im_BradPitt.png', 'Im_ElijahWood.png', 'Im_HughJackman.png', 'Im_PatrickDempsey.png', 'Im_DanielCraig.png', 'Im_RobertPattinson.png', 'Im_JustinTimberlake.png', 'Im_GeorgeClooney.png', 'Im_KeanuReeves.png'],same,1,0.4250816000003397,31,88.0952380952381,
GUES1603,5,inv,fs,posfs_id16_im3.bmp_posfs_id16_im19.bmp,['Im_OrlandoBloom.png', 'Im_BradPitt.png', 'Im_ElijahWood.png', 'Im_HughJackman.png', 'Im_PatrickDempsey.png', 'Im_DanielCraig.png', 'Im_RobertPattinson.png', 'Im_JustinTimberlake.png', 'Im_GeorgeClooney.png', 'Im_KeanuReeves.png'],same,1,0.4085721999999805,32,88.0952380952381,
GUES1603,5,inv,150,pos150_id6_im12.bmp_pos150_id19_im27.bmp,['Im_OrlandoBloom.png', 'Im_BradPitt.png', 'Im_ElijahWood.png', 'Im_HughJackman.png', 'Im_PatrickDempsey.png', 'Im_DanielCraig.png', 'Im_RobertPattinson.png', 'Im_JustinTimberlake.png', 'Im_GeorgeClooney.png', 'Im_KeanuReeves.png'],diff,1,0.4251678999999058,33,88.0952380952381,
GUES1603,5,inv,120,pos120_id3_im17.bmp_pos120_id16_im19.bmp,['Im_OrlandoBloom.png', 'Im_BradPitt.png', 'Im_ElijahWood.png', 'Im_HughJackman.png', 'Im_PatrickDempsey.png', 'Im_DanielCraig.png', 'Im_RobertPattinson.png', 'Im_JustinTimberlake.png', 'Im_GeorgeClooney.png', 'Im_KeanuReeves.png'],diff,1,0.4167267000002539,34,88.0952380952381,
GUES1603,5,inv,60,pos60_id3_im17.bmp_pos60_id16_im19.bmp,['Im_OrlandoBloom.png', 'Im_BradPitt.png', 'Im_ElijahWood.png', 'Im_HughJackman.png', 'Im_PatrickDempsey.png', 'Im_DanielCraig.png', 'Im_RobertPattinson.png', 'Im_JustinTimberlake.png', 'Im_GeorgeClooney.png', 'Im_KeanuReeves.png'],diff,1,0.7167563000002701,35,88.0952380952381,
GUES1603,5,inv,60,pos60_id16_im3.bmp_pos60_id19_im8.bmp,['Im_OrlandoBloom.png', 'Im_BradPitt.png', 'Im_ElijahWood.png', 'Im_HughJackman.png', 'Im_PatrickDempsey.png', 'Im_DanielCraig.png', 'Im_RobertPattinson.png', 'Im_JustinTimberlake.png', 'Im_GeorgeClooney.png', 'Im_KeanuReeves.png'],same,0,0.416810899999291,35,88.0952380952381,
GUES1603,5,inv,90,pos90_id16_im3.bmp_pos90_id8_im13.bmp,['Im_OrlandoBloom.png', 'Im_BradPitt.png', 'Im_ElijahWood.png', 'Im_HughJackman.png', 'Im_PatrickDempsey.png', 'Im_DanielCraig.png', 'Im_RobertPattinson.png', 'Im_JustinTimberlake.png', 'Im_GeorgeClooney.png', 'Im_KeanuReeves.png'],same,0,0.4250947000000451,35,88.0952380952381,
GUES1603,5,inv,30,pos30_id16_im2.bmp_pos30_id16_im19.bmp,['Im_OrlandoBloom.png', 'Im_BradPitt.png', 'Im_ElijahWood.png', 'Im_HughJackman.png', 'Im_PatrickDempsey.png', 'Im_DanielCraig.png', 'Im_RobertPattinson.png', 'Im_JustinTimberlake.png', 'Im_GeorgeClooney.png', 'Im_KeanuReeves.png'],same,1,0.4165532999995776,36,88.0952380952381,
GUES1603,6,neg,fs,negfs_id7_im14.bmp_negfs_id10_im1.bmp,['Im_OrlandoBloom.png', 'Im_BradPitt.png', 'Im_ElijahWood.png', 'Im_HughJackman.png', 'Im_PatrickDempsey.png', 'Im_DanielCraig.png', 'Im_RobertPattinson.png', 'Im_JustinTimberlake.png', 'Im_GeorgeClooney.png', 'Im_KeanuReeves.png'],diff,1,0.41676880000068195,1,85.71428571428571,
GUES1603,6,neg,90,neg90_id7_im26.bmp_neg90_id3_im6.bmp,['Im_OrlandoBloom.png', 'Im_BradPitt.png', 'Im_ElijahWood.png', 'Im_HughJackman.png', 'Im_PatrickDempsey.png', 'Im_DanielCraig.png', 'Im_RobertPattinson.png', 'Im_JustinTimberlake.png', 'Im_GeorgeClooney.png', 'Im_KeanuReeves.png'],diff,1,0.4167313000007198,2,85.71428571428571,
GUES1603,6,neg,30,neg30_id17_im9.bmp_neg30_id17_im8.bmp,['Im_OrlandoBloom.png', 'Im_BradPitt.png', 'Im_ElijahWood.png', 'Im_HughJackman.png', 'Im_PatrickDempsey.png', 'Im_DanielCraig.png', 'Im_RobertPattinson.png', 'Im_JustinTimberlake.png', 'Im_GeorgeClooney.png', 'Im_KeanuReeves.png'],same,1,0.41681100000005245,3,85.71428571428571,
GUES1603,6,neg,0,neg0_id16_im19.bmp_neg0_id3_im17.bmp,['Im_OrlandoBloom.png', 'Im_BradPitt.png', 'Im_ElijahWood.png', 'Im_HughJackman.png', 'Im_PatrickDempsey.png', 'Im_DanielCraig.png', 'Im_RobertPattinson.png', 'Im_JustinTimberlake.png', 'Im_GeorgeClooney.png', 'Im_KeanuReeves.png'],diff,1,0.42504660000031436,4,85.71428571428571,
GUES1603,6,neg,0,neg0_id4_im20.bmp_neg0_id17_im9.bmp,['Im_OrlandoBloom.png', 'Im_BradPitt.png', 'Im_ElijahWood.png', 'Im_HughJackman.png', 'Im_PatrickDempsey.png', 'Im_DanielCraig.png', 'Im_RobertPattinson.png', 'Im_JustinTimberlake.png', 'Im_GeorgeClooney.png', 'Im_KeanuReeves.png'],diff,1,0.4167315000004237,5,85.71428571428571,
GUES1603,6,neg,120,neg120_id16_im19.bmp_neg120_id16_im2.bmp,['Im_OrlandoBloom.png', 'Im_BradPitt.png', 'Im_ElijahWood.png', 'Im_HughJackman.png', 'Im_PatrickDempsey.png', 'Im_DanielCraig.png', 'Im_RobertPattinson.png', 'Im_JustinTimberlake.png', 'Im_GeorgeClooney.png', 'Im_KeanuReeves.png'],same,1,0.4084272999998575,6,85.71428571428571,
GUES1603,6,neg,30,neg30_id3_im17.bmp_neg30_id8_im20.bmp,['Im_OrlandoBloom.png', 'Im_BradPitt.png', 'Im_ElijahWood.png', 'Im_HughJackman.png', 'Im_PatrickDempsey.png', 'Im_DanielCraig.png', 'Im_RobertPattinson.png', 'Im_JustinTimberlake.png', 'Im_GeorgeClooney.png', 'Im_KeanuReeves.png'],diff,1,0.41672939999989467,7,85.71428571428571,
GUES1603,6,neg,90,neg90_id3_im8.bmp_neg90_id3_im6.bmp,['Im_OrlandoBloom.png', 'Im_BradPitt.png', 'Im_ElijahWood.png', 'Im_HughJackman.png', 'Im_PatrickDempsey.png', 'Im_DanielCraig.png', 'Im_RobertPattinson.png', 'Im_JustinTimberlake.png', 'Im_GeorgeClooney.png', 'Im_KeanuReeves.png'],diff,0,0.4250661999994918,7,85.71428571428571,
GUES1603,6,neg,fs,negfs_id17_im8.bmp_negfs_id17_im14.bmp,['Im_OrlandoBloom.png', 'Im_BradPitt.png', 'Im_ElijahWood.png', 'Im_HughJackman.png', 'Im_PatrickDempsey.png', 'Im_DanielCraig.png', 'Im_RobertPattinson.png', 'Im_JustinTimberlake.png', 'Im_GeorgeClooney.png', 'Im_KeanuReeves.png'],same,1,0.4167874999993728,8,85.71428571428571,
GUES1603,6,neg,150,neg150_id16_im2.bmp_neg150_id11_im1.bmp,['Im_OrlandoBloom.png', 'Im_BradPitt.png', 'Im_ElijahWood.png', 'Im_HughJackman.png', 'Im_PatrickDempsey.png', 'Im_DanielCraig.png', 'Im_RobertPattinson.png', 'Im_JustinTimberlake.png', 'Im_GeorgeClooney.png', 'Im_KeanuReeves.png'],diff,1,0.41660979999960546,9,85.71428571428571,
GUES1603,6,neg,60,neg60_id3_im8.bmp_neg60_id3_im6.bmp,['Im_OrlandoBloom.png', 'Im_BradPitt.png', 'Im_ElijahWood.png', 'Im_HughJackman.png', 'Im_PatrickDempsey.png', 'Im_DanielCraig.png', 'Im_RobertPattinson.png', 'Im_JustinTimberlake.png', 'Im_GeorgeClooney.png', 'Im_KeanuReeves.png'],same,1,0.4168306000001394,10,85.71428571428571,
GUES1603,6,neg,60,neg60_id11_im10.bmp_neg60_id11_im2.bmp,['Im_OrlandoBloom.png', 'Im_BradPitt.png', 'Im_ElijahWood.png', 'Im_HughJackman.png', 'Im_PatrickDempsey.png', 'Im_DanielCraig.png', 'Im_RobertPattinson.png', 'Im_JustinTimberlake.png', 'Im_GeorgeClooney.png', 'Im_KeanuReeves.png'],same,1,0.4083904999997685,11,85.71428571428571,
GUES1603,6,neg,120,neg120_id11_im2.bmp_neg120_id11_im10.bmp,['Im_OrlandoBloom.png', 'Im_BradPitt.png', 'Im_ElijahWood.png', 'Im_HughJackman.png', 'Im_PatrickDempsey.png', 'Im_DanielCraig.png', 'Im_RobertPattinson.png', 'Im_JustinTimberlake.png', 'Im_GeorgeClooney.png', 'Im_KeanuReeves.png'],same,1,0.41670650000014575,12,85.71428571428571,
GUES1603,6,neg,150,neg150_id4_im20.bmp_neg150_id17_im9.bmp,['Im_OrlandoBloom.png', 'Im_BradPitt.png', 'Im_ElijahWood.png', 'Im_HughJackman.png', 'Im_PatrickDempsey.png', 'Im_DanielCraig.png', 'Im_RobertPattinson.png', 'Im_JustinTimberlake.png', 'Im_GeorgeClooney.png', 'Im_KeanuReeves.png'],diff,1,0.4084054000004471,13,85.71428571428571,
GUES1603,7,inv,120,pos120_id7_im26.bmp_pos120_id3_im6.bmp,['Im_OrlandoBloom.png', 'Im_BradPitt.png', 'Im_ElijahWood.png', 'Im_HughJackman.png', 'Im_PatrickDempsey.png', 'Im_DanielCraig.png', 'Im_RobertPattinson.png', 'Im_JustinTimberlake.png', 'Im_GeorgeClooney.png', 'Im_KeanuReeves.png'],same,0,0.43335769999976037,13,85.71428571428571,
GUES1603,7,inv,90,pos90_id19_im4.bmp_pos90_id19_im27.bmp,['Im_OrlandoBloom.png', 'Im_BradPitt.png', 'Im_ElijahWood.png', 'Im_HughJackman.png', 'Im_PatrickDempsey.png', 'Im_DanielCraig.png', 'Im_RobertPattinson.png', 'Im_JustinTimberlake.png', 'Im_GeorgeClooney.png', 'Im_KeanuReeves.png'],same,1,0.4167368999997052,14,85.71428571428571,
GUES1603,7,inv,60,pos60_id8_im13.bmp_pos60_id8_im20.bmp,['Im_OrlandoBloom.png', 'Im_BradPitt.png', 'Im_ElijahWood.png', 'Im_HughJackman.png', 'Im_PatrickDempsey.png', 'Im_DanielCraig.png', 'Im_RobertPattinson.png', 'Im_JustinTimberlake.png', 'Im_GeorgeClooney.png', 'Im_KeanuReeves.png'],same,1,0.42510889999994106,15,85.71428571428571,
GUES1603,7,inv,150,pos150_id7_im15.bmp_pos150_id7_im14.bmp,['Im_OrlandoBloom.png', 'Im_BradPitt.png', 'Im_ElijahWood.png', 'Im_HughJackman.png', 'Im_PatrickDempsey.png', 'Im_DanielCraig.png', 'Im_RobertPattinson.png', 'Im_JustinTimberlake.png', 'Im_GeorgeClooney.png', 'Im_KeanuReeves.png'],same,1,0.4167354000001069,16,85.71428571428571,
GUES1603,7,inv,fs,posfs_id17_im9.bmp_posfs_id4_im20.bmp,['Im_OrlandoBloom.png', 'Im_BradPitt.png', 'Im_ElijahWood.png', 'Im_HughJackman.png', 'Im_PatrickDempsey.png', 'Im_DanielCraig.png', 'Im_RobertPattinson.png', 'Im_JustinTimberlake.png', 'Im_GeorgeClooney.png', 'Im_KeanuReeves.png'],diff,1,0.4084031000002142,17,85.71428571428571,
GUES1603,7,inv,150,pos150_id8_im21.bmp_pos150_id8_im13.bmp,['Im_OrlandoBloom.png', 'Im_BradPitt.png', 'Im_ElijahWood.png', 'Im_HughJackman.png', 'Im_PatrickDempsey.png', 'Im_DanielCraig.png', 'Im_RobertPattinson.png', 'Im_JustinTimberlake.png', 'Im_GeorgeClooney.png', 'Im_KeanuReeves.png'],diff,0,0.42505119999987073,17,85.71428571428571,
GUES1603,7,inv,30,pos30_id11_im10.bmp_pos30_id17_im14.bmp,['Im_OrlandoBloom.png', 'Im_BradPitt.png', 'Im_ElijahWood.png', 'Im_HughJackman.png', 'Im_PatrickDempsey.png', 'Im_DanielCraig.png', 'Im_RobertPattinson.png', 'Im_JustinTimberlake.png', 'Im_GeorgeClooney.png', 'Im_KeanuReeves.png'],diff,1,0.41673290000017005,18,85.71428571428571,
GUES1603,7,inv,120,pos120_id17_im9.bmp_pos120_id17_im14.bmp,['Im_OrlandoBloom.png', 'Im_BradPitt.png', 'Im_ElijahWood.png', 'Im_HughJackman.png', 'Im_PatrickDempsey.png', 'Im_DanielCraig.png', 'Im_RobertPattinson.png', 'Im_JustinTimberlake.png', 'Im_GeorgeClooney.png', 'Im_KeanuReeves.png'],same,1,0.4167613999998139,19,85.71428571428571,
GUES1603,7,inv,30,pos30_id7_im15.bmp_pos30_id16_im2.bmp,['Im_OrlandoBloom.png', 'Im_BradPitt.png', 'Im_ElijahWood.png', 'Im_HughJackman.png', 'Im_PatrickDempsey.png', 'Im_DanielCraig.png', 'Im_RobertPattinson.png', 'Im_JustinTimberlake.png', 'Im_GeorgeClooney.png', 'Im_KeanuReeves.png'],diff,1,0.4166797999996561,20,85.71428571428571,
GUES1603,7,inv,0,pos0_id11_im1.bmp_pos0_id11_im2.bmp,['Im_OrlandoBloom.png', 'Im_BradPitt.png', 'Im_ElijahWood.png', 'Im_HughJackman.png', 'Im_PatrickDempsey.png', 'Im_DanielCraig.png', 'Im_RobertPattinson.png', 'Im_JustinTimberlake.png', 'Im_GeorgeClooney.png', 'Im_KeanuReeves.png'],same,1,0.41689120000046387,21,85.71428571428571,
GUES1603,7,inv,0,pos0_id10_im18.bmp_pos0_id10_im1.bmp,['Im_OrlandoBloom.png', 'Im_BradPitt.png', 'Im_ElijahWood.png', 'Im_HughJackman.png', 'Im_PatrickDempsey.png', 'Im_DanielCraig.png', 'Im_RobertPattinson.png', 'Im_JustinTimberlake.png', 'Im_GeorgeClooney.png', 'Im_KeanuReeves.png'],same,1,0.42503209999995306,22,85.71428571428571,
GUES1603,7,inv,90,pos90_id8_im21.bmp_pos90_id4_im7.bmp,['Im_OrlandoBloom.png', 'Im_BradPitt.png', 'Im_ElijahWood.png', 'Im_HughJackman.png', 'Im_PatrickDempsey.png', 'Im_DanielCraig.png', 'Im_RobertPattinson.png', 'Im_JustinTimberlake.png', 'Im_GeorgeClooney.png', 'Im_KeanuReeves.png'],diff,1,0.41677419999996346,23,85.71428571428571,
GUES1603,7,inv,60,pos60_id19_im27.bmp_pos60_id11_im10.bmp,['Im_OrlandoBloom.png', 'Im_BradPitt.png', 'Im_ElijahWood.png', 'Im_HughJackman.png', 'Im_PatrickDempsey.png', 'Im_DanielCraig.png', 'Im_RobertPattinson.png', 'Im_JustinTimberlake.png', 'Im_GeorgeClooney.png', 'Im_KeanuReeves.png'],diff,1,0.4584704999997484,24,85.71428571428571,
GUES1603,7,inv,fs,posfs_id11_im10.bmp_posfs_id11_im1.bmp,['Im_OrlandoBloom.png', 'Im_BradPitt.png', 'Im_ElijahWood.png', 'Im_HughJackman.png', 'Im_PatrickDempsey.png', 'Im_DanielCraig.png', 'Im_RobertPattinson.png', 'Im_JustinTimberlake.png', 'Im_GeorgeClooney.png', 'Im_KeanuReeves.png'],same,1,0.4084415999996054,25,85.71428571428571,
GUES1603,8,pos,0,pos0_id6_im19.bmp_pos0_id17_im8.bmp,['Im_OrlandoBloom.png', 'Im_BradPitt.png', 'Im_ElijahWood.png', 'Im_HughJackman.png', 'Im_PatrickDempsey.png', 'Im_DanielCraig.png', 'Im_RobertPattinson.png', 'Im_JustinTimberlake.png', 'Im_GeorgeClooney.png', 'Im_KeanuReeves.png'],diff,1,0.4167367000000013,26,85.71428571428571,
GUES1603,8,pos,0,pos0_id4_im15.bmp_pos0_id4_im7.bmp,['Im_OrlandoBloom.png', 'Im_BradPitt.png', 'Im_ElijahWood.png', 'Im_HughJackman.png', 'Im_PatrickDempsey.png', 'Im_DanielCraig.png', 'Im_RobertPattinson.png', 'Im_JustinTimberlake.png', 'Im_GeorgeClooney.png', 'Im_KeanuReeves.png'],same,1,0.41678479999973206,27,85.71428571428571,
GUES1603,8,pos,90,pos90_id7_im14.bmp_pos90_id7_im26.bmp,['Im_OrlandoBloom.png', 'Im_BradPitt.png', 'Im_ElijahWood.png', 'Im_HughJackman.png', 'Im_PatrickDempsey.png', 'Im_DanielCraig.png', 'Im_RobertPattinson.png', 'Im_JustinTimberlake.png', 'Im_GeorgeClooney.png', 'Im_KeanuReeves.png'],same,1,0.4166900000000169,28,85.71428571428571,
GUES1603,8,pos,fs,posfs_id3_im17.bmp_posfs_id3_im8.bmp,['Im_OrlandoBloom.png', 'Im_BradPitt.png', 'Im_ElijahWood.png', 'Im_HughJackman.png', 'Im_PatrickDempsey.png', 'Im_DanielCraig.png', 'Im_RobertPattinson.png', 'Im_JustinTimberlake.png', 'Im_GeorgeClooney.png', 'Im_KeanuReeves.png'],same,1,0.43351869999969495,29,85.71428571428571,
GUES1603,8,pos,120,pos120_id16_im3.bmp_pos120_id19_im8.bmp,['Im_OrlandoBloom.png', 'Im_BradPitt.png', 'Im_ElijahWood.png', 'Im_HughJackman.png', 'Im_PatrickDempsey.png', 'Im_DanielCraig.png', 'Im_RobertPattinson.png', 'Im_JustinTimberlake.png', 'Im_GeorgeClooney.png', 'Im_KeanuReeves.png'],diff,1,0.4332663999994111,30,85.71428571428571,
GUES1603,8,pos,120,pos120_id19_im4.bmp_pos120_id8_im21.bmp,['Im_OrlandoBloom.png', 'Im_BradPitt.png', 'Im_ElijahWood.png', 'Im_HughJackman.png', 'Im_PatrickDempsey.png', 'Im_DanielCraig.png', 'Im_RobertPattinson.png', 'Im_JustinTimberlake.png', 'Im_GeorgeClooney.png', 'Im_KeanuReeves.png'],diff,1,0.42490580000048794,31,85.71428571428571,
GUES1603,8,pos,60,pos60_id17_im8.bmp_pos60_id6_im19.bmp,['Im_OrlandoBloom.png', 'Im_BradPitt.png', 'Im_ElijahWood.png', 'Im_HughJackman.png', 'Im_PatrickDempsey.png', 'Im_DanielCraig.png', 'Im_RobertPattinson.png', 'Im_JustinTimberlake.png', 'Im_GeorgeClooney.png', 'Im_KeanuReeves.png'],diff,1,0.42507149999983085,32,85.71428571428571,
GUES1603,8,pos,150,pos150_id16_im3.bmp_pos150_id19_im8.bmp,['Im_OrlandoBloom.png', 'Im_BradPitt.png', 'Im_ElijahWood.png', 'Im_HughJackman.png', 'Im_PatrickDempsey.png', 'Im_DanielCraig.png', 'Im_RobertPattinson.png', 'Im_JustinTimberlake.png', 'Im_GeorgeClooney.png', 'Im_KeanuReeves.png'],diff,1,0.416710299999977,33,85.71428571428571,
GUES1603,8,pos,90,pos90_id8_im21.bmp_pos90_id8_im20.bmp,['Im_OrlandoBloom.png', 'Im_BradPitt.png', 'Im_ElijahWood.png', 'Im_HughJackman.png', 'Im_PatrickDempsey.png', 'Im_DanielCraig.png', 'Im_RobertPattinson.png', 'Im_JustinTimberlake.png', 'Im_GeorgeClooney.png', 'Im_KeanuReeves.png'],same,1,0.416713499999787,34,85.71428571428571,
GUES1603,8,pos,150,pos150_id6_im19.bmp_pos150_id17_im9.bmp,['Im_OrlandoBloom.png', 'Im_BradPitt.png', 'Im_ElijahWood.png', 'Im_HughJackman.png', 'Im_PatrickDempsey.png', 'Im_DanielCraig.png', 'Im_RobertPattinson.png', 'Im_JustinTimberlake.png', 'Im_GeorgeClooney.png', 'Im_KeanuReeves.png'],diff,1,0.4335369999998875,35,85.71428571428571,
GUES1603,8,pos,30,pos30_id4_im20.bmp_pos30_id4_im7.bmp,['Im_OrlandoBloom.png', 'Im_BradPitt.png', 'Im_ElijahWood.png', 'Im_HughJackman.png', 'Im_PatrickDempsey.png', 'Im_DanielCraig.png', 'Im_RobertPattinson.png', 'Im_JustinTimberlake.png', 'Im_GeorgeClooney.png', 'Im_KeanuReeves.png'],same,1,0.41673679999985325,36,85.71428571428571,
GUES1603,8,pos,30,pos30_id8_im20.bmp_pos30_id3_im17.bmp,['Im_OrlandoBloom.png', 'Im_BradPitt.png', 'Im_ElijahWood.png', 'Im_HughJackman.png', 'Im_PatrickDempsey.png', 'Im_DanielCraig.png', 'Im_RobertPattinson.png', 'Im_JustinTimberlake.png', 'Im_GeorgeClooney.png', 'Im_KeanuReeves.png'],diff,1,0.41689769999993587,37,85.71428571428571,
GUES1603,8,pos,fs,posfs_id10_im18.bmp_posfs_id10_im1.bmp,['Im_OrlandoBloom.png', 'Im_BradPitt.png', 'Im_ElijahWood.png', 'Im_HughJackman.png', 'Im_PatrickDempsey.png', 'Im_DanielCraig.png', 'Im_RobertPattinson.png', 'Im_JustinTimberlake.png', 'Im_GeorgeClooney.png', 'Im_KeanuReeves.png'],same,1,0.4166496999996525,38,85.71428571428571,
GUES1603,8,pos,60,pos60_id19_im8.bmp_pos60_id19_im27.bmp,['Im_OrlandoBloom.png', 'Im_BradPitt.png', 'Im_ElijahWood.png', 'Im_HughJackman.png', 'Im_PatrickDempsey.png', 'Im_DanielCraig.png', 'Im_RobertPattinson.png', 'Im_JustinTimberlake.png', 'Im_GeorgeClooney.png', 'Im_KeanuReeves.png'],same,1,0.4164991000006921,39,85.71428571428571,
GUES1603,9,neg,120,neg120_id7_im26.bmp_neg120_id16_im19.bmp,['Im_OrlandoBloom.png', 'Im_BradPitt.png', 'Im_ElijahWood.png', 'Im_HughJackman.png', 'Im_PatrickDempsey.png', 'Im_DanielCraig.png', 'Im_RobertPattinson.png', 'Im_JustinTimberlake.png', 'Im_GeorgeClooney.png', 'Im_KeanuReeves.png'],diff,1,0.40839560000040365,1,92.85714285714286,
GUES1603,9,neg,150,neg150_id6_im18.bmp_neg150_id3_im8.bmp,['Im_OrlandoBloom.png', 'Im_BradPitt.png', 'Im_ElijahWood.png', 'Im_HughJackman.png', 'Im_PatrickDempsey.png', 'Im_DanielCraig.png', 'Im_RobertPattinson.png', 'Im_JustinTimberlake.png', 'Im_GeorgeClooney.png', 'Im_KeanuReeves.png'],diff,1,0.4249670999997761,2,92.85714285714286,
GUES1603,9,neg,90,neg90_id3_im17.bmp_neg90_id16_im19.bmp,['Im_OrlandoBloom.png', 'Im_BradPitt.png', 'Im_ElijahWood.png', 'Im_HughJackman.png', 'Im_PatrickDempsey.png', 'Im_DanielCraig.png', 'Im_RobertPattinson.png', 'Im_JustinTimberlake.png', 'Im_GeorgeClooney.png', 'Im_KeanuReeves.png'],same,0,0.4167612999999619,2,92.85714285714286,
GUES1603,9,neg,fs,negfs_id11_im10.bmp_negfs_id17_im14.bmp,['Im_OrlandoBloom.png', 'Im_BradPitt.png', 'Im_ElijahWood.png', 'Im_HughJackman.png', 'Im_PatrickDempsey.png', 'Im_DanielCraig.png', 'Im_RobertPattinson.png', 'Im_JustinTimberlake.png', 'Im_GeorgeClooney.png', 'Im_KeanuReeves.png'],diff,1,0.433424500000001,3,92.85714285714286,
GUES1603,9,neg,90,neg90_id4_im20.bmp_neg90_id4_im15.bmp,['Im_OrlandoBloom.png', 'Im_BradPitt.png', 'Im_ElijahWood.png', 'Im_HughJackman.png', 'Im_PatrickDempsey.png', 'Im_DanielCraig.png', 'Im_RobertPattinson.png', 'Im_JustinTimberlake.png', 'Im_GeorgeClooney.png', 'Im_KeanuReeves.png'],same,1,0.42518850000033126,4,92.85714285714286,
GUES1603,9,neg,0,neg0_id10_im1.bmp_neg0_id10_im18.bmp,['Im_OrlandoBloom.png', 'Im_BradPitt.png', 'Im_ElijahWood.png', 'Im_HughJackman.png', 'Im_PatrickDempsey.png', 'Im_DanielCraig.png', 'Im_RobertPattinson.png', 'Im_JustinTimberlake.png', 'Im_GeorgeClooney.png', 'Im_KeanuReeves.png'],same,1,0.4335158000003503,5,92.85714285714286,
GUES1603,9,neg,30,neg30_id3_im8.bmp_neg30_id3_im17.bmp,['Im_OrlandoBloom.png', 'Im_BradPitt.png', 'Im_ElijahWood.png', 'Im_HughJackman.png', 'Im_PatrickDempsey.png', 'Im_DanielCraig.png', 'Im_RobertPattinson.png', 'Im_JustinTimberlake.png', 'Im_GeorgeClooney.png', 'Im_KeanuReeves.png'],same,1,0.4084118999999191,6,92.85714285714286,
GUES1603,9,neg,150,neg150_id16_im2.bmp_neg150_id16_im3.bmp,['Im_OrlandoBloom.png', 'Im_BradPitt.png', 'Im_ElijahWood.png', 'Im_HughJackman.png', 'Im_PatrickDempsey.png', 'Im_DanielCraig.png', 'Im_RobertPattinson.png', 'Im_JustinTimberlake.png', 'Im_GeorgeClooney.png', 'Im_KeanuReeves.png'],same,1,0.4251211999999214,7,92.85714285714286,
GUES1603,9,neg,60,neg60_id17_im14.bmp_neg60_id17_im9.bmp,['Im_OrlandoBloom.png', 'Im_BradPitt.png', 'Im_ElijahWood.png', 'Im_HughJackman.png', 'Im_PatrickDempsey.png', 'Im_DanielCraig.png', 'Im_RobertPattinson.png', 'Im_JustinTimberlake.png', 'Im_GeorgeClooney.png', 'Im_KeanuReeves.png'],same,1,0.40847070000017993,8,92.85714285714286,
GUES1603,9,neg,0,neg0_id11_im1.bmp_neg0_id11_im2.bmp,['Im_OrlandoBloom.png', 'Im_BradPitt.png', 'Im_ElijahWood.png', 'Im_HughJackman.png', 'Im_PatrickDempsey.png', 'Im_DanielCraig.png', 'Im_RobertPattinson.png', 'Im_JustinTimberlake.png', 'Im_GeorgeClooney.png', 'Im_KeanuReeves.png'],same,1,0.4670674999997573,9,92.85714285714286,
GUES1603,9,neg,fs,negfs_id3_im8.bmp_negfs_id3_im6.bmp,['Im_OrlandoBloom.png', 'Im_BradPitt.png', 'Im_ElijahWood.png', 'Im_HughJackman.png', 'Im_PatrickDempsey.png', 'Im_DanielCraig.png', 'Im_RobertPattinson.png', 'Im_JustinTimberlake.png', 'Im_GeorgeClooney.png', 'Im_KeanuReeves.png'],same,1,0.4167370999994091,10,92.85714285714286,
GUES1603,9,neg,30,neg30_id10_im1.bmp_neg30_id7_im14.bmp,['Im_OrlandoBloom.png', 'Im_BradPitt.png', 'Im_ElijahWood.png', 'Im_HughJackman.png', 'Im_PatrickDempsey.png', 'Im_DanielCraig.png', 'Im_RobertPattinson.png', 'Im_JustinTimberlake.png', 'Im_GeorgeClooney.png', 'Im_KeanuReeves.png'],diff,1,0.40843429999949876,11,92.85714285714286,
GUES1603,9,neg,60,neg60_id6_im18.bmp_neg60_id6_im12.bmp,['Im_OrlandoBloom.png', 'Im_BradPitt.png', 'Im_ElijahWood.png', 'Im_HughJackman.png', 'Im_PatrickDempsey.png', 'Im_DanielCraig.png', 'Im_RobertPattinson.png', 'Im_JustinTimberlake.png', 'Im_GeorgeClooney.png', 'Im_KeanuReeves.png'],same,1,0.4168046000004324,12,92.85714285714286,
GUES1603,9,neg,120,neg120_id3_im6.bmp_neg120_id7_im26.bmp,['Im_OrlandoBloom.png', 'Im_BradPitt.png', 'Im_ElijahWood.png', 'Im_HughJackman.png', 'Im_PatrickDempsey.png', 'Im_DanielCraig.png', 'Im_RobertPattinson.png', 'Im_JustinTimberlake.png', 'Im_GeorgeClooney.png', 'Im_KeanuReeves.png'],diff,1,0.4248373000000356,13,92.85714285714286,
GUES1603,10,inv,90,pos90_id19_im27.bmp_pos90_id11_im10.bmp,['Im_OrlandoBloom.png', 'Im_BradPitt.png', 'Im_ElijahWood.png', 'Im_HughJackman.png', 'Im_PatrickDempsey.png', 'Im_DanielCraig.png', 'Im_RobertPattinson.png', 'Im_JustinTimberlake.png', 'Im_GeorgeClooney.png', 'Im_KeanuReeves.png'],diff,1,0.4250622999998086,14,92.85714285714286,
GUES1603,10,inv,0,pos0_id10_im18.bmp_pos0_id3_im8.bmp,['Im_OrlandoBloom.png', 'Im_BradPitt.png', 'Im_ElijahWood.png', 'Im_HughJackman.png', 'Im_PatrickDempsey.png', 'Im_DanielCraig.png', 'Im_RobertPattinson.png', 'Im_JustinTimberlake.png', 'Im_GeorgeClooney.png', 'Im_KeanuReeves.png'],diff,1,0.4250458999995317,15,92.85714285714286,
GUES1603,10,inv,30,pos30_id10_im18.bmp_pos30_id10_im1.bmp,['Im_OrlandoBloom.png', 'Im_BradPitt.png', 'Im_ElijahWood.png', 'Im_HughJackman.png', 'Im_PatrickDempsey.png', 'Im_DanielCraig.png', 'Im_RobertPattinson.png', 'Im_JustinTimberlake.png', 'Im_GeorgeClooney.png', 'Im_KeanuReeves.png'],diff,0,0.41673139999966224,15,92.85714285714286,
GUES1603,10,inv,60,pos60_id16_im2.bmp_pos60_id16_im19.bmp,['Im_OrlandoBloom.png', 'Im_BradPitt.png', 'Im_ElijahWood.png', 'Im_HughJackman.png', 'Im_PatrickDempsey.png', 'Im_DanielCraig.png', 'Im_RobertPattinson.png', 'Im_JustinTimberlake.png', 'Im_GeorgeClooney.png', 'Im_KeanuReeves.png'],same,1,2.933642300000429,16,92.85714285714286,
GUES1603,10,inv,120,pos120_id8_im20.bmp_pos120_id19_im4.bmp,['Im_OrlandoBloom.png', 'Im_BradPitt.png', 'Im_ElijahWood.png', 'Im_HughJackman.png', 'Im_PatrickDempsey.png', 'Im_DanielCraig.png', 'Im_RobertPattinson.png', 'Im_JustinTimberlake.png', 'Im_GeorgeClooney.png', 'Im_KeanuReeves.png'],same,0,0.4084020000000237,16,92.85714285714286,
GUES1603,10,inv,fs,posfs_id6_im12.bmp_posfs_id6_im19.bmp,['Im_OrlandoBloom.png', 'Im_BradPitt.png', 'Im_ElijahWood.png', 'Im_HughJackman.png', 'Im_PatrickDempsey.png', 'Im_DanielCraig.png', 'Im_RobertPattinson.png', 'Im_JustinTimberlake.png', 'Im_GeorgeClooney.png', 'Im_KeanuReeves.png'],same,1,0.4250988000003417,17,92.85714285714286,
GUES1603,10,inv,fs,posfs_id3_im17.bmp_posfs_id3_im6.bmp,['Im_OrlandoBloom.png', 'Im_BradPitt.png', 'Im_ElijahWood.png', 'Im_HughJackman.png', 'Im_PatrickDempsey.png', 'Im_DanielCraig.png', 'Im_RobertPattinson.png', 'Im_JustinTimberlake.png', 'Im_GeorgeClooney.png', 'Im_KeanuReeves.png'],diff,0,0.42523570000048494,17,92.85714285714286,
GUES1603,10,inv,120,pos120_id4_im15.bmp_pos120_id10_im1.bmp,['Im_OrlandoBloom.png', 'Im_BradPitt.png', 'Im_ElijahWood.png', 'Im_HughJackman.png', 'Im_PatrickDempsey.png', 'Im_DanielCraig.png', 'Im_RobertPattinson.png', 'Im_JustinTimberlake.png', 'Im_GeorgeClooney.png', 'Im_KeanuReeves.png'],same,0,0.41673850000006496,17,92.85714285714286,
GUES1603,10,inv,60,pos60_id17_im9.bmp_pos60_id17_im8.bmp,['Im_OrlandoBloom.png', 'Im_BradPitt.png', 'Im_ElijahWood.png', 'Im_HughJackman.png', 'Im_PatrickDempsey.png', 'Im_DanielCraig.png', 'Im_RobertPattinson.png', 'Im_JustinTimberlake.png', 'Im_GeorgeClooney.png', 'Im_KeanuReeves.png'],same,1,0.4166857999998683,18,92.85714285714286,
GUES1603,10,inv,0,pos0_id16_im19.bmp_pos0_id7_im26.bmp,['Im_OrlandoBloom.png', 'Im_BradPitt.png', 'Im_ElijahWood.png', 'Im_HughJackman.png', 'Im_PatrickDempsey.png', 'Im_DanielCraig.png', 'Im_RobertPattinson.png', 'Im_JustinTimberlake.png', 'Im_GeorgeClooney.png', 'Im_KeanuReeves.png'],diff,1,0.4167334999992818,19,92.85714285714286,
GUES1603,10,inv,150,pos150_id19_im8.bmp_pos150_id19_im4.bmp,['Im_OrlandoBloom.png', 'Im_BradPitt.png', 'Im_ElijahWood.png', 'Im_HughJackman.png', 'Im_PatrickDempsey.png', 'Im_DanielCraig.png', 'Im_RobertPattinson.png', 'Im_JustinTimberlake.png', 'Im_GeorgeClooney.png', 'Im_KeanuReeves.png'],same,1,0.42518310000014026,20,92.85714285714286,
GUES1603,10,inv,150,pos150_id3_im8.bmp_pos150_id3_im6.bmp,['Im_OrlandoBloom.png', 'Im_BradPitt.png', 'Im_ElijahWood.png', 'Im_HughJackman.png', 'Im_PatrickDempsey.png', 'Im_DanielCraig.png', 'Im_RobertPattinson.png', 'Im_JustinTimberlake.png', 'Im_GeorgeClooney.png', 'Im_KeanuReeves.png'],same,1,0.43335690000003524,21,92.85714285714286,
GUES1603,10,inv,90,pos90_id17_im8.bmp_pos90_id17_im14.bmp,['Im_OrlandoBloom.png', 'Im_BradPitt.png', 'Im_ElijahWood.png', 'Im_HughJackman.png', 'Im_PatrickDempsey.png', 'Im_DanielCraig.png', 'Im_RobertPattinson.png', 'Im_JustinTimberlake.png', 'Im_GeorgeClooney.png', 'Im_KeanuReeves.png'],same,1,0.5083838000000469,22,92.85714285714286,
GUES1603,10,inv,30,pos30_id6_im12.bmp_pos30_id6_im19.bmp,['Im_OrlandoBloom.png', 'Im_BradPitt.png', 'Im_ElijahWood.png', 'Im_HughJackman.png', 'Im_PatrickDempsey.png', 'Im_DanielCraig.png', 'Im_RobertPattinson.png', 'Im_JustinTimberlake.png', 'Im_GeorgeClooney.png', 'Im_KeanuReeves.png'],same,1,0.41674069999953645,23,92.85714285714286,
GUES1603,11,pos,90,pos90_id4_im20.bmp_pos90_id17_im9.bmp,['Im_OrlandoBloom.png', 'Im_BradPitt.png', 'Im_ElijahWood.png', 'Im_HughJackman.png', 'Im_PatrickDempsey.png', 'Im_DanielCraig.png', 'Im_RobertPattinson.png', 'Im_JustinTimberlake.png', 'Im_GeorgeClooney.png', 'Im_KeanuReeves.png'],diff,1,0.42506820000016887,24,92.85714285714286,
GUES1603,11,pos,fs,posfs_id7_im15.bmp_posfs_id16_im2.bmp,['Im_OrlandoBloom.png', 'Im_BradPitt.png', 'Im_ElijahWood.png', 'Im_HughJackman.png', 'Im_PatrickDempsey.png', 'Im_DanielCraig.png', 'Im_RobertPattinson.png', 'Im_JustinTimberlake.png', 'Im_GeorgeClooney.png', 'Im_KeanuReeves.png'],diff,1,0.4167318999998315,25,92.85714285714286,
GUES1603,11,pos,0,pos0_id10_im17.bmp_pos0_id17_im8.bmp,['Im_OrlandoBloom.png', 'Im_BradPitt.png', 'Im_ElijahWood.png', 'Im_HughJackman.png', 'Im_PatrickDempsey.png', 'Im_DanielCraig.png', 'Im_RobertPattinson.png', 'Im_JustinTimberlake.png', 'Im_GeorgeClooney.png', 'Im_KeanuReeves.png'],diff,1,0.4167998000002626,26,92.85714285714286,
GUES1603,11,pos,60,pos60_id4_im20.bmp_pos60_id17_im9.bmp,['Im_OrlandoBloom.png', 'Im_BradPitt.png', 'Im_ElijahWood.png', 'Im_HughJackman.png', 'Im_PatrickDempsey.png', 'Im_DanielCraig.png', 'Im_RobertPattinson.png', 'Im_JustinTimberlake.png', 'Im_GeorgeClooney.png', 'Im_KeanuReeves.png'],diff,1,0.42504989999997633,27,92.85714285714286,
GUES1603,11,pos,30,pos30_id8_im13.bmp_pos30_id16_im3.bmp,['Im_OrlandoBloom.png', 'Im_BradPitt.png', 'Im_ElijahWood.png', 'Im_HughJackman.png', 'Im_PatrickDempsey.png', 'Im_DanielCraig.png', 'Im_RobertPattinson.png', 'Im_JustinTimberlake.png', 'Im_GeorgeClooney.png', 'Im_KeanuReeves.png'],diff,1,0.40821710000000166,28,92.85714285714286,
GUES1603,11,pos,30,pos30_id11_im10.bmp_pos30_id19_im27.bmp,['Im_OrlandoBloom.png', 'Im_BradPitt.png', 'Im_ElijahWood.png', 'Im_HughJackman.png', 'Im_PatrickDempsey.png', 'Im_DanielCraig.png', 'Im_RobertPattinson.png', 'Im_JustinTimberlake.png', 'Im_GeorgeClooney.png', 'Im_KeanuReeves.png'],diff,1,0.4167067999997016,29,92.85714285714286,
GUES1603,11,pos,150,pos150_id16_im2.bmp_pos150_id11_im1.bmp,['Im_OrlandoBloom.png', 'Im_BradPitt.png', 'Im_ElijahWood.png', 'Im_HughJackman.png', 'Im_PatrickDempsey.png', 'Im_DanielCraig.png', 'Im_RobertPattinson.png', 'Im_JustinTimberlake.png', 'Im_GeorgeClooney.png', 'Im_KeanuReeves.png'],diff,1,0.41696779999983846,30,92.85714285714286,
GUES1603,11,pos,90,pos90_id19_im4.bmp_pos90_id8_im21.bmp,['Im_OrlandoBloom.png', 'Im_BradPitt.png', 'Im_ElijahWood.png', 'Im_HughJackman.png', 'Im_PatrickDempsey.png', 'Im_DanielCraig.png', 'Im_RobertPattinson.png', 'Im_JustinTimberlake.png', 'Im_GeorgeClooney.png', 'Im_KeanuReeves.png'],diff,1,0.42501629999969737,31,92.85714285714286,
GUES1603,11,pos,150,pos150_id4_im20.bmp_pos150_id17_im9.bmp,['Im_OrlandoBloom.png', 'Im_BradPitt.png', 'Im_ElijahWood.png', 'Im_HughJackman.png', 'Im_PatrickDempsey.png', 'Im_DanielCraig.png', 'Im_RobertPattinson.png', 'Im_JustinTimberlake.png', 'Im_GeorgeClooney.png', 'Im_KeanuReeves.png'],diff,1,0.4333575999999084,32,92.85714285714286,
GUES1603,11,pos,0,pos0_id16_im3.bmp_pos0_id16_im19.bmp,['Im_OrlandoBloom.png', 'Im_BradPitt.png', 'Im_ElijahWood.png', 'Im_HughJackman.png', 'Im_PatrickDempsey.png', 'Im_DanielCraig.png', 'Im_RobertPattinson.png', 'Im_JustinTimberlake.png', 'Im_GeorgeClooney.png', 'Im_KeanuReeves.png'],diff,0,0.4250395999997636,32,92.85714285714286,
GUES1603,11,pos,120,pos120_id10_im17.bmp_pos120_id4_im20.bmp,['Im_OrlandoBloom.png', 'Im_BradPitt.png', 'Im_ElijahWood.png', 'Im_HughJackman.png', 'Im_PatrickDempsey.png', 'Im_DanielCraig.png', 'Im_RobertPattinson.png', 'Im_JustinTimberlake.png', 'Im_GeorgeClooney.png', 'Im_KeanuReeves.png'],diff,1,0.4251145999996879,33,92.85714285714286,
GUES1603,11,pos,60,pos60_id7_im26.bmp_pos60_id7_im14.bmp,['Im_OrlandoBloom.png', 'Im_BradPitt.png', 'Im_ElijahWood.png', 'Im_HughJackman.png', 'Im_PatrickDempsey.png', 'Im_DanielCraig.png', 'Im_RobertPattinson.png', 'Im_JustinTimberlake.png', 'Im_GeorgeClooney.png', 'Im_KeanuReeves.png'],same,1,0.4085155000002487,34,92.85714285714286,
GUES1603,11,pos,120,pos120_id11_im2.bmp_pos120_id4_im15.bmp,['Im_OrlandoBloom.png', 'Im_BradPitt.png', 'Im_ElijahWood.png', 'Im_HughJackman.png', 'Im_PatrickDempsey.png', 'Im_DanielCraig.png', 'Im_RobertPattinson.png', 'Im_JustinTimberlake.png', 'Im_GeorgeClooney.png', 'Im_KeanuReeves.png'],diff,1,0.4165921999992861,35,92.85714285714286,
GUES1603,11,pos,fs,posfs_id16_im2.bmp_posfs_id16_im19.bmp,['Im_OrlandoBloom.png', 'Im_BradPitt.png', 'Im_ElijahWood.png', 'Im_HughJackman.png', 'Im_PatrickDempsey.png', 'Im_DanielCraig.png', 'Im_RobertPattinson.png', 'Im_JustinTimberlake.png', 'Im_GeorgeClooney.png', 'Im_KeanuReeves.png'],same,1,0.42517789999965316,36,92.85714285714286,
GUES1603,12,neg,fs,negfs_id4_im7.bmp_negfs_id8_im21.bmp,['Im_OrlandoBloom.png', 'Im_BradPitt.png', 'Im_ElijahWood.png', 'Im_HughJackman.png', 'Im_PatrickDempsey.png', 'Im_DanielCraig.png', 'Im_RobertPattinson.png', 'Im_JustinTimberlake.png', 'Im_GeorgeClooney.png', 'Im_KeanuReeves.png'],same,0,0.42510180000044784,0,85.71428571428571,
GUES1603,12,neg,0,neg0_id4_im7.bmp_neg0_id4_im20.bmp,['Im_OrlandoBloom.png', 'Im_BradPitt.png', 'Im_ElijahWood.png', 'Im_HughJackman.png', 'Im_PatrickDempsey.png', 'Im_DanielCraig.png', 'Im_RobertPattinson.png', 'Im_JustinTimberlake.png', 'Im_GeorgeClooney.png', 'Im_KeanuReeves.png'],same,1,0.41674070000044594,1,85.71428571428571,
GUES1603,12,neg,0,neg0_id7_im15.bmp_neg0_id3_im6.bmp,['Im_OrlandoBloom.png', 'Im_BradPitt.png', 'Im_ElijahWood.png', 'Im_HughJackman.png', 'Im_PatrickDempsey.png', 'Im_DanielCraig.png', 'Im_RobertPattinson.png', 'Im_JustinTimberlake.png', 'Im_GeorgeClooney.png', 'Im_KeanuReeves.png'],diff,1,0.42495710000002873,2,85.71428571428571,
GUES1603,12,neg,90,neg90_id7_im15.bmp_neg90_id16_im2.bmp,['Im_OrlandoBloom.png', 'Im_BradPitt.png', 'Im_ElijahWood.png', 'Im_HughJackman.png', 'Im_PatrickDempsey.png', 'Im_DanielCraig.png', 'Im_RobertPattinson.png', 'Im_JustinTimberlake.png', 'Im_GeorgeClooney.png', 'Im_KeanuReeves.png'],diff,1,0.5250647000002573,3,85.71428571428571,
GUES1603,12,neg,fs,negfs_id10_im17.bmp_negfs_id4_im20.bmp,['Im_OrlandoBloom.png', 'Im_BradPitt.png', 'Im_ElijahWood.png', 'Im_HughJackman.png', 'Im_PatrickDempsey.png', 'Im_DanielCraig.png', 'Im_RobertPattinson.png', 'Im_JustinTimberlake.png', 'Im_GeorgeClooney.png', 'Im_KeanuReeves.png'],diff,1,0.4167883999998594,4,85.71428571428571,
GUES1603,12,neg,90,neg90_id4_im7.bmp_neg90_id4_im20.bmp,['Im_OrlandoBloom.png', 'Im_BradPitt.png', 'Im_ElijahWood.png', 'Im_HughJackman.png', 'Im_PatrickDempsey.png', 'Im_DanielCraig.png', 'Im_RobertPattinson.png', 'Im_JustinTimberlake.png', 'Im_GeorgeClooney.png', 'Im_KeanuReeves.png'],same,1,0.4168156000005183,5,85.71428571428571,
GUES1603,12,neg,60,neg60_id8_im20.bmp_neg60_id8_im13.bmp,['Im_OrlandoBloom.png', 'Im_BradPitt.png', 'Im_ElijahWood.png', 'Im_HughJackman.png', 'Im_PatrickDempsey.png', 'Im_DanielCraig.png', 'Im_RobertPattinson.png', 'Im_JustinTimberlake.png', 'Im_GeorgeClooney.png', 'Im_KeanuReeves.png'],same,1,0.41683240000020305,6,85.71428571428571,
GUES1603,12,neg,120,neg120_id8_im21.bmp_neg120_id8_im13.bmp,['Im_OrlandoBloom.png', 'Im_BradPitt.png', 'Im_ElijahWood.png', 'Im_HughJackman.png', 'Im_PatrickDempsey.png', 'Im_DanielCraig.png', 'Im_RobertPattinson.png', 'Im_JustinTimberlake.png', 'Im_GeorgeClooney.png', 'Im_KeanuReeves.png'],same,1,0.4083613000002515,7,85.71428571428571,
GUES1603,12,neg,150,neg150_id19_im8.bmp_neg150_id16_im3.bmp,['Im_OrlandoBloom.png', 'Im_BradPitt.png', 'Im_ElijahWood.png', 'Im_HughJackman.png', 'Im_PatrickDempsey.png', 'Im_DanielCraig.png', 'Im_RobertPattinson.png', 'Im_JustinTimberlake.png', 'Im_GeorgeClooney.png', 'Im_KeanuReeves.png'],same,0,0.4333305999998629,7,85.71428571428571,
GUES1603,12,neg,30,neg30_id6_im19.bmp_neg30_id6_im18.bmp,['Im_OrlandoBloom.png', 'Im_BradPitt.png', 'Im_ElijahWood.png', 'Im_HughJackman.png', 'Im_PatrickDempsey.png', 'Im_DanielCraig.png', 'Im_RobertPattinson.png', 'Im_JustinTimberlake.png', 'Im_GeorgeClooney.png', 'Im_KeanuReeves.png'],same,1,0.4249945999999909,8,85.71428571428571,
GUES1603,12,neg,30,neg30_id16_im19.bmp_neg30_id7_im26.bmp,['Im_OrlandoBloom.png', 'Im_BradPitt.png', 'Im_ElijahWood.png', 'Im_HughJackman.png', 'Im_PatrickDempsey.png', 'Im_DanielCraig.png', 'Im_RobertPattinson.png', 'Im_JustinTimberlake.png', 'Im_GeorgeClooney.png', 'Im_KeanuReeves.png'],diff,1,0.416748099999495,9,85.71428571428571,
GUES1603,12,neg,150,neg150_id10_im1.bmp_neg150_id10_im18.bmp,['Im_OrlandoBloom.png', 'Im_BradPitt.png', 'Im_ElijahWood.png', 'Im_HughJackman.png', 'Im_PatrickDempsey.png', 'Im_DanielCraig.png', 'Im_RobertPattinson.png', 'Im_JustinTimberlake.png', 'Im_GeorgeClooney.png', 'Im_KeanuReeves.png'],same,1,0.4167846999998801,10,85.71428571428571,
GUES1603,12,neg,60,neg60_id7_im14.bmp_neg60_id7_im15.bmp,['Im_OrlandoBloom.png', 'Im_BradPitt.png', 'Im_ElijahWood.png', 'Im_HughJackman.png', 'Im_PatrickDempsey.png', 'Im_DanielCraig.png', 'Im_RobertPattinson.png', 'Im_JustinTimberlake.png', 'Im_GeorgeClooney.png', 'Im_KeanuReeves.png'],same,1,0.4167609000005541,11,85.71428571428571,
GUES1603,12,neg,120,neg120_id7_im15.bmp_neg120_id16_im2.bmp,['Im_OrlandoBloom.png', 'Im_BradPitt.png', 'Im_ElijahWood.png', 'Im_HughJackman.png', 'Im_PatrickDempsey.png', 'Im_DanielCraig.png', 'Im_RobertPattinson.png', 'Im_JustinTimberlake.png', 'Im_GeorgeClooney.png', 'Im_KeanuReeves.png'],diff,1,0.42496829999981856,12,85.71428571428571,
GUES1603,13,pos,120,pos120_id3_im17.bmp_pos120_id8_im20.bmp,['Im_OrlandoBloom.png', 'Im_BradPitt.png', 'Im_ElijahWood.png', 'Im_HughJackman.png', 'Im_PatrickDempsey.png', 'Im_DanielCraig.png', 'Im_RobertPattinson.png', 'Im_JustinTimberlake.png', 'Im_GeorgeClooney.png', 'Im_KeanuReeves.png'],diff,1,0.41676920000008977,13,85.71428571428571,
GUES1603,13,pos,0,pos0_id11_im1.bmp_pos0_id11_im2.bmp,['Im_OrlandoBloom.png', 'Im_BradPitt.png', 'Im_ElijahWood.png', 'Im_HughJackman.png', 'Im_PatrickDempsey.png', 'Im_DanielCraig.png', 'Im_RobertPattinson.png', 'Im_JustinTimberlake.png', 'Im_GeorgeClooney.png', 'Im_KeanuReeves.png'],diff,0,0.4249276999998983,13,85.71428571428571,
GUES1603,13,pos,30,pos30_id8_im20.bmp_pos30_id8_im13.bmp,['Im_OrlandoBloom.png', 'Im_BradPitt.png', 'Im_ElijahWood.png', 'Im_HughJackman.png', 'Im_PatrickDempsey.png', 'Im_DanielCraig.png', 'Im_RobertPattinson.png', 'Im_JustinTimberlake.png', 'Im_GeorgeClooney.png', 'Im_KeanuReeves.png'],diff,0,0.41682589999982156,13,85.71428571428571,
GUES1603,13,pos,90,pos90_id7_im15.bmp_pos90_id3_im6.bmp,['Im_OrlandoBloom.png', 'Im_BradPitt.png', 'Im_ElijahWood.png', 'Im_HughJackman.png', 'Im_PatrickDempsey.png', 'Im_DanielCraig.png', 'Im_RobertPattinson.png', 'Im_JustinTimberlake.png', 'Im_GeorgeClooney.png', 'Im_KeanuReeves.png'],diff,1,0.42499320000024454,14,85.71428571428571,
GUES1603,13,pos,150,pos150_id19_im4.bmp_pos150_id19_im8.bmp,['Im_OrlandoBloom.png', 'Im_BradPitt.png', 'Im_ElijahWood.png', 'Im_HughJackman.png', 'Im_PatrickDempsey.png', 'Im_DanielCraig.png', 'Im_RobertPattinson.png', 'Im_JustinTimberlake.png', 'Im_GeorgeClooney.png', 'Im_KeanuReeves.png'],same,1,0.41677749999962543,15,85.71428571428571,
GUES1603,13,pos,30,pos30_id6_im12.bmp_pos30_id19_im27.bmp,['Im_OrlandoBloom.png', 'Im_BradPitt.png', 'Im_ElijahWood.png', 'Im_HughJackman.png', 'Im_PatrickDempsey.png', 'Im_DanielCraig.png', 'Im_RobertPattinson.png', 'Im_JustinTimberlake.png', 'Im_GeorgeClooney.png', 'Im_KeanuReeves.png'],diff,1,0.4250780999991548,16,85.71428571428571,
GUES1603,13,pos,60,pos60_id10_im17.bmp_pos60_id10_im18.bmp,['Im_OrlandoBloom.png', 'Im_BradPitt.png', 'Im_ElijahWood.png', 'Im_HughJackman.png', 'Im_PatrickDempsey.png', 'Im_DanielCraig.png', 'Im_RobertPattinson.png', 'Im_JustinTimberlake.png', 'Im_GeorgeClooney.png', 'Im_KeanuReeves.png'],same,1,0.4250752999996621,17,85.71428571428571,
GUES1603,13,pos,90,pos90_id8_im20.bmp_pos90_id8_im13.bmp,['Im_OrlandoBloom.png', 'Im_BradPitt.png', 'Im_ElijahWood.png', 'Im_HughJackman.png', 'Im_PatrickDempsey.png', 'Im_DanielCraig.png', 'Im_RobertPattinson.png', 'Im_JustinTimberlake.png', 'Im_GeorgeClooney.png', 'Im_KeanuReeves.png'],same,1,0.4167326000006142,18,85.71428571428571,
GUES1603,13,pos,60,pos60_id6_im12.bmp_pos60_id6_im19.bmp,['Im_OrlandoBloom.png', 'Im_BradPitt.png', 'Im_ElijahWood.png', 'Im_HughJackman.png', 'Im_PatrickDempsey.png', 'Im_DanielCraig.png', 'Im_RobertPattinson.png', 'Im_JustinTimberlake.png', 'Im_GeorgeClooney.png', 'Im_KeanuReeves.png'],same,1,0.4167467999996006,19,85.71428571428571,
GUES1603,13,pos,0,pos0_id10_im18.bmp_pos0_id10_im17.bmp,['Im_OrlandoBloom.png', 'Im_BradPitt.png', 'Im_ElijahWood.png', 'Im_HughJackman.png', 'Im_PatrickDempsey.png', 'Im_DanielCraig.png', 'Im_RobertPattinson.png', 'Im_JustinTimberlake.png', 'Im_GeorgeClooney.png', 'Im_KeanuReeves.png'],same,1,0.53360370000064,20,85.71428571428571,
GUES1603,13,pos,fs,posfs_id6_im18.bmp_posfs_id3_im8.bmp,['Im_OrlandoBloom.png', 'Im_BradPitt.png', 'Im_ElijahWood.png', 'Im_HughJackman.png', 'Im_PatrickDempsey.png', 'Im_DanielCraig.png', 'Im_RobertPattinson.png', 'Im_JustinTimberlake.png', 'Im_GeorgeClooney.png', 'Im_KeanuReeves.png'],diff,1,0.4334693000000698,21,85.71428571428571,
GUES1603,13,pos,150,pos150_id7_im26.bmp_pos150_id16_im19.bmp,['Im_OrlandoBloom.png', 'Im_BradPitt.png', 'Im_ElijahWood.png', 'Im_HughJackman.png', 'Im_PatrickDempsey.png', 'Im_DanielCraig.png', 'Im_RobertPattinson.png', 'Im_JustinTimberlake.png', 'Im_GeorgeClooney.png', 'Im_KeanuReeves.png'],diff,1,0.43323899999995774,22,85.71428571428571,
GUES1603,13,pos,fs,posfs_id19_im4.bmp_posfs_id19_im8.bmp,['Im_OrlandoBloom.png', 'Im_BradPitt.png', 'Im_ElijahWood.png', 'Im_HughJackman.png', 'Im_PatrickDempsey.png', 'Im_DanielCraig.png', 'Im_RobertPattinson.png', 'Im_JustinTimberlake.png', 'Im_GeorgeClooney.png', 'Im_KeanuReeves.png'],same,1,0.40840400000070076,23,85.71428571428571,
GUES1603,13,pos,120,pos120_id4_im15.bmp_pos120_id4_im20.bmp,['Im_OrlandoBloom.png', 'Im_BradPitt.png', 'Im_ElijahWood.png', 'Im_HughJackman.png', 'Im_PatrickDempsey.png', 'Im_DanielCraig.png', 'Im_RobertPattinson.png', 'Im_JustinTimberlake.png', 'Im_GeorgeClooney.png', 'Im_KeanuReeves.png'],same,1,0.4083976000001712,24,85.71428571428571,
GUES1603,14,inv,30,pos30_id19_im27.bmp_pos30_id11_im10.bmp,['Im_OrlandoBloom.png', 'Im_BradPitt.png', 'Im_ElijahWood.png', 'Im_HughJackman.png', 'Im_PatrickDempsey.png', 'Im_DanielCraig.png', 'Im_RobertPattinson.png', 'Im_JustinTimberlake.png', 'Im_GeorgeClooney.png', 'Im_KeanuReeves.png'],diff,1,0.4920483999994758,25,85.71428571428571,
GUES1603,14,inv,0,pos0_id8_im20.bmp_pos0_id8_im21.bmp,['Im_OrlandoBloom.png', 'Im_BradPitt.png', 'Im_ElijahWood.png', 'Im_HughJackman.png', 'Im_PatrickDempsey.png', 'Im_DanielCraig.png', 'Im_RobertPattinson.png', 'Im_JustinTimberlake.png', 'Im_GeorgeClooney.png', 'Im_KeanuReeves.png'],same,1,0.4331824000000779,26,85.71428571428571,
GUES1603,14,inv,150,pos150_id19_im27.bmp_pos150_id19_im8.bmp,['Im_OrlandoBloom.png', 'Im_BradPitt.png', 'Im_ElijahWood.png', 'Im_HughJackman.png', 'Im_PatrickDempsey.png', 'Im_DanielCraig.png', 'Im_RobertPattinson.png', 'Im_JustinTimberlake.png', 'Im_GeorgeClooney.png', 'Im_KeanuReeves.png'],same,1,0.4167018999996799,27,85.71428571428571,
GUES1603,14,inv,fs,posfs_id3_im8.bmp_posfs_id3_im6.bmp,['Im_OrlandoBloom.png', 'Im_BradPitt.png', 'Im_ElijahWood.png', 'Im_HughJackman.png', 'Im_PatrickDempsey.png', 'Im_DanielCraig.png', 'Im_RobertPattinson.png', 'Im_JustinTimberlake.png', 'Im_GeorgeClooney.png', 'Im_KeanuReeves.png'],diff,0,0.416734099999303,27,85.71428571428571,
GUES1603,14,inv,90,pos90_id16_im2.bmp_pos90_id7_im15.bmp,['Im_OrlandoBloom.png', 'Im_BradPitt.png', 'Im_ElijahWood.png', 'Im_HughJackman.png', 'Im_PatrickDempsey.png', 'Im_DanielCraig.png', 'Im_RobertPattinson.png', 'Im_JustinTimberlake.png', 'Im_GeorgeClooney.png', 'Im_KeanuReeves.png'],same,0,0.4166666000000987,27,85.71428571428571,
GUES1603,14,inv,0,pos0_id4_im15.bmp_pos0_id4_im20.bmp,['Im_OrlandoBloom.png', 'Im_BradPitt.png', 'Im_ElijahWood.png', 'Im_HughJackman.png', 'Im_PatrickDempsey.png', 'Im_DanielCraig.png', 'Im_RobertPattinson.png', 'Im_JustinTimberlake.png', 'Im_GeorgeClooney.png', 'Im_KeanuReeves.png'],diff,0,0.42490770000040357,27,85.71428571428571,
GUES1603,14,inv,60,pos60_id4_im15.bmp_pos60_id4_im7.bmp,['Im_OrlandoBloom.png', 'Im_BradPitt.png', 'Im_ElijahWood.png', 'Im_HughJackman.png', 'Im_PatrickDempsey.png', 'Im_DanielCraig.png', 'Im_RobertPattinson.png', 'Im_JustinTimberlake.png', 'Im_GeorgeClooney.png', 'Im_KeanuReeves.png'],same,1,0.41664940000009665,28,85.71428571428571,
GUES1603,14,inv,120,pos120_id4_im7.bmp_pos120_id4_im20.bmp,['Im_OrlandoBloom.png', 'Im_BradPitt.png', 'Im_ElijahWood.png', 'Im_HughJackman.png', 'Im_PatrickDempsey.png', 'Im_DanielCraig.png', 'Im_RobertPattinson.png', 'Im_JustinTimberlake.png', 'Im_GeorgeClooney.png', 'Im_KeanuReeves.png'],same,1,0.42506409999987227,29,85.71428571428571,
GUES1603,14,inv,30,pos30_id19_im4.bmp_pos30_id8_im21.bmp,['Im_OrlandoBloom.png', 'Im_BradPitt.png', 'Im_ElijahWood.png', 'Im_HughJackman.png', 'Im_PatrickDempsey.png', 'Im_DanielCraig.png', 'Im_RobertPattinson.png', 'Im_JustinTimberlake.png', 'Im_GeorgeClooney.png', 'Im_KeanuReeves.png'],diff,1,0.41678890000002866,30,85.71428571428571,
GUES1603,14,inv,fs,posfs_id10_im18.bmp_posfs_id10_im1.bmp,['Im_OrlandoBloom.png', 'Im_BradPitt.png', 'Im_ElijahWood.png', 'Im_HughJackman.png', 'Im_PatrickDempsey.png', 'Im_DanielCraig.png', 'Im_RobertPattinson.png', 'Im_JustinTimberlake.png', 'Im_GeorgeClooney.png', 'Im_KeanuReeves.png'],same,1,0.43358400000033726,31,85.71428571428571,
GUES1603,14,inv,120,pos120_id10_im1.bmp_pos120_id7_im14.bmp,['Im_OrlandoBloom.png', 'Im_BradPitt.png', 'Im_ElijahWood.png', 'Im_HughJackman.png', 'Im_PatrickDempsey.png', 'Im_DanielCraig.png', 'Im_RobertPattinson.png', 'Im_JustinTimberlake.png', 'Im_GeorgeClooney.png', 'Im_KeanuReeves.png'],diff,1,0.4169571000002179,32,85.71428571428571,
GUES1603,14,inv,150,pos150_id11_im2.bmp_pos150_id4_im15.bmp,['Im_OrlandoBloom.png', 'Im_BradPitt.png', 'Im_ElijahWood.png', 'Im_HughJackman.png', 'Im_PatrickDempsey.png', 'Im_DanielCraig.png', 'Im_RobertPattinson.png', 'Im_JustinTimberlake.png', 'Im_GeorgeClooney.png', 'Im_KeanuReeves.png'],diff,1,0.5000823999998829,33,85.71428571428571,
GUES1603,14,inv,90,pos90_id7_im26.bmp_pos90_id16_im19.bmp,['Im_OrlandoBloom.png', 'Im_BradPitt.png', 'Im_ElijahWood.png', 'Im_HughJackman.png', 'Im_PatrickDempsey.png', 'Im_DanielCraig.png', 'Im_RobertPattinson.png', 'Im_JustinTimberlake.png', 'Im_GeorgeClooney.png', 'Im_KeanuReeves.png'],diff,1,0.4587422000004153,34,85.71428571428571,
GUES1603,14,inv,60,pos60_id8_im13.bmp_pos60_id6_im18.bmp,['Im_OrlandoBloom.png', 'Im_BradPitt.png', 'Im_ElijahWood.png', 'Im_HughJackman.png', 'Im_PatrickDempsey.png', 'Im_DanielCraig.png', 'Im_RobertPattinson.png', 'Im_JustinTimberlake.png', 'Im_GeorgeClooney.png', 'Im_KeanuReeves.png'],diff,1,0.42507819999991625,35,85.71428571428571,
GUES1603,15,neg,fs,negfs_id11_im1.bmp_negfs_id16_im2.bmp,['Im_OrlandoBloom.png', 'Im_BradPitt.png', 'Im_ElijahWood.png', 'Im_HughJackman.png', 'Im_PatrickDempsey.png', 'Im_DanielCraig.png', 'Im_RobertPattinson.png', 'Im_JustinTimberlake.png', 'Im_GeorgeClooney.png', 'Im_KeanuReeves.png'],diff,1,0.42493389999981446,1,83.33333333333333,
GUES1603,15,neg,90,neg90_id16_im2.bmp_neg90_id11_im1.bmp,['Im_OrlandoBloom.png', 'Im_BradPitt.png', 'Im_ElijahWood.png', 'Im_HughJackman.png', 'Im_PatrickDempsey.png', 'Im_DanielCraig.png', 'Im_RobertPattinson.png', 'Im_JustinTimberlake.png', 'Im_GeorgeClooney.png', 'Im_KeanuReeves.png'],same,0,0.6584038999999393,1,83.33333333333333,
GUES1603,15,neg,fs,negfs_id6_im18.bmp_negfs_id3_im8.bmp,['Im_OrlandoBloom.png', 'Im_BradPitt.png', 'Im_ElijahWood.png', 'Im_HughJackman.png', 'Im_PatrickDempsey.png', 'Im_DanielCraig.png', 'Im_RobertPattinson.png', 'Im_JustinTimberlake.png', 'Im_GeorgeClooney.png', 'Im_KeanuReeves.png'],diff,1,0.40840580000076443,2,83.33333333333333,
GUES1603,15,neg,30,neg30_id6_im12.bmp_neg30_id6_im18.bmp,['Im_OrlandoBloom.png', 'Im_BradPitt.png', 'Im_ElijahWood.png', 'Im_HughJackman.png', 'Im_PatrickDempsey.png', 'Im_DanielCraig.png', 'Im_RobertPattinson.png', 'Im_JustinTimberlake.png', 'Im_GeorgeClooney.png', 'Im_KeanuReeves.png'],same,1,0.4251578999992489,3,83.33333333333333,
