Sujet,Trial,Condition,Filter,Imname,Actor0,Actor1,Actor2,Actor3,Actor4,Actor5,Actor6,Actor7,Actor8,Actor9,Answer,Accu,RT,Score,Scoreperc, 
GUES1603,train,pos,fs,posfs_id6_im12.bmp_posfs_id6_im18.bmp,['Im_OrlandoBloom.png', 'Im_ElijahWood.png', 'Im_RobertPattinson.png', 'Im_GeorgeClooney.png', 'Im_BradPitt.png', 'Im_DanielCraig.png', 'Im_PatrickDempsey.png', 'Im_HughJackman.png', 'Im_JustinTimberlake.png', 'Im_KeanuReeves.png'],same,1,2.3998695000000225,1,0,
GUES1603,train,pos,30,pos30_id19_im8.bmp_pos30_id19_im27.bmp,['Im_OrlandoBloom.png', 'Im_ElijahWood.png', 'Im_RobertPattinson.png', 'Im_GeorgeClooney.png', 'Im_BradPitt.png', 'Im_DanielCraig.png', 'Im_PatrickDempsey.png', 'Im_HughJackman.png', 'Im_JustinTimberlake.png', 'Im_KeanuReeves.png'],same,1,0.4167923999998493,2,0,
GUES1603,train,pos,120,pos120_id4_im7.bmp_pos120_id4_im15.bmp,['Im_OrlandoBloom.png', 'Im_ElijahWood.png', 'Im_RobertPattinson.png', 'Im_GeorgeClooney.png', 'Im_BradPitt.png', 'Im_DanielCraig.png', 'Im_PatrickDempsey.png', 'Im_HughJackman.png', 'Im_JustinTimberlake.png', 'Im_KeanuReeves.png'],same,1,0.4083783000000949,3,0,
GUES1603,train,pos,0,pos0_id16_im19.bmp_pos0_id7_im26.bmp,['Im_OrlandoBloom.png', 'Im_ElijahWood.png', 'Im_RobertPattinson.png', 'Im_GeorgeClooney.png', 'Im_BradPitt.png', 'Im_DanielCraig.png', 'Im_PatrickDempsey.png', 'Im_HughJackman.png', 'Im_JustinTimberlake.png', 'Im_KeanuReeves.png'],diff,1,0.41687789999969027,4,0,
GUES1603,train,pos,150,pos150_id4_im15.bmp_pos150_id10_im1.bmp,['Im_OrlandoBloom.png', 'Im_ElijahWood.png', 'Im_RobertPattinson.png', 'Im_GeorgeClooney.png', 'Im_BradPitt.png', 'Im_DanielCraig.png', 'Im_PatrickDempsey.png', 'Im_HughJackman.png', 'Im_JustinTimberlake.png', 'Im_KeanuReeves.png'],diff,1,0.49174489999995785,5,0,
GUES1603,train,pos,90,pos90_id7_im14.bmp_pos90_id10_im1.bmp,['Im_OrlandoBloom.png', 'Im_ElijahWood.png', 'Im_RobertPattinson.png', 'Im_GeorgeClooney.png', 'Im_BradPitt.png', 'Im_DanielCraig.png', 'Im_PatrickDempsey.png', 'Im_HughJackman.png', 'Im_JustinTimberlake.png', 'Im_KeanuReeves.png'],diff,1,0.9331961000002593,6,0,
GUES1603,train,pos,60,pos60_id3_im6.bmp_pos60_id3_im17.bmp,['Im_OrlandoBloom.png', 'Im_ElijahWood.png', 'Im_RobertPattinson.png', 'Im_GeorgeClooney.png', 'Im_BradPitt.png', 'Im_DanielCraig.png', 'Im_PatrickDempsey.png', 'Im_HughJackman.png', 'Im_JustinTimberlake.png', 'Im_KeanuReeves.png'],same,1,0.40000140000029205,7,0,
GUES1603,train,pos,60,pos60_id11_im10.bmp_pos60_id11_im2.bmp,['Im_OrlandoBloom.png', 'Im_ElijahWood.png', 'Im_RobertPattinson.png', 'Im_GeorgeClooney.png', 'Im_BradPitt.png', 'Im_DanielCraig.png', 'Im_PatrickDempsey.png', 'Im_HughJackman.png', 'Im_JustinTimberlake.png', 'Im_KeanuReeves.png'],same,1,0.5001471999999012,8,0,
GUES1603,train,pos,0,pos0_id6_im12.bmp_pos0_id7_im14.bmp,['Im_OrlandoBloom.png', 'Im_ElijahWood.png', 'Im_RobertPattinson.png', 'Im_GeorgeClooney.png', 'Im_BradPitt.png', 'Im_DanielCraig.png', 'Im_PatrickDempsey.png', 'Im_HughJackman.png', 'Im_JustinTimberlake.png', 'Im_KeanuReeves.png'],diff,1,0.4836261000000377,9,0,
GUES1603,train,pos,30,pos30_id3_im17.bmp_pos30_id3_im6.bmp,['Im_OrlandoBloom.png', 'Im_ElijahWood.png', 'Im_RobertPattinson.png', 'Im_GeorgeClooney.png', 'Im_BradPitt.png', 'Im_DanielCraig.png', 'Im_PatrickDempsey.png', 'Im_HughJackman.png', 'Im_JustinTimberlake.png', 'Im_KeanuReeves.png'],same,1,1.283577300000161,10,0,
GUES1603,train,pos,90,pos90_id11_im1.bmp_pos90_id11_im2.bmp,['Im_OrlandoBloom.png', 'Im_ElijahWood.png', 'Im_RobertPattinson.png', 'Im_GeorgeClooney.png', 'Im_BradPitt.png', 'Im_DanielCraig.png', 'Im_PatrickDempsey.png', 'Im_HughJackman.png', 'Im_JustinTimberlake.png', 'Im_KeanuReeves.png'],same,1,0.5498480000001109,11,0,
GUES1603,train,pos,150,pos150_id11_im2.bmp_pos150_id4_im15.bmp,['Im_OrlandoBloom.png', 'Im_ElijahWood.png', 'Im_RobertPattinson.png', 'Im_GeorgeClooney.png', 'Im_BradPitt.png', 'Im_DanielCraig.png', 'Im_PatrickDempsey.png', 'Im_HughJackman.png', 'Im_JustinTimberlake.png', 'Im_KeanuReeves.png'],diff,1,0.4165555999998105,12,0,
GUES1603,train,pos,fs,posfs_id8_im21.bmp_posfs_id8_im20.bmp,['Im_OrlandoBloom.png', 'Im_ElijahWood.png', 'Im_RobertPattinson.png', 'Im_GeorgeClooney.png', 'Im_BradPitt.png', 'Im_DanielCraig.png', 'Im_PatrickDempsey.png', 'Im_HughJackman.png', 'Im_JustinTimberlake.png', 'Im_KeanuReeves.png'],same,1,0.5169740999999703,13,0,
GUES1603,train,pos,120,pos120_id16_im3.bmp_pos120_id8_im13.bmp,['Im_OrlandoBloom.png', 'Im_ElijahWood.png', 'Im_RobertPattinson.png', 'Im_GeorgeClooney.png', 'Im_BradPitt.png', 'Im_DanielCraig.png', 'Im_PatrickDempsey.png', 'Im_HughJackman.png', 'Im_JustinTimberlake.png', 'Im_KeanuReeves.png'],diff,1,0.4167701000001216,14,0,
GUES1603,train,inv,90,pos90_id10_im17.bmp_pos90_id10_im1.bmp,['Im_OrlandoBloom.png', 'Im_ElijahWood.png', 'Im_RobertPattinson.png', 'Im_GeorgeClooney.png', 'Im_BradPitt.png', 'Im_DanielCraig.png', 'Im_PatrickDempsey.png', 'Im_HughJackman.png', 'Im_JustinTimberlake.png', 'Im_KeanuReeves.png'],same,1,0.891970599999695,15,0,
GUES1603,train,inv,150,pos150_id16_im19.bmp_pos150_id7_im26.bmp,['Im_OrlandoBloom.png', 'Im_ElijahWood.png', 'Im_RobertPattinson.png', 'Im_GeorgeClooney.png', 'Im_BradPitt.png', 'Im_DanielCraig.png', 'Im_PatrickDempsey.png', 'Im_HughJackman.png', 'Im_JustinTimberlake.png', 'Im_KeanuReeves.png'],diff,1,0.4168091999999888,16,0,
GUES1603,train,inv,30,pos30_id6_im18.bmp_pos30_id8_im13.bmp,['Im_OrlandoBloom.png', 'Im_ElijahWood.png', 'Im_RobertPattinson.png', 'Im_GeorgeClooney.png', 'Im_BradPitt.png', 'Im_DanielCraig.png', 'Im_PatrickDempsey.png', 'Im_HughJackman.png', 'Im_JustinTimberlake.png', 'Im_KeanuReeves.png'],same,0,0.7502015000000029,16,0,
GUES1603,train,inv,90,pos90_id11_im1.bmp_pos90_id11_im2.bmp,['Im_OrlandoBloom.png', 'Im_ElijahWood.png', 'Im_RobertPattinson.png', 'Im_GeorgeClooney.png', 'Im_BradPitt.png', 'Im_DanielCraig.png', 'Im_PatrickDempsey.png', 'Im_HughJackman.png', 'Im_JustinTimberlake.png', 'Im_KeanuReeves.png'],same,1,0.7335412000002179,17,0,
GUES1603,train,inv,30,pos30_id10_im1.bmp_pos30_id7_im14.bmp,['Im_OrlandoBloom.png', 'Im_ElijahWood.png', 'Im_RobertPattinson.png', 'Im_GeorgeClooney.png', 'Im_BradPitt.png', 'Im_DanielCraig.png', 'Im_PatrickDempsey.png', 'Im_HughJackman.png', 'Im_JustinTimberlake.png', 'Im_KeanuReeves.png'],diff,1,0.4664929000000484,18,0,
GUES1603,train,inv,60,pos60_id3_im8.bmp_pos60_id10_im18.bmp,['Im_OrlandoBloom.png', 'Im_ElijahWood.png', 'Im_RobertPattinson.png', 'Im_GeorgeClooney.png', 'Im_BradPitt.png', 'Im_DanielCraig.png', 'Im_PatrickDempsey.png', 'Im_HughJackman.png', 'Im_JustinTimberlake.png', 'Im_KeanuReeves.png'],diff,1,0.7000249000002441,19,0,
GUES1603,train,inv,fs,posfs_id17_im14.bmp_posfs_id17_im8.bmp,['Im_OrlandoBloom.png', 'Im_ElijahWood.png', 'Im_RobertPattinson.png', 'Im_GeorgeClooney.png', 'Im_BradPitt.png', 'Im_DanielCraig.png', 'Im_PatrickDempsey.png', 'Im_HughJackman.png', 'Im_JustinTimberlake.png', 'Im_KeanuReeves.png'],diff,0,0.8668069999998806,19,0,
GUES1603,train,inv,0,pos0_id11_im1.bmp_pos0_id11_im10.bmp,['Im_OrlandoBloom.png', 'Im_ElijahWood.png', 'Im_RobertPattinson.png', 'Im_GeorgeClooney.png', 'Im_BradPitt.png', 'Im_DanielCraig.png', 'Im_PatrickDempsey.png', 'Im_HughJackman.png', 'Im_JustinTimberlake.png', 'Im_KeanuReeves.png'],same,1,0.6416752999998607,20,0,
GUES1603,train,inv,0,pos0_id6_im12.bmp_pos0_id19_im27.bmp,['Im_OrlandoBloom.png', 'Im_ElijahWood.png', 'Im_RobertPattinson.png', 'Im_GeorgeClooney.png', 'Im_BradPitt.png', 'Im_DanielCraig.png', 'Im_PatrickDempsey.png', 'Im_HughJackman.png', 'Im_JustinTimberlake.png', 'Im_KeanuReeves.png'],same,0,0.8919321000003038,20,0,
GUES1603,train,inv,fs,posfs_id19_im27.bmp_posfs_id6_im12.bmp,['Im_OrlandoBloom.png', 'Im_ElijahWood.png', 'Im_RobertPattinson.png', 'Im_GeorgeClooney.png', 'Im_BradPitt.png', 'Im_DanielCraig.png', 'Im_PatrickDempsey.png', 'Im_HughJackman.png', 'Im_JustinTimberlake.png', 'Im_KeanuReeves.png'],diff,1,0.4083156000001509,21,0,
GUES1603,train,inv,120,pos120_id17_im14.bmp_pos120_id17_im8.bmp,['Im_OrlandoBloom.png', 'Im_ElijahWood.png', 'Im_RobertPattinson.png', 'Im_GeorgeClooney.png', 'Im_BradPitt.png', 'Im_DanielCraig.png', 'Im_PatrickDempsey.png', 'Im_HughJackman.png', 'Im_JustinTimberlake.png', 'Im_KeanuReeves.png'],diff,0,1.1334332000001268,21,0,
GUES1603,train,inv,120,pos120_id19_im8.bmp_pos120_id16_im3.bmp,['Im_OrlandoBloom.png', 'Im_ElijahWood.png', 'Im_RobertPattinson.png', 'Im_GeorgeClooney.png', 'Im_BradPitt.png', 'Im_DanielCraig.png', 'Im_PatrickDempsey.png', 'Im_HughJackman.png', 'Im_JustinTimberlake.png', 'Im_KeanuReeves.png'],same,0,0.9165518999998312,21,0,
GUES1603,train,inv,150,pos150_id19_im27.bmp_pos150_id19_im4.bmp,['Im_OrlandoBloom.png', 'Im_ElijahWood.png', 'Im_RobertPattinson.png', 'Im_GeorgeClooney.png', 'Im_BradPitt.png', 'Im_DanielCraig.png', 'Im_PatrickDempsey.png', 'Im_HughJackman.png', 'Im_JustinTimberlake.png', 'Im_KeanuReeves.png'],same,1,0.8335151000001133,22,0,
GUES1603,train,inv,60,pos60_id10_im1.bmp_pos60_id10_im18.bmp,['Im_OrlandoBloom.png', 'Im_ElijahWood.png', 'Im_RobertPattinson.png', 'Im_GeorgeClooney.png', 'Im_BradPitt.png', 'Im_DanielCraig.png', 'Im_PatrickDempsey.png', 'Im_HughJackman.png', 'Im_JustinTimberlake.png', 'Im_KeanuReeves.png'],same,1,0.5000614000000496,23,0,
GUES1603,train,neg,150,neg150_id17_im8.bmp_neg150_id17_im9.bmp,['Im_OrlandoBloom.png', 'Im_ElijahWood.png', 'Im_RobertPattinson.png', 'Im_GeorgeClooney.png', 'Im_BradPitt.png', 'Im_DanielCraig.png', 'Im_PatrickDempsey.png', 'Im_HughJackman.png', 'Im_JustinTimberlake.png', 'Im_KeanuReeves.png'],same,1,1.0748773000000256,24,0,
GUES1603,train,neg,120,neg120_id7_im15.bmp_neg120_id7_im26.bmp,['Im_OrlandoBloom.png', 'Im_ElijahWood.png', 'Im_RobertPattinson.png', 'Im_GeorgeClooney.png', 'Im_BradPitt.png', 'Im_DanielCraig.png', 'Im_PatrickDempsey.png', 'Im_HughJackman.png', 'Im_JustinTimberlake.png', 'Im_KeanuReeves.png'],same,1,0.6166830999995909,25,0,
GUES1603,train,neg,0,neg0_id4_im15.bmp_neg0_id4_im7.bmp,['Im_OrlandoBloom.png', 'Im_ElijahWood.png', 'Im_RobertPattinson.png', 'Im_GeorgeClooney.png', 'Im_BradPitt.png', 'Im_DanielCraig.png', 'Im_PatrickDempsey.png', 'Im_HughJackman.png', 'Im_JustinTimberlake.png', 'Im_KeanuReeves.png'],same,1,0.5165038000000095,26,0,
GUES1603,train,neg,30,neg30_id4_im7.bmp_neg30_id4_im15.bmp,['Im_OrlandoBloom.png', 'Im_ElijahWood.png', 'Im_RobertPattinson.png', 'Im_GeorgeClooney.png', 'Im_BradPitt.png', 'Im_DanielCraig.png', 'Im_PatrickDempsey.png', 'Im_HughJackman.png', 'Im_JustinTimberlake.png', 'Im_KeanuReeves.png'],same,1,0.416731400000117,27,0,
GUES1603,train,neg,60,neg60_id8_im13.bmp_neg60_id8_im21.bmp,['Im_OrlandoBloom.png', 'Im_ElijahWood.png', 'Im_RobertPattinson.png', 'Im_GeorgeClooney.png', 'Im_BradPitt.png', 'Im_DanielCraig.png', 'Im_PatrickDempsey.png', 'Im_HughJackman.png', 'Im_JustinTimberlake.png', 'Im_KeanuReeves.png'],same,1,0.6665683999999601,28,0,
GUES1603,train,neg,150,neg150_id8_im21.bmp_neg150_id4_im7.bmp,['Im_OrlandoBloom.png', 'Im_ElijahWood.png', 'Im_RobertPattinson.png', 'Im_GeorgeClooney.png', 'Im_BradPitt.png', 'Im_DanielCraig.png', 'Im_PatrickDempsey.png', 'Im_HughJackman.png', 'Im_JustinTimberlake.png', 'Im_KeanuReeves.png'],same,0,0.7169902999999067,28,0,
GUES1603,train,neg,90,neg90_id19_im4.bmp_neg90_id8_im21.bmp,['Im_OrlandoBloom.png', 'Im_ElijahWood.png', 'Im_RobertPattinson.png', 'Im_GeorgeClooney.png', 'Im_BradPitt.png', 'Im_DanielCraig.png', 'Im_PatrickDempsey.png', 'Im_HughJackman.png', 'Im_JustinTimberlake.png', 'Im_KeanuReeves.png'],diff,1,0.4083693000002313,29,0,
GUES1603,train,neg,0,neg0_id8_im21.bmp_neg0_id4_im7.bmp,['Im_OrlandoBloom.png', 'Im_ElijahWood.png', 'Im_RobertPattinson.png', 'Im_GeorgeClooney.png', 'Im_BradPitt.png', 'Im_DanielCraig.png', 'Im_PatrickDempsey.png', 'Im_HughJackman.png', 'Im_JustinTimberlake.png', 'Im_KeanuReeves.png'],diff,1,0.6330880999998953,30,0,
GUES1603,train,neg,60,neg60_id16_im19.bmp_neg60_id3_im17.bmp,['Im_OrlandoBloom.png', 'Im_ElijahWood.png', 'Im_RobertPattinson.png', 'Im_GeorgeClooney.png', 'Im_BradPitt.png', 'Im_DanielCraig.png', 'Im_PatrickDempsey.png', 'Im_HughJackman.png', 'Im_JustinTimberlake.png', 'Im_KeanuReeves.png'],diff,1,0.49193360000026587,31,0,
GUES1603,train,neg,fs,negfs_id7_im14.bmp_negfs_id7_im15.bmp,['Im_OrlandoBloom.png', 'Im_ElijahWood.png', 'Im_RobertPattinson.png', 'Im_GeorgeClooney.png', 'Im_BradPitt.png', 'Im_DanielCraig.png', 'Im_PatrickDempsey.png', 'Im_HughJackman.png', 'Im_JustinTimberlake.png', 'Im_KeanuReeves.png'],same,1,0.46654239999998026,32,0,
GUES1603,train,neg,30,neg30_id8_im13.bmp_neg30_id8_im20.bmp,['Im_OrlandoBloom.png', 'Im_ElijahWood.png', 'Im_RobertPattinson.png', 'Im_GeorgeClooney.png', 'Im_BradPitt.png', 'Im_DanielCraig.png', 'Im_PatrickDempsey.png', 'Im_HughJackman.png', 'Im_JustinTimberlake.png', 'Im_KeanuReeves.png'],same,1,0.5000888999998097,33,0,
GUES1603,train,neg,fs,negfs_id10_im17.bmp_negfs_id10_im18.bmp,['Im_OrlandoBloom.png', 'Im_ElijahWood.png', 'Im_RobertPattinson.png', 'Im_GeorgeClooney.png', 'Im_BradPitt.png', 'Im_DanielCraig.png', 'Im_PatrickDempsey.png', 'Im_HughJackman.png', 'Im_JustinTimberlake.png', 'Im_KeanuReeves.png'],same,1,0.4083767000001899,34,0,
GUES1603,train,neg,120,neg120_id10_im18.bmp_neg120_id10_im17.bmp,['Im_OrlandoBloom.png', 'Im_ElijahWood.png', 'Im_RobertPattinson.png', 'Im_GeorgeClooney.png', 'Im_BradPitt.png', 'Im_DanielCraig.png', 'Im_PatrickDempsey.png', 'Im_HughJackman.png', 'Im_JustinTimberlake.png', 'Im_KeanuReeves.png'],same,1,0.6417899000002762,35,0,
GUES1603,train,neg,90,neg90_id17_im8.bmp_neg90_id10_im17.bmp,['Im_OrlandoBloom.png', 'Im_ElijahWood.png', 'Im_RobertPattinson.png', 'Im_GeorgeClooney.png', 'Im_BradPitt.png', 'Im_DanielCraig.png', 'Im_PatrickDempsey.png', 'Im_HughJackman.png', 'Im_JustinTimberlake.png', 'Im_KeanuReeves.png'],same,0,0.4166760000002796,35,0,
GUES1603,train,pos,120,pos120_id6_im18.bmp_pos120_id6_im12.bmp,['Im_OrlandoBloom.png', 'Im_ElijahWood.png', 'Im_RobertPattinson.png', 'Im_GeorgeClooney.png', 'Im_BradPitt.png', 'Im_DanielCraig.png', 'Im_PatrickDempsey.png', 'Im_HughJackman.png', 'Im_JustinTimberlake.png', 'Im_KeanuReeves.png'],none,0,4.408456200000273,0,83.33333333333333,
GUES1603,train,pos,fs,posfs_id10_im17.bmp_posfs_id10_im18.bmp,['Im_OrlandoBloom.png', 'Im_ElijahWood.png', 'Im_RobertPattinson.png', 'Im_GeorgeClooney.png', 'Im_BradPitt.png', 'Im_DanielCraig.png', 'Im_PatrickDempsey.png', 'Im_HughJackman.png', 'Im_JustinTimberlake.png', 'Im_KeanuReeves.png'],same,1,0.3997926000001826,1,83.33333333333333,
GUES1603,train,pos,30,pos30_id19_im8.bmp_pos30_id11_im1.bmp,['Im_OrlandoBloom.png', 'Im_ElijahWood.png', 'Im_RobertPattinson.png', 'Im_GeorgeClooney.png', 'Im_BradPitt.png', 'Im_DanielCraig.png', 'Im_PatrickDempsey.png', 'Im_HughJackman.png', 'Im_JustinTimberlake.png', 'Im_KeanuReeves.png'],diff,1,0.4747792000002846,2,83.33333333333333,
GUES1603,train,pos,90,pos90_id11_im1.bmp_pos90_id11_im10.bmp,['Im_OrlandoBloom.png', 'Im_ElijahWood.png', 'Im_RobertPattinson.png', 'Im_GeorgeClooney.png', 'Im_BradPitt.png', 'Im_DanielCraig.png', 'Im_PatrickDempsey.png', 'Im_HughJackman.png', 'Im_JustinTimberlake.png', 'Im_KeanuReeves.png'],same,1,0.8000377999996999,3,83.33333333333333,
GUES1603,train,pos,0,pos0_id19_im4.bmp_pos0_id19_im27.bmp,['Im_OrlandoBloom.png', 'Im_ElijahWood.png', 'Im_RobertPattinson.png', 'Im_GeorgeClooney.png', 'Im_BradPitt.png', 'Im_DanielCraig.png', 'Im_PatrickDempsey.png', 'Im_HughJackman.png', 'Im_JustinTimberlake.png', 'Im_KeanuReeves.png'],same,1,0.4661567000002833,4,83.33333333333333,
GUES1603,train,pos,30,pos30_id16_im2.bmp_pos30_id16_im3.bmp,['Im_OrlandoBloom.png', 'Im_ElijahWood.png', 'Im_RobertPattinson.png', 'Im_GeorgeClooney.png', 'Im_BradPitt.png', 'Im_DanielCraig.png', 'Im_PatrickDempsey.png', 'Im_HughJackman.png', 'Im_JustinTimberlake.png', 'Im_KeanuReeves.png'],same,1,0.825288399999863,5,83.33333333333333,
GUES1603,train,pos,90,pos90_id11_im1.bmp_pos90_id19_im8.bmp,['Im_OrlandoBloom.png', 'Im_ElijahWood.png', 'Im_RobertPattinson.png', 'Im_GeorgeClooney.png', 'Im_BradPitt.png', 'Im_DanielCraig.png', 'Im_PatrickDempsey.png', 'Im_HughJackman.png', 'Im_JustinTimberlake.png', 'Im_KeanuReeves.png'],diff,1,0.4168601999999737,6,83.33333333333333,
GUES1603,train,pos,fs,posfs_id17_im14.bmp_posfs_id17_im8.bmp,['Im_OrlandoBloom.png', 'Im_ElijahWood.png', 'Im_RobertPattinson.png', 'Im_GeorgeClooney.png', 'Im_BradPitt.png', 'Im_DanielCraig.png', 'Im_PatrickDempsey.png', 'Im_HughJackman.png', 'Im_JustinTimberlake.png', 'Im_KeanuReeves.png'],same,1,0.4084763999999268,7,83.33333333333333,
GUES1603,train,pos,150,pos150_id3_im6.bmp_pos150_id3_im8.bmp,['Im_OrlandoBloom.png', 'Im_ElijahWood.png', 'Im_RobertPattinson.png', 'Im_GeorgeClooney.png', 'Im_BradPitt.png', 'Im_DanielCraig.png', 'Im_PatrickDempsey.png', 'Im_HughJackman.png', 'Im_JustinTimberlake.png', 'Im_KeanuReeves.png'],same,1,0.44955609999988155,8,83.33333333333333,
GUES1603,train,pos,0,pos0_id10_im1.bmp_pos0_id4_im15.bmp,['Im_OrlandoBloom.png', 'Im_ElijahWood.png', 'Im_RobertPattinson.png', 'Im_GeorgeClooney.png', 'Im_BradPitt.png', 'Im_DanielCraig.png', 'Im_PatrickDempsey.png', 'Im_HughJackman.png', 'Im_JustinTimberlake.png', 'Im_KeanuReeves.png'],diff,1,0.4166325000001052,9,83.33333333333333,
GUES1603,train,pos,60,pos60_id7_im15.bmp_pos60_id3_im6.bmp,['Im_OrlandoBloom.png', 'Im_ElijahWood.png', 'Im_RobertPattinson.png', 'Im_GeorgeClooney.png', 'Im_BradPitt.png', 'Im_DanielCraig.png', 'Im_PatrickDempsey.png', 'Im_HughJackman.png', 'Im_JustinTimberlake.png', 'Im_KeanuReeves.png'],diff,1,0.41663130000006277,10,83.33333333333333,
GUES1603,train,pos,60,pos60_id16_im19.bmp_pos60_id16_im2.bmp,['Im_OrlandoBloom.png', 'Im_ElijahWood.png', 'Im_RobertPattinson.png', 'Im_GeorgeClooney.png', 'Im_BradPitt.png', 'Im_DanielCraig.png', 'Im_PatrickDempsey.png', 'Im_HughJackman.png', 'Im_JustinTimberlake.png', 'Im_KeanuReeves.png'],same,1,0.4167222999999467,11,83.33333333333333,
GUES1603,train,pos,120,pos120_id3_im6.bmp_pos120_id3_im8.bmp,['Im_OrlandoBloom.png', 'Im_ElijahWood.png', 'Im_RobertPattinson.png', 'Im_GeorgeClooney.png', 'Im_BradPitt.png', 'Im_DanielCraig.png', 'Im_PatrickDempsey.png', 'Im_HughJackman.png', 'Im_JustinTimberlake.png', 'Im_KeanuReeves.png'],same,1,0.5668375000000196,12,83.33333333333333,
GUES1603,train,pos,150,pos150_id8_im13.bmp_pos150_id16_im3.bmp,['Im_OrlandoBloom.png', 'Im_ElijahWood.png', 'Im_RobertPattinson.png', 'Im_GeorgeClooney.png', 'Im_BradPitt.png', 'Im_DanielCraig.png', 'Im_PatrickDempsey.png', 'Im_HughJackman.png', 'Im_JustinTimberlake.png', 'Im_KeanuReeves.png'],diff,1,0.4084200000002056,13,83.33333333333333,
GUES1603,train,pos,60,pos60_id4_im15.bmp_pos60_id11_im2.bmp,['Im_OrlandoBloom.png', 'Im_ElijahWood.png', 'Im_RobertPattinson.png', 'Im_GeorgeClooney.png', 'Im_BradPitt.png', 'Im_DanielCraig.png', 'Im_PatrickDempsey.png', 'Im_HughJackman.png', 'Im_JustinTimberlake.png', 'Im_KeanuReeves.png'],diff,1,0.4085275000002184,14,83.33333333333333,
GUES1603,train,pos,90,pos90_id7_im14.bmp_pos90_id6_im12.bmp,['Im_OrlandoBloom.png', 'Im_ElijahWood.png', 'Im_RobertPattinson.png', 'Im_GeorgeClooney.png', 'Im_BradPitt.png', 'Im_DanielCraig.png', 'Im_PatrickDempsey.png', 'Im_HughJackman.png', 'Im_JustinTimberlake.png', 'Im_KeanuReeves.png'],diff,1,0.4166352000002007,15,83.33333333333333,
GUES1603,train,pos,0,pos0_id3_im17.bmp_pos0_id8_im20.bmp,['Im_OrlandoBloom.png', 'Im_ElijahWood.png', 'Im_RobertPattinson.png', 'Im_GeorgeClooney.png', 'Im_BradPitt.png', 'Im_DanielCraig.png', 'Im_PatrickDempsey.png', 'Im_HughJackman.png', 'Im_JustinTimberlake.png', 'Im_KeanuReeves.png'],diff,1,0.9083301000000574,16,83.33333333333333,
GUES1603,train,pos,120,pos120_id17_im9.bmp_pos120_id17_im14.bmp,['Im_OrlandoBloom.png', 'Im_ElijahWood.png', 'Im_RobertPattinson.png', 'Im_GeorgeClooney.png', 'Im_BradPitt.png', 'Im_DanielCraig.png', 'Im_PatrickDempsey.png', 'Im_HughJackman.png', 'Im_JustinTimberlake.png', 'Im_KeanuReeves.png'],same,1,0.4248295999996117,17,83.33333333333333,
GUES1603,train,pos,30,pos30_id19_im8.bmp_pos30_id16_im3.bmp,['Im_OrlandoBloom.png', 'Im_ElijahWood.png', 'Im_RobertPattinson.png', 'Im_GeorgeClooney.png', 'Im_BradPitt.png', 'Im_DanielCraig.png', 'Im_PatrickDempsey.png', 'Im_HughJackman.png', 'Im_JustinTimberlake.png', 'Im_KeanuReeves.png'],diff,1,0.4166085000001658,18,83.33333333333333,
GUES1603,train,pos,fs,posfs_id6_im19.bmp_posfs_id17_im9.bmp,['Im_OrlandoBloom.png', 'Im_ElijahWood.png', 'Im_RobertPattinson.png', 'Im_GeorgeClooney.png', 'Im_BradPitt.png', 'Im_DanielCraig.png', 'Im_PatrickDempsey.png', 'Im_HughJackman.png', 'Im_JustinTimberlake.png', 'Im_KeanuReeves.png'],diff,1,0.4165594000000965,19,83.33333333333333,
GUES1603,train,pos,120,pos120_id6_im19.bmp_pos120_id17_im9.bmp,['Im_OrlandoBloom.png', 'Im_ElijahWood.png', 'Im_RobertPattinson.png', 'Im_GeorgeClooney.png', 'Im_BradPitt.png', 'Im_DanielCraig.png', 'Im_PatrickDempsey.png', 'Im_HughJackman.png', 'Im_JustinTimberlake.png', 'Im_KeanuReeves.png'],diff,1,0.49190870000029463,20,83.33333333333333,
GUES1603,train,pos,60,pos60_id19_im8.bmp_pos60_id19_im4.bmp,['Im_OrlandoBloom.png', 'Im_ElijahWood.png', 'Im_RobertPattinson.png', 'Im_GeorgeClooney.png', 'Im_BradPitt.png', 'Im_DanielCraig.png', 'Im_PatrickDempsey.png', 'Im_HughJackman.png', 'Im_JustinTimberlake.png', 'Im_KeanuReeves.png'],same,1,0.4168767000001026,21,83.33333333333333,
GUES1603,train,pos,0,pos0_id7_im15.bmp_pos0_id7_im26.bmp,['Im_OrlandoBloom.png', 'Im_ElijahWood.png', 'Im_RobertPattinson.png', 'Im_GeorgeClooney.png', 'Im_BradPitt.png', 'Im_DanielCraig.png', 'Im_PatrickDempsey.png', 'Im_HughJackman.png', 'Im_JustinTimberlake.png', 'Im_KeanuReeves.png'],same,1,0.41664859999991677,22,83.33333333333333,
GUES1603,train,pos,150,pos150_id10_im17.bmp_pos150_id17_im8.bmp,['Im_OrlandoBloom.png', 'Im_ElijahWood.png', 'Im_RobertPattinson.png', 'Im_GeorgeClooney.png', 'Im_BradPitt.png', 'Im_DanielCraig.png', 'Im_PatrickDempsey.png', 'Im_HughJackman.png', 'Im_JustinTimberlake.png', 'Im_KeanuReeves.png'],diff,1,0.4084984000000986,23,83.33333333333333,
GUES1603,train,pos,30,pos30_id19_im4.bmp_pos30_id8_im20.bmp,['Im_OrlandoBloom.png', 'Im_ElijahWood.png', 'Im_RobertPattinson.png', 'Im_GeorgeClooney.png', 'Im_BradPitt.png', 'Im_DanielCraig.png', 'Im_PatrickDempsey.png', 'Im_HughJackman.png', 'Im_JustinTimberlake.png', 'Im_KeanuReeves.png'],diff,1,0.3999186999999438,24,83.33333333333333,
GUES1603,train,pos,150,pos150_id17_im8.bmp_pos150_id6_im19.bmp,['Im_OrlandoBloom.png', 'Im_ElijahWood.png', 'Im_RobertPattinson.png', 'Im_GeorgeClooney.png', 'Im_BradPitt.png', 'Im_DanielCraig.png', 'Im_PatrickDempsey.png', 'Im_HughJackman.png', 'Im_JustinTimberlake.png', 'Im_KeanuReeves.png'],diff,1,0.4167287000000215,25,83.33333333333333,
GUES1603,train,pos,90,pos90_id16_im2.bmp_pos90_id16_im3.bmp,['Im_OrlandoBloom.png', 'Im_ElijahWood.png', 'Im_RobertPattinson.png', 'Im_GeorgeClooney.png', 'Im_BradPitt.png', 'Im_DanielCraig.png', 'Im_PatrickDempsey.png', 'Im_HughJackman.png', 'Im_JustinTimberlake.png', 'Im_KeanuReeves.png'],same,1,0.4168880000001991,26,83.33333333333333,
GUES1603,train,pos,fs,posfs_id11_im1.bmp_posfs_id16_im2.bmp,['Im_OrlandoBloom.png', 'Im_ElijahWood.png', 'Im_RobertPattinson.png', 'Im_GeorgeClooney.png', 'Im_BradPitt.png', 'Im_DanielCraig.png', 'Im_PatrickDempsey.png', 'Im_HughJackman.png', 'Im_JustinTimberlake.png', 'Im_KeanuReeves.png'],diff,1,0.41659119999985705,27,83.33333333333333,
GUES1603,train,inv,60,pos60_id8_im13.bmp_pos60_id8_im21.bmp,['Im_OrlandoBloom.png', 'Im_ElijahWood.png', 'Im_RobertPattinson.png', 'Im_GeorgeClooney.png', 'Im_BradPitt.png', 'Im_DanielCraig.png', 'Im_PatrickDempsey.png', 'Im_HughJackman.png', 'Im_JustinTimberlake.png', 'Im_KeanuReeves.png'],same,1,0.6664061999999831,28,83.33333333333333,
GUES1603,train,inv,120,pos120_id19_im4.bmp_pos120_id19_im8.bmp,['Im_OrlandoBloom.png', 'Im_ElijahWood.png', 'Im_RobertPattinson.png', 'Im_GeorgeClooney.png', 'Im_BradPitt.png', 'Im_DanielCraig.png', 'Im_PatrickDempsey.png', 'Im_HughJackman.png', 'Im_JustinTimberlake.png', 'Im_KeanuReeves.png'],same,1,0.5667842999996537,29,83.33333333333333,
GUES1603,train,inv,120,pos120_id19_im8.bmp_pos120_id19_im27.bmp,['Im_OrlandoBloom.png', 'Im_ElijahWood.png', 'Im_RobertPattinson.png', 'Im_GeorgeClooney.png', 'Im_BradPitt.png', 'Im_DanielCraig.png', 'Im_PatrickDempsey.png', 'Im_HughJackman.png', 'Im_JustinTimberlake.png', 'Im_KeanuReeves.png'],same,1,0.6920841000001019,30,83.33333333333333,
GUES1603,train,inv,60,pos60_id10_im17.bmp_pos60_id4_im20.bmp,['Im_OrlandoBloom.png', 'Im_ElijahWood.png', 'Im_RobertPattinson.png', 'Im_GeorgeClooney.png', 'Im_BradPitt.png', 'Im_DanielCraig.png', 'Im_PatrickDempsey.png', 'Im_HughJackman.png', 'Im_JustinTimberlake.png', 'Im_KeanuReeves.png'],diff,1,0.6665356000003158,31,83.33333333333333,
GUES1603,train,inv,90,pos90_id4_im20.bmp_pos90_id10_im17.bmp,['Im_OrlandoBloom.png', 'Im_ElijahWood.png', 'Im_RobertPattinson.png', 'Im_GeorgeClooney.png', 'Im_BradPitt.png', 'Im_DanielCraig.png', 'Im_PatrickDempsey.png', 'Im_HughJackman.png', 'Im_JustinTimberlake.png', 'Im_KeanuReeves.png'],diff,1,0.49167590000024575,32,83.33333333333333,
GUES1603,train,inv,0,pos0_id3_im8.bmp_pos0_id6_im18.bmp,['Im_OrlandoBloom.png', 'Im_ElijahWood.png', 'Im_RobertPattinson.png', 'Im_GeorgeClooney.png', 'Im_BradPitt.png', 'Im_DanielCraig.png', 'Im_PatrickDempsey.png', 'Im_HughJackman.png', 'Im_JustinTimberlake.png', 'Im_KeanuReeves.png'],diff,1,0.6169926000002306,33,83.33333333333333,
GUES1603,train,inv,0,pos0_id19_im8.bmp_pos0_id16_im3.bmp,['Im_OrlandoBloom.png', 'Im_ElijahWood.png', 'Im_RobertPattinson.png', 'Im_GeorgeClooney.png', 'Im_BradPitt.png', 'Im_DanielCraig.png', 'Im_PatrickDempsey.png', 'Im_HughJackman.png', 'Im_JustinTimberlake.png', 'Im_KeanuReeves.png'],same,0,0.8335209000001669,33,83.33333333333333,
GUES1603,train,inv,30,pos30_id3_im6.bmp_pos30_id7_im15.bmp,['Im_OrlandoBloom.png', 'Im_ElijahWood.png', 'Im_RobertPattinson.png', 'Im_GeorgeClooney.png', 'Im_BradPitt.png', 'Im_DanielCraig.png', 'Im_PatrickDempsey.png', 'Im_HughJackman.png', 'Im_JustinTimberlake.png', 'Im_KeanuReeves.png'],diff,1,0.4835497999997642,34,83.33333333333333,
GUES1603,train,inv,fs,posfs_id16_im2.bmp_posfs_id7_im15.bmp,['Im_OrlandoBloom.png', 'Im_ElijahWood.png', 'Im_RobertPattinson.png', 'Im_GeorgeClooney.png', 'Im_BradPitt.png', 'Im_DanielCraig.png', 'Im_PatrickDempsey.png', 'Im_HughJackman.png', 'Im_JustinTimberlake.png', 'Im_KeanuReeves.png'],diff,1,0.4167072999998709,35,83.33333333333333,
GUES1603,train,inv,150,pos150_id4_im15.bmp_pos150_id4_im20.bmp,['Im_OrlandoBloom.png', 'Im_ElijahWood.png', 'Im_RobertPattinson.png', 'Im_GeorgeClooney.png', 'Im_BradPitt.png', 'Im_DanielCraig.png', 'Im_PatrickDempsey.png', 'Im_HughJackman.png', 'Im_JustinTimberlake.png', 'Im_KeanuReeves.png'],same,1,0.4418031999998675,36,83.33333333333333,
GUES1603,train,inv,150,pos150_id10_im18.bmp_pos150_id3_im8.bmp,['Im_OrlandoBloom.png', 'Im_ElijahWood.png', 'Im_RobertPattinson.png', 'Im_GeorgeClooney.png', 'Im_BradPitt.png', 'Im_DanielCraig.png', 'Im_PatrickDempsey.png', 'Im_HughJackman.png', 'Im_JustinTimberlake.png', 'Im_KeanuReeves.png'],diff,1,0.5167569999998705,37,83.33333333333333,
GUES1603,train,inv,fs,posfs_id3_im6.bmp_posfs_id7_im15.bmp,['Im_OrlandoBloom.png', 'Im_ElijahWood.png', 'Im_RobertPattinson.png', 'Im_GeorgeClooney.png', 'Im_BradPitt.png', 'Im_DanielCraig.png', 'Im_PatrickDempsey.png', 'Im_HughJackman.png', 'Im_JustinTimberlake.png', 'Im_KeanuReeves.png'],diff,1,0.46673069999997097,38,83.33333333333333,
GUES1603,train,inv,90,pos90_id10_im18.bmp_pos90_id11_im2.bmp,['Im_OrlandoBloom.png', 'Im_ElijahWood.png', 'Im_RobertPattinson.png', 'Im_GeorgeClooney.png', 'Im_BradPitt.png', 'Im_DanielCraig.png', 'Im_PatrickDempsey.png', 'Im_HughJackman.png', 'Im_JustinTimberlake.png', 'Im_KeanuReeves.png'],diff,1,0.6667440999999599,39,83.33333333333333,
GUES1603,train,inv,30,pos30_id8_im20.bmp_pos30_id19_im4.bmp,['Im_OrlandoBloom.png', 'Im_ElijahWood.png', 'Im_RobertPattinson.png', 'Im_GeorgeClooney.png', 'Im_BradPitt.png', 'Im_DanielCraig.png', 'Im_PatrickDempsey.png', 'Im_HughJackman.png', 'Im_JustinTimberlake.png', 'Im_KeanuReeves.png'],diff,1,0.7834446000001662,40,83.33333333333333,
GUES1603,0,pos,90,pos90_id4_im20.bmp_pos90_id10_im17.bmp,['Im_OrlandoBloom.png', 'Im_ElijahWood.png', 'Im_RobertPattinson.png', 'Im_GeorgeClooney.png', 'Im_BradPitt.png', 'Im_DanielCraig.png', 'Im_PatrickDempsey.png', 'Im_HughJackman.png', 'Im_JustinTimberlake.png', 'Im_KeanuReeves.png'],diff,1,0.4000311999998303,1,0,
GUES1603,0,pos,0,pos0_id7_im26.bmp_pos0_id3_im6.bmp,['Im_OrlandoBloom.png', 'Im_ElijahWood.png', 'Im_RobertPattinson.png', 'Im_GeorgeClooney.png', 'Im_BradPitt.png', 'Im_DanielCraig.png', 'Im_PatrickDempsey.png', 'Im_HughJackman.png', 'Im_JustinTimberlake.png', 'Im_KeanuReeves.png'],diff,1,0.40856380000013814,2,0,
GUES1603,0,pos,fs,posfs_id7_im14.bmp_posfs_id7_im26.bmp,['Im_OrlandoBloom.png', 'Im_ElijahWood.png', 'Im_RobertPattinson.png', 'Im_GeorgeClooney.png', 'Im_BradPitt.png', 'Im_DanielCraig.png', 'Im_PatrickDempsey.png', 'Im_HughJackman.png', 'Im_JustinTimberlake.png', 'Im_KeanuReeves.png'],same,1,0.40836910000007265,3,0,
GUES1603,0,pos,90,pos90_id7_im15.bmp_pos90_id16_im2.bmp,['Im_OrlandoBloom.png', 'Im_ElijahWood.png', 'Im_RobertPattinson.png', 'Im_GeorgeClooney.png', 'Im_BradPitt.png', 'Im_DanielCraig.png', 'Im_PatrickDempsey.png', 'Im_HughJackman.png', 'Im_JustinTimberlake.png', 'Im_KeanuReeves.png'],diff,1,0.40838669999993726,4,0,
GUES1603,0,pos,30,pos30_id8_im13.bmp_pos30_id8_im21.bmp,['Im_OrlandoBloom.png', 'Im_ElijahWood.png', 'Im_RobertPattinson.png', 'Im_GeorgeClooney.png', 'Im_BradPitt.png', 'Im_DanielCraig.png', 'Im_PatrickDempsey.png', 'Im_HughJackman.png', 'Im_JustinTimberlake.png', 'Im_KeanuReeves.png'],same,1,0.40006050000010873,5,0,
GUES1603,0,pos,fs,posfs_id4_im20.bmp_posfs_id4_im15.bmp,['Im_OrlandoBloom.png', 'Im_ElijahWood.png', 'Im_RobertPattinson.png', 'Im_GeorgeClooney.png', 'Im_BradPitt.png', 'Im_DanielCraig.png', 'Im_PatrickDempsey.png', 'Im_HughJackman.png', 'Im_JustinTimberlake.png', 'Im_KeanuReeves.png'],same,1,0.40018589999999676,6,0,
GUES1603,0,pos,60,pos60_id7_im14.bmp_pos60_id7_im15.bmp,['Im_OrlandoBloom.png', 'Im_ElijahWood.png', 'Im_RobertPattinson.png', 'Im_GeorgeClooney.png', 'Im_BradPitt.png', 'Im_DanielCraig.png', 'Im_PatrickDempsey.png', 'Im_HughJackman.png', 'Im_JustinTimberlake.png', 'Im_KeanuReeves.png'],same,1,0.4083857000000535,7,0,
GUES1603,0,pos,150,pos150_id6_im19.bmp_pos150_id6_im18.bmp,['Im_OrlandoBloom.png', 'Im_ElijahWood.png', 'Im_RobertPattinson.png', 'Im_GeorgeClooney.png', 'Im_BradPitt.png', 'Im_DanielCraig.png', 'Im_PatrickDempsey.png', 'Im_HughJackman.png', 'Im_JustinTimberlake.png', 'Im_KeanuReeves.png'],same,1,0.40011660000027405,8,0,
GUES1603,0,pos,120,pos120_id10_im17.bmp_pos120_id10_im18.bmp,['Im_OrlandoBloom.png', 'Im_ElijahWood.png', 'Im_RobertPattinson.png', 'Im_GeorgeClooney.png', 'Im_BradPitt.png', 'Im_DanielCraig.png', 'Im_PatrickDempsey.png', 'Im_HughJackman.png', 'Im_JustinTimberlake.png', 'Im_KeanuReeves.png'],same,1,0.6916073999996115,9,0,
GUES1603,0,pos,30,pos30_id11_im10.bmp_pos30_id11_im1.bmp,['Im_OrlandoBloom.png', 'Im_ElijahWood.png', 'Im_RobertPattinson.png', 'Im_GeorgeClooney.png', 'Im_BradPitt.png', 'Im_DanielCraig.png', 'Im_PatrickDempsey.png', 'Im_HughJackman.png', 'Im_JustinTimberlake.png', 'Im_KeanuReeves.png'],same,1,0.40843089999998483,10,0,
GUES1603,0,pos,60,pos60_id10_im1.bmp_pos60_id7_im14.bmp,['Im_OrlandoBloom.png', 'Im_ElijahWood.png', 'Im_RobertPattinson.png', 'Im_GeorgeClooney.png', 'Im_BradPitt.png', 'Im_DanielCraig.png', 'Im_PatrickDempsey.png', 'Im_HughJackman.png', 'Im_JustinTimberlake.png', 'Im_KeanuReeves.png'],diff,1,0.4002113999999892,11,0,
GUES1603,0,pos,0,pos0_id10_im18.bmp_pos0_id11_im2.bmp,['Im_OrlandoBloom.png', 'Im_ElijahWood.png', 'Im_RobertPattinson.png', 'Im_GeorgeClooney.png', 'Im_BradPitt.png', 'Im_DanielCraig.png', 'Im_PatrickDempsey.png', 'Im_HughJackman.png', 'Im_JustinTimberlake.png', 'Im_KeanuReeves.png'],diff,1,0.40841569999975036,12,0,
GUES1603,0,pos,150,pos150_id17_im9.bmp_pos150_id17_im14.bmp,['Im_OrlandoBloom.png', 'Im_ElijahWood.png', 'Im_RobertPattinson.png', 'Im_GeorgeClooney.png', 'Im_BradPitt.png', 'Im_DanielCraig.png', 'Im_PatrickDempsey.png', 'Im_HughJackman.png', 'Im_JustinTimberlake.png', 'Im_KeanuReeves.png'],same,1,0.40843820000009146,13,0,
GUES1603,0,pos,120,pos120_id8_im21.bmp_pos120_id4_im7.bmp,['Im_OrlandoBloom.png', 'Im_ElijahWood.png', 'Im_RobertPattinson.png', 'Im_GeorgeClooney.png', 'Im_BradPitt.png', 'Im_DanielCraig.png', 'Im_PatrickDempsey.png', 'Im_HughJackman.png', 'Im_JustinTimberlake.png', 'Im_KeanuReeves.png'],diff,1,0.4002712999999858,14,0,
GUES1603,1,neg,150,neg150_id19_im4.bmp_neg150_id19_im27.bmp,['Im_OrlandoBloom.png', 'Im_ElijahWood.png', 'Im_RobertPattinson.png', 'Im_GeorgeClooney.png', 'Im_BradPitt.png', 'Im_DanielCraig.png', 'Im_PatrickDempsey.png', 'Im_HughJackman.png', 'Im_JustinTimberlake.png', 'Im_KeanuReeves.png'],same,1,0.4167264999996405,15,0,
GUES1603,1,neg,60,neg60_id16_im3.bmp_neg60_id19_im8.bmp,['Im_OrlandoBloom.png', 'Im_ElijahWood.png', 'Im_RobertPattinson.png', 'Im_GeorgeClooney.png', 'Im_BradPitt.png', 'Im_DanielCraig.png', 'Im_PatrickDempsey.png', 'Im_HughJackman.png', 'Im_JustinTimberlake.png', 'Im_KeanuReeves.png'],same,0,0.41670209999983854,15,0,
GUES1603,1,neg,30,neg30_id16_im3.bmp_neg30_id8_im13.bmp,['Im_OrlandoBloom.png', 'Im_ElijahWood.png', 'Im_RobertPattinson.png', 'Im_GeorgeClooney.png', 'Im_BradPitt.png', 'Im_DanielCraig.png', 'Im_PatrickDempsey.png', 'Im_HughJackman.png', 'Im_JustinTimberlake.png', 'Im_KeanuReeves.png'],diff,1,0.42509590000008757,16,0,
GUES1603,1,neg,120,neg120_id7_im14.bmp_neg120_id7_im26.bmp,['Im_OrlandoBloom.png', 'Im_ElijahWood.png', 'Im_RobertPattinson.png', 'Im_GeorgeClooney.png', 'Im_BradPitt.png', 'Im_DanielCraig.png', 'Im_PatrickDempsey.png', 'Im_HughJackman.png', 'Im_JustinTimberlake.png', 'Im_KeanuReeves.png'],same,1,0.41690810000000056,17,0,
GUES1603,1,neg,fs,negfs_id7_im15.bmp_negfs_id3_im6.bmp,['Im_OrlandoBloom.png', 'Im_ElijahWood.png', 'Im_RobertPattinson.png', 'Im_GeorgeClooney.png', 'Im_BradPitt.png', 'Im_DanielCraig.png', 'Im_PatrickDempsey.png', 'Im_HughJackman.png', 'Im_JustinTimberlake.png', 'Im_KeanuReeves.png'],diff,1,0.4167488000002777,18,0,
GUES1603,1,neg,30,neg30_id11_im2.bmp_neg30_id4_im15.bmp,['Im_OrlandoBloom.png', 'Im_ElijahWood.png', 'Im_RobertPattinson.png', 'Im_GeorgeClooney.png', 'Im_BradPitt.png', 'Im_DanielCraig.png', 'Im_PatrickDempsey.png', 'Im_HughJackman.png', 'Im_JustinTimberlake.png', 'Im_KeanuReeves.png'],diff,1,0.49166809999996985,19,0,
GUES1603,1,neg,60,neg60_id16_im3.bmp_neg60_id16_im19.bmp,['Im_OrlandoBloom.png', 'Im_ElijahWood.png', 'Im_RobertPattinson.png', 'Im_GeorgeClooney.png', 'Im_BradPitt.png', 'Im_DanielCraig.png', 'Im_PatrickDempsey.png', 'Im_HughJackman.png', 'Im_JustinTimberlake.png', 'Im_KeanuReeves.png'],same,1,0.4166417999999794,20,0,
GUES1603,1,neg,90,neg90_id11_im1.bmp_neg90_id11_im2.bmp,['Im_OrlandoBloom.png', 'Im_ElijahWood.png', 'Im_RobertPattinson.png', 'Im_GeorgeClooney.png', 'Im_BradPitt.png', 'Im_DanielCraig.png', 'Im_PatrickDempsey.png', 'Im_HughJackman.png', 'Im_JustinTimberlake.png', 'Im_KeanuReeves.png'],same,1,0.7585414000000128,21,0,
GUES1603,1,neg,120,neg120_id17_im9.bmp_neg120_id17_im14.bmp,['Im_OrlandoBloom.png', 'Im_ElijahWood.png', 'Im_RobertPattinson.png', 'Im_GeorgeClooney.png', 'Im_BradPitt.png', 'Im_DanielCraig.png', 'Im_PatrickDempsey.png', 'Im_HughJackman.png', 'Im_JustinTimberlake.png', 'Im_KeanuReeves.png'],same,1,0.41662099999985003,22,0,
GUES1603,1,neg,fs,negfs_id6_im12.bmp_negfs_id19_im27.bmp,['Im_OrlandoBloom.png', 'Im_ElijahWood.png', 'Im_RobertPattinson.png', 'Im_GeorgeClooney.png', 'Im_BradPitt.png', 'Im_DanielCraig.png', 'Im_PatrickDempsey.png', 'Im_HughJackman.png', 'Im_JustinTimberlake.png', 'Im_KeanuReeves.png'],diff,1,0.42506520000006276,23,0,
GUES1603,1,neg,0,neg0_id11_im1.bmp_neg0_id16_im2.bmp,['Im_OrlandoBloom.png', 'Im_ElijahWood.png', 'Im_RobertPattinson.png', 'Im_GeorgeClooney.png', 'Im_BradPitt.png', 'Im_DanielCraig.png', 'Im_PatrickDempsey.png', 'Im_HughJackman.png', 'Im_JustinTimberlake.png', 'Im_KeanuReeves.png'],diff,1,0.5583760999998049,24,0,
GUES1603,1,neg,150,neg150_id8_im13.bmp_neg150_id16_im3.bmp,['Im_OrlandoBloom.png', 'Im_ElijahWood.png', 'Im_RobertPattinson.png', 'Im_GeorgeClooney.png', 'Im_BradPitt.png', 'Im_DanielCraig.png', 'Im_PatrickDempsey.png', 'Im_HughJackman.png', 'Im_JustinTimberlake.png', 'Im_KeanuReeves.png'],diff,1,0.41674990000001344,25,0,
GUES1603,1,neg,0,neg0_id11_im10.bmp_neg0_id17_im14.bmp,['Im_OrlandoBloom.png', 'Im_ElijahWood.png', 'Im_RobertPattinson.png', 'Im_GeorgeClooney.png', 'Im_BradPitt.png', 'Im_DanielCraig.png', 'Im_PatrickDempsey.png', 'Im_HughJackman.png', 'Im_JustinTimberlake.png', 'Im_KeanuReeves.png'],same,0,0.4333705999997619,25,0,
GUES1603,1,neg,90,neg90_id3_im8.bmp_neg90_id3_im17.bmp,['Im_OrlandoBloom.png', 'Im_ElijahWood.png', 'Im_RobertPattinson.png', 'Im_GeorgeClooney.png', 'Im_BradPitt.png', 'Im_DanielCraig.png', 'Im_PatrickDempsey.png', 'Im_HughJackman.png', 'Im_JustinTimberlake.png', 'Im_KeanuReeves.png'],same,1,0.791998500000318,26,0,
GUES1603,2,inv,90,pos90_id3_im8.bmp_pos90_id10_im18.bmp,['Im_OrlandoBloom.png', 'Im_ElijahWood.png', 'Im_RobertPattinson.png', 'Im_GeorgeClooney.png', 'Im_BradPitt.png', 'Im_DanielCraig.png', 'Im_PatrickDempsey.png', 'Im_HughJackman.png', 'Im_JustinTimberlake.png', 'Im_KeanuReeves.png'],same,0,0.8501305999998294,26,0,
GUES1603,2,inv,60,pos60_id7_im15.bmp_pos60_id16_im2.bmp,['Im_OrlandoBloom.png', 'Im_ElijahWood.png', 'Im_RobertPattinson.png', 'Im_GeorgeClooney.png', 'Im_BradPitt.png', 'Im_DanielCraig.png', 'Im_PatrickDempsey.png', 'Im_HughJackman.png', 'Im_JustinTimberlake.png', 'Im_KeanuReeves.png'],diff,1,0.43341119999968214,27,0,
GUES1603,2,inv,60,pos60_id19_im8.bmp_pos60_id11_im1.bmp,['Im_OrlandoBloom.png', 'Im_ElijahWood.png', 'Im_RobertPattinson.png', 'Im_GeorgeClooney.png', 'Im_BradPitt.png', 'Im_DanielCraig.png', 'Im_PatrickDempsey.png', 'Im_HughJackman.png', 'Im_JustinTimberlake.png', 'Im_KeanuReeves.png'],diff,1,0.41674460000012914,28,0,
GUES1603,2,inv,30,pos30_id4_im20.bmp_pos30_id4_im7.bmp,['Im_OrlandoBloom.png', 'Im_ElijahWood.png', 'Im_RobertPattinson.png', 'Im_GeorgeClooney.png', 'Im_BradPitt.png', 'Im_DanielCraig.png', 'Im_PatrickDempsey.png', 'Im_HughJackman.png', 'Im_JustinTimberlake.png', 'Im_KeanuReeves.png'],same,1,0.4999781000001349,29,0,
GUES1603,2,inv,30,pos30_id10_im1.bmp_pos30_id4_im15.bmp,['Im_OrlandoBloom.png', 'Im_ElijahWood.png', 'Im_RobertPattinson.png', 'Im_GeorgeClooney.png', 'Im_BradPitt.png', 'Im_DanielCraig.png', 'Im_PatrickDempsey.png', 'Im_HughJackman.png', 'Im_JustinTimberlake.png', 'Im_KeanuReeves.png'],same,0,0.4168403999997281,29,0,
GUES1603,2,inv,120,pos120_id17_im9.bmp_pos120_id6_im19.bmp,['Im_OrlandoBloom.png', 'Im_ElijahWood.png', 'Im_RobertPattinson.png', 'Im_GeorgeClooney.png', 'Im_BradPitt.png', 'Im_DanielCraig.png', 'Im_PatrickDempsey.png', 'Im_HughJackman.png', 'Im_JustinTimberlake.png', 'Im_KeanuReeves.png'],diff,1,0.6253695999998854,30,0,
GUES1603,2,inv,0,pos0_id16_im2.bmp_pos0_id11_im1.bmp,['Im_OrlandoBloom.png', 'Im_ElijahWood.png', 'Im_RobertPattinson.png', 'Im_GeorgeClooney.png', 'Im_BradPitt.png', 'Im_DanielCraig.png', 'Im_PatrickDempsey.png', 'Im_HughJackman.png', 'Im_JustinTimberlake.png', 'Im_KeanuReeves.png'],diff,1,0.5000533000002179,31,0,
GUES1603,2,inv,150,pos150_id19_im4.bmp_pos150_id8_im20.bmp,['Im_OrlandoBloom.png', 'Im_ElijahWood.png', 'Im_RobertPattinson.png', 'Im_GeorgeClooney.png', 'Im_BradPitt.png', 'Im_DanielCraig.png', 'Im_PatrickDempsey.png', 'Im_HughJackman.png', 'Im_JustinTimberlake.png', 'Im_KeanuReeves.png'],diff,1,0.4167778000000908,32,0,
GUES1603,2,inv,fs,posfs_id7_im26.bmp_posfs_id7_im15.bmp,['Im_OrlandoBloom.png', 'Im_ElijahWood.png', 'Im_RobertPattinson.png', 'Im_GeorgeClooney.png', 'Im_BradPitt.png', 'Im_DanielCraig.png', 'Im_PatrickDempsey.png', 'Im_HughJackman.png', 'Im_JustinTimberlake.png', 'Im_KeanuReeves.png'],same,1,0.4167747999999847,33,0,
GUES1603,2,inv,150,pos150_id17_im9.bmp_pos150_id17_im8.bmp,['Im_OrlandoBloom.png', 'Im_ElijahWood.png', 'Im_RobertPattinson.png', 'Im_GeorgeClooney.png', 'Im_BradPitt.png', 'Im_DanielCraig.png', 'Im_PatrickDempsey.png', 'Im_HughJackman.png', 'Im_JustinTimberlake.png', 'Im_KeanuReeves.png'],same,1,0.40835980000019845,34,0,
GUES1603,2,inv,0,pos0_id4_im15.bmp_pos0_id4_im7.bmp,['Im_OrlandoBloom.png', 'Im_ElijahWood.png', 'Im_RobertPattinson.png', 'Im_GeorgeClooney.png', 'Im_BradPitt.png', 'Im_DanielCraig.png', 'Im_PatrickDempsey.png', 'Im_HughJackman.png', 'Im_JustinTimberlake.png', 'Im_KeanuReeves.png'],same,1,0.4083914000002551,35,0,
GUES1603,2,inv,90,pos90_id6_im19.bmp_pos90_id17_im8.bmp,['Im_OrlandoBloom.png', 'Im_ElijahWood.png', 'Im_RobertPattinson.png', 'Im_GeorgeClooney.png', 'Im_BradPitt.png', 'Im_DanielCraig.png', 'Im_PatrickDempsey.png', 'Im_HughJackman.png', 'Im_JustinTimberlake.png', 'Im_KeanuReeves.png'],same,0,0.5253588000000491,35,0,
GUES1603,2,inv,fs,posfs_id19_im4.bmp_posfs_id8_im21.bmp,['Im_OrlandoBloom.png', 'Im_ElijahWood.png', 'Im_RobertPattinson.png', 'Im_GeorgeClooney.png', 'Im_BradPitt.png', 'Im_DanielCraig.png', 'Im_PatrickDempsey.png', 'Im_HughJackman.png', 'Im_JustinTimberlake.png', 'Im_KeanuReeves.png'],diff,1,0.4167261000002327,36,0,
GUES1603,2,inv,120,pos120_id8_im21.bmp_pos120_id8_im20.bmp,['Im_OrlandoBloom.png', 'Im_ElijahWood.png', 'Im_RobertPattinson.png', 'Im_GeorgeClooney.png', 'Im_BradPitt.png', 'Im_DanielCraig.png', 'Im_PatrickDempsey.png', 'Im_HughJackman.png', 'Im_JustinTimberlake.png', 'Im_KeanuReeves.png'],same,1,0.41668110000000524,37,0,
GUES1603,3,pos,30,pos30_id6_im18.bmp_pos30_id3_im8.bmp,['Im_OrlandoBloom.png', 'Im_ElijahWood.png', 'Im_RobertPattinson.png', 'Im_GeorgeClooney.png', 'Im_BradPitt.png', 'Im_DanielCraig.png', 'Im_PatrickDempsey.png', 'Im_HughJackman.png', 'Im_JustinTimberlake.png', 'Im_KeanuReeves.png'],diff,1,0.8833300999999665,1,88.0952380952381,
GUES1603,3,pos,60,pos60_id4_im15.bmp_pos60_id4_im7.bmp,['Im_OrlandoBloom.png', 'Im_ElijahWood.png', 'Im_RobertPattinson.png', 'Im_GeorgeClooney.png', 'Im_BradPitt.png', 'Im_DanielCraig.png', 'Im_PatrickDempsey.png', 'Im_HughJackman.png', 'Im_JustinTimberlake.png', 'Im_KeanuReeves.png'],same,1,0.4167269999998098,2,88.0952380952381,
GUES1603,3,pos,fs,posfs_id17_im14.bmp_posfs_id11_im10.bmp,['Im_OrlandoBloom.png', 'Im_ElijahWood.png', 'Im_RobertPattinson.png', 'Im_GeorgeClooney.png', 'Im_BradPitt.png', 'Im_DanielCraig.png', 'Im_PatrickDempsey.png', 'Im_HughJackman.png', 'Im_JustinTimberlake.png', 'Im_KeanuReeves.png'],diff,1,1.1335347999997794,3,88.0952380952381,
GUES1603,3,pos,120,pos120_id7_im26.bmp_pos120_id16_im19.bmp,['Im_OrlandoBloom.png', 'Im_ElijahWood.png', 'Im_RobertPattinson.png', 'Im_GeorgeClooney.png', 'Im_BradPitt.png', 'Im_DanielCraig.png', 'Im_PatrickDempsey.png', 'Im_HughJackman.png', 'Im_JustinTimberlake.png', 'Im_KeanuReeves.png'],diff,1,0.42508649999990666,4,88.0952380952381,
GUES1603,3,pos,90,pos90_id17_im9.bmp_pos90_id17_im14.bmp,['Im_OrlandoBloom.png', 'Im_ElijahWood.png', 'Im_RobertPattinson.png', 'Im_GeorgeClooney.png', 'Im_BradPitt.png', 'Im_DanielCraig.png', 'Im_PatrickDempsey.png', 'Im_HughJackman.png', 'Im_JustinTimberlake.png', 'Im_KeanuReeves.png'],same,1,0.4167462999998861,5,88.0952380952381,
GUES1603,3,pos,150,pos150_id11_im2.bmp_pos150_id11_im1.bmp,['Im_OrlandoBloom.png', 'Im_ElijahWood.png', 'Im_RobertPattinson.png', 'Im_GeorgeClooney.png', 'Im_BradPitt.png', 'Im_DanielCraig.png', 'Im_PatrickDempsey.png', 'Im_HughJackman.png', 'Im_JustinTimberlake.png', 'Im_KeanuReeves.png'],same,1,0.4083325999999943,6,88.0952380952381,
GUES1603,3,pos,fs,posfs_id7_im14.bmp_posfs_id7_im15.bmp,['Im_OrlandoBloom.png', 'Im_ElijahWood.png', 'Im_RobertPattinson.png', 'Im_GeorgeClooney.png', 'Im_BradPitt.png', 'Im_DanielCraig.png', 'Im_PatrickDempsey.png', 'Im_HughJackman.png', 'Im_JustinTimberlake.png', 'Im_KeanuReeves.png'],same,1,0.42521890000034546,7,88.0952380952381,
GUES1603,3,pos,90,pos90_id3_im8.bmp_pos90_id3_im17.bmp,['Im_OrlandoBloom.png', 'Im_ElijahWood.png', 'Im_RobertPattinson.png', 'Im_GeorgeClooney.png', 'Im_BradPitt.png', 'Im_DanielCraig.png', 'Im_PatrickDempsey.png', 'Im_HughJackman.png', 'Im_JustinTimberlake.png', 'Im_KeanuReeves.png'],same,1,0.42525069999965126,8,88.0952380952381,
GUES1603,3,pos,0,pos0_id4_im7.bmp_pos0_id17_im14.bmp,['Im_OrlandoBloom.png', 'Im_ElijahWood.png', 'Im_RobertPattinson.png', 'Im_GeorgeClooney.png', 'Im_BradPitt.png', 'Im_DanielCraig.png', 'Im_PatrickDempsey.png', 'Im_HughJackman.png', 'Im_JustinTimberlake.png', 'Im_KeanuReeves.png'],diff,1,0.4169664000000921,9,88.0952380952381,
GUES1603,3,pos,0,pos0_id3_im8.bmp_pos0_id3_im6.bmp,['Im_OrlandoBloom.png', 'Im_ElijahWood.png', 'Im_RobertPattinson.png', 'Im_GeorgeClooney.png', 'Im_BradPitt.png', 'Im_DanielCraig.png', 'Im_PatrickDempsey.png', 'Im_HughJackman.png', 'Im_JustinTimberlake.png', 'Im_KeanuReeves.png'],same,1,0.4500733999998374,10,88.0952380952381,
GUES1603,3,pos,150,pos150_id7_im26.bmp_pos150_id3_im6.bmp,['Im_OrlandoBloom.png', 'Im_ElijahWood.png', 'Im_RobertPattinson.png', 'Im_GeorgeClooney.png', 'Im_BradPitt.png', 'Im_DanielCraig.png', 'Im_PatrickDempsey.png', 'Im_HughJackman.png', 'Im_JustinTimberlake.png', 'Im_KeanuReeves.png'],diff,1,0.41672330000028524,11,88.0952380952381,
GUES1603,3,pos,120,pos120_id19_im27.bmp_pos120_id11_im10.bmp,['Im_OrlandoBloom.png', 'Im_ElijahWood.png', 'Im_RobertPattinson.png', 'Im_GeorgeClooney.png', 'Im_BradPitt.png', 'Im_DanielCraig.png', 'Im_PatrickDempsey.png', 'Im_HughJackman.png', 'Im_JustinTimberlake.png', 'Im_KeanuReeves.png'],diff,1,0.42497129999992467,12,88.0952380952381,
GUES1603,3,pos,60,pos60_id17_im9.bmp_pos60_id17_im8.bmp,['Im_OrlandoBloom.png', 'Im_ElijahWood.png', 'Im_RobertPattinson.png', 'Im_GeorgeClooney.png', 'Im_BradPitt.png', 'Im_DanielCraig.png', 'Im_PatrickDempsey.png', 'Im_HughJackman.png', 'Im_JustinTimberlake.png', 'Im_KeanuReeves.png'],same,1,0.43339919999971244,13,88.0952380952381,
GUES1603,3,pos,30,pos30_id10_im1.bmp_pos30_id4_im15.bmp,['Im_OrlandoBloom.png', 'Im_ElijahWood.png', 'Im_RobertPattinson.png', 'Im_GeorgeClooney.png', 'Im_BradPitt.png', 'Im_DanielCraig.png', 'Im_PatrickDempsey.png', 'Im_HughJackman.png', 'Im_JustinTimberlake.png', 'Im_KeanuReeves.png'],diff,1,0.4251304999997956,14,88.0952380952381,
GUES1603,4,neg,fs,negfs_id7_im26.bmp_negfs_id3_im6.bmp,['Im_OrlandoBloom.png', 'Im_ElijahWood.png', 'Im_RobertPattinson.png', 'Im_GeorgeClooney.png', 'Im_BradPitt.png', 'Im_DanielCraig.png', 'Im_PatrickDempsey.png', 'Im_HughJackman.png', 'Im_JustinTimberlake.png', 'Im_KeanuReeves.png'],diff,1,0.4250989000001937,15,88.0952380952381,
GUES1603,4,neg,150,neg150_id11_im10.bmp_neg150_id11_im2.bmp,['Im_OrlandoBloom.png', 'Im_ElijahWood.png', 'Im_RobertPattinson.png', 'Im_GeorgeClooney.png', 'Im_BradPitt.png', 'Im_DanielCraig.png', 'Im_PatrickDempsey.png', 'Im_HughJackman.png', 'Im_JustinTimberlake.png', 'Im_KeanuReeves.png'],same,1,0.4167339999999058,16,88.0952380952381,
GUES1603,4,neg,90,neg90_id10_im18.bmp_neg90_id10_im1.bmp,['Im_OrlandoBloom.png', 'Im_ElijahWood.png', 'Im_RobertPattinson.png', 'Im_GeorgeClooney.png', 'Im_BradPitt.png', 'Im_DanielCraig.png', 'Im_PatrickDempsey.png', 'Im_HughJackman.png', 'Im_JustinTimberlake.png', 'Im_KeanuReeves.png'],same,1,0.7003134999999929,17,88.0952380952381,
GUES1603,4,neg,150,neg150_id10_im18.bmp_neg150_id3_im8.bmp,['Im_OrlandoBloom.png', 'Im_ElijahWood.png', 'Im_RobertPattinson.png', 'Im_GeorgeClooney.png', 'Im_BradPitt.png', 'Im_DanielCraig.png', 'Im_PatrickDempsey.png', 'Im_HughJackman.png', 'Im_JustinTimberlake.png', 'Im_KeanuReeves.png'],diff,1,0.416699499999595,18,88.0952380952381,
GUES1603,4,neg,0,neg0_id8_im21.bmp_neg0_id19_im4.bmp,['Im_OrlandoBloom.png', 'Im_ElijahWood.png', 'Im_RobertPattinson.png', 'Im_GeorgeClooney.png', 'Im_BradPitt.png', 'Im_DanielCraig.png', 'Im_PatrickDempsey.png', 'Im_HughJackman.png', 'Im_JustinTimberlake.png', 'Im_KeanuReeves.png'],diff,1,0.4167778000000908,19,88.0952380952381,
GUES1603,4,neg,60,neg60_id17_im8.bmp_neg60_id6_im19.bmp,['Im_OrlandoBloom.png', 'Im_ElijahWood.png', 'Im_RobertPattinson.png', 'Im_GeorgeClooney.png', 'Im_BradPitt.png', 'Im_DanielCraig.png', 'Im_PatrickDempsey.png', 'Im_HughJackman.png', 'Im_JustinTimberlake.png', 'Im_KeanuReeves.png'],diff,1,0.42520909999984724,20,88.0952380952381,
GUES1603,4,neg,30,neg30_id8_im20.bmp_neg30_id19_im4.bmp,['Im_OrlandoBloom.png', 'Im_ElijahWood.png', 'Im_RobertPattinson.png', 'Im_GeorgeClooney.png', 'Im_BradPitt.png', 'Im_DanielCraig.png', 'Im_PatrickDempsey.png', 'Im_HughJackman.png', 'Im_JustinTimberlake.png', 'Im_KeanuReeves.png'],diff,1,0.41659560000016427,21,88.0952380952381,
GUES1603,4,neg,60,neg60_id4_im15.bmp_neg60_id10_im1.bmp,['Im_OrlandoBloom.png', 'Im_ElijahWood.png', 'Im_RobertPattinson.png', 'Im_GeorgeClooney.png', 'Im_BradPitt.png', 'Im_DanielCraig.png', 'Im_PatrickDempsey.png', 'Im_HughJackman.png', 'Im_JustinTimberlake.png', 'Im_KeanuReeves.png'],diff,1,0.4167508000000453,22,88.0952380952381,
GUES1603,4,neg,120,neg120_id19_im8.bmp_neg120_id16_im3.bmp,['Im_OrlandoBloom.png', 'Im_ElijahWood.png', 'Im_RobertPattinson.png', 'Im_GeorgeClooney.png', 'Im_BradPitt.png', 'Im_DanielCraig.png', 'Im_PatrickDempsey.png', 'Im_HughJackman.png', 'Im_JustinTimberlake.png', 'Im_KeanuReeves.png'],diff,1,0.4250512999997227,23,88.0952380952381,
GUES1603,4,neg,0,neg0_id19_im4.bmp_neg0_id19_im8.bmp,['Im_OrlandoBloom.png', 'Im_ElijahWood.png', 'Im_RobertPattinson.png', 'Im_GeorgeClooney.png', 'Im_BradPitt.png', 'Im_DanielCraig.png', 'Im_PatrickDempsey.png', 'Im_HughJackman.png', 'Im_JustinTimberlake.png', 'Im_KeanuReeves.png'],same,1,0.4168371999999181,24,88.0952380952381,
GUES1603,4,neg,30,neg30_id8_im21.bmp_neg30_id4_im7.bmp,['Im_OrlandoBloom.png', 'Im_ElijahWood.png', 'Im_RobertPattinson.png', 'Im_GeorgeClooney.png', 'Im_BradPitt.png', 'Im_DanielCraig.png', 'Im_PatrickDempsey.png', 'Im_HughJackman.png', 'Im_JustinTimberlake.png', 'Im_KeanuReeves.png'],diff,1,0.5333900999999059,25,88.0952380952381,
GUES1603,4,neg,90,neg90_id16_im3.bmp_neg90_id16_im2.bmp,['Im_OrlandoBloom.png', 'Im_ElijahWood.png', 'Im_RobertPattinson.png', 'Im_GeorgeClooney.png', 'Im_BradPitt.png', 'Im_DanielCraig.png', 'Im_PatrickDempsey.png', 'Im_HughJackman.png', 'Im_JustinTimberlake.png', 'Im_KeanuReeves.png'],same,1,0.4252142999998796,26,88.0952380952381,
GUES1603,4,neg,fs,negfs_id11_im2.bmp_negfs_id4_im15.bmp,['Im_OrlandoBloom.png', 'Im_ElijahWood.png', 'Im_RobertPattinson.png', 'Im_GeorgeClooney.png', 'Im_BradPitt.png', 'Im_DanielCraig.png', 'Im_PatrickDempsey.png', 'Im_HughJackman.png', 'Im_JustinTimberlake.png', 'Im_KeanuReeves.png'],diff,1,0.40843489999997473,27,88.0952380952381,
GUES1603,4,neg,120,neg120_id3_im8.bmp_neg120_id6_im18.bmp,['Im_OrlandoBloom.png', 'Im_ElijahWood.png', 'Im_RobertPattinson.png', 'Im_GeorgeClooney.png', 'Im_BradPitt.png', 'Im_DanielCraig.png', 'Im_PatrickDempsey.png', 'Im_HughJackman.png', 'Im_JustinTimberlake.png', 'Im_KeanuReeves.png'],same,0,0.7589450999998917,27,88.0952380952381,
GUES1603,5,pos,60,pos60_id16_im3.bmp_pos60_id16_im19.bmp,['Im_OrlandoBloom.png', 'Im_ElijahWood.png', 'Im_RobertPattinson.png', 'Im_GeorgeClooney.png', 'Im_BradPitt.png', 'Im_DanielCraig.png', 'Im_PatrickDempsey.png', 'Im_HughJackman.png', 'Im_JustinTimberlake.png', 'Im_KeanuReeves.png'],same,1,0.4250858000000335,28,88.0952380952381,
GUES1603,5,pos,0,pos0_id19_im4.bmp_pos0_id8_im21.bmp,['Im_OrlandoBloom.png', 'Im_ElijahWood.png', 'Im_RobertPattinson.png', 'Im_GeorgeClooney.png', 'Im_BradPitt.png', 'Im_DanielCraig.png', 'Im_PatrickDempsey.png', 'Im_HughJackman.png', 'Im_JustinTimberlake.png', 'Im_KeanuReeves.png'],diff,1,0.4250712999996722,29,88.0952380952381,
GUES1603,5,pos,90,pos90_id7_im26.bmp_pos90_id3_im6.bmp,['Im_OrlandoBloom.png', 'Im_ElijahWood.png', 'Im_RobertPattinson.png', 'Im_GeorgeClooney.png', 'Im_BradPitt.png', 'Im_DanielCraig.png', 'Im_PatrickDempsey.png', 'Im_HughJackman.png', 'Im_JustinTimberlake.png', 'Im_KeanuReeves.png'],diff,1,0.41690650000009555,30,88.0952380952381,
GUES1603,5,pos,0,pos0_id4_im20.bmp_pos0_id17_im9.bmp,['Im_OrlandoBloom.png', 'Im_ElijahWood.png', 'Im_RobertPattinson.png', 'Im_GeorgeClooney.png', 'Im_BradPitt.png', 'Im_DanielCraig.png', 'Im_PatrickDempsey.png', 'Im_HughJackman.png', 'Im_JustinTimberlake.png', 'Im_KeanuReeves.png'],diff,1,0.42508790000010777,31,88.0952380952381,
GUES1603,5,pos,150,pos150_id17_im9.bmp_pos150_id17_im8.bmp,['Im_OrlandoBloom.png', 'Im_ElijahWood.png', 'Im_RobertPattinson.png', 'Im_GeorgeClooney.png', 'Im_BradPitt.png', 'Im_DanielCraig.png', 'Im_PatrickDempsey.png', 'Im_HughJackman.png', 'Im_JustinTimberlake.png', 'Im_KeanuReeves.png'],same,1,0.4082659999999123,32,88.0952380952381,
GUES1603,5,pos,60,pos60_id11_im2.bmp_pos60_id11_im1.bmp,['Im_OrlandoBloom.png', 'Im_ElijahWood.png', 'Im_RobertPattinson.png', 'Im_GeorgeClooney.png', 'Im_BradPitt.png', 'Im_DanielCraig.png', 'Im_PatrickDempsey.png', 'Im_HughJackman.png', 'Im_JustinTimberlake.png', 'Im_KeanuReeves.png'],same,1,0.4167731000002277,33,88.0952380952381,
GUES1603,5,pos,120,pos120_id11_im1.bmp_pos120_id11_im10.bmp,['Im_OrlandoBloom.png', 'Im_ElijahWood.png', 'Im_RobertPattinson.png', 'Im_GeorgeClooney.png', 'Im_BradPitt.png', 'Im_DanielCraig.png', 'Im_PatrickDempsey.png', 'Im_HughJackman.png', 'Im_JustinTimberlake.png', 'Im_KeanuReeves.png'],same,1,0.41645440000002054,34,88.0952380952381,
GUES1603,5,pos,30,pos30_id7_im14.bmp_pos30_id6_im12.bmp,['Im_OrlandoBloom.png', 'Im_ElijahWood.png', 'Im_RobertPattinson.png', 'Im_GeorgeClooney.png', 'Im_BradPitt.png', 'Im_DanielCraig.png', 'Im_PatrickDempsey.png', 'Im_HughJackman.png', 'Im_JustinTimberlake.png', 'Im_KeanuReeves.png'],diff,1,0.42501910000009957,35,88.0952380952381,
GUES1603,5,pos,30,pos30_id17_im14.bmp_pos30_id17_im8.bmp,['Im_OrlandoBloom.png', 'Im_ElijahWood.png', 'Im_RobertPattinson.png', 'Im_GeorgeClooney.png', 'Im_BradPitt.png', 'Im_DanielCraig.png', 'Im_PatrickDempsey.png', 'Im_HughJackman.png', 'Im_JustinTimberlake.png', 'Im_KeanuReeves.png'],same,1,0.4166795999999522,36,88.0952380952381,
GUES1603,5,pos,fs,posfs_id4_im20.bmp_posfs_id4_im7.bmp,['Im_OrlandoBloom.png', 'Im_ElijahWood.png', 'Im_RobertPattinson.png', 'Im_GeorgeClooney.png', 'Im_BradPitt.png', 'Im_DanielCraig.png', 'Im_PatrickDempsey.png', 'Im_HughJackman.png', 'Im_JustinTimberlake.png', 'Im_KeanuReeves.png'],same,1,0.43328840000003765,37,88.0952380952381,
GUES1603,5,pos,fs,posfs_id19_im8.bmp_posfs_id19_im27.bmp,['Im_OrlandoBloom.png', 'Im_ElijahWood.png', 'Im_RobertPattinson.png', 'Im_GeorgeClooney.png', 'Im_BradPitt.png', 'Im_DanielCraig.png', 'Im_PatrickDempsey.png', 'Im_HughJackman.png', 'Im_JustinTimberlake.png', 'Im_KeanuReeves.png'],same,1,0.4249721999999565,38,88.0952380952381,
GUES1603,5,pos,150,pos150_id6_im18.bmp_pos150_id6_im12.bmp,['Im_OrlandoBloom.png', 'Im_ElijahWood.png', 'Im_RobertPattinson.png', 'Im_GeorgeClooney.png', 'Im_BradPitt.png', 'Im_DanielCraig.png', 'Im_PatrickDempsey.png', 'Im_HughJackman.png', 'Im_JustinTimberlake.png', 'Im_KeanuReeves.png'],diff,0,0.4168635999999424,38,88.0952380952381,
GUES1603,5,pos,120,pos120_id19_im4.bmp_pos120_id19_im27.bmp,['Im_OrlandoBloom.png', 'Im_ElijahWood.png', 'Im_RobertPattinson.png', 'Im_GeorgeClooney.png', 'Im_BradPitt.png', 'Im_DanielCraig.png', 'Im_PatrickDempsey.png', 'Im_HughJackman.png', 'Im_JustinTimberlake.png', 'Im_KeanuReeves.png'],same,1,0.41658000000006723,39,88.0952380952381,
GUES1603,5,pos,90,pos90_id8_im20.bmp_pos90_id3_im17.bmp,['Im_OrlandoBloom.png', 'Im_ElijahWood.png', 'Im_RobertPattinson.png', 'Im_GeorgeClooney.png', 'Im_BradPitt.png', 'Im_DanielCraig.png', 'Im_PatrickDempsey.png', 'Im_HughJackman.png', 'Im_JustinTimberlake.png', 'Im_KeanuReeves.png'],diff,1,0.4166330000002745,40,88.0952380952381,
GUES1603,6,inv,60,pos60_id3_im8.bmp_pos60_id6_im18.bmp,['Im_OrlandoBloom.png', 'Im_ElijahWood.png', 'Im_RobertPattinson.png', 'Im_GeorgeClooney.png', 'Im_BradPitt.png', 'Im_DanielCraig.png', 'Im_PatrickDempsey.png', 'Im_HughJackman.png', 'Im_JustinTimberlake.png', 'Im_KeanuReeves.png'],diff,1,0.4168107999998938,1,95.23809523809524,
GUES1603,6,inv,90,pos90_id4_im20.bmp_pos90_id4_im7.bmp,['Im_OrlandoBloom.png', 'Im_ElijahWood.png', 'Im_RobertPattinson.png', 'Im_GeorgeClooney.png', 'Im_BradPitt.png', 'Im_DanielCraig.png', 'Im_PatrickDempsey.png', 'Im_HughJackman.png', 'Im_JustinTimberlake.png', 'Im_KeanuReeves.png'],same,1,0.5334192999998777,2,95.23809523809524,
GUES1603,6,inv,150,pos150_id6_im19.bmp_pos150_id6_im18.bmp,['Im_OrlandoBloom.png', 'Im_ElijahWood.png', 'Im_RobertPattinson.png', 'Im_GeorgeClooney.png', 'Im_BradPitt.png', 'Im_DanielCraig.png', 'Im_PatrickDempsey.png', 'Im_HughJackman.png', 'Im_JustinTimberlake.png', 'Im_KeanuReeves.png'],same,1,0.4167284000000109,3,95.23809523809524,
GUES1603,6,inv,0,pos0_id19_im8.bmp_pos0_id11_im1.bmp,['Im_OrlandoBloom.png', 'Im_ElijahWood.png', 'Im_RobertPattinson.png', 'Im_GeorgeClooney.png', 'Im_BradPitt.png', 'Im_DanielCraig.png', 'Im_PatrickDempsey.png', 'Im_HughJackman.png', 'Im_JustinTimberlake.png', 'Im_KeanuReeves.png'],diff,1,0.5252774999999019,4,95.23809523809524,
GUES1603,6,inv,150,pos150_id8_im13.bmp_pos150_id6_im18.bmp,['Im_OrlandoBloom.png', 'Im_ElijahWood.png', 'Im_RobertPattinson.png', 'Im_GeorgeClooney.png', 'Im_BradPitt.png', 'Im_DanielCraig.png', 'Im_PatrickDempsey.png', 'Im_HughJackman.png', 'Im_JustinTimberlake.png', 'Im_KeanuReeves.png'],diff,1,0.5167111000000659,5,95.23809523809524,
GUES1603,6,inv,60,pos60_id6_im18.bmp_pos60_id6_im19.bmp,['Im_OrlandoBloom.png', 'Im_ElijahWood.png', 'Im_RobertPattinson.png', 'Im_GeorgeClooney.png', 'Im_BradPitt.png', 'Im_DanielCraig.png', 'Im_PatrickDempsey.png', 'Im_HughJackman.png', 'Im_JustinTimberlake.png', 'Im_KeanuReeves.png'],same,1,0.4753611000001001,6,95.23809523809524,
GUES1603,6,inv,fs,posfs_id4_im20.bmp_posfs_id4_im7.bmp,['Im_OrlandoBloom.png', 'Im_ElijahWood.png', 'Im_RobertPattinson.png', 'Im_GeorgeClooney.png', 'Im_BradPitt.png', 'Im_DanielCraig.png', 'Im_PatrickDempsey.png', 'Im_HughJackman.png', 'Im_JustinTimberlake.png', 'Im_KeanuReeves.png'],same,1,0.41678749999982756,7,95.23809523809524,
GUES1603,6,inv,30,pos30_id19_im8.bmp_pos30_id16_im3.bmp,['Im_OrlandoBloom.png', 'Im_ElijahWood.png', 'Im_RobertPattinson.png', 'Im_GeorgeClooney.png', 'Im_BradPitt.png', 'Im_DanielCraig.png', 'Im_PatrickDempsey.png', 'Im_HughJackman.png', 'Im_JustinTimberlake.png', 'Im_KeanuReeves.png'],same,0,0.4166885999998158,7,95.23809523809524,
GUES1603,6,inv,30,pos30_id11_im1.bmp_pos30_id16_im2.bmp,['Im_OrlandoBloom.png', 'Im_ElijahWood.png', 'Im_RobertPattinson.png', 'Im_GeorgeClooney.png', 'Im_BradPitt.png', 'Im_DanielCraig.png', 'Im_PatrickDempsey.png', 'Im_HughJackman.png', 'Im_JustinTimberlake.png', 'Im_KeanuReeves.png'],same,0,0.6832343999999466,7,95.23809523809524,
GUES1603,6,inv,120,pos120_id4_im15.bmp_pos120_id4_im20.bmp,['Im_OrlandoBloom.png', 'Im_ElijahWood.png', 'Im_RobertPattinson.png', 'Im_GeorgeClooney.png', 'Im_BradPitt.png', 'Im_DanielCraig.png', 'Im_PatrickDempsey.png', 'Im_HughJackman.png', 'Im_JustinTimberlake.png', 'Im_KeanuReeves.png'],same,1,0.5920058000001518,8,95.23809523809524,
GUES1603,6,inv,90,pos90_id4_im20.bmp_pos90_id17_im9.bmp,['Im_OrlandoBloom.png', 'Im_ElijahWood.png', 'Im_RobertPattinson.png', 'Im_GeorgeClooney.png', 'Im_BradPitt.png', 'Im_DanielCraig.png', 'Im_PatrickDempsey.png', 'Im_HughJackman.png', 'Im_JustinTimberlake.png', 'Im_KeanuReeves.png'],diff,1,0.425257700000202,9,95.23809523809524,
GUES1603,6,inv,120,pos120_id6_im19.bmp_pos120_id6_im18.bmp,['Im_OrlandoBloom.png', 'Im_ElijahWood.png', 'Im_RobertPattinson.png', 'Im_GeorgeClooney.png', 'Im_BradPitt.png', 'Im_DanielCraig.png', 'Im_PatrickDempsey.png', 'Im_HughJackman.png', 'Im_JustinTimberlake.png', 'Im_KeanuReeves.png'],same,1,0.4083520999997745,10,95.23809523809524,
GUES1603,6,inv,fs,posfs_id3_im17.bmp_posfs_id16_im19.bmp,['Im_OrlandoBloom.png', 'Im_ElijahWood.png', 'Im_RobertPattinson.png', 'Im_GeorgeClooney.png', 'Im_BradPitt.png', 'Im_DanielCraig.png', 'Im_PatrickDempsey.png', 'Im_HughJackman.png', 'Im_JustinTimberlake.png', 'Im_KeanuReeves.png'],diff,1,0.42505830000027345,11,95.23809523809524,
GUES1603,6,inv,0,pos0_id3_im6.bmp_pos0_id3_im17.bmp,['Im_OrlandoBloom.png', 'Im_ElijahWood.png', 'Im_RobertPattinson.png', 'Im_GeorgeClooney.png', 'Im_BradPitt.png', 'Im_DanielCraig.png', 'Im_PatrickDempsey.png', 'Im_HughJackman.png', 'Im_JustinTimberlake.png', 'Im_KeanuReeves.png'],diff,0,0.4084121999999297,11,95.23809523809524,
GUES1603,7,inv,0,pos0_id10_im1.bmp_pos0_id4_im15.bmp,['Im_OrlandoBloom.png', 'Im_ElijahWood.png', 'Im_RobertPattinson.png', 'Im_GeorgeClooney.png', 'Im_BradPitt.png', 'Im_DanielCraig.png', 'Im_PatrickDempsey.png', 'Im_HughJackman.png', 'Im_JustinTimberlake.png', 'Im_KeanuReeves.png'],same,0,0.43341899999995803,11,95.23809523809524,
GUES1603,7,inv,90,pos90_id16_im2.bmp_pos90_id11_im1.bmp,['Im_OrlandoBloom.png', 'Im_ElijahWood.png', 'Im_RobertPattinson.png', 'Im_GeorgeClooney.png', 'Im_BradPitt.png', 'Im_DanielCraig.png', 'Im_PatrickDempsey.png', 'Im_HughJackman.png', 'Im_JustinTimberlake.png', 'Im_KeanuReeves.png'],diff,1,0.5337962000003245,12,95.23809523809524,
GUES1603,7,inv,60,pos60_id4_im7.bmp_pos60_id17_im14.bmp,['Im_OrlandoBloom.png', 'Im_ElijahWood.png', 'Im_RobertPattinson.png', 'Im_GeorgeClooney.png', 'Im_BradPitt.png', 'Im_DanielCraig.png', 'Im_PatrickDempsey.png', 'Im_HughJackman.png', 'Im_JustinTimberlake.png', 'Im_KeanuReeves.png'],diff,1,0.42526000000043496,13,95.23809523809524,
GUES1603,7,inv,120,pos120_id3_im8.bmp_pos120_id6_im18.bmp,['Im_OrlandoBloom.png', 'Im_ElijahWood.png', 'Im_RobertPattinson.png', 'Im_GeorgeClooney.png', 'Im_BradPitt.png', 'Im_DanielCraig.png', 'Im_PatrickDempsey.png', 'Im_HughJackman.png', 'Im_JustinTimberlake.png', 'Im_KeanuReeves.png'],diff,1,0.6499428000001899,14,95.23809523809524,
GUES1603,7,inv,90,pos90_id19_im4.bmp_pos90_id8_im21.bmp,['Im_OrlandoBloom.png', 'Im_ElijahWood.png', 'Im_RobertPattinson.png', 'Im_GeorgeClooney.png', 'Im_BradPitt.png', 'Im_DanielCraig.png', 'Im_PatrickDempsey.png', 'Im_HughJackman.png', 'Im_JustinTimberlake.png', 'Im_KeanuReeves.png'],diff,1,0.6669369999999617,15,95.23809523809524,
GUES1603,7,inv,0,pos0_id7_im15.bmp_pos0_id7_im26.bmp,['Im_OrlandoBloom.png', 'Im_ElijahWood.png', 'Im_RobertPattinson.png', 'Im_GeorgeClooney.png', 'Im_BradPitt.png', 'Im_DanielCraig.png', 'Im_PatrickDempsey.png', 'Im_HughJackman.png', 'Im_JustinTimberlake.png', 'Im_KeanuReeves.png'],same,1,0.41675800000029994,16,95.23809523809524,
GUES1603,7,inv,150,pos150_id16_im3.bmp_pos150_id8_im13.bmp,['Im_OrlandoBloom.png', 'Im_ElijahWood.png', 'Im_RobertPattinson.png', 'Im_GeorgeClooney.png', 'Im_BradPitt.png', 'Im_DanielCraig.png', 'Im_PatrickDempsey.png', 'Im_HughJackman.png', 'Im_JustinTimberlake.png', 'Im_KeanuReeves.png'],same,0,0.7252713999996558,16,95.23809523809524,
GUES1603,7,inv,fs,posfs_id19_im4.bmp_posfs_id19_im27.bmp,['Im_OrlandoBloom.png', 'Im_ElijahWood.png', 'Im_RobertPattinson.png', 'Im_GeorgeClooney.png', 'Im_BradPitt.png', 'Im_DanielCraig.png', 'Im_PatrickDempsey.png', 'Im_HughJackman.png', 'Im_JustinTimberlake.png', 'Im_KeanuReeves.png'],same,1,0.4168663000000379,17,95.23809523809524,
GUES1603,7,inv,fs,posfs_id4_im7.bmp_posfs_id4_im15.bmp,['Im_OrlandoBloom.png', 'Im_ElijahWood.png', 'Im_RobertPattinson.png', 'Im_GeorgeClooney.png', 'Im_BradPitt.png', 'Im_DanielCraig.png', 'Im_PatrickDempsey.png', 'Im_HughJackman.png', 'Im_JustinTimberlake.png', 'Im_KeanuReeves.png'],same,1,0.4167070999997122,18,95.23809523809524,
GUES1603,7,inv,30,pos30_id10_im18.bmp_pos30_id11_im2.bmp,['Im_OrlandoBloom.png', 'Im_ElijahWood.png', 'Im_RobertPattinson.png', 'Im_GeorgeClooney.png', 'Im_BradPitt.png', 'Im_DanielCraig.png', 'Im_PatrickDempsey.png', 'Im_HughJackman.png', 'Im_JustinTimberlake.png', 'Im_KeanuReeves.png'],diff,1,0.4166173999997227,19,95.23809523809524,
GUES1603,7,inv,120,pos120_id6_im18.bmp_pos120_id6_im12.bmp,['Im_OrlandoBloom.png', 'Im_ElijahWood.png', 'Im_RobertPattinson.png', 'Im_GeorgeClooney.png', 'Im_BradPitt.png', 'Im_DanielCraig.png', 'Im_PatrickDempsey.png', 'Im_HughJackman.png', 'Im_JustinTimberlake.png', 'Im_KeanuReeves.png'],diff,0,0.6002330999999685,19,95.23809523809524,
GUES1603,7,inv,60,pos60_id6_im12.bmp_pos60_id7_im14.bmp,['Im_OrlandoBloom.png', 'Im_ElijahWood.png', 'Im_RobertPattinson.png', 'Im_GeorgeClooney.png', 'Im_BradPitt.png', 'Im_DanielCraig.png', 'Im_PatrickDempsey.png', 'Im_HughJackman.png', 'Im_JustinTimberlake.png', 'Im_KeanuReeves.png'],diff,1,0.41669769999998607,20,95.23809523809524,
GUES1603,7,inv,150,pos150_id3_im17.bmp_pos150_id3_im8.bmp,['Im_OrlandoBloom.png', 'Im_ElijahWood.png', 'Im_RobertPattinson.png', 'Im_GeorgeClooney.png', 'Im_BradPitt.png', 'Im_DanielCraig.png', 'Im_PatrickDempsey.png', 'Im_HughJackman.png', 'Im_JustinTimberlake.png', 'Im_KeanuReeves.png'],diff,0,0.4251039999999193,20,95.23809523809524,
GUES1603,7,inv,30,pos30_id19_im27.bmp_pos30_id6_im12.bmp,['Im_OrlandoBloom.png', 'Im_ElijahWood.png', 'Im_RobertPattinson.png', 'Im_GeorgeClooney.png', 'Im_BradPitt.png', 'Im_DanielCraig.png', 'Im_PatrickDempsey.png', 'Im_HughJackman.png', 'Im_JustinTimberlake.png', 'Im_KeanuReeves.png'],diff,1,0.41677260000005845,21,95.23809523809524,
GUES1603,8,neg,120,neg120_id17_im8.bmp_neg120_id17_im14.bmp,['Im_OrlandoBloom.png', 'Im_ElijahWood.png', 'Im_RobertPattinson.png', 'Im_GeorgeClooney.png', 'Im_BradPitt.png', 'Im_DanielCraig.png', 'Im_PatrickDempsey.png', 'Im_HughJackman.png', 'Im_JustinTimberlake.png', 'Im_KeanuReeves.png'],same,1,0.42505609999989247,22,95.23809523809524,
GUES1603,8,neg,30,neg30_id7_im15.bmp_neg30_id7_im14.bmp,['Im_OrlandoBloom.png', 'Im_ElijahWood.png', 'Im_RobertPattinson.png', 'Im_GeorgeClooney.png', 'Im_BradPitt.png', 'Im_DanielCraig.png', 'Im_PatrickDempsey.png', 'Im_HughJackman.png', 'Im_JustinTimberlake.png', 'Im_KeanuReeves.png'],diff,0,0.41677179999987857,22,95.23809523809524,
GUES1603,8,neg,fs,negfs_id3_im17.bmp_negfs_id3_im6.bmp,['Im_OrlandoBloom.png', 'Im_ElijahWood.png', 'Im_RobertPattinson.png', 'Im_GeorgeClooney.png', 'Im_BradPitt.png', 'Im_DanielCraig.png', 'Im_PatrickDempsey.png', 'Im_HughJackman.png', 'Im_JustinTimberlake.png', 'Im_KeanuReeves.png'],same,1,0.43343670000012935,23,95.23809523809524,
GUES1603,8,neg,fs,negfs_id17_im8.bmp_negfs_id17_im9.bmp,['Im_OrlandoBloom.png', 'Im_ElijahWood.png', 'Im_RobertPattinson.png', 'Im_GeorgeClooney.png', 'Im_BradPitt.png', 'Im_DanielCraig.png', 'Im_PatrickDempsey.png', 'Im_HughJackman.png', 'Im_JustinTimberlake.png', 'Im_KeanuReeves.png'],same,1,0.40846890000011626,24,95.23809523809524,
GUES1603,8,neg,0,neg0_id10_im18.bmp_neg0_id3_im8.bmp,['Im_OrlandoBloom.png', 'Im_ElijahWood.png', 'Im_RobertPattinson.png', 'Im_GeorgeClooney.png', 'Im_BradPitt.png', 'Im_DanielCraig.png', 'Im_PatrickDempsey.png', 'Im_HughJackman.png', 'Im_JustinTimberlake.png', 'Im_KeanuReeves.png'],diff,1,0.4167461000001822,25,95.23809523809524,
GUES1603,8,neg,120,neg120_id11_im1.bmp_neg120_id11_im10.bmp,['Im_OrlandoBloom.png', 'Im_ElijahWood.png', 'Im_RobertPattinson.png', 'Im_GeorgeClooney.png', 'Im_BradPitt.png', 'Im_DanielCraig.png', 'Im_PatrickDempsey.png', 'Im_HughJackman.png', 'Im_JustinTimberlake.png', 'Im_KeanuReeves.png'],same,1,0.4250281000004179,26,95.23809523809524,
GUES1603,8,neg,90,neg90_id10_im17.bmp_neg90_id10_im18.bmp,['Im_OrlandoBloom.png', 'Im_ElijahWood.png', 'Im_RobertPattinson.png', 'Im_GeorgeClooney.png', 'Im_BradPitt.png', 'Im_DanielCraig.png', 'Im_PatrickDempsey.png', 'Im_HughJackman.png', 'Im_JustinTimberlake.png', 'Im_KeanuReeves.png'],same,1,0.4165889999999308,27,95.23809523809524,
GUES1603,8,neg,60,neg60_id17_im14.bmp_neg60_id4_im7.bmp,['Im_OrlandoBloom.png', 'Im_ElijahWood.png', 'Im_RobertPattinson.png', 'Im_GeorgeClooney.png', 'Im_BradPitt.png', 'Im_DanielCraig.png', 'Im_PatrickDempsey.png', 'Im_HughJackman.png', 'Im_JustinTimberlake.png', 'Im_KeanuReeves.png'],diff,1,0.4166954000002079,28,95.23809523809524,
GUES1603,8,neg,90,neg90_id10_im18.bmp_neg90_id3_im8.bmp,['Im_OrlandoBloom.png', 'Im_ElijahWood.png', 'Im_RobertPattinson.png', 'Im_GeorgeClooney.png', 'Im_BradPitt.png', 'Im_DanielCraig.png', 'Im_PatrickDempsey.png', 'Im_HughJackman.png', 'Im_JustinTimberlake.png', 'Im_KeanuReeves.png'],diff,1,0.7001411000001099,29,95.23809523809524,
GUES1603,8,neg,30,neg30_id19_im27.bmp_neg30_id11_im10.bmp,['Im_OrlandoBloom.png', 'Im_ElijahWood.png', 'Im_RobertPattinson.png', 'Im_GeorgeClooney.png', 'Im_BradPitt.png', 'Im_DanielCraig.png', 'Im_PatrickDempsey.png', 'Im_HughJackman.png', 'Im_JustinTimberlake.png', 'Im_KeanuReeves.png'],diff,1,0.42514029999983904,30,95.23809523809524,
GUES1603,8,neg,150,neg150_id19_im27.bmp_neg150_id19_im8.bmp,['Im_OrlandoBloom.png', 'Im_ElijahWood.png', 'Im_RobertPattinson.png', 'Im_GeorgeClooney.png', 'Im_BradPitt.png', 'Im_DanielCraig.png', 'Im_PatrickDempsey.png', 'Im_HughJackman.png', 'Im_JustinTimberlake.png', 'Im_KeanuReeves.png'],same,1,0.41672680000010587,31,95.23809523809524,
GUES1603,8,neg,0,neg0_id11_im2.bmp_neg0_id4_im15.bmp,['Im_OrlandoBloom.png', 'Im_ElijahWood.png', 'Im_RobertPattinson.png', 'Im_GeorgeClooney.png', 'Im_BradPitt.png', 'Im_DanielCraig.png', 'Im_PatrickDempsey.png', 'Im_HughJackman.png', 'Im_JustinTimberlake.png', 'Im_KeanuReeves.png'],diff,1,0.4085400999997546,32,95.23809523809524,
GUES1603,8,neg,150,neg150_id11_im2.bmp_neg150_id11_im1.bmp,['Im_OrlandoBloom.png', 'Im_ElijahWood.png', 'Im_RobertPattinson.png', 'Im_GeorgeClooney.png', 'Im_BradPitt.png', 'Im_DanielCraig.png', 'Im_PatrickDempsey.png', 'Im_HughJackman.png', 'Im_JustinTimberlake.png', 'Im_KeanuReeves.png'],same,1,0.7001399000000674,33,95.23809523809524,
GUES1603,8,neg,60,neg60_id8_im21.bmp_neg60_id4_im7.bmp,['Im_OrlandoBloom.png', 'Im_ElijahWood.png', 'Im_RobertPattinson.png', 'Im_GeorgeClooney.png', 'Im_BradPitt.png', 'Im_DanielCraig.png', 'Im_PatrickDempsey.png', 'Im_HughJackman.png', 'Im_JustinTimberlake.png', 'Im_KeanuReeves.png'],diff,1,0.41676040000038483,34,95.23809523809524,
GUES1603,9,pos,fs,posfs_id7_im15.bmp_posfs_id7_im26.bmp,['Im_OrlandoBloom.png', 'Im_ElijahWood.png', 'Im_RobertPattinson.png', 'Im_GeorgeClooney.png', 'Im_BradPitt.png', 'Im_DanielCraig.png', 'Im_PatrickDempsey.png', 'Im_HughJackman.png', 'Im_JustinTimberlake.png', 'Im_KeanuReeves.png'],same,1,0.41673709999986386,1,80.95238095238095,
GUES1603,9,pos,30,pos30_id8_im21.bmp_pos30_id8_im20.bmp,['Im_OrlandoBloom.png', 'Im_ElijahWood.png', 'Im_RobertPattinson.png', 'Im_GeorgeClooney.png', 'Im_BradPitt.png', 'Im_DanielCraig.png', 'Im_PatrickDempsey.png', 'Im_HughJackman.png', 'Im_JustinTimberlake.png', 'Im_KeanuReeves.png'],same,1,0.41679249999970125,2,80.95238095238095,
GUES1603,9,pos,30,pos30_id10_im1.bmp_pos30_id7_im14.bmp,['Im_OrlandoBloom.png', 'Im_ElijahWood.png', 'Im_RobertPattinson.png', 'Im_GeorgeClooney.png', 'Im_BradPitt.png', 'Im_DanielCraig.png', 'Im_PatrickDempsey.png', 'Im_HughJackman.png', 'Im_JustinTimberlake.png', 'Im_KeanuReeves.png'],diff,1,0.42522339999959513,3,80.95238095238095,
GUES1603,9,pos,0,pos0_id4_im7.bmp_pos0_id4_im20.bmp,['Im_OrlandoBloom.png', 'Im_ElijahWood.png', 'Im_RobertPattinson.png', 'Im_GeorgeClooney.png', 'Im_BradPitt.png', 'Im_DanielCraig.png', 'Im_PatrickDempsey.png', 'Im_HughJackman.png', 'Im_JustinTimberlake.png', 'Im_KeanuReeves.png'],same,1,0.42507660000001124,4,80.95238095238095,
GUES1603,9,pos,0,pos0_id6_im18.bmp_pos0_id3_im8.bmp,['Im_OrlandoBloom.png', 'Im_ElijahWood.png', 'Im_RobertPattinson.png', 'Im_GeorgeClooney.png', 'Im_BradPitt.png', 'Im_DanielCraig.png', 'Im_PatrickDempsey.png', 'Im_HughJackman.png', 'Im_JustinTimberlake.png', 'Im_KeanuReeves.png'],diff,1,0.45006629999988945,5,80.95238095238095,
GUES1603,9,pos,150,pos150_id8_im21.bmp_pos150_id4_im7.bmp,['Im_OrlandoBloom.png', 'Im_ElijahWood.png', 'Im_RobertPattinson.png', 'Im_GeorgeClooney.png', 'Im_BradPitt.png', 'Im_DanielCraig.png', 'Im_PatrickDempsey.png', 'Im_HughJackman.png', 'Im_JustinTimberlake.png', 'Im_KeanuReeves.png'],diff,1,0.40837969999984125,6,80.95238095238095,
GUES1603,9,pos,60,pos60_id16_im2.bmp_pos60_id16_im3.bmp,['Im_OrlandoBloom.png', 'Im_ElijahWood.png', 'Im_RobertPattinson.png', 'Im_GeorgeClooney.png', 'Im_BradPitt.png', 'Im_DanielCraig.png', 'Im_PatrickDempsey.png', 'Im_HughJackman.png', 'Im_JustinTimberlake.png', 'Im_KeanuReeves.png'],same,1,0.4166952999999012,7,80.95238095238095,
GUES1603,9,pos,60,pos60_id17_im9.bmp_pos60_id6_im19.bmp,['Im_OrlandoBloom.png', 'Im_ElijahWood.png', 'Im_RobertPattinson.png', 'Im_GeorgeClooney.png', 'Im_BradPitt.png', 'Im_DanielCraig.png', 'Im_PatrickDempsey.png', 'Im_HughJackman.png', 'Im_JustinTimberlake.png', 'Im_KeanuReeves.png'],diff,1,0.42506200000025274,8,80.95238095238095,
GUES1603,9,pos,120,pos120_id10_im1.bmp_pos120_id7_im14.bmp,['Im_OrlandoBloom.png', 'Im_ElijahWood.png', 'Im_RobertPattinson.png', 'Im_GeorgeClooney.png', 'Im_BradPitt.png', 'Im_DanielCraig.png', 'Im_PatrickDempsey.png', 'Im_HughJackman.png', 'Im_JustinTimberlake.png', 'Im_KeanuReeves.png'],diff,1,0.4168337999999494,9,80.95238095238095,
GUES1603,9,pos,90,pos90_id19_im4.bmp_pos90_id8_im20.bmp,['Im_OrlandoBloom.png', 'Im_ElijahWood.png', 'Im_RobertPattinson.png', 'Im_GeorgeClooney.png', 'Im_BradPitt.png', 'Im_DanielCraig.png', 'Im_PatrickDempsey.png', 'Im_HughJackman.png', 'Im_JustinTimberlake.png', 'Im_KeanuReeves.png'],diff,1,0.4167778000000908,10,80.95238095238095,
GUES1603,9,pos,150,pos150_id19_im8.bmp_pos150_id19_im27.bmp,['Im_OrlandoBloom.png', 'Im_ElijahWood.png', 'Im_RobertPattinson.png', 'Im_GeorgeClooney.png', 'Im_BradPitt.png', 'Im_DanielCraig.png', 'Im_PatrickDempsey.png', 'Im_HughJackman.png', 'Im_JustinTimberlake.png', 'Im_KeanuReeves.png'],same,1,0.4167142999999669,11,80.95238095238095,
GUES1603,9,pos,120,pos120_id6_im12.bmp_pos120_id19_im27.bmp,['Im_OrlandoBloom.png', 'Im_ElijahWood.png', 'Im_RobertPattinson.png', 'Im_GeorgeClooney.png', 'Im_BradPitt.png', 'Im_DanielCraig.png', 'Im_PatrickDempsey.png', 'Im_HughJackman.png', 'Im_JustinTimberlake.png', 'Im_KeanuReeves.png'],diff,1,0.42503420000002734,12,80.95238095238095,
GUES1603,9,pos,90,pos90_id7_im14.bmp_pos90_id7_im15.bmp,['Im_OrlandoBloom.png', 'Im_ElijahWood.png', 'Im_RobertPattinson.png', 'Im_GeorgeClooney.png', 'Im_BradPitt.png', 'Im_DanielCraig.png', 'Im_PatrickDempsey.png', 'Im_HughJackman.png', 'Im_JustinTimberlake.png', 'Im_KeanuReeves.png'],same,1,0.40846970000029614,13,80.95238095238095,
GUES1603,9,pos,fs,posfs_id10_im18.bmp_posfs_id11_im2.bmp,['Im_OrlandoBloom.png', 'Im_ElijahWood.png', 'Im_RobertPattinson.png', 'Im_GeorgeClooney.png', 'Im_BradPitt.png', 'Im_DanielCraig.png', 'Im_PatrickDempsey.png', 'Im_HughJackman.png', 'Im_JustinTimberlake.png', 'Im_KeanuReeves.png'],diff,1,0.4167672999997194,14,80.95238095238095,
GUES1603,10,pos,120,pos120_id3_im17.bmp_pos120_id3_im6.bmp,['Im_OrlandoBloom.png', 'Im_ElijahWood.png', 'Im_RobertPattinson.png', 'Im_GeorgeClooney.png', 'Im_BradPitt.png', 'Im_DanielCraig.png', 'Im_PatrickDempsey.png', 'Im_HughJackman.png', 'Im_JustinTimberlake.png', 'Im_KeanuReeves.png'],same,1,0.416729800000212,15,80.95238095238095,
GUES1603,10,pos,150,pos150_id4_im7.bmp_pos150_id17_im14.bmp,['Im_OrlandoBloom.png', 'Im_ElijahWood.png', 'Im_RobertPattinson.png', 'Im_GeorgeClooney.png', 'Im_BradPitt.png', 'Im_DanielCraig.png', 'Im_PatrickDempsey.png', 'Im_HughJackman.png', 'Im_JustinTimberlake.png', 'Im_KeanuReeves.png'],diff,1,0.42510260000017297,16,80.95238095238095,
GUES1603,10,pos,60,pos60_id3_im8.bmp_pos60_id6_im18.bmp,['Im_OrlandoBloom.png', 'Im_ElijahWood.png', 'Im_RobertPattinson.png', 'Im_GeorgeClooney.png', 'Im_BradPitt.png', 'Im_DanielCraig.png', 'Im_PatrickDempsey.png', 'Im_HughJackman.png', 'Im_JustinTimberlake.png', 'Im_KeanuReeves.png'],diff,1,0.41664330000003247,17,80.95238095238095,
GUES1603,10,pos,fs,posfs_id11_im10.bmp_posfs_id11_im2.bmp,['Im_OrlandoBloom.png', 'Im_ElijahWood.png', 'Im_RobertPattinson.png', 'Im_GeorgeClooney.png', 'Im_BradPitt.png', 'Im_DanielCraig.png', 'Im_PatrickDempsey.png', 'Im_HughJackman.png', 'Im_JustinTimberlake.png', 'Im_KeanuReeves.png'],same,1,0.4250656000003801,18,80.95238095238095,
GUES1603,10,pos,150,pos150_id10_im18.bmp_pos150_id10_im1.bmp,['Im_OrlandoBloom.png', 'Im_ElijahWood.png', 'Im_RobertPattinson.png', 'Im_GeorgeClooney.png', 'Im_BradPitt.png', 'Im_DanielCraig.png', 'Im_PatrickDempsey.png', 'Im_HughJackman.png', 'Im_JustinTimberlake.png', 'Im_KeanuReeves.png'],same,1,0.4168147999998837,19,80.95238095238095,
GUES1603,10,pos,fs,posfs_id16_im3.bmp_posfs_id19_im8.bmp,['Im_OrlandoBloom.png', 'Im_ElijahWood.png', 'Im_RobertPattinson.png', 'Im_GeorgeClooney.png', 'Im_BradPitt.png', 'Im_DanielCraig.png', 'Im_PatrickDempsey.png', 'Im_HughJackman.png', 'Im_JustinTimberlake.png', 'Im_KeanuReeves.png'],same,0,0.416741600000023,19,80.95238095238095,
GUES1603,10,pos,0,pos0_id7_im15.bmp_pos0_id3_im6.bmp,['Im_OrlandoBloom.png', 'Im_ElijahWood.png', 'Im_RobertPattinson.png', 'Im_GeorgeClooney.png', 'Im_BradPitt.png', 'Im_DanielCraig.png', 'Im_PatrickDempsey.png', 'Im_HughJackman.png', 'Im_JustinTimberlake.png', 'Im_KeanuReeves.png'],diff,1,0.4167458000001716,20,80.95238095238095,
GUES1603,10,pos,30,pos30_id11_im2.bmp_pos30_id4_im15.bmp,['Im_OrlandoBloom.png', 'Im_ElijahWood.png', 'Im_RobertPattinson.png', 'Im_GeorgeClooney.png', 'Im_BradPitt.png', 'Im_DanielCraig.png', 'Im_PatrickDempsey.png', 'Im_HughJackman.png', 'Im_JustinTimberlake.png', 'Im_KeanuReeves.png'],diff,1,0.42495770000004995,21,80.95238095238095,
GUES1603,10,pos,60,pos60_id11_im10.bmp_pos60_id11_im1.bmp,['Im_OrlandoBloom.png', 'Im_ElijahWood.png', 'Im_RobertPattinson.png', 'Im_GeorgeClooney.png', 'Im_BradPitt.png', 'Im_DanielCraig.png', 'Im_PatrickDempsey.png', 'Im_HughJackman.png', 'Im_JustinTimberlake.png', 'Im_KeanuReeves.png'],same,1,0.42503930000020773,22,80.95238095238095,
GUES1603,10,pos,0,pos0_id16_im3.bmp_pos0_id8_im13.bmp,['Im_OrlandoBloom.png', 'Im_ElijahWood.png', 'Im_RobertPattinson.png', 'Im_GeorgeClooney.png', 'Im_BradPitt.png', 'Im_DanielCraig.png', 'Im_PatrickDempsey.png', 'Im_HughJackman.png', 'Im_JustinTimberlake.png', 'Im_KeanuReeves.png'],diff,1,0.43337960000008025,23,80.95238095238095,
GUES1603,10,pos,90,pos90_id17_im8.bmp_pos90_id10_im17.bmp,['Im_OrlandoBloom.png', 'Im_ElijahWood.png', 'Im_RobertPattinson.png', 'Im_GeorgeClooney.png', 'Im_BradPitt.png', 'Im_DanielCraig.png', 'Im_PatrickDempsey.png', 'Im_HughJackman.png', 'Im_JustinTimberlake.png', 'Im_KeanuReeves.png'],diff,1,0.41678959999990184,24,80.95238095238095,
GUES1603,10,pos,90,pos90_id6_im12.bmp_pos90_id19_im27.bmp,['Im_OrlandoBloom.png', 'Im_ElijahWood.png', 'Im_RobertPattinson.png', 'Im_GeorgeClooney.png', 'Im_BradPitt.png', 'Im_DanielCraig.png', 'Im_PatrickDempsey.png', 'Im_HughJackman.png', 'Im_JustinTimberlake.png', 'Im_KeanuReeves.png'],diff,1,0.42503420000002734,25,80.95238095238095,
GUES1603,10,pos,30,pos30_id7_im15.bmp_pos30_id3_im6.bmp,['Im_OrlandoBloom.png', 'Im_ElijahWood.png', 'Im_RobertPattinson.png', 'Im_GeorgeClooney.png', 'Im_BradPitt.png', 'Im_DanielCraig.png', 'Im_PatrickDempsey.png', 'Im_HughJackman.png', 'Im_JustinTimberlake.png', 'Im_KeanuReeves.png'],diff,1,0.4167083000002094,26,80.95238095238095,
GUES1603,10,pos,120,pos120_id10_im1.bmp_pos120_id4_im15.bmp,['Im_OrlandoBloom.png', 'Im_ElijahWood.png', 'Im_RobertPattinson.png', 'Im_GeorgeClooney.png', 'Im_BradPitt.png', 'Im_DanielCraig.png', 'Im_PatrickDempsey.png', 'Im_HughJackman.png', 'Im_JustinTimberlake.png', 'Im_KeanuReeves.png'],diff,1,0.4251505000001998,27,80.95238095238095,
GUES1603,11,inv,120,pos120_id17_im8.bmp_pos120_id17_im9.bmp,['Im_OrlandoBloom.png', 'Im_ElijahWood.png', 'Im_RobertPattinson.png', 'Im_GeorgeClooney.png', 'Im_BradPitt.png', 'Im_DanielCraig.png', 'Im_PatrickDempsey.png', 'Im_HughJackman.png', 'Im_JustinTimberlake.png', 'Im_KeanuReeves.png'],same,1,0.5082615999999689,28,80.95238095238095,
GUES1603,11,inv,150,pos150_id10_im1.bmp_pos150_id7_im14.bmp,['Im_OrlandoBloom.png', 'Im_ElijahWood.png', 'Im_RobertPattinson.png', 'Im_GeorgeClooney.png', 'Im_BradPitt.png', 'Im_DanielCraig.png', 'Im_PatrickDempsey.png', 'Im_HughJackman.png', 'Im_JustinTimberlake.png', 'Im_KeanuReeves.png'],diff,1,0.41657800000029965,29,80.95238095238095,
GUES1603,11,inv,60,pos60_id11_im2.bmp_pos60_id10_im18.bmp,['Im_OrlandoBloom.png', 'Im_ElijahWood.png', 'Im_RobertPattinson.png', 'Im_GeorgeClooney.png', 'Im_BradPitt.png', 'Im_DanielCraig.png', 'Im_PatrickDempsey.png', 'Im_HughJackman.png', 'Im_JustinTimberlake.png', 'Im_KeanuReeves.png'],diff,1,0.5415648999996847,30,80.95238095238095,
GUES1603,11,inv,fs,posfs_id16_im3.bmp_posfs_id19_im8.bmp,['Im_OrlandoBloom.png', 'Im_ElijahWood.png', 'Im_RobertPattinson.png', 'Im_GeorgeClooney.png', 'Im_BradPitt.png', 'Im_DanielCraig.png', 'Im_PatrickDempsey.png', 'Im_HughJackman.png', 'Im_JustinTimberlake.png', 'Im_KeanuReeves.png'],diff,1,0.4166887000001225,31,80.95238095238095,
GUES1603,11,inv,30,pos30_id19_im4.bmp_pos30_id19_im27.bmp,['Im_OrlandoBloom.png', 'Im_ElijahWood.png', 'Im_RobertPattinson.png', 'Im_GeorgeClooney.png', 'Im_BradPitt.png', 'Im_DanielCraig.png', 'Im_PatrickDempsey.png', 'Im_HughJackman.png', 'Im_JustinTimberlake.png', 'Im_KeanuReeves.png'],same,1,0.7085396999996192,32,80.95238095238095,
GUES1603,11,inv,fs,posfs_id17_im8.bmp_posfs_id17_im9.bmp,['Im_OrlandoBloom.png', 'Im_ElijahWood.png', 'Im_RobertPattinson.png', 'Im_GeorgeClooney.png', 'Im_BradPitt.png', 'Im_DanielCraig.png', 'Im_PatrickDempsey.png', 'Im_HughJackman.png', 'Im_JustinTimberlake.png', 'Im_KeanuReeves.png'],same,1,0.41680389999964973,33,80.95238095238095,
GUES1603,11,inv,0,pos0_id17_im14.bmp_pos0_id11_im10.bmp,['Im_OrlandoBloom.png', 'Im_ElijahWood.png', 'Im_RobertPattinson.png', 'Im_GeorgeClooney.png', 'Im_BradPitt.png', 'Im_DanielCraig.png', 'Im_PatrickDempsey.png', 'Im_HughJackman.png', 'Im_JustinTimberlake.png', 'Im_KeanuReeves.png'],diff,1,0.42512989999977435,34,80.95238095238095,
GUES1603,11,inv,60,pos60_id16_im19.bmp_pos60_id16_im3.bmp,['Im_OrlandoBloom.png', 'Im_ElijahWood.png', 'Im_RobertPattinson.png', 'Im_GeorgeClooney.png', 'Im_BradPitt.png', 'Im_DanielCraig.png', 'Im_PatrickDempsey.png', 'Im_HughJackman.png', 'Im_JustinTimberlake.png', 'Im_KeanuReeves.png'],diff,0,0.6335540000000037,34,80.95238095238095,
GUES1603,11,inv,120,pos120_id10_im18.bmp_pos120_id10_im1.bmp,['Im_OrlandoBloom.png', 'Im_ElijahWood.png', 'Im_RobertPattinson.png', 'Im_GeorgeClooney.png', 'Im_BradPitt.png', 'Im_DanielCraig.png', 'Im_PatrickDempsey.png', 'Im_HughJackman.png', 'Im_JustinTimberlake.png', 'Im_KeanuReeves.png'],same,1,0.7500591999996686,35,80.95238095238095,
GUES1603,11,inv,0,pos0_id3_im17.bmp_pos0_id3_im8.bmp,['Im_OrlandoBloom.png', 'Im_ElijahWood.png', 'Im_RobertPattinson.png', 'Im_GeorgeClooney.png', 'Im_BradPitt.png', 'Im_DanielCraig.png', 'Im_PatrickDempsey.png', 'Im_HughJackman.png', 'Im_JustinTimberlake.png', 'Im_KeanuReeves.png'],same,1,0.42508840000027703,36,80.95238095238095,
GUES1603,11,inv,150,pos150_id11_im2.bmp_pos150_id10_im18.bmp,['Im_OrlandoBloom.png', 'Im_ElijahWood.png', 'Im_RobertPattinson.png', 'Im_GeorgeClooney.png', 'Im_BradPitt.png', 'Im_DanielCraig.png', 'Im_PatrickDempsey.png', 'Im_HughJackman.png', 'Im_JustinTimberlake.png', 'Im_KeanuReeves.png'],diff,1,0.7251827999998568,37,80.95238095238095,
GUES1603,11,inv,30,pos30_id16_im3.bmp_pos30_id16_im19.bmp,['Im_OrlandoBloom.png', 'Im_ElijahWood.png', 'Im_RobertPattinson.png', 'Im_GeorgeClooney.png', 'Im_BradPitt.png', 'Im_DanielCraig.png', 'Im_PatrickDempsey.png', 'Im_HughJackman.png', 'Im_JustinTimberlake.png', 'Im_KeanuReeves.png'],diff,0,0.6834311000002344,37,80.95238095238095,
GUES1603,11,inv,90,pos90_id8_im21.bmp_pos90_id8_im13.bmp,['Im_OrlandoBloom.png', 'Im_ElijahWood.png', 'Im_RobertPattinson.png', 'Im_GeorgeClooney.png', 'Im_BradPitt.png', 'Im_DanielCraig.png', 'Im_PatrickDempsey.png', 'Im_HughJackman.png', 'Im_JustinTimberlake.png', 'Im_KeanuReeves.png'],same,1,0.4250541000001249,38,80.95238095238095,
GUES1603,11,inv,90,pos90_id3_im6.bmp_pos90_id3_im8.bmp,['Im_OrlandoBloom.png', 'Im_ElijahWood.png', 'Im_RobertPattinson.png', 'Im_GeorgeClooney.png', 'Im_BradPitt.png', 'Im_DanielCraig.png', 'Im_PatrickDempsey.png', 'Im_HughJackman.png', 'Im_JustinTimberlake.png', 'Im_KeanuReeves.png'],diff,0,0.6669134000003396,38,80.95238095238095,
GUES1603,12,neg,60,neg60_id16_im19.bmp_neg60_id7_im26.bmp,['Im_OrlandoBloom.png', 'Im_ElijahWood.png', 'Im_RobertPattinson.png', 'Im_GeorgeClooney.png', 'Im_BradPitt.png', 'Im_DanielCraig.png', 'Im_PatrickDempsey.png', 'Im_HughJackman.png', 'Im_JustinTimberlake.png', 'Im_KeanuReeves.png'],diff,1,0.5418514000002688,1,90.47619047619048,
GUES1603,12,neg,90,neg90_id11_im1.bmp_neg90_id11_im10.bmp,['Im_OrlandoBloom.png', 'Im_ElijahWood.png', 'Im_RobertPattinson.png', 'Im_GeorgeClooney.png', 'Im_BradPitt.png', 'Im_DanielCraig.png', 'Im_PatrickDempsey.png', 'Im_HughJackman.png', 'Im_JustinTimberlake.png', 'Im_KeanuReeves.png'],same,1,0.4250178999996024,2,90.47619047619048,
GUES1603,12,neg,150,neg150_id4_im15.bmp_neg150_id11_im2.bmp,['Im_OrlandoBloom.png', 'Im_ElijahWood.png', 'Im_RobertPattinson.png', 'Im_GeorgeClooney.png', 'Im_BradPitt.png', 'Im_DanielCraig.png', 'Im_PatrickDempsey.png', 'Im_HughJackman.png', 'Im_JustinTimberlake.png', 'Im_KeanuReeves.png'],diff,1,0.4332973000000493,3,90.47619047619048,
GUES1603,12,neg,30,neg30_id3_im6.bmp_neg30_id3_im8.bmp,['Im_OrlandoBloom.png', 'Im_ElijahWood.png', 'Im_RobertPattinson.png', 'Im_GeorgeClooney.png', 'Im_BradPitt.png', 'Im_DanielCraig.png', 'Im_PatrickDempsey.png', 'Im_HughJackman.png', 'Im_JustinTimberlake.png', 'Im_KeanuReeves.png'],same,1,0.4249528999998802,4,90.47619047619048,
GUES1603,12,neg,0,neg0_id19_im27.bmp_neg0_id11_im10.bmp,['Im_OrlandoBloom.png', 'Im_ElijahWood.png', 'Im_RobertPattinson.png', 'Im_GeorgeClooney.png', 'Im_BradPitt.png', 'Im_DanielCraig.png', 'Im_PatrickDempsey.png', 'Im_HughJackman.png', 'Im_JustinTimberlake.png', 'Im_KeanuReeves.png'],diff,1,0.4167549000003419,5,90.47619047619048,
GUES1603,12,neg,90,neg90_id10_im1.bmp_neg90_id4_im15.bmp,['Im_OrlandoBloom.png', 'Im_ElijahWood.png', 'Im_RobertPattinson.png', 'Im_GeorgeClooney.png', 'Im_BradPitt.png', 'Im_DanielCraig.png', 'Im_PatrickDempsey.png', 'Im_HughJackman.png', 'Im_JustinTimberlake.png', 'Im_KeanuReeves.png'],diff,1,0.433511599999747,6,90.47619047619048,
GUES1603,12,neg,150,neg150_id8_im13.bmp_neg150_id8_im20.bmp,['Im_OrlandoBloom.png', 'Im_ElijahWood.png', 'Im_RobertPattinson.png', 'Im_GeorgeClooney.png', 'Im_BradPitt.png', 'Im_DanielCraig.png', 'Im_PatrickDempsey.png', 'Im_HughJackman.png', 'Im_JustinTimberlake.png', 'Im_KeanuReeves.png'],same,1,0.425327500000094,7,90.47619047619048,
GUES1603,12,neg,30,neg30_id7_im14.bmp_neg30_id6_im12.bmp,['Im_OrlandoBloom.png', 'Im_ElijahWood.png', 'Im_RobertPattinson.png', 'Im_GeorgeClooney.png', 'Im_BradPitt.png', 'Im_DanielCraig.png', 'Im_PatrickDempsey.png', 'Im_HughJackman.png', 'Im_JustinTimberlake.png', 'Im_KeanuReeves.png'],diff,1,0.43331820000003063,8,90.47619047619048,
GUES1603,12,neg,fs,negfs_id10_im18.bmp_negfs_id10_im1.bmp,['Im_OrlandoBloom.png', 'Im_ElijahWood.png', 'Im_RobertPattinson.png', 'Im_GeorgeClooney.png', 'Im_BradPitt.png', 'Im_DanielCraig.png', 'Im_PatrickDempsey.png', 'Im_HughJackman.png', 'Im_JustinTimberlake.png', 'Im_KeanuReeves.png'],same,1,0.41680440000027374,9,90.47619047619048,
GUES1603,12,neg,fs,negfs_id6_im19.bmp_negfs_id17_im9.bmp,['Im_OrlandoBloom.png', 'Im_ElijahWood.png', 'Im_RobertPattinson.png', 'Im_GeorgeClooney.png', 'Im_BradPitt.png', 'Im_DanielCraig.png', 'Im_PatrickDempsey.png', 'Im_HughJackman.png', 'Im_JustinTimberlake.png', 'Im_KeanuReeves.png'],diff,1,0.41667770000003657,10,90.47619047619048,
GUES1603,12,neg,120,neg120_id6_im12.bmp_neg120_id6_im18.bmp,['Im_OrlandoBloom.png', 'Im_ElijahWood.png', 'Im_RobertPattinson.png', 'Im_GeorgeClooney.png', 'Im_BradPitt.png', 'Im_DanielCraig.png', 'Im_PatrickDempsey.png', 'Im_HughJackman.png', 'Im_JustinTimberlake.png', 'Im_KeanuReeves.png'],same,1,0.4168651999998474,11,90.47619047619048,
GUES1603,12,neg,0,neg0_id19_im8.bmp_neg0_id11_im1.bmp,['Im_OrlandoBloom.png', 'Im_ElijahWood.png', 'Im_RobertPattinson.png', 'Im_GeorgeClooney.png', 'Im_BradPitt.png', 'Im_DanielCraig.png', 'Im_PatrickDempsey.png', 'Im_HughJackman.png', 'Im_JustinTimberlake.png', 'Im_KeanuReeves.png'],diff,1,0.42497919999959777,12,90.47619047619048,
GUES1603,12,neg,60,neg60_id7_im26.bmp_neg60_id7_im14.bmp,['Im_OrlandoBloom.png', 'Im_ElijahWood.png', 'Im_RobertPattinson.png', 'Im_GeorgeClooney.png', 'Im_BradPitt.png', 'Im_DanielCraig.png', 'Im_PatrickDempsey.png', 'Im_HughJackman.png', 'Im_JustinTimberlake.png', 'Im_KeanuReeves.png'],same,1,0.4167717000000266,13,90.47619047619048,
GUES1603,12,neg,120,neg120_id6_im18.bmp_neg120_id6_im19.bmp,['Im_OrlandoBloom.png', 'Im_ElijahWood.png', 'Im_RobertPattinson.png', 'Im_GeorgeClooney.png', 'Im_BradPitt.png', 'Im_DanielCraig.png', 'Im_PatrickDempsey.png', 'Im_HughJackman.png', 'Im_JustinTimberlake.png', 'Im_KeanuReeves.png'],same,1,0.42507630000000063,14,90.47619047619048,
GUES1603,13,inv,30,pos30_id10_im1.bmp_pos30_id10_im17.bmp,['Im_OrlandoBloom.png', 'Im_ElijahWood.png', 'Im_RobertPattinson.png', 'Im_GeorgeClooney.png', 'Im_BradPitt.png', 'Im_DanielCraig.png', 'Im_PatrickDempsey.png', 'Im_HughJackman.png', 'Im_JustinTimberlake.png', 'Im_KeanuReeves.png'],diff,0,0.42506060000005164,14,90.47619047619048,
GUES1603,13,inv,0,pos0_id17_im9.bmp_pos0_id17_im8.bmp,['Im_OrlandoBloom.png', 'Im_ElijahWood.png', 'Im_RobertPattinson.png', 'Im_GeorgeClooney.png', 'Im_BradPitt.png', 'Im_DanielCraig.png', 'Im_PatrickDempsey.png', 'Im_HughJackman.png', 'Im_JustinTimberlake.png', 'Im_KeanuReeves.png'],same,1,0.4250833999999486,15,90.47619047619048,
GUES1603,13,inv,30,pos30_id3_im17.bmp_pos30_id3_im6.bmp,['Im_OrlandoBloom.png', 'Im_ElijahWood.png', 'Im_RobertPattinson.png', 'Im_GeorgeClooney.png', 'Im_BradPitt.png', 'Im_DanielCraig.png', 'Im_PatrickDempsey.png', 'Im_HughJackman.png', 'Im_JustinTimberlake.png', 'Im_KeanuReeves.png'],same,1,0.6083908999999039,16,90.47619047619048,
GUES1603,13,inv,fs,posfs_id8_im21.bmp_posfs_id8_im13.bmp,['Im_OrlandoBloom.png', 'Im_ElijahWood.png', 'Im_RobertPattinson.png', 'Im_GeorgeClooney.png', 'Im_BradPitt.png', 'Im_DanielCraig.png', 'Im_PatrickDempsey.png', 'Im_HughJackman.png', 'Im_JustinTimberlake.png', 'Im_KeanuReeves.png'],same,1,0.42501640000000407,17,90.47619047619048,
GUES1603,13,inv,150,pos150_id10_im18.bmp_pos150_id10_im17.bmp,['Im_OrlandoBloom.png', 'Im_ElijahWood.png', 'Im_RobertPattinson.png', 'Im_GeorgeClooney.png', 'Im_BradPitt.png', 'Im_DanielCraig.png', 'Im_PatrickDempsey.png', 'Im_HughJackman.png', 'Im_JustinTimberlake.png', 'Im_KeanuReeves.png'],diff,0,0.4167898000000605,17,90.47619047619048,
GUES1603,13,inv,90,pos90_id6_im19.bmp_pos90_id6_im18.bmp,['Im_OrlandoBloom.png', 'Im_ElijahWood.png', 'Im_RobertPattinson.png', 'Im_GeorgeClooney.png', 'Im_BradPitt.png', 'Im_DanielCraig.png', 'Im_PatrickDempsey.png', 'Im_HughJackman.png', 'Im_JustinTimberlake.png', 'Im_KeanuReeves.png'],same,1,0.43349709999984043,18,90.47619047619048,
GUES1603,13,inv,fs,posfs_id8_im21.bmp_posfs_id4_im7.bmp,['Im_OrlandoBloom.png', 'Im_ElijahWood.png', 'Im_RobertPattinson.png', 'Im_GeorgeClooney.png', 'Im_BradPitt.png', 'Im_DanielCraig.png', 'Im_PatrickDempsey.png', 'Im_HughJackman.png', 'Im_JustinTimberlake.png', 'Im_KeanuReeves.png'],diff,1,0.4250716999999895,19,90.47619047619048,
GUES1603,13,inv,150,pos150_id10_im1.bmp_pos150_id10_im18.bmp,['Im_OrlandoBloom.png', 'Im_ElijahWood.png', 'Im_RobertPattinson.png', 'Im_GeorgeClooney.png', 'Im_BradPitt.png', 'Im_DanielCraig.png', 'Im_PatrickDempsey.png', 'Im_HughJackman.png', 'Im_JustinTimberlake.png', 'Im_KeanuReeves.png'],diff,0,0.46684370000002673,19,90.47619047619048,
GUES1603,13,inv,120,pos120_id4_im15.bmp_pos120_id11_im2.bmp,['Im_OrlandoBloom.png', 'Im_ElijahWood.png', 'Im_RobertPattinson.png', 'Im_GeorgeClooney.png', 'Im_BradPitt.png', 'Im_DanielCraig.png', 'Im_PatrickDempsey.png', 'Im_HughJackman.png', 'Im_JustinTimberlake.png', 'Im_KeanuReeves.png'],diff,1,0.5750026000000616,20,90.47619047619048,
GUES1603,13,inv,60,pos60_id11_im1.bmp_pos60_id16_im2.bmp,['Im_OrlandoBloom.png', 'Im_ElijahWood.png', 'Im_RobertPattinson.png', 'Im_GeorgeClooney.png', 'Im_BradPitt.png', 'Im_DanielCraig.png', 'Im_PatrickDempsey.png', 'Im_HughJackman.png', 'Im_JustinTimberlake.png', 'Im_KeanuReeves.png'],diff,1,0.5252522000000681,21,90.47619047619048,
GUES1603,13,inv,120,pos120_id11_im10.bmp_pos120_id17_im14.bmp,['Im_OrlandoBloom.png', 'Im_ElijahWood.png', 'Im_RobertPattinson.png', 'Im_GeorgeClooney.png', 'Im_BradPitt.png', 'Im_DanielCraig.png', 'Im_PatrickDempsey.png', 'Im_HughJackman.png', 'Im_JustinTimberlake.png', 'Im_KeanuReeves.png'],diff,1,0.8336170000002312,22,90.47619047619048,
GUES1603,13,inv,0,pos0_id19_im4.bmp_pos0_id8_im21.bmp,['Im_OrlandoBloom.png', 'Im_ElijahWood.png', 'Im_RobertPattinson.png', 'Im_GeorgeClooney.png', 'Im_BradPitt.png', 'Im_DanielCraig.png', 'Im_PatrickDempsey.png', 'Im_HughJackman.png', 'Im_JustinTimberlake.png', 'Im_KeanuReeves.png'],diff,1,0.5499450000002071,23,90.47619047619048,
GUES1603,13,inv,90,pos90_id7_im15.bmp_pos90_id7_im14.bmp,['Im_OrlandoBloom.png', 'Im_ElijahWood.png', 'Im_RobertPattinson.png', 'Im_GeorgeClooney.png', 'Im_BradPitt.png', 'Im_DanielCraig.png', 'Im_PatrickDempsey.png', 'Im_HughJackman.png', 'Im_JustinTimberlake.png', 'Im_KeanuReeves.png'],diff,0,0.5920234000000164,23,90.47619047619048,
GUES1603,13,inv,60,pos60_id10_im1.bmp_pos60_id10_im17.bmp,['Im_OrlandoBloom.png', 'Im_ElijahWood.png', 'Im_RobertPattinson.png', 'Im_GeorgeClooney.png', 'Im_BradPitt.png', 'Im_DanielCraig.png', 'Im_PatrickDempsey.png', 'Im_HughJackman.png', 'Im_JustinTimberlake.png', 'Im_KeanuReeves.png'],diff,0,0.4832373000003827,23,90.47619047619048,
GUES1603,14,neg,30,neg30_id7_im26.bmp_neg30_id7_im15.bmp,['Im_OrlandoBloom.png', 'Im_ElijahWood.png', 'Im_RobertPattinson.png', 'Im_GeorgeClooney.png', 'Im_BradPitt.png', 'Im_DanielCraig.png', 'Im_PatrickDempsey.png', 'Im_HughJackman.png', 'Im_JustinTimberlake.png', 'Im_KeanuReeves.png'],same,1,0.7182748999998694,24,90.47619047619048,
GUES1603,14,neg,fs,negfs_id10_im17.bmp_negfs_id17_im8.bmp,['Im_OrlandoBloom.png', 'Im_ElijahWood.png', 'Im_RobertPattinson.png', 'Im_GeorgeClooney.png', 'Im_BradPitt.png', 'Im_DanielCraig.png', 'Im_PatrickDempsey.png', 'Im_HughJackman.png', 'Im_JustinTimberlake.png', 'Im_KeanuReeves.png'],diff,1,0.41672109999990425,25,90.47619047619048,
GUES1603,14,neg,120,neg120_id3_im6.bmp_neg120_id3_im8.bmp,['Im_OrlandoBloom.png', 'Im_ElijahWood.png', 'Im_RobertPattinson.png', 'Im_GeorgeClooney.png', 'Im_BradPitt.png', 'Im_DanielCraig.png', 'Im_PatrickDempsey.png', 'Im_HughJackman.png', 'Im_JustinTimberlake.png', 'Im_KeanuReeves.png'],same,1,0.4333838000002288,26,90.47619047619048,
GUES1603,14,neg,fs,negfs_id11_im10.bmp_negfs_id11_im1.bmp,['Im_OrlandoBloom.png', 'Im_ElijahWood.png', 'Im_RobertPattinson.png', 'Im_GeorgeClooney.png', 'Im_BradPitt.png', 'Im_DanielCraig.png', 'Im_PatrickDempsey.png', 'Im_HughJackman.png', 'Im_JustinTimberlake.png', 'Im_KeanuReeves.png'],same,1,0.40841530000034254,27,90.47619047619048,
GUES1603,14,neg,150,neg150_id17_im14.bmp_neg150_id4_im7.bmp,['Im_OrlandoBloom.png', 'Im_ElijahWood.png', 'Im_RobertPattinson.png', 'Im_GeorgeClooney.png', 'Im_BradPitt.png', 'Im_DanielCraig.png', 'Im_PatrickDempsey.png', 'Im_HughJackman.png', 'Im_JustinTimberlake.png', 'Im_KeanuReeves.png'],diff,1,0.42504879999978584,28,90.47619047619048,
GUES1603,14,neg,120,neg120_id4_im7.bmp_neg120_id17_im14.bmp,['Im_OrlandoBloom.png', 'Im_ElijahWood.png', 'Im_RobertPattinson.png', 'Im_GeorgeClooney.png', 'Im_BradPitt.png', 'Im_DanielCraig.png', 'Im_PatrickDempsey.png', 'Im_HughJackman.png', 'Im_JustinTimberlake.png', 'Im_KeanuReeves.png'],diff,1,0.49996530000044004,29,90.47619047619048,
GUES1603,14,neg,150,neg150_id10_im17.bmp_neg150_id10_im18.bmp,['Im_OrlandoBloom.png', 'Im_ElijahWood.png', 'Im_RobertPattinson.png', 'Im_GeorgeClooney.png', 'Im_BradPitt.png', 'Im_DanielCraig.png', 'Im_PatrickDempsey.png', 'Im_HughJackman.png', 'Im_JustinTimberlake.png', 'Im_KeanuReeves.png'],same,1,0.41670169999997597,30,90.47619047619048,
GUES1603,14,neg,60,neg60_id11_im2.bmp_neg60_id10_im18.bmp,['Im_OrlandoBloom.png', 'Im_ElijahWood.png', 'Im_RobertPattinson.png', 'Im_GeorgeClooney.png', 'Im_BradPitt.png', 'Im_DanielCraig.png', 'Im_PatrickDempsey.png', 'Im_HughJackman.png', 'Im_JustinTimberlake.png', 'Im_KeanuReeves.png'],diff,1,0.608462099999997,31,90.47619047619048,
GUES1603,14,neg,0,neg0_id7_im26.bmp_neg0_id7_im15.bmp,['Im_OrlandoBloom.png', 'Im_ElijahWood.png', 'Im_RobertPattinson.png', 'Im_GeorgeClooney.png', 'Im_BradPitt.png', 'Im_DanielCraig.png', 'Im_PatrickDempsey.png', 'Im_HughJackman.png', 'Im_JustinTimberlake.png', 'Im_KeanuReeves.png'],diff,0,0.6420010000001639,31,90.47619047619048,
GUES1603,14,neg,0,neg0_id19_im8.bmp_neg0_id19_im27.bmp,['Im_OrlandoBloom.png', 'Im_ElijahWood.png', 'Im_RobertPattinson.png', 'Im_GeorgeClooney.png', 'Im_BradPitt.png', 'Im_DanielCraig.png', 'Im_PatrickDempsey.png', 'Im_HughJackman.png', 'Im_JustinTimberlake.png', 'Im_KeanuReeves.png'],same,1,0.4168587999997726,32,90.47619047619048,
GUES1603,14,neg,30,neg30_id17_im14.bmp_neg30_id4_im7.bmp,['Im_OrlandoBloom.png', 'Im_ElijahWood.png', 'Im_RobertPattinson.png', 'Im_GeorgeClooney.png', 'Im_BradPitt.png', 'Im_DanielCraig.png', 'Im_PatrickDempsey.png', 'Im_HughJackman.png', 'Im_JustinTimberlake.png', 'Im_KeanuReeves.png'],diff,1,0.4168282000000545,33,90.47619047619048,
GUES1603,14,neg,90,neg90_id16_im19.bmp_neg90_id16_im3.bmp,['Im_OrlandoBloom.png', 'Im_ElijahWood.png', 'Im_RobertPattinson.png', 'Im_GeorgeClooney.png', 'Im_BradPitt.png', 'Im_DanielCraig.png', 'Im_PatrickDempsey.png', 'Im_HughJackman.png', 'Im_JustinTimberlake.png', 'Im_KeanuReeves.png'],same,1,0.4083992999999282,34,90.47619047619048,
GUES1603,14,neg,90,neg90_id17_im9.bmp_neg90_id6_im19.bmp,['Im_OrlandoBloom.png', 'Im_ElijahWood.png', 'Im_RobertPattinson.png', 'Im_GeorgeClooney.png', 'Im_BradPitt.png', 'Im_DanielCraig.png', 'Im_PatrickDempsey.png', 'Im_HughJackman.png', 'Im_JustinTimberlake.png', 'Im_KeanuReeves.png'],diff,1,0.4250805000001492,35,90.47619047619048,
GUES1603,14,neg,60,neg60_id11_im1.bmp_neg60_id16_im2.bmp,['Im_OrlandoBloom.png', 'Im_ElijahWood.png', 'Im_RobertPattinson.png', 'Im_GeorgeClooney.png', 'Im_BradPitt.png', 'Im_DanielCraig.png', 'Im_PatrickDempsey.png', 'Im_HughJackman.png', 'Im_JustinTimberlake.png', 'Im_KeanuReeves.png'],diff,1,0.41671599999972386,36,90.47619047619048,
GUES1603,15,pos,120,pos120_id8_im20.bmp_pos120_id8_im13.bmp,['Im_OrlandoBloom.png', 'Im_ElijahWood.png', 'Im_RobertPattinson.png', 'Im_GeorgeClooney.png', 'Im_BradPitt.png', 'Im_DanielCraig.png', 'Im_PatrickDempsey.png', 'Im_HughJackman.png', 'Im_JustinTimberlake.png', 'Im_KeanuReeves.png'],same,1,0.43350280000004204,1,85.71428571428571,
GUES1603,15,pos,150,pos150_id8_im21.bmp_pos150_id8_im13.bmp,['Im_OrlandoBloom.png', 'Im_ElijahWood.png', 'Im_RobertPattinson.png', 'Im_GeorgeClooney.png', 'Im_BradPitt.png', 'Im_DanielCraig.png', 'Im_PatrickDempsey.png', 'Im_HughJackman.png', 'Im_JustinTimberlake.png', 'Im_KeanuReeves.png'],same,1,0.43342319999965184,2,85.71428571428571,
GUES1603,15,pos,120,pos120_id19_im4.bmp_pos120_id19_im8.bmp,['Im_OrlandoBloom.png', 'Im_ElijahWood.png', 'Im_RobertPattinson.png', 'Im_GeorgeClooney.png', 'Im_BradPitt.png', 'Im_DanielCraig.png', 'Im_PatrickDempsey.png', 'Im_HughJackman.png', 'Im_JustinTimberlake.png', 'Im_KeanuReeves.png'],same,1,0.4166979000001447,3,85.71428571428571,
GUES1603,15,pos,fs,posfs_id16_im2.bmp_posfs_id16_im3.bmp,['Im_OrlandoBloom.png', 'Im_ElijahWood.png', 'Im_RobertPattinson.png', 'Im_GeorgeClooney.png', 'Im_BradPitt.png', 'Im_DanielCraig.png', 'Im_PatrickDempsey.png', 'Im_HughJackman.png', 'Im_JustinTimberlake.png', 'Im_KeanuReeves.png'],same,1,0.41674120000016046,4,85.71428571428571,
