Sujet,Trial,Condition,Filter,Imname,Actor0,Actor1,Actor2,Actor3,Actor4,Actor5,Actor6,Actor7,Actor8,Actor9,Answer,Accu,RT,Score,Scoreperc, 
GUJO1605,train,inv,120,pos120_id3_im8.bmp_pos120_id3_im6.bmp,['Im_GeorgeClooney.png', 'Im_JustinTimberlake.png', 'Im_RobertPattinson.png', 'Im_HughJackman.png', 'Im_RyanReynolds.png', 'Im_BradPitt.png', 'Im_RyanGosling.png', 'Im_LeonardoDiCaprio.png', 'Im_DanielRadcliffe.png', 'Im_RobertDowneyJr.png'],diff,0,1.241706400000112,0,0,
GUJO1605,train,inv,120,pos120_id7_im26.bmp_pos120_id21_im17.bmp,['Im_GeorgeClooney.png', 'Im_JustinTimberlake.png', 'Im_RobertPattinson.png', 'Im_HughJackman.png', 'Im_RyanReynolds.png', 'Im_BradPitt.png', 'Im_RyanGosling.png', 'Im_LeonardoDiCaprio.png', 'Im_DanielRadcliffe.png', 'Im_RobertDowneyJr.png'],diff,1,1.9582945000001928,1,0,
GUJO1605,train,inv,fs,posfs_id20_im3.bmp_posfs_id8_im20.bmp,['Im_GeorgeClooney.png', 'Im_JustinTimberlake.png', 'Im_RobertPattinson.png', 'Im_HughJackman.png', 'Im_RyanReynolds.png', 'Im_BradPitt.png', 'Im_RyanGosling.png', 'Im_LeonardoDiCaprio.png', 'Im_DanielRadcliffe.png', 'Im_RobertDowneyJr.png'],diff,1,0.8917652000000089,2,0,
GUJO1605,train,inv,60,pos60_id21_im16.bmp_pos60_id8_im20.bmp,['Im_GeorgeClooney.png', 'Im_JustinTimberlake.png', 'Im_RobertPattinson.png', 'Im_HughJackman.png', 'Im_RyanReynolds.png', 'Im_BradPitt.png', 'Im_RyanGosling.png', 'Im_LeonardoDiCaprio.png', 'Im_DanielRadcliffe.png', 'Im_RobertDowneyJr.png'],same,0,0.8001838000000134,2,0,
GUJO1605,train,inv,30,pos30_id7_im15.bmp_pos30_id7_im26.bmp,['Im_GeorgeClooney.png', 'Im_JustinTimberlake.png', 'Im_RobertPattinson.png', 'Im_HughJackman.png', 'Im_RyanReynolds.png', 'Im_BradPitt.png', 'Im_RyanGosling.png', 'Im_LeonardoDiCaprio.png', 'Im_DanielRadcliffe.png', 'Im_RobertDowneyJr.png'],diff,0,1.2417109999996683,2,0,
GUJO1605,train,inv,fs,posfs_id19_im4.bmp_posfs_id5_im20.bmp,['Im_GeorgeClooney.png', 'Im_JustinTimberlake.png', 'Im_RobertPattinson.png', 'Im_HughJackman.png', 'Im_RyanReynolds.png', 'Im_BradPitt.png', 'Im_RyanGosling.png', 'Im_LeonardoDiCaprio.png', 'Im_DanielRadcliffe.png', 'Im_RobertDowneyJr.png'],diff,1,0.7249486999999135,3,0,
GUJO1605,train,inv,0,pos0_id5_im20.bmp_pos0_id19_im8.bmp,['Im_GeorgeClooney.png', 'Im_JustinTimberlake.png', 'Im_RobertPattinson.png', 'Im_HughJackman.png', 'Im_RyanReynolds.png', 'Im_BradPitt.png', 'Im_RyanGosling.png', 'Im_LeonardoDiCaprio.png', 'Im_DanielRadcliffe.png', 'Im_RobertDowneyJr.png'],diff,1,1.599854800000685,4,0,
GUJO1605,train,inv,0,pos0_id21_im16.bmp_pos0_id21_im17.bmp,['Im_GeorgeClooney.png', 'Im_JustinTimberlake.png', 'Im_RobertPattinson.png', 'Im_HughJackman.png', 'Im_RyanReynolds.png', 'Im_BradPitt.png', 'Im_RyanGosling.png', 'Im_LeonardoDiCaprio.png', 'Im_DanielRadcliffe.png', 'Im_RobertDowneyJr.png'],same,1,0.5583170999998401,5,0,
GUJO1605,train,inv,60,pos60_id19_im4.bmp_pos60_id10_im17.bmp,['Im_GeorgeClooney.png', 'Im_JustinTimberlake.png', 'Im_RobertPattinson.png', 'Im_HughJackman.png', 'Im_RyanReynolds.png', 'Im_BradPitt.png', 'Im_RyanGosling.png', 'Im_LeonardoDiCaprio.png', 'Im_DanielRadcliffe.png', 'Im_RobertDowneyJr.png'],diff,1,0.6333362999994279,6,0,
GUJO1605,train,inv,90,pos90_id19_im8.bmp_pos90_id5_im20.bmp,['Im_GeorgeClooney.png', 'Im_JustinTimberlake.png', 'Im_RobertPattinson.png', 'Im_HughJackman.png', 'Im_RyanReynolds.png', 'Im_BradPitt.png', 'Im_RyanGosling.png', 'Im_LeonardoDiCaprio.png', 'Im_DanielRadcliffe.png', 'Im_RobertDowneyJr.png'],diff,1,1.6503502999994453,7,0,
GUJO1605,train,inv,90,pos90_id20_im30.bmp_pos90_id20_im3.bmp,['Im_GeorgeClooney.png', 'Im_JustinTimberlake.png', 'Im_RobertPattinson.png', 'Im_HughJackman.png', 'Im_RyanReynolds.png', 'Im_BradPitt.png', 'Im_RyanGosling.png', 'Im_LeonardoDiCaprio.png', 'Im_DanielRadcliffe.png', 'Im_RobertDowneyJr.png'],same,1,0.5666431999998167,8,0,
GUJO1605,train,inv,30,pos30_id19_im4.bmp_pos30_id19_im8.bmp,['Im_GeorgeClooney.png', 'Im_JustinTimberlake.png', 'Im_RobertPattinson.png', 'Im_HughJackman.png', 'Im_RyanReynolds.png', 'Im_BradPitt.png', 'Im_RyanGosling.png', 'Im_LeonardoDiCaprio.png', 'Im_DanielRadcliffe.png', 'Im_RobertDowneyJr.png'],same,1,0.933654899999965,9,0,
GUJO1605,train,inv,150,pos150_id5_im20.bmp_pos150_id5_im1.bmp,['Im_GeorgeClooney.png', 'Im_JustinTimberlake.png', 'Im_RobertPattinson.png', 'Im_HughJackman.png', 'Im_RyanReynolds.png', 'Im_BradPitt.png', 'Im_RyanGosling.png', 'Im_LeonardoDiCaprio.png', 'Im_DanielRadcliffe.png', 'Im_RobertDowneyJr.png'],diff,0,0.8666332000002512,9,0,
GUJO1605,train,inv,150,pos150_id20_im3.bmp_pos150_id8_im20.bmp,['Im_GeorgeClooney.png', 'Im_JustinTimberlake.png', 'Im_RobertPattinson.png', 'Im_HughJackman.png', 'Im_RyanReynolds.png', 'Im_BradPitt.png', 'Im_RyanGosling.png', 'Im_LeonardoDiCaprio.png', 'Im_DanielRadcliffe.png', 'Im_RobertDowneyJr.png'],diff,1,0.6917001000001619,10,0,
GUJO1605,train,pos,0,pos0_id19_im4.bmp_pos0_id19_im27.bmp,['Im_GeorgeClooney.png', 'Im_JustinTimberlake.png', 'Im_RobertPattinson.png', 'Im_HughJackman.png', 'Im_RyanReynolds.png', 'Im_BradPitt.png', 'Im_RyanGosling.png', 'Im_LeonardoDiCaprio.png', 'Im_DanielRadcliffe.png', 'Im_RobertDowneyJr.png'],same,1,0.5665022000002864,11,0,
GUJO1605,train,pos,150,pos150_id5_im10.bmp_pos150_id5_im20.bmp,['Im_GeorgeClooney.png', 'Im_JustinTimberlake.png', 'Im_RobertPattinson.png', 'Im_HughJackman.png', 'Im_RyanReynolds.png', 'Im_BradPitt.png', 'Im_RyanGosling.png', 'Im_LeonardoDiCaprio.png', 'Im_DanielRadcliffe.png', 'Im_RobertDowneyJr.png'],same,1,0.7582294000003458,12,0,
GUJO1605,train,pos,120,pos120_id13_im15.bmp_pos120_id13_im29.bmp,['Im_GeorgeClooney.png', 'Im_JustinTimberlake.png', 'Im_RobertPattinson.png', 'Im_HughJackman.png', 'Im_RyanReynolds.png', 'Im_BradPitt.png', 'Im_RyanGosling.png', 'Im_LeonardoDiCaprio.png', 'Im_DanielRadcliffe.png', 'Im_RobertDowneyJr.png'],same,1,1.2834408999997322,13,0,
GUJO1605,train,pos,60,pos60_id10_im17.bmp_pos60_id3_im6.bmp,['Im_GeorgeClooney.png', 'Im_JustinTimberlake.png', 'Im_RobertPattinson.png', 'Im_HughJackman.png', 'Im_RyanReynolds.png', 'Im_BradPitt.png', 'Im_RyanGosling.png', 'Im_LeonardoDiCaprio.png', 'Im_DanielRadcliffe.png', 'Im_RobertDowneyJr.png'],diff,1,0.5749491999995371,14,0,
GUJO1605,train,pos,150,pos150_id10_im18.bmp_pos150_id10_im1.bmp,['Im_GeorgeClooney.png', 'Im_JustinTimberlake.png', 'Im_RobertPattinson.png', 'Im_HughJackman.png', 'Im_RyanReynolds.png', 'Im_BradPitt.png', 'Im_RyanGosling.png', 'Im_LeonardoDiCaprio.png', 'Im_DanielRadcliffe.png', 'Im_RobertDowneyJr.png'],same,1,0.4167308000005505,15,0,
GUJO1605,train,pos,90,pos90_id7_im26.bmp_pos90_id18_im11.bmp,['Im_GeorgeClooney.png', 'Im_JustinTimberlake.png', 'Im_RobertPattinson.png', 'Im_HughJackman.png', 'Im_RyanReynolds.png', 'Im_BradPitt.png', 'Im_RyanGosling.png', 'Im_LeonardoDiCaprio.png', 'Im_DanielRadcliffe.png', 'Im_RobertDowneyJr.png'],same,0,0.7750757000003432,15,0,
GUJO1605,train,pos,fs,posfs_id18_im18.bmp_posfs_id18_im11.bmp,['Im_GeorgeClooney.png', 'Im_JustinTimberlake.png', 'Im_RobertPattinson.png', 'Im_HughJackman.png', 'Im_RyanReynolds.png', 'Im_BradPitt.png', 'Im_RyanGosling.png', 'Im_LeonardoDiCaprio.png', 'Im_DanielRadcliffe.png', 'Im_RobertDowneyJr.png'],same,1,0.6082565999995495,16,0,
GUJO1605,train,pos,0,pos0_id7_im26.bmp_pos0_id21_im17.bmp,['Im_GeorgeClooney.png', 'Im_JustinTimberlake.png', 'Im_RobertPattinson.png', 'Im_HughJackman.png', 'Im_RyanReynolds.png', 'Im_BradPitt.png', 'Im_RyanGosling.png', 'Im_LeonardoDiCaprio.png', 'Im_DanielRadcliffe.png', 'Im_RobertDowneyJr.png'],diff,1,0.46667320000051404,17,0,
GUJO1605,train,pos,120,pos120_id10_im1.bmp_pos120_id10_im17.bmp,['Im_GeorgeClooney.png', 'Im_JustinTimberlake.png', 'Im_RobertPattinson.png', 'Im_HughJackman.png', 'Im_RyanReynolds.png', 'Im_BradPitt.png', 'Im_RyanGosling.png', 'Im_LeonardoDiCaprio.png', 'Im_DanielRadcliffe.png', 'Im_RobertDowneyJr.png'],same,1,0.7585130999996181,18,0,
GUJO1605,train,pos,90,pos90_id18_im19.bmp_pos90_id18_im18.bmp,['Im_GeorgeClooney.png', 'Im_JustinTimberlake.png', 'Im_RobertPattinson.png', 'Im_HughJackman.png', 'Im_RyanReynolds.png', 'Im_BradPitt.png', 'Im_RyanGosling.png', 'Im_LeonardoDiCaprio.png', 'Im_DanielRadcliffe.png', 'Im_RobertDowneyJr.png'],same,1,0.42501420000007784,19,0,
GUJO1605,train,pos,30,pos30_id5_im1.bmp_pos30_id7_im14.bmp,['Im_GeorgeClooney.png', 'Im_JustinTimberlake.png', 'Im_RobertPattinson.png', 'Im_HughJackman.png', 'Im_RyanReynolds.png', 'Im_BradPitt.png', 'Im_RyanGosling.png', 'Im_LeonardoDiCaprio.png', 'Im_DanielRadcliffe.png', 'Im_RobertDowneyJr.png'],diff,1,0.4169258000001719,20,0,
GUJO1605,train,pos,fs,posfs_id21_im22.bmp_posfs_id10_im18.bmp,['Im_GeorgeClooney.png', 'Im_JustinTimberlake.png', 'Im_RobertPattinson.png', 'Im_HughJackman.png', 'Im_RyanReynolds.png', 'Im_BradPitt.png', 'Im_RyanGosling.png', 'Im_LeonardoDiCaprio.png', 'Im_DanielRadcliffe.png', 'Im_RobertDowneyJr.png'],diff,1,0.6418457999998282,21,0,
GUJO1605,train,pos,30,pos30_id18_im11.bmp_pos30_id18_im19.bmp,['Im_GeorgeClooney.png', 'Im_JustinTimberlake.png', 'Im_RobertPattinson.png', 'Im_HughJackman.png', 'Im_RyanReynolds.png', 'Im_BradPitt.png', 'Im_RyanGosling.png', 'Im_LeonardoDiCaprio.png', 'Im_DanielRadcliffe.png', 'Im_RobertDowneyJr.png'],same,1,0.7000343999998222,22,0,
GUJO1605,train,pos,60,pos60_id5_im20.bmp_pos60_id19_im4.bmp,['Im_GeorgeClooney.png', 'Im_JustinTimberlake.png', 'Im_RobertPattinson.png', 'Im_HughJackman.png', 'Im_RyanReynolds.png', 'Im_BradPitt.png', 'Im_RyanGosling.png', 'Im_LeonardoDiCaprio.png', 'Im_DanielRadcliffe.png', 'Im_RobertDowneyJr.png'],diff,1,0.8415391999997155,23,0,
GUJO1605,train,neg,fs,negfs_id18_im11.bmp_negfs_id21_im16.bmp,['Im_GeorgeClooney.png', 'Im_JustinTimberlake.png', 'Im_RobertPattinson.png', 'Im_HughJackman.png', 'Im_RyanReynolds.png', 'Im_BradPitt.png', 'Im_RyanGosling.png', 'Im_LeonardoDiCaprio.png', 'Im_DanielRadcliffe.png', 'Im_RobertDowneyJr.png'],diff,1,0.8166928000000553,24,0,
GUJO1605,train,neg,0,neg0_id18_im19.bmp_neg0_id20_im30.bmp,['Im_GeorgeClooney.png', 'Im_JustinTimberlake.png', 'Im_RobertPattinson.png', 'Im_HughJackman.png', 'Im_RyanReynolds.png', 'Im_BradPitt.png', 'Im_RyanGosling.png', 'Im_LeonardoDiCaprio.png', 'Im_DanielRadcliffe.png', 'Im_RobertDowneyJr.png'],same,0,0.41672319999997853,24,0,
GUJO1605,train,neg,fs,negfs_id3_im8.bmp_negfs_id8_im21.bmp,['Im_GeorgeClooney.png', 'Im_JustinTimberlake.png', 'Im_RobertPattinson.png', 'Im_HughJackman.png', 'Im_RyanReynolds.png', 'Im_BradPitt.png', 'Im_RyanGosling.png', 'Im_LeonardoDiCaprio.png', 'Im_DanielRadcliffe.png', 'Im_RobertDowneyJr.png'],diff,1,1.1417415999994773,25,0,
GUJO1605,train,neg,120,neg120_id21_im16.bmp_neg120_id21_im22.bmp,['Im_GeorgeClooney.png', 'Im_JustinTimberlake.png', 'Im_RobertPattinson.png', 'Im_HughJackman.png', 'Im_RyanReynolds.png', 'Im_BradPitt.png', 'Im_RyanGosling.png', 'Im_LeonardoDiCaprio.png', 'Im_DanielRadcliffe.png', 'Im_RobertDowneyJr.png'],same,1,0.6748236000003089,26,0,
GUJO1605,train,neg,30,neg30_id20_im3.bmp_neg30_id20_im30.bmp,['Im_GeorgeClooney.png', 'Im_JustinTimberlake.png', 'Im_RobertPattinson.png', 'Im_HughJackman.png', 'Im_RyanReynolds.png', 'Im_BradPitt.png', 'Im_RyanGosling.png', 'Im_LeonardoDiCaprio.png', 'Im_DanielRadcliffe.png', 'Im_RobertDowneyJr.png'],same,1,0.6918648999999277,27,0,
GUJO1605,train,neg,90,neg90_id21_im16.bmp_neg90_id8_im20.bmp,['Im_GeorgeClooney.png', 'Im_JustinTimberlake.png', 'Im_RobertPattinson.png', 'Im_HughJackman.png', 'Im_RyanReynolds.png', 'Im_BradPitt.png', 'Im_RyanGosling.png', 'Im_LeonardoDiCaprio.png', 'Im_DanielRadcliffe.png', 'Im_RobertDowneyJr.png'],diff,1,0.8087870999997904,28,0,
GUJO1605,train,neg,120,neg120_id3_im8.bmp_neg120_id19_im27.bmp,['Im_GeorgeClooney.png', 'Im_JustinTimberlake.png', 'Im_RobertPattinson.png', 'Im_HughJackman.png', 'Im_RyanReynolds.png', 'Im_BradPitt.png', 'Im_RyanGosling.png', 'Im_LeonardoDiCaprio.png', 'Im_DanielRadcliffe.png', 'Im_RobertDowneyJr.png'],diff,1,2.249839200000679,29,0,
GUJO1605,train,neg,150,neg150_id21_im16.bmp_neg150_id21_im17.bmp,['Im_GeorgeClooney.png', 'Im_JustinTimberlake.png', 'Im_RobertPattinson.png', 'Im_HughJackman.png', 'Im_RyanReynolds.png', 'Im_BradPitt.png', 'Im_RyanGosling.png', 'Im_LeonardoDiCaprio.png', 'Im_DanielRadcliffe.png', 'Im_RobertDowneyJr.png'],same,1,1.0832050999997591,30,0,
GUJO1605,train,neg,0,neg0_id20_im12.bmp_neg0_id20_im30.bmp,['Im_GeorgeClooney.png', 'Im_JustinTimberlake.png', 'Im_RobertPattinson.png', 'Im_HughJackman.png', 'Im_RyanReynolds.png', 'Im_BradPitt.png', 'Im_RyanGosling.png', 'Im_LeonardoDiCaprio.png', 'Im_DanielRadcliffe.png', 'Im_RobertDowneyJr.png'],same,1,0.7168931000005614,31,0,
GUJO1605,train,neg,60,neg60_id18_im19.bmp_neg60_id18_im18.bmp,['Im_GeorgeClooney.png', 'Im_JustinTimberlake.png', 'Im_RobertPattinson.png', 'Im_HughJackman.png', 'Im_RyanReynolds.png', 'Im_BradPitt.png', 'Im_RyanGosling.png', 'Im_LeonardoDiCaprio.png', 'Im_DanielRadcliffe.png', 'Im_RobertDowneyJr.png'],diff,0,0.6915696999994907,31,0,
GUJO1605,train,neg,30,neg30_id21_im17.bmp_neg30_id7_im15.bmp,['Im_GeorgeClooney.png', 'Im_JustinTimberlake.png', 'Im_RobertPattinson.png', 'Im_HughJackman.png', 'Im_RyanReynolds.png', 'Im_BradPitt.png', 'Im_RyanGosling.png', 'Im_LeonardoDiCaprio.png', 'Im_DanielRadcliffe.png', 'Im_RobertDowneyJr.png'],diff,1,0.8249270999995133,32,0,
GUJO1605,train,neg,150,neg150_id18_im19.bmp_neg150_id18_im11.bmp,['Im_GeorgeClooney.png', 'Im_JustinTimberlake.png', 'Im_RobertPattinson.png', 'Im_HughJackman.png', 'Im_RyanReynolds.png', 'Im_BradPitt.png', 'Im_RyanGosling.png', 'Im_LeonardoDiCaprio.png', 'Im_DanielRadcliffe.png', 'Im_RobertDowneyJr.png'],same,1,0.4333839999999327,33,0,
GUJO1605,train,neg,90,neg90_id10_im1.bmp_neg90_id10_im18.bmp,['Im_GeorgeClooney.png', 'Im_JustinTimberlake.png', 'Im_RobertPattinson.png', 'Im_HughJackman.png', 'Im_RyanReynolds.png', 'Im_BradPitt.png', 'Im_RyanGosling.png', 'Im_LeonardoDiCaprio.png', 'Im_DanielRadcliffe.png', 'Im_RobertDowneyJr.png'],same,1,0.6500288999995973,34,0,
GUJO1605,train,neg,60,neg60_id7_im14.bmp_neg60_id10_im1.bmp,['Im_GeorgeClooney.png', 'Im_JustinTimberlake.png', 'Im_RobertPattinson.png', 'Im_HughJackman.png', 'Im_RyanReynolds.png', 'Im_BradPitt.png', 'Im_RyanGosling.png', 'Im_LeonardoDiCaprio.png', 'Im_DanielRadcliffe.png', 'Im_RobertDowneyJr.png'],same,0,0.6252690999999686,34,0,
GUJO1605,train,inv,120,pos120_id18_im18.bmp_pos120_id7_im15.bmp,['Im_GeorgeClooney.png', 'Im_JustinTimberlake.png', 'Im_RobertPattinson.png', 'Im_HughJackman.png', 'Im_RyanReynolds.png', 'Im_BradPitt.png', 'Im_RyanGosling.png', 'Im_LeonardoDiCaprio.png', 'Im_DanielRadcliffe.png', 'Im_RobertDowneyJr.png'],diff,1,0.7584538000000975,1,80.95238095238095,
GUJO1605,train,inv,30,pos30_id3_im17.bmp_pos30_id13_im29.bmp,['Im_GeorgeClooney.png', 'Im_JustinTimberlake.png', 'Im_RobertPattinson.png', 'Im_HughJackman.png', 'Im_RyanReynolds.png', 'Im_BradPitt.png', 'Im_RyanGosling.png', 'Im_LeonardoDiCaprio.png', 'Im_DanielRadcliffe.png', 'Im_RobertDowneyJr.png'],diff,1,1.0831994000000122,2,80.95238095238095,
GUJO1605,train,inv,150,pos150_id10_im17.bmp_pos150_id10_im1.bmp,['Im_GeorgeClooney.png', 'Im_JustinTimberlake.png', 'Im_RobertPattinson.png', 'Im_HughJackman.png', 'Im_RyanReynolds.png', 'Im_BradPitt.png', 'Im_RyanGosling.png', 'Im_LeonardoDiCaprio.png', 'Im_DanielRadcliffe.png', 'Im_RobertDowneyJr.png'],same,1,0.42491939999945316,3,80.95238095238095,
GUJO1605,train,inv,60,pos60_id8_im20.bmp_pos60_id20_im3.bmp,['Im_GeorgeClooney.png', 'Im_JustinTimberlake.png', 'Im_RobertPattinson.png', 'Im_HughJackman.png', 'Im_RyanReynolds.png', 'Im_BradPitt.png', 'Im_RyanGosling.png', 'Im_LeonardoDiCaprio.png', 'Im_DanielRadcliffe.png', 'Im_RobertDowneyJr.png'],diff,1,0.966943600000377,4,80.95238095238095,
GUJO1605,train,inv,0,pos0_id8_im20.bmp_pos0_id21_im16.bmp,['Im_GeorgeClooney.png', 'Im_JustinTimberlake.png', 'Im_RobertPattinson.png', 'Im_HughJackman.png', 'Im_RyanReynolds.png', 'Im_BradPitt.png', 'Im_RyanGosling.png', 'Im_LeonardoDiCaprio.png', 'Im_DanielRadcliffe.png', 'Im_RobertDowneyJr.png'],diff,1,1.1582528999997521,5,80.95238095238095,
GUJO1605,train,inv,90,pos90_id7_im15.bmp_pos90_id7_im14.bmp,['Im_GeorgeClooney.png', 'Im_JustinTimberlake.png', 'Im_RobertPattinson.png', 'Im_HughJackman.png', 'Im_RyanReynolds.png', 'Im_BradPitt.png', 'Im_RyanGosling.png', 'Im_LeonardoDiCaprio.png', 'Im_DanielRadcliffe.png', 'Im_RobertDowneyJr.png'],same,1,0.42503930000020773,6,80.95238095238095,
GUJO1605,train,inv,fs,posfs_id10_im17.bmp_posfs_id10_im18.bmp,['Im_GeorgeClooney.png', 'Im_JustinTimberlake.png', 'Im_RobertPattinson.png', 'Im_HughJackman.png', 'Im_RyanReynolds.png', 'Im_BradPitt.png', 'Im_RyanGosling.png', 'Im_LeonardoDiCaprio.png', 'Im_DanielRadcliffe.png', 'Im_RobertDowneyJr.png'],same,1,0.8249725000005128,7,80.95238095238095,
GUJO1605,train,inv,60,pos60_id10_im18.bmp_pos60_id10_im17.bmp,['Im_GeorgeClooney.png', 'Im_JustinTimberlake.png', 'Im_RobertPattinson.png', 'Im_HughJackman.png', 'Im_RyanReynolds.png', 'Im_BradPitt.png', 'Im_RyanGosling.png', 'Im_LeonardoDiCaprio.png', 'Im_DanielRadcliffe.png', 'Im_RobertDowneyJr.png'],diff,0,0.8000351999999111,7,80.95238095238095,
GUJO1605,train,inv,30,pos30_id8_im13.bmp_pos30_id8_im20.bmp,['Im_GeorgeClooney.png', 'Im_JustinTimberlake.png', 'Im_RobertPattinson.png', 'Im_HughJackman.png', 'Im_RyanReynolds.png', 'Im_BradPitt.png', 'Im_RyanGosling.png', 'Im_LeonardoDiCaprio.png', 'Im_DanielRadcliffe.png', 'Im_RobertDowneyJr.png'],same,1,0.41678219999994326,8,80.95238095238095,
GUJO1605,train,inv,90,pos90_id5_im1.bmp_pos90_id7_im14.bmp,['Im_GeorgeClooney.png', 'Im_JustinTimberlake.png', 'Im_RobertPattinson.png', 'Im_HughJackman.png', 'Im_RyanReynolds.png', 'Im_BradPitt.png', 'Im_RyanGosling.png', 'Im_LeonardoDiCaprio.png', 'Im_DanielRadcliffe.png', 'Im_RobertDowneyJr.png'],diff,1,0.41671150000001944,9,80.95238095238095,
GUJO1605,train,inv,120,pos120_id19_im4.bmp_pos120_id10_im17.bmp,['Im_GeorgeClooney.png', 'Im_JustinTimberlake.png', 'Im_RobertPattinson.png', 'Im_HughJackman.png', 'Im_RyanReynolds.png', 'Im_BradPitt.png', 'Im_RyanGosling.png', 'Im_LeonardoDiCaprio.png', 'Im_DanielRadcliffe.png', 'Im_RobertDowneyJr.png'],diff,1,0.9918615999995382,10,80.95238095238095,
GUJO1605,train,inv,fs,posfs_id7_im14.bmp_posfs_id7_im26.bmp,['Im_GeorgeClooney.png', 'Im_JustinTimberlake.png', 'Im_RobertPattinson.png', 'Im_HughJackman.png', 'Im_RyanReynolds.png', 'Im_BradPitt.png', 'Im_RyanGosling.png', 'Im_LeonardoDiCaprio.png', 'Im_DanielRadcliffe.png', 'Im_RobertDowneyJr.png'],same,1,0.49173160000009375,11,80.95238095238095,
GUJO1605,train,inv,150,pos150_id3_im6.bmp_pos150_id3_im8.bmp,['Im_GeorgeClooney.png', 'Im_JustinTimberlake.png', 'Im_RobertPattinson.png', 'Im_HughJackman.png', 'Im_RyanReynolds.png', 'Im_BradPitt.png', 'Im_RyanGosling.png', 'Im_LeonardoDiCaprio.png', 'Im_DanielRadcliffe.png', 'Im_RobertDowneyJr.png'],same,1,1.0333037000000331,12,80.95238095238095,
GUJO1605,train,inv,0,pos0_id10_im1.bmp_pos0_id7_im14.bmp,['Im_GeorgeClooney.png', 'Im_JustinTimberlake.png', 'Im_RobertPattinson.png', 'Im_HughJackman.png', 'Im_RyanReynolds.png', 'Im_BradPitt.png', 'Im_RyanGosling.png', 'Im_LeonardoDiCaprio.png', 'Im_DanielRadcliffe.png', 'Im_RobertDowneyJr.png'],diff,1,0.474988800000574,13,80.95238095238095,
GUJO1605,train,neg,150,neg150_id21_im17.bmp_neg150_id7_im26.bmp,['Im_GeorgeClooney.png', 'Im_JustinTimberlake.png', 'Im_RobertPattinson.png', 'Im_HughJackman.png', 'Im_RyanReynolds.png', 'Im_BradPitt.png', 'Im_RyanGosling.png', 'Im_LeonardoDiCaprio.png', 'Im_DanielRadcliffe.png', 'Im_RobertDowneyJr.png'],diff,1,0.65835160000006,14,80.95238095238095,
GUJO1605,train,neg,90,neg90_id5_im20.bmp_neg90_id5_im10.bmp,['Im_GeorgeClooney.png', 'Im_JustinTimberlake.png', 'Im_RobertPattinson.png', 'Im_HughJackman.png', 'Im_RyanReynolds.png', 'Im_BradPitt.png', 'Im_RyanGosling.png', 'Im_LeonardoDiCaprio.png', 'Im_DanielRadcliffe.png', 'Im_RobertDowneyJr.png'],same,1,0.49172060000000783,15,80.95238095238095,
GUJO1605,train,neg,120,neg120_id21_im22.bmp_neg120_id10_im18.bmp,['Im_GeorgeClooney.png', 'Im_JustinTimberlake.png', 'Im_RobertPattinson.png', 'Im_HughJackman.png', 'Im_RyanReynolds.png', 'Im_BradPitt.png', 'Im_RyanGosling.png', 'Im_LeonardoDiCaprio.png', 'Im_DanielRadcliffe.png', 'Im_RobertDowneyJr.png'],diff,1,1.200038300000415,16,80.95238095238095,
GUJO1605,train,neg,fs,negfs_id5_im1.bmp_negfs_id5_im20.bmp,['Im_GeorgeClooney.png', 'Im_JustinTimberlake.png', 'Im_RobertPattinson.png', 'Im_HughJackman.png', 'Im_RyanReynolds.png', 'Im_BradPitt.png', 'Im_RyanGosling.png', 'Im_LeonardoDiCaprio.png', 'Im_DanielRadcliffe.png', 'Im_RobertDowneyJr.png'],same,1,0.4084238000004916,17,80.95238095238095,
GUJO1605,train,neg,30,neg30_id13_im10.bmp_neg30_id13_im29.bmp,['Im_GeorgeClooney.png', 'Im_JustinTimberlake.png', 'Im_RobertPattinson.png', 'Im_HughJackman.png', 'Im_RyanReynolds.png', 'Im_BradPitt.png', 'Im_RyanGosling.png', 'Im_LeonardoDiCaprio.png', 'Im_DanielRadcliffe.png', 'Im_RobertDowneyJr.png'],diff,0,0.6583666000005906,17,80.95238095238095,
GUJO1605,train,neg,30,neg30_id3_im8.bmp_neg30_id19_im27.bmp,['Im_GeorgeClooney.png', 'Im_JustinTimberlake.png', 'Im_RobertPattinson.png', 'Im_HughJackman.png', 'Im_RyanReynolds.png', 'Im_BradPitt.png', 'Im_RyanGosling.png', 'Im_LeonardoDiCaprio.png', 'Im_DanielRadcliffe.png', 'Im_RobertDowneyJr.png'],same,0,0.5665015000004132,17,80.95238095238095,
GUJO1605,train,neg,120,neg120_id7_im26.bmp_neg120_id7_im14.bmp,['Im_GeorgeClooney.png', 'Im_JustinTimberlake.png', 'Im_RobertPattinson.png', 'Im_HughJackman.png', 'Im_RyanReynolds.png', 'Im_BradPitt.png', 'Im_RyanGosling.png', 'Im_LeonardoDiCaprio.png', 'Im_DanielRadcliffe.png', 'Im_RobertDowneyJr.png'],same,1,0.41669719999936206,18,80.95238095238095,
GUJO1605,train,neg,0,neg0_id21_im17.bmp_neg0_id21_im16.bmp,['Im_GeorgeClooney.png', 'Im_JustinTimberlake.png', 'Im_RobertPattinson.png', 'Im_HughJackman.png', 'Im_RyanReynolds.png', 'Im_BradPitt.png', 'Im_RyanGosling.png', 'Im_LeonardoDiCaprio.png', 'Im_DanielRadcliffe.png', 'Im_RobertDowneyJr.png'],same,1,0.7171435999998721,19,80.95238095238095,
GUJO1605,train,neg,150,neg150_id7_im15.bmp_neg150_id18_im18.bmp,['Im_GeorgeClooney.png', 'Im_JustinTimberlake.png', 'Im_RobertPattinson.png', 'Im_HughJackman.png', 'Im_RyanReynolds.png', 'Im_BradPitt.png', 'Im_RyanGosling.png', 'Im_LeonardoDiCaprio.png', 'Im_DanielRadcliffe.png', 'Im_RobertDowneyJr.png'],diff,1,0.6253022000000783,20,80.95238095238095,
GUJO1605,train,neg,60,neg60_id5_im20.bmp_neg60_id19_im4.bmp,['Im_GeorgeClooney.png', 'Im_JustinTimberlake.png', 'Im_RobertPattinson.png', 'Im_HughJackman.png', 'Im_RyanReynolds.png', 'Im_BradPitt.png', 'Im_RyanGosling.png', 'Im_LeonardoDiCaprio.png', 'Im_DanielRadcliffe.png', 'Im_RobertDowneyJr.png'],diff,1,0.5497331999995367,21,80.95238095238095,
GUJO1605,train,neg,60,neg60_id5_im1.bmp_neg60_id7_im14.bmp,['Im_GeorgeClooney.png', 'Im_JustinTimberlake.png', 'Im_RobertPattinson.png', 'Im_HughJackman.png', 'Im_RyanReynolds.png', 'Im_BradPitt.png', 'Im_RyanGosling.png', 'Im_LeonardoDiCaprio.png', 'Im_DanielRadcliffe.png', 'Im_RobertDowneyJr.png'],diff,1,0.5502461000005496,22,80.95238095238095,
GUJO1605,train,neg,fs,negfs_id7_im14.bmp_negfs_id5_im1.bmp,['Im_GeorgeClooney.png', 'Im_JustinTimberlake.png', 'Im_RobertPattinson.png', 'Im_HughJackman.png', 'Im_RyanReynolds.png', 'Im_BradPitt.png', 'Im_RyanGosling.png', 'Im_LeonardoDiCaprio.png', 'Im_DanielRadcliffe.png', 'Im_RobertDowneyJr.png'],diff,1,0.5415046999996775,23,80.95238095238095,
GUJO1605,train,neg,90,neg90_id8_im13.bmp_neg90_id8_im21.bmp,['Im_GeorgeClooney.png', 'Im_JustinTimberlake.png', 'Im_RobertPattinson.png', 'Im_HughJackman.png', 'Im_RyanReynolds.png', 'Im_BradPitt.png', 'Im_RyanGosling.png', 'Im_LeonardoDiCaprio.png', 'Im_DanielRadcliffe.png', 'Im_RobertDowneyJr.png'],same,1,0.42500120000022434,24,80.95238095238095,
GUJO1605,train,neg,0,neg0_id10_im18.bmp_neg0_id10_im17.bmp,['Im_GeorgeClooney.png', 'Im_JustinTimberlake.png', 'Im_RobertPattinson.png', 'Im_HughJackman.png', 'Im_RyanReynolds.png', 'Im_BradPitt.png', 'Im_RyanGosling.png', 'Im_LeonardoDiCaprio.png', 'Im_DanielRadcliffe.png', 'Im_RobertDowneyJr.png'],same,1,0.4668833999994604,25,80.95238095238095,
GUJO1605,train,pos,0,pos0_id7_im15.bmp_pos0_id21_im17.bmp,['Im_GeorgeClooney.png', 'Im_JustinTimberlake.png', 'Im_RobertPattinson.png', 'Im_HughJackman.png', 'Im_RyanReynolds.png', 'Im_BradPitt.png', 'Im_RyanGosling.png', 'Im_LeonardoDiCaprio.png', 'Im_DanielRadcliffe.png', 'Im_RobertDowneyJr.png'],diff,1,0.5583004999998593,26,80.95238095238095,
GUJO1605,train,pos,fs,posfs_id19_im4.bmp_posfs_id5_im20.bmp,['Im_GeorgeClooney.png', 'Im_JustinTimberlake.png', 'Im_RobertPattinson.png', 'Im_HughJackman.png', 'Im_RyanReynolds.png', 'Im_BradPitt.png', 'Im_RyanGosling.png', 'Im_LeonardoDiCaprio.png', 'Im_DanielRadcliffe.png', 'Im_RobertDowneyJr.png'],diff,1,0.5332846999999674,27,80.95238095238095,
GUJO1605,train,pos,90,pos90_id20_im12.bmp_pos90_id5_im1.bmp,['Im_GeorgeClooney.png', 'Im_JustinTimberlake.png', 'Im_RobertPattinson.png', 'Im_HughJackman.png', 'Im_RyanReynolds.png', 'Im_BradPitt.png', 'Im_RyanGosling.png', 'Im_LeonardoDiCaprio.png', 'Im_DanielRadcliffe.png', 'Im_RobertDowneyJr.png'],diff,1,0.4083904999997685,28,80.95238095238095,
GUJO1605,train,pos,30,pos30_id10_im17.bmp_pos30_id19_im4.bmp,['Im_GeorgeClooney.png', 'Im_JustinTimberlake.png', 'Im_RobertPattinson.png', 'Im_HughJackman.png', 'Im_RyanReynolds.png', 'Im_BradPitt.png', 'Im_RyanGosling.png', 'Im_LeonardoDiCaprio.png', 'Im_DanielRadcliffe.png', 'Im_RobertDowneyJr.png'],diff,1,0.525250199999391,29,80.95238095238095,
GUJO1605,train,pos,150,pos150_id8_im13.bmp_pos150_id18_im19.bmp,['Im_GeorgeClooney.png', 'Im_JustinTimberlake.png', 'Im_RobertPattinson.png', 'Im_HughJackman.png', 'Im_RyanReynolds.png', 'Im_BradPitt.png', 'Im_RyanGosling.png', 'Im_LeonardoDiCaprio.png', 'Im_DanielRadcliffe.png', 'Im_RobertDowneyJr.png'],diff,1,0.5748945000004824,30,80.95238095238095,
GUJO1605,train,pos,60,pos60_id20_im12.bmp_pos60_id5_im1.bmp,['Im_GeorgeClooney.png', 'Im_JustinTimberlake.png', 'Im_RobertPattinson.png', 'Im_HughJackman.png', 'Im_RyanReynolds.png', 'Im_BradPitt.png', 'Im_RyanGosling.png', 'Im_LeonardoDiCaprio.png', 'Im_DanielRadcliffe.png', 'Im_RobertDowneyJr.png'],diff,1,0.4250676999999996,31,80.95238095238095,
GUJO1605,train,pos,90,pos90_id3_im8.bmp_pos90_id3_im17.bmp,['Im_GeorgeClooney.png', 'Im_JustinTimberlake.png', 'Im_RobertPattinson.png', 'Im_HughJackman.png', 'Im_RyanReynolds.png', 'Im_BradPitt.png', 'Im_RyanGosling.png', 'Im_LeonardoDiCaprio.png', 'Im_DanielRadcliffe.png', 'Im_RobertDowneyJr.png'],same,1,0.6831975999994029,32,80.95238095238095,
GUJO1605,train,pos,fs,posfs_id10_im1.bmp_posfs_id10_im17.bmp,['Im_GeorgeClooney.png', 'Im_JustinTimberlake.png', 'Im_RobertPattinson.png', 'Im_HughJackman.png', 'Im_RyanReynolds.png', 'Im_BradPitt.png', 'Im_RyanGosling.png', 'Im_LeonardoDiCaprio.png', 'Im_DanielRadcliffe.png', 'Im_RobertDowneyJr.png'],same,1,0.5251048999998602,33,80.95238095238095,
GUJO1605,train,pos,60,pos60_id20_im3.bmp_pos60_id20_im12.bmp,['Im_GeorgeClooney.png', 'Im_JustinTimberlake.png', 'Im_RobertPattinson.png', 'Im_HughJackman.png', 'Im_RyanReynolds.png', 'Im_BradPitt.png', 'Im_RyanGosling.png', 'Im_LeonardoDiCaprio.png', 'Im_DanielRadcliffe.png', 'Im_RobertDowneyJr.png'],same,1,0.4502115000004778,34,80.95238095238095,
GUJO1605,train,pos,30,pos30_id8_im13.bmp_pos30_id8_im21.bmp,['Im_GeorgeClooney.png', 'Im_JustinTimberlake.png', 'Im_RobertPattinson.png', 'Im_HughJackman.png', 'Im_RyanReynolds.png', 'Im_BradPitt.png', 'Im_RyanGosling.png', 'Im_LeonardoDiCaprio.png', 'Im_DanielRadcliffe.png', 'Im_RobertDowneyJr.png'],same,1,0.5086501000005228,35,80.95238095238095,
GUJO1605,train,pos,0,pos0_id20_im12.bmp_pos0_id5_im1.bmp,['Im_GeorgeClooney.png', 'Im_JustinTimberlake.png', 'Im_RobertPattinson.png', 'Im_HughJackman.png', 'Im_RyanReynolds.png', 'Im_BradPitt.png', 'Im_RyanGosling.png', 'Im_LeonardoDiCaprio.png', 'Im_DanielRadcliffe.png', 'Im_RobertDowneyJr.png'],diff,1,0.4080455000002985,36,80.95238095238095,
GUJO1605,train,pos,120,pos120_id18_im19.bmp_pos120_id18_im11.bmp,['Im_GeorgeClooney.png', 'Im_JustinTimberlake.png', 'Im_RobertPattinson.png', 'Im_HughJackman.png', 'Im_RyanReynolds.png', 'Im_BradPitt.png', 'Im_RyanGosling.png', 'Im_LeonardoDiCaprio.png', 'Im_DanielRadcliffe.png', 'Im_RobertDowneyJr.png'],same,1,0.6750087000000349,37,80.95238095238095,
GUJO1605,train,pos,120,pos120_id3_im6.bmp_pos120_id19_im8.bmp,['Im_GeorgeClooney.png', 'Im_JustinTimberlake.png', 'Im_RobertPattinson.png', 'Im_HughJackman.png', 'Im_RyanReynolds.png', 'Im_BradPitt.png', 'Im_RyanGosling.png', 'Im_LeonardoDiCaprio.png', 'Im_DanielRadcliffe.png', 'Im_RobertDowneyJr.png'],diff,1,0.42505489999985,38,80.95238095238095,
GUJO1605,train,pos,150,pos150_id8_im21.bmp_pos150_id8_im20.bmp,['Im_GeorgeClooney.png', 'Im_JustinTimberlake.png', 'Im_RobertPattinson.png', 'Im_HughJackman.png', 'Im_RyanReynolds.png', 'Im_BradPitt.png', 'Im_RyanGosling.png', 'Im_LeonardoDiCaprio.png', 'Im_DanielRadcliffe.png', 'Im_RobertDowneyJr.png'],same,1,0.425068999999894,39,80.95238095238095,
GUJO1605,0,neg,150,neg150_id21_im16.bmp_neg150_id18_im11.bmp,['Im_GeorgeClooney.png', 'Im_JustinTimberlake.png', 'Im_RobertPattinson.png', 'Im_HughJackman.png', 'Im_RyanReynolds.png', 'Im_BradPitt.png', 'Im_RyanGosling.png', 'Im_LeonardoDiCaprio.png', 'Im_DanielRadcliffe.png', 'Im_RobertDowneyJr.png'],diff,1,0.4833938000001581,1,0,
GUJO1605,0,neg,60,neg60_id7_im15.bmp_neg60_id21_im17.bmp,['Im_GeorgeClooney.png', 'Im_JustinTimberlake.png', 'Im_RobertPattinson.png', 'Im_HughJackman.png', 'Im_RyanReynolds.png', 'Im_BradPitt.png', 'Im_RyanGosling.png', 'Im_LeonardoDiCaprio.png', 'Im_DanielRadcliffe.png', 'Im_RobertDowneyJr.png'],same,0,0.5086627999999109,1,0,
GUJO1605,0,neg,150,neg150_id13_im10.bmp_neg150_id13_im29.bmp,['Im_GeorgeClooney.png', 'Im_JustinTimberlake.png', 'Im_RobertPattinson.png', 'Im_HughJackman.png', 'Im_RyanReynolds.png', 'Im_BradPitt.png', 'Im_RyanGosling.png', 'Im_LeonardoDiCaprio.png', 'Im_DanielRadcliffe.png', 'Im_RobertDowneyJr.png'],diff,0,0.425072299999556,1,0,
GUJO1605,0,neg,fs,negfs_id3_im17.bmp_negfs_id10_im1.bmp,['Im_GeorgeClooney.png', 'Im_JustinTimberlake.png', 'Im_RobertPattinson.png', 'Im_HughJackman.png', 'Im_RyanReynolds.png', 'Im_BradPitt.png', 'Im_RyanGosling.png', 'Im_LeonardoDiCaprio.png', 'Im_DanielRadcliffe.png', 'Im_RobertDowneyJr.png'],diff,1,0.5001501999995526,2,0,
GUJO1605,0,neg,30,neg30_id18_im19.bmp_neg30_id18_im11.bmp,['Im_GeorgeClooney.png', 'Im_JustinTimberlake.png', 'Im_RobertPattinson.png', 'Im_HughJackman.png', 'Im_RyanReynolds.png', 'Im_BradPitt.png', 'Im_RyanGosling.png', 'Im_LeonardoDiCaprio.png', 'Im_DanielRadcliffe.png', 'Im_RobertDowneyJr.png'],same,1,0.6833235000003697,3,0,
GUJO1605,0,neg,30,neg30_id19_im8.bmp_neg30_id5_im20.bmp,['Im_GeorgeClooney.png', 'Im_JustinTimberlake.png', 'Im_RobertPattinson.png', 'Im_HughJackman.png', 'Im_RyanReynolds.png', 'Im_BradPitt.png', 'Im_RyanGosling.png', 'Im_LeonardoDiCaprio.png', 'Im_DanielRadcliffe.png', 'Im_RobertDowneyJr.png'],diff,1,1.525120600000264,4,0,
GUJO1605,0,neg,120,neg120_id3_im8.bmp_neg120_id3_im17.bmp,['Im_GeorgeClooney.png', 'Im_JustinTimberlake.png', 'Im_RobertPattinson.png', 'Im_HughJackman.png', 'Im_RyanReynolds.png', 'Im_BradPitt.png', 'Im_RyanGosling.png', 'Im_LeonardoDiCaprio.png', 'Im_DanielRadcliffe.png', 'Im_RobertDowneyJr.png'],same,1,0.7252241999995022,5,0,
GUJO1605,0,neg,90,neg90_id21_im22.bmp_neg90_id5_im10.bmp,['Im_GeorgeClooney.png', 'Im_JustinTimberlake.png', 'Im_RobertPattinson.png', 'Im_HughJackman.png', 'Im_RyanReynolds.png', 'Im_BradPitt.png', 'Im_RyanGosling.png', 'Im_LeonardoDiCaprio.png', 'Im_DanielRadcliffe.png', 'Im_RobertDowneyJr.png'],diff,1,0.42502539999986766,6,0,
GUJO1605,0,neg,90,neg90_id3_im17.bmp_neg90_id10_im1.bmp,['Im_GeorgeClooney.png', 'Im_JustinTimberlake.png', 'Im_RobertPattinson.png', 'Im_HughJackman.png', 'Im_RyanReynolds.png', 'Im_BradPitt.png', 'Im_RyanGosling.png', 'Im_LeonardoDiCaprio.png', 'Im_DanielRadcliffe.png', 'Im_RobertDowneyJr.png'],same,0,0.5917409000003317,6,0,
GUJO1605,0,neg,0,neg0_id10_im18.bmp_neg0_id13_im29.bmp,['Im_GeorgeClooney.png', 'Im_JustinTimberlake.png', 'Im_RobertPattinson.png', 'Im_HughJackman.png', 'Im_RyanReynolds.png', 'Im_BradPitt.png', 'Im_RyanGosling.png', 'Im_LeonardoDiCaprio.png', 'Im_DanielRadcliffe.png', 'Im_RobertDowneyJr.png'],diff,1,0.7669732000003933,7,0,
GUJO1605,0,neg,60,neg60_id8_im13.bmp_neg60_id5_im10.bmp,['Im_GeorgeClooney.png', 'Im_JustinTimberlake.png', 'Im_RobertPattinson.png', 'Im_HughJackman.png', 'Im_RyanReynolds.png', 'Im_BradPitt.png', 'Im_RyanGosling.png', 'Im_LeonardoDiCaprio.png', 'Im_DanielRadcliffe.png', 'Im_RobertDowneyJr.png'],diff,1,0.45860439999978553,8,0,
GUJO1605,0,neg,fs,negfs_id3_im8.bmp_negfs_id3_im6.bmp,['Im_GeorgeClooney.png', 'Im_JustinTimberlake.png', 'Im_RobertPattinson.png', 'Im_HughJackman.png', 'Im_RyanReynolds.png', 'Im_BradPitt.png', 'Im_RyanGosling.png', 'Im_LeonardoDiCaprio.png', 'Im_DanielRadcliffe.png', 'Im_RobertDowneyJr.png'],same,1,0.7167733999995107,9,0,
GUJO1605,0,neg,0,neg0_id20_im30.bmp_neg0_id13_im10.bmp,['Im_GeorgeClooney.png', 'Im_JustinTimberlake.png', 'Im_RobertPattinson.png', 'Im_HughJackman.png', 'Im_RyanReynolds.png', 'Im_BradPitt.png', 'Im_RyanGosling.png', 'Im_LeonardoDiCaprio.png', 'Im_DanielRadcliffe.png', 'Im_RobertDowneyJr.png'],diff,1,0.499924299999293,10,0,
GUJO1605,0,neg,120,neg120_id18_im11.bmp_neg120_id7_im26.bmp,['Im_GeorgeClooney.png', 'Im_JustinTimberlake.png', 'Im_RobertPattinson.png', 'Im_HughJackman.png', 'Im_RyanReynolds.png', 'Im_BradPitt.png', 'Im_RyanGosling.png', 'Im_LeonardoDiCaprio.png', 'Im_DanielRadcliffe.png', 'Im_RobertDowneyJr.png'],same,0,0.41682459999992716,10,0,
GUJO1605,1,pos,90,pos90_id10_im18.bmp_pos90_id13_im29.bmp,['Im_GeorgeClooney.png', 'Im_JustinTimberlake.png', 'Im_RobertPattinson.png', 'Im_HughJackman.png', 'Im_RyanReynolds.png', 'Im_BradPitt.png', 'Im_RyanGosling.png', 'Im_LeonardoDiCaprio.png', 'Im_DanielRadcliffe.png', 'Im_RobertDowneyJr.png'],diff,1,0.4502850999997463,11,0,
GUJO1605,1,pos,30,pos30_id3_im6.bmp_pos30_id10_im17.bmp,['Im_GeorgeClooney.png', 'Im_JustinTimberlake.png', 'Im_RobertPattinson.png', 'Im_HughJackman.png', 'Im_RyanReynolds.png', 'Im_BradPitt.png', 'Im_RyanGosling.png', 'Im_LeonardoDiCaprio.png', 'Im_DanielRadcliffe.png', 'Im_RobertDowneyJr.png'],diff,1,0.4251666000000114,12,0,
GUJO1605,1,pos,0,pos0_id5_im20.bmp_pos0_id5_im1.bmp,['Im_GeorgeClooney.png', 'Im_JustinTimberlake.png', 'Im_RobertPattinson.png', 'Im_HughJackman.png', 'Im_RyanReynolds.png', 'Im_BradPitt.png', 'Im_RyanGosling.png', 'Im_LeonardoDiCaprio.png', 'Im_DanielRadcliffe.png', 'Im_RobertDowneyJr.png'],same,1,0.47542629999952624,13,0,
GUJO1605,1,pos,120,pos120_id10_im18.bmp_pos120_id13_im29.bmp,['Im_GeorgeClooney.png', 'Im_JustinTimberlake.png', 'Im_RobertPattinson.png', 'Im_HughJackman.png', 'Im_RyanReynolds.png', 'Im_BradPitt.png', 'Im_RyanGosling.png', 'Im_LeonardoDiCaprio.png', 'Im_DanielRadcliffe.png', 'Im_RobertDowneyJr.png'],diff,1,0.41694269999970857,14,0,
GUJO1605,1,pos,60,pos60_id5_im10.bmp_pos60_id21_im22.bmp,['Im_GeorgeClooney.png', 'Im_JustinTimberlake.png', 'Im_RobertPattinson.png', 'Im_HughJackman.png', 'Im_RyanReynolds.png', 'Im_BradPitt.png', 'Im_RyanGosling.png', 'Im_LeonardoDiCaprio.png', 'Im_DanielRadcliffe.png', 'Im_RobertDowneyJr.png'],diff,1,0.45851149999998597,15,0,
GUJO1605,1,pos,150,pos150_id20_im12.bmp_pos150_id20_im30.bmp,['Im_GeorgeClooney.png', 'Im_JustinTimberlake.png', 'Im_RobertPattinson.png', 'Im_HughJackman.png', 'Im_RyanReynolds.png', 'Im_BradPitt.png', 'Im_RyanGosling.png', 'Im_LeonardoDiCaprio.png', 'Im_DanielRadcliffe.png', 'Im_RobertDowneyJr.png'],same,1,0.4166968999998062,16,0,
GUJO1605,1,pos,120,pos120_id5_im20.bmp_pos120_id19_im4.bmp,['Im_GeorgeClooney.png', 'Im_JustinTimberlake.png', 'Im_RobertPattinson.png', 'Im_HughJackman.png', 'Im_RyanReynolds.png', 'Im_BradPitt.png', 'Im_RyanGosling.png', 'Im_LeonardoDiCaprio.png', 'Im_DanielRadcliffe.png', 'Im_RobertDowneyJr.png'],diff,1,0.47504140000000916,17,0,
GUJO1605,1,pos,fs,posfs_id21_im17.bmp_posfs_id7_im15.bmp,['Im_GeorgeClooney.png', 'Im_JustinTimberlake.png', 'Im_RobertPattinson.png', 'Im_HughJackman.png', 'Im_RyanReynolds.png', 'Im_BradPitt.png', 'Im_RyanGosling.png', 'Im_LeonardoDiCaprio.png', 'Im_DanielRadcliffe.png', 'Im_RobertDowneyJr.png'],diff,1,0.43335079999997106,18,0,
GUJO1605,1,pos,90,pos90_id19_im4.bmp_pos90_id19_im8.bmp,['Im_GeorgeClooney.png', 'Im_JustinTimberlake.png', 'Im_RobertPattinson.png', 'Im_HughJackman.png', 'Im_RyanReynolds.png', 'Im_BradPitt.png', 'Im_RyanGosling.png', 'Im_LeonardoDiCaprio.png', 'Im_DanielRadcliffe.png', 'Im_RobertDowneyJr.png'],same,1,0.41675370000029943,19,0,
GUJO1605,1,pos,150,pos150_id3_im8.bmp_pos150_id3_im17.bmp,['Im_GeorgeClooney.png', 'Im_JustinTimberlake.png', 'Im_RobertPattinson.png', 'Im_HughJackman.png', 'Im_RyanReynolds.png', 'Im_BradPitt.png', 'Im_RyanGosling.png', 'Im_LeonardoDiCaprio.png', 'Im_DanielRadcliffe.png', 'Im_RobertDowneyJr.png'],same,1,0.5085065000002942,20,0,
GUJO1605,1,pos,0,pos0_id7_im15.bmp_pos0_id7_im14.bmp,['Im_GeorgeClooney.png', 'Im_JustinTimberlake.png', 'Im_RobertPattinson.png', 'Im_HughJackman.png', 'Im_RyanReynolds.png', 'Im_BradPitt.png', 'Im_RyanGosling.png', 'Im_LeonardoDiCaprio.png', 'Im_DanielRadcliffe.png', 'Im_RobertDowneyJr.png'],same,1,0.4587193000006664,21,0,
GUJO1605,1,pos,30,pos30_id7_im26.bmp_pos30_id7_im14.bmp,['Im_GeorgeClooney.png', 'Im_JustinTimberlake.png', 'Im_RobertPattinson.png', 'Im_HughJackman.png', 'Im_RyanReynolds.png', 'Im_BradPitt.png', 'Im_RyanGosling.png', 'Im_LeonardoDiCaprio.png', 'Im_DanielRadcliffe.png', 'Im_RobertDowneyJr.png'],same,1,0.4167491999996855,22,0,
GUJO1605,1,pos,fs,posfs_id18_im19.bmp_posfs_id18_im18.bmp,['Im_GeorgeClooney.png', 'Im_JustinTimberlake.png', 'Im_RobertPattinson.png', 'Im_HughJackman.png', 'Im_RyanReynolds.png', 'Im_BradPitt.png', 'Im_RyanGosling.png', 'Im_LeonardoDiCaprio.png', 'Im_DanielRadcliffe.png', 'Im_RobertDowneyJr.png'],same,1,0.42506219999995665,23,0,
GUJO1605,1,pos,60,pos60_id10_im18.bmp_pos60_id10_im1.bmp,['Im_GeorgeClooney.png', 'Im_JustinTimberlake.png', 'Im_RobertPattinson.png', 'Im_HughJackman.png', 'Im_RyanReynolds.png', 'Im_BradPitt.png', 'Im_RyanGosling.png', 'Im_LeonardoDiCaprio.png', 'Im_DanielRadcliffe.png', 'Im_RobertDowneyJr.png'],same,1,0.41674260000036156,24,0,
GUJO1605,2,inv,90,pos90_id19_im4.bmp_pos90_id10_im17.bmp,['Im_GeorgeClooney.png', 'Im_JustinTimberlake.png', 'Im_RobertPattinson.png', 'Im_HughJackman.png', 'Im_RyanReynolds.png', 'Im_BradPitt.png', 'Im_RyanGosling.png', 'Im_LeonardoDiCaprio.png', 'Im_DanielRadcliffe.png', 'Im_RobertDowneyJr.png'],diff,1,0.5917768000008437,25,0,
GUJO1605,2,inv,120,pos120_id20_im12.bmp_pos120_id20_im3.bmp,['Im_GeorgeClooney.png', 'Im_JustinTimberlake.png', 'Im_RobertPattinson.png', 'Im_HughJackman.png', 'Im_RyanReynolds.png', 'Im_BradPitt.png', 'Im_RyanGosling.png', 'Im_LeonardoDiCaprio.png', 'Im_DanielRadcliffe.png', 'Im_RobertDowneyJr.png'],same,1,1.0417379000000437,26,0,
GUJO1605,2,inv,60,pos60_id21_im17.bmp_pos60_id7_im26.bmp,['Im_GeorgeClooney.png', 'Im_JustinTimberlake.png', 'Im_RobertPattinson.png', 'Im_HughJackman.png', 'Im_RyanReynolds.png', 'Im_BradPitt.png', 'Im_RyanGosling.png', 'Im_LeonardoDiCaprio.png', 'Im_DanielRadcliffe.png', 'Im_RobertDowneyJr.png'],diff,1,0.8750725999998394,27,0,
GUJO1605,2,inv,150,pos150_id18_im18.bmp_pos150_id7_im15.bmp,['Im_GeorgeClooney.png', 'Im_JustinTimberlake.png', 'Im_RobertPattinson.png', 'Im_HughJackman.png', 'Im_RyanReynolds.png', 'Im_BradPitt.png', 'Im_RyanGosling.png', 'Im_LeonardoDiCaprio.png', 'Im_DanielRadcliffe.png', 'Im_RobertDowneyJr.png'],diff,1,0.41677809999964666,28,0,
GUJO1605,2,inv,120,pos120_id3_im6.bmp_pos120_id3_im17.bmp,['Im_GeorgeClooney.png', 'Im_JustinTimberlake.png', 'Im_RobertPattinson.png', 'Im_HughJackman.png', 'Im_RyanReynolds.png', 'Im_BradPitt.png', 'Im_RyanGosling.png', 'Im_LeonardoDiCaprio.png', 'Im_DanielRadcliffe.png', 'Im_RobertDowneyJr.png'],diff,0,1.3919212999999218,28,0,
GUJO1605,2,inv,0,pos0_id5_im1.bmp_pos0_id5_im20.bmp,['Im_GeorgeClooney.png', 'Im_JustinTimberlake.png', 'Im_RobertPattinson.png', 'Im_HughJackman.png', 'Im_RyanReynolds.png', 'Im_BradPitt.png', 'Im_RyanGosling.png', 'Im_LeonardoDiCaprio.png', 'Im_DanielRadcliffe.png', 'Im_RobertDowneyJr.png'],diff,0,0.4250310999996145,28,0,
GUJO1605,2,inv,150,pos150_id3_im8.bmp_pos150_id19_im27.bmp,['Im_GeorgeClooney.png', 'Im_JustinTimberlake.png', 'Im_RobertPattinson.png', 'Im_HughJackman.png', 'Im_RyanReynolds.png', 'Im_BradPitt.png', 'Im_RyanGosling.png', 'Im_LeonardoDiCaprio.png', 'Im_DanielRadcliffe.png', 'Im_RobertDowneyJr.png'],diff,1,0.41671930000029533,29,0,
GUJO1605,2,inv,30,pos30_id7_im15.bmp_pos30_id21_im17.bmp,['Im_GeorgeClooney.png', 'Im_JustinTimberlake.png', 'Im_RobertPattinson.png', 'Im_HughJackman.png', 'Im_RyanReynolds.png', 'Im_BradPitt.png', 'Im_RyanGosling.png', 'Im_LeonardoDiCaprio.png', 'Im_DanielRadcliffe.png', 'Im_RobertDowneyJr.png'],diff,1,0.44183620000058,30,0,
GUJO1605,2,inv,0,pos0_id13_im29.bmp_pos0_id10_im18.bmp,['Im_GeorgeClooney.png', 'Im_JustinTimberlake.png', 'Im_RobertPattinson.png', 'Im_HughJackman.png', 'Im_RyanReynolds.png', 'Im_BradPitt.png', 'Im_RyanGosling.png', 'Im_LeonardoDiCaprio.png', 'Im_DanielRadcliffe.png', 'Im_RobertDowneyJr.png'],diff,1,0.43337979999978415,31,0,
GUJO1605,2,inv,fs,posfs_id10_im17.bmp_posfs_id19_im4.bmp,['Im_GeorgeClooney.png', 'Im_JustinTimberlake.png', 'Im_RobertPattinson.png', 'Im_HughJackman.png', 'Im_RyanReynolds.png', 'Im_BradPitt.png', 'Im_RyanGosling.png', 'Im_LeonardoDiCaprio.png', 'Im_DanielRadcliffe.png', 'Im_RobertDowneyJr.png'],diff,1,0.43346759999985807,32,0,
GUJO1605,2,inv,90,pos90_id21_im22.bmp_pos90_id10_im18.bmp,['Im_GeorgeClooney.png', 'Im_JustinTimberlake.png', 'Im_RobertPattinson.png', 'Im_HughJackman.png', 'Im_RyanReynolds.png', 'Im_BradPitt.png', 'Im_RyanGosling.png', 'Im_LeonardoDiCaprio.png', 'Im_DanielRadcliffe.png', 'Im_RobertDowneyJr.png'],diff,1,0.7170122999996238,33,0,
GUJO1605,2,inv,60,pos60_id18_im11.bmp_pos60_id18_im19.bmp,['Im_GeorgeClooney.png', 'Im_JustinTimberlake.png', 'Im_RobertPattinson.png', 'Im_HughJackman.png', 'Im_RyanReynolds.png', 'Im_BradPitt.png', 'Im_RyanGosling.png', 'Im_LeonardoDiCaprio.png', 'Im_DanielRadcliffe.png', 'Im_RobertDowneyJr.png'],same,1,0.44203789999937726,34,0,
GUJO1605,2,inv,fs,posfs_id3_im6.bmp_posfs_id10_im17.bmp,['Im_GeorgeClooney.png', 'Im_JustinTimberlake.png', 'Im_RobertPattinson.png', 'Im_HughJackman.png', 'Im_RyanReynolds.png', 'Im_BradPitt.png', 'Im_RyanGosling.png', 'Im_LeonardoDiCaprio.png', 'Im_DanielRadcliffe.png', 'Im_RobertDowneyJr.png'],diff,1,0.43339020000075834,35,0,
GUJO1605,2,inv,30,pos30_id19_im8.bmp_pos30_id3_im6.bmp,['Im_GeorgeClooney.png', 'Im_JustinTimberlake.png', 'Im_RobertPattinson.png', 'Im_HughJackman.png', 'Im_RyanReynolds.png', 'Im_BradPitt.png', 'Im_RyanGosling.png', 'Im_LeonardoDiCaprio.png', 'Im_DanielRadcliffe.png', 'Im_RobertDowneyJr.png'],diff,1,0.424983500000053,36,0,
GUJO1605,3,inv,30,pos30_id3_im6.bmp_pos30_id10_im17.bmp,['Im_GeorgeClooney.png', 'Im_JustinTimberlake.png', 'Im_RobertPattinson.png', 'Im_HughJackman.png', 'Im_RyanReynolds.png', 'Im_BradPitt.png', 'Im_RyanGosling.png', 'Im_LeonardoDiCaprio.png', 'Im_DanielRadcliffe.png', 'Im_RobertDowneyJr.png'],diff,1,0.9084961999997176,1,85.71428571428571,
GUJO1605,3,inv,120,pos120_id5_im10.bmp_pos120_id5_im20.bmp,['Im_GeorgeClooney.png', 'Im_JustinTimberlake.png', 'Im_RobertPattinson.png', 'Im_HughJackman.png', 'Im_RyanReynolds.png', 'Im_BradPitt.png', 'Im_RyanGosling.png', 'Im_LeonardoDiCaprio.png', 'Im_DanielRadcliffe.png', 'Im_RobertDowneyJr.png'],same,1,0.41676559999996243,2,85.71428571428571,
GUJO1605,3,inv,fs,posfs_id21_im22.bmp_posfs_id21_im17.bmp,['Im_GeorgeClooney.png', 'Im_JustinTimberlake.png', 'Im_RobertPattinson.png', 'Im_HughJackman.png', 'Im_RyanReynolds.png', 'Im_BradPitt.png', 'Im_RyanGosling.png', 'Im_LeonardoDiCaprio.png', 'Im_DanielRadcliffe.png', 'Im_RobertDowneyJr.png'],same,1,0.8005486000001838,3,85.71428571428571,
GUJO1605,3,inv,0,pos0_id21_im22.bmp_pos0_id21_im16.bmp,['Im_GeorgeClooney.png', 'Im_JustinTimberlake.png', 'Im_RobertPattinson.png', 'Im_HughJackman.png', 'Im_RyanReynolds.png', 'Im_BradPitt.png', 'Im_RyanGosling.png', 'Im_LeonardoDiCaprio.png', 'Im_DanielRadcliffe.png', 'Im_RobertDowneyJr.png'],same,1,0.4167374999997264,4,85.71428571428571,
GUJO1605,3,inv,60,pos60_id5_im1.bmp_pos60_id5_im10.bmp,['Im_GeorgeClooney.png', 'Im_JustinTimberlake.png', 'Im_RobertPattinson.png', 'Im_HughJackman.png', 'Im_RyanReynolds.png', 'Im_BradPitt.png', 'Im_RyanGosling.png', 'Im_LeonardoDiCaprio.png', 'Im_DanielRadcliffe.png', 'Im_RobertDowneyJr.png'],same,1,0.5833971000001839,5,85.71428571428571,
GUJO1605,3,inv,120,pos120_id13_im15.bmp_pos120_id19_im27.bmp,['Im_GeorgeClooney.png', 'Im_JustinTimberlake.png', 'Im_RobertPattinson.png', 'Im_HughJackman.png', 'Im_RyanReynolds.png', 'Im_BradPitt.png', 'Im_RyanGosling.png', 'Im_LeonardoDiCaprio.png', 'Im_DanielRadcliffe.png', 'Im_RobertDowneyJr.png'],diff,1,0.5000514000003022,6,85.71428571428571,
GUJO1605,3,inv,fs,posfs_id18_im19.bmp_posfs_id18_im11.bmp,['Im_GeorgeClooney.png', 'Im_JustinTimberlake.png', 'Im_RobertPattinson.png', 'Im_HughJackman.png', 'Im_RyanReynolds.png', 'Im_BradPitt.png', 'Im_RyanGosling.png', 'Im_LeonardoDiCaprio.png', 'Im_DanielRadcliffe.png', 'Im_RobertDowneyJr.png'],same,1,0.41697780000049534,7,85.71428571428571,
GUJO1605,3,inv,60,pos60_id3_im8.bmp_pos60_id3_im17.bmp,['Im_GeorgeClooney.png', 'Im_JustinTimberlake.png', 'Im_RobertPattinson.png', 'Im_HughJackman.png', 'Im_RyanReynolds.png', 'Im_BradPitt.png', 'Im_RyanGosling.png', 'Im_LeonardoDiCaprio.png', 'Im_DanielRadcliffe.png', 'Im_RobertDowneyJr.png'],diff,0,0.942143400000532,7,85.71428571428571,
GUJO1605,3,inv,150,pos150_id10_im17.bmp_pos150_id19_im4.bmp,['Im_GeorgeClooney.png', 'Im_JustinTimberlake.png', 'Im_RobertPattinson.png', 'Im_HughJackman.png', 'Im_RyanReynolds.png', 'Im_BradPitt.png', 'Im_RyanGosling.png', 'Im_LeonardoDiCaprio.png', 'Im_DanielRadcliffe.png', 'Im_RobertDowneyJr.png'],diff,1,0.4252846999997928,8,85.71428571428571,
GUJO1605,3,inv,90,pos90_id10_im18.bmp_pos90_id10_im17.bmp,['Im_GeorgeClooney.png', 'Im_JustinTimberlake.png', 'Im_RobertPattinson.png', 'Im_HughJackman.png', 'Im_RyanReynolds.png', 'Im_BradPitt.png', 'Im_RyanGosling.png', 'Im_LeonardoDiCaprio.png', 'Im_DanielRadcliffe.png', 'Im_RobertDowneyJr.png'],diff,0,0.8333866000002672,8,85.71428571428571,
GUJO1605,3,inv,0,pos0_id20_im12.bmp_pos0_id20_im3.bmp,['Im_GeorgeClooney.png', 'Im_JustinTimberlake.png', 'Im_RobertPattinson.png', 'Im_HughJackman.png', 'Im_RyanReynolds.png', 'Im_BradPitt.png', 'Im_RyanGosling.png', 'Im_LeonardoDiCaprio.png', 'Im_DanielRadcliffe.png', 'Im_RobertDowneyJr.png'],same,1,0.41671750000023167,9,85.71428571428571,
GUJO1605,3,inv,90,pos90_id18_im11.bmp_pos90_id18_im19.bmp,['Im_GeorgeClooney.png', 'Im_JustinTimberlake.png', 'Im_RobertPattinson.png', 'Im_HughJackman.png', 'Im_RyanReynolds.png', 'Im_BradPitt.png', 'Im_RyanGosling.png', 'Im_LeonardoDiCaprio.png', 'Im_DanielRadcliffe.png', 'Im_RobertDowneyJr.png'],same,1,0.6749314000007871,10,85.71428571428571,
GUJO1605,3,inv,30,pos30_id20_im3.bmp_pos30_id20_im12.bmp,['Im_GeorgeClooney.png', 'Im_JustinTimberlake.png', 'Im_RobertPattinson.png', 'Im_HughJackman.png', 'Im_RyanReynolds.png', 'Im_BradPitt.png', 'Im_RyanGosling.png', 'Im_LeonardoDiCaprio.png', 'Im_DanielRadcliffe.png', 'Im_RobertDowneyJr.png'],same,1,0.5333326999998462,11,85.71428571428571,
GUJO1605,3,inv,150,pos150_id3_im6.bmp_pos150_id3_im17.bmp,['Im_GeorgeClooney.png', 'Im_JustinTimberlake.png', 'Im_RobertPattinson.png', 'Im_HughJackman.png', 'Im_RyanReynolds.png', 'Im_BradPitt.png', 'Im_RyanGosling.png', 'Im_LeonardoDiCaprio.png', 'Im_DanielRadcliffe.png', 'Im_RobertDowneyJr.png'],diff,0,0.550054999999702,11,85.71428571428571,
GUJO1605,4,neg,150,neg150_id20_im30.bmp_neg150_id18_im19.bmp,['Im_GeorgeClooney.png', 'Im_JustinTimberlake.png', 'Im_RobertPattinson.png', 'Im_HughJackman.png', 'Im_RyanReynolds.png', 'Im_BradPitt.png', 'Im_RyanGosling.png', 'Im_LeonardoDiCaprio.png', 'Im_DanielRadcliffe.png', 'Im_RobertDowneyJr.png'],diff,1,1.33349730000009,12,85.71428571428571,
GUJO1605,4,neg,120,neg120_id8_im20.bmp_neg120_id8_im13.bmp,['Im_GeorgeClooney.png', 'Im_JustinTimberlake.png', 'Im_RobertPattinson.png', 'Im_HughJackman.png', 'Im_RyanReynolds.png', 'Im_BradPitt.png', 'Im_RyanGosling.png', 'Im_LeonardoDiCaprio.png', 'Im_DanielRadcliffe.png', 'Im_RobertDowneyJr.png'],same,1,1.3835323000002973,13,85.71428571428571,
GUJO1605,4,neg,60,neg60_id18_im11.bmp_neg60_id21_im16.bmp,['Im_GeorgeClooney.png', 'Im_JustinTimberlake.png', 'Im_RobertPattinson.png', 'Im_HughJackman.png', 'Im_RyanReynolds.png', 'Im_BradPitt.png', 'Im_RyanGosling.png', 'Im_LeonardoDiCaprio.png', 'Im_DanielRadcliffe.png', 'Im_RobertDowneyJr.png'],same,0,0.4333857000001444,13,85.71428571428571,
GUJO1605,4,neg,120,neg120_id10_im1.bmp_neg120_id10_im18.bmp,['Im_GeorgeClooney.png', 'Im_JustinTimberlake.png', 'Im_RobertPattinson.png', 'Im_HughJackman.png', 'Im_RyanReynolds.png', 'Im_BradPitt.png', 'Im_RyanGosling.png', 'Im_LeonardoDiCaprio.png', 'Im_DanielRadcliffe.png', 'Im_RobertDowneyJr.png'],same,1,0.4417358000000604,14,85.71428571428571,
GUJO1605,4,neg,90,neg90_id18_im11.bmp_neg90_id7_im26.bmp,['Im_GeorgeClooney.png', 'Im_JustinTimberlake.png', 'Im_RobertPattinson.png', 'Im_HughJackman.png', 'Im_RyanReynolds.png', 'Im_BradPitt.png', 'Im_RyanGosling.png', 'Im_LeonardoDiCaprio.png', 'Im_DanielRadcliffe.png', 'Im_RobertDowneyJr.png'],diff,1,0.5833302999999432,15,85.71428571428571,
GUJO1605,4,neg,30,neg30_id13_im15.bmp_neg30_id20_im12.bmp,['Im_GeorgeClooney.png', 'Im_JustinTimberlake.png', 'Im_RobertPattinson.png', 'Im_HughJackman.png', 'Im_RyanReynolds.png', 'Im_BradPitt.png', 'Im_RyanGosling.png', 'Im_LeonardoDiCaprio.png', 'Im_DanielRadcliffe.png', 'Im_RobertDowneyJr.png'],diff,1,0.44999619999998686,16,85.71428571428571,
GUJO1605,4,neg,0,neg0_id10_im17.bmp_neg0_id10_im1.bmp,['Im_GeorgeClooney.png', 'Im_JustinTimberlake.png', 'Im_RobertPattinson.png', 'Im_HughJackman.png', 'Im_RyanReynolds.png', 'Im_BradPitt.png', 'Im_RyanGosling.png', 'Im_LeonardoDiCaprio.png', 'Im_DanielRadcliffe.png', 'Im_RobertDowneyJr.png'],same,1,1.1669354000005114,17,85.71428571428571,
GUJO1605,4,neg,fs,negfs_id7_im14.bmp_negfs_id7_im26.bmp,['Im_GeorgeClooney.png', 'Im_JustinTimberlake.png', 'Im_RobertPattinson.png', 'Im_HughJackman.png', 'Im_RyanReynolds.png', 'Im_BradPitt.png', 'Im_RyanGosling.png', 'Im_LeonardoDiCaprio.png', 'Im_DanielRadcliffe.png', 'Im_RobertDowneyJr.png'],same,1,0.5084215999995649,18,85.71428571428571,
GUJO1605,4,neg,90,neg90_id21_im22.bmp_neg90_id21_im16.bmp,['Im_GeorgeClooney.png', 'Im_JustinTimberlake.png', 'Im_RobertPattinson.png', 'Im_HughJackman.png', 'Im_RyanReynolds.png', 'Im_BradPitt.png', 'Im_RyanGosling.png', 'Im_LeonardoDiCaprio.png', 'Im_DanielRadcliffe.png', 'Im_RobertDowneyJr.png'],same,1,1.0167873999998847,19,85.71428571428571,
GUJO1605,4,neg,fs,negfs_id21_im22.bmp_negfs_id10_im18.bmp,['Im_GeorgeClooney.png', 'Im_JustinTimberlake.png', 'Im_RobertPattinson.png', 'Im_HughJackman.png', 'Im_RyanReynolds.png', 'Im_BradPitt.png', 'Im_RyanGosling.png', 'Im_LeonardoDiCaprio.png', 'Im_DanielRadcliffe.png', 'Im_RobertDowneyJr.png'],diff,1,0.40839280000000144,20,85.71428571428571,
GUJO1605,4,neg,60,neg60_id20_im3.bmp_neg60_id20_im30.bmp,['Im_GeorgeClooney.png', 'Im_JustinTimberlake.png', 'Im_RobertPattinson.png', 'Im_HughJackman.png', 'Im_RyanReynolds.png', 'Im_BradPitt.png', 'Im_RyanGosling.png', 'Im_LeonardoDiCaprio.png', 'Im_DanielRadcliffe.png', 'Im_RobertDowneyJr.png'],same,1,0.5430409000000509,21,85.71428571428571,
GUJO1605,4,neg,0,neg0_id18_im11.bmp_neg0_id7_im26.bmp,['Im_GeorgeClooney.png', 'Im_JustinTimberlake.png', 'Im_RobertPattinson.png', 'Im_HughJackman.png', 'Im_RyanReynolds.png', 'Im_BradPitt.png', 'Im_RyanGosling.png', 'Im_LeonardoDiCaprio.png', 'Im_DanielRadcliffe.png', 'Im_RobertDowneyJr.png'],diff,1,0.9917811000004804,22,85.71428571428571,
GUJO1605,4,neg,150,neg150_id19_im8.bmp_neg150_id19_im4.bmp,['Im_GeorgeClooney.png', 'Im_JustinTimberlake.png', 'Im_RobertPattinson.png', 'Im_HughJackman.png', 'Im_RyanReynolds.png', 'Im_BradPitt.png', 'Im_RyanGosling.png', 'Im_LeonardoDiCaprio.png', 'Im_DanielRadcliffe.png', 'Im_RobertDowneyJr.png'],diff,0,0.5837129999999888,22,85.71428571428571,
GUJO1605,4,neg,30,neg30_id20_im3.bmp_neg30_id20_im12.bmp,['Im_GeorgeClooney.png', 'Im_JustinTimberlake.png', 'Im_RobertPattinson.png', 'Im_HughJackman.png', 'Im_RyanReynolds.png', 'Im_BradPitt.png', 'Im_RyanGosling.png', 'Im_LeonardoDiCaprio.png', 'Im_DanielRadcliffe.png', 'Im_RobertDowneyJr.png'],same,1,0.4333418999995047,23,85.71428571428571,
GUJO1605,5,pos,60,pos60_id13_im10.bmp_pos60_id20_im30.bmp,['Im_GeorgeClooney.png', 'Im_JustinTimberlake.png', 'Im_RobertPattinson.png', 'Im_HughJackman.png', 'Im_RyanReynolds.png', 'Im_BradPitt.png', 'Im_RyanGosling.png', 'Im_LeonardoDiCaprio.png', 'Im_DanielRadcliffe.png', 'Im_RobertDowneyJr.png'],diff,1,0.5751146000002336,24,85.71428571428571,
GUJO1605,5,pos,fs,posfs_id7_im26.bmp_posfs_id21_im17.bmp,['Im_GeorgeClooney.png', 'Im_JustinTimberlake.png', 'Im_RobertPattinson.png', 'Im_HughJackman.png', 'Im_RyanReynolds.png', 'Im_BradPitt.png', 'Im_RyanGosling.png', 'Im_LeonardoDiCaprio.png', 'Im_DanielRadcliffe.png', 'Im_RobertDowneyJr.png'],diff,1,0.4168939000001046,25,85.71428571428571,
GUJO1605,5,pos,120,pos120_id10_im1.bmp_pos120_id10_im18.bmp,['Im_GeorgeClooney.png', 'Im_JustinTimberlake.png', 'Im_RobertPattinson.png', 'Im_HughJackman.png', 'Im_RyanReynolds.png', 'Im_BradPitt.png', 'Im_RyanGosling.png', 'Im_LeonardoDiCaprio.png', 'Im_DanielRadcliffe.png', 'Im_RobertDowneyJr.png'],same,1,0.4166661999997814,26,85.71428571428571,
GUJO1605,5,pos,90,pos90_id20_im30.bmp_pos90_id18_im19.bmp,['Im_GeorgeClooney.png', 'Im_JustinTimberlake.png', 'Im_RobertPattinson.png', 'Im_HughJackman.png', 'Im_RyanReynolds.png', 'Im_BradPitt.png', 'Im_RyanGosling.png', 'Im_LeonardoDiCaprio.png', 'Im_DanielRadcliffe.png', 'Im_RobertDowneyJr.png'],diff,1,1.024993899999572,27,85.71428571428571,
GUJO1605,5,pos,120,pos120_id19_im4.bmp_pos120_id19_im27.bmp,['Im_GeorgeClooney.png', 'Im_JustinTimberlake.png', 'Im_RobertPattinson.png', 'Im_HughJackman.png', 'Im_RyanReynolds.png', 'Im_BradPitt.png', 'Im_RyanGosling.png', 'Im_LeonardoDiCaprio.png', 'Im_DanielRadcliffe.png', 'Im_RobertDowneyJr.png'],same,1,0.41687329999967915,28,85.71428571428571,
GUJO1605,5,pos,60,pos60_id21_im22.bmp_pos60_id21_im17.bmp,['Im_GeorgeClooney.png', 'Im_JustinTimberlake.png', 'Im_RobertPattinson.png', 'Im_HughJackman.png', 'Im_RyanReynolds.png', 'Im_BradPitt.png', 'Im_RyanGosling.png', 'Im_LeonardoDiCaprio.png', 'Im_DanielRadcliffe.png', 'Im_RobertDowneyJr.png'],same,1,0.4167144000002736,29,85.71428571428571,
GUJO1605,5,pos,0,pos0_id3_im8.bmp_pos0_id8_im21.bmp,['Im_GeorgeClooney.png', 'Im_JustinTimberlake.png', 'Im_RobertPattinson.png', 'Im_HughJackman.png', 'Im_RyanReynolds.png', 'Im_BradPitt.png', 'Im_RyanGosling.png', 'Im_LeonardoDiCaprio.png', 'Im_DanielRadcliffe.png', 'Im_RobertDowneyJr.png'],diff,1,0.41692260000036185,30,85.71428571428571,
GUJO1605,5,pos,30,pos30_id7_im15.bmp_pos30_id21_im17.bmp,['Im_GeorgeClooney.png', 'Im_JustinTimberlake.png', 'Im_RobertPattinson.png', 'Im_HughJackman.png', 'Im_RyanReynolds.png', 'Im_BradPitt.png', 'Im_RyanGosling.png', 'Im_LeonardoDiCaprio.png', 'Im_DanielRadcliffe.png', 'Im_RobertDowneyJr.png'],diff,1,0.41675089999989723,31,85.71428571428571,
GUJO1605,5,pos,150,pos150_id10_im1.bmp_pos150_id10_im17.bmp,['Im_GeorgeClooney.png', 'Im_JustinTimberlake.png', 'Im_RobertPattinson.png', 'Im_HughJackman.png', 'Im_RyanReynolds.png', 'Im_BradPitt.png', 'Im_RyanGosling.png', 'Im_LeonardoDiCaprio.png', 'Im_DanielRadcliffe.png', 'Im_RobertDowneyJr.png'],same,1,0.4500746000003346,32,85.71428571428571,
GUJO1605,5,pos,90,pos90_id5_im20.bmp_pos90_id5_im10.bmp,['Im_GeorgeClooney.png', 'Im_JustinTimberlake.png', 'Im_RobertPattinson.png', 'Im_HughJackman.png', 'Im_RyanReynolds.png', 'Im_BradPitt.png', 'Im_RyanGosling.png', 'Im_LeonardoDiCaprio.png', 'Im_DanielRadcliffe.png', 'Im_RobertDowneyJr.png'],same,1,0.4083164999992732,33,85.71428571428571,
GUJO1605,5,pos,150,pos150_id5_im20.bmp_pos150_id19_im4.bmp,['Im_GeorgeClooney.png', 'Im_JustinTimberlake.png', 'Im_RobertPattinson.png', 'Im_HughJackman.png', 'Im_RyanReynolds.png', 'Im_BradPitt.png', 'Im_RyanGosling.png', 'Im_LeonardoDiCaprio.png', 'Im_DanielRadcliffe.png', 'Im_RobertDowneyJr.png'],diff,1,0.43345729999964533,34,85.71428571428571,
GUJO1605,5,pos,30,pos30_id8_im21.bmp_pos30_id8_im20.bmp,['Im_GeorgeClooney.png', 'Im_JustinTimberlake.png', 'Im_RobertPattinson.png', 'Im_HughJackman.png', 'Im_RyanReynolds.png', 'Im_BradPitt.png', 'Im_RyanGosling.png', 'Im_LeonardoDiCaprio.png', 'Im_DanielRadcliffe.png', 'Im_RobertDowneyJr.png'],same,1,0.49155569999948057,35,85.71428571428571,
GUJO1605,5,pos,fs,posfs_id13_im29.bmp_posfs_id10_im18.bmp,['Im_GeorgeClooney.png', 'Im_JustinTimberlake.png', 'Im_RobertPattinson.png', 'Im_HughJackman.png', 'Im_RyanReynolds.png', 'Im_BradPitt.png', 'Im_RyanGosling.png', 'Im_LeonardoDiCaprio.png', 'Im_DanielRadcliffe.png', 'Im_RobertDowneyJr.png'],diff,1,0.43338089999997464,36,85.71428571428571,
GUJO1605,5,pos,0,pos0_id18_im19.bmp_pos0_id8_im13.bmp,['Im_GeorgeClooney.png', 'Im_JustinTimberlake.png', 'Im_RobertPattinson.png', 'Im_HughJackman.png', 'Im_RyanReynolds.png', 'Im_BradPitt.png', 'Im_RyanGosling.png', 'Im_LeonardoDiCaprio.png', 'Im_DanielRadcliffe.png', 'Im_RobertDowneyJr.png'],same,0,0.40836250000029395,36,85.71428571428571,
GUJO1605,6,inv,90,pos90_id7_im26.bmp_pos90_id21_im17.bmp,['Im_GeorgeClooney.png', 'Im_JustinTimberlake.png', 'Im_RobertPattinson.png', 'Im_HughJackman.png', 'Im_RyanReynolds.png', 'Im_BradPitt.png', 'Im_RyanGosling.png', 'Im_LeonardoDiCaprio.png', 'Im_DanielRadcliffe.png', 'Im_RobertDowneyJr.png'],diff,1,1.0172997999998188,1,85.71428571428571,
GUJO1605,6,inv,30,pos30_id3_im8.bmp_pos30_id19_im27.bmp,['Im_GeorgeClooney.png', 'Im_JustinTimberlake.png', 'Im_RobertPattinson.png', 'Im_HughJackman.png', 'Im_RyanReynolds.png', 'Im_BradPitt.png', 'Im_RyanGosling.png', 'Im_LeonardoDiCaprio.png', 'Im_DanielRadcliffe.png', 'Im_RobertDowneyJr.png'],diff,1,0.4419410999998945,2,85.71428571428571,
GUJO1605,6,inv,60,pos60_id7_im14.bmp_pos60_id5_im1.bmp,['Im_GeorgeClooney.png', 'Im_JustinTimberlake.png', 'Im_RobertPattinson.png', 'Im_HughJackman.png', 'Im_RyanReynolds.png', 'Im_BradPitt.png', 'Im_RyanGosling.png', 'Im_LeonardoDiCaprio.png', 'Im_DanielRadcliffe.png', 'Im_RobertDowneyJr.png'],diff,1,0.4252329999999347,3,85.71428571428571,
GUJO1605,6,inv,30,pos30_id8_im21.bmp_pos30_id3_im8.bmp,['Im_GeorgeClooney.png', 'Im_JustinTimberlake.png', 'Im_RobertPattinson.png', 'Im_HughJackman.png', 'Im_RyanReynolds.png', 'Im_BradPitt.png', 'Im_RyanGosling.png', 'Im_LeonardoDiCaprio.png', 'Im_DanielRadcliffe.png', 'Im_RobertDowneyJr.png'],diff,1,0.4250699000003806,4,85.71428571428571,
GUJO1605,6,inv,fs,posfs_id19_im4.bmp_posfs_id19_im8.bmp,['Im_GeorgeClooney.png', 'Im_JustinTimberlake.png', 'Im_RobertPattinson.png', 'Im_HughJackman.png', 'Im_RyanReynolds.png', 'Im_BradPitt.png', 'Im_RyanGosling.png', 'Im_LeonardoDiCaprio.png', 'Im_DanielRadcliffe.png', 'Im_RobertDowneyJr.png'],same,1,0.41673310000078345,5,85.71428571428571,
GUJO1605,6,inv,60,pos60_id21_im22.bmp_pos60_id21_im16.bmp,['Im_GeorgeClooney.png', 'Im_JustinTimberlake.png', 'Im_RobertPattinson.png', 'Im_HughJackman.png', 'Im_RyanReynolds.png', 'Im_BradPitt.png', 'Im_RyanGosling.png', 'Im_LeonardoDiCaprio.png', 'Im_DanielRadcliffe.png', 'Im_RobertDowneyJr.png'],same,1,1.3418722999995225,6,85.71428571428571,
GUJO1605,6,inv,120,pos120_id21_im22.bmp_pos120_id10_im18.bmp,['Im_GeorgeClooney.png', 'Im_JustinTimberlake.png', 'Im_RobertPattinson.png', 'Im_HughJackman.png', 'Im_RyanReynolds.png', 'Im_BradPitt.png', 'Im_RyanGosling.png', 'Im_LeonardoDiCaprio.png', 'Im_DanielRadcliffe.png', 'Im_RobertDowneyJr.png'],same,0,0.8915704000000915,6,85.71428571428571,
GUJO1605,6,inv,90,pos90_id3_im8.bmp_pos90_id8_im21.bmp,['Im_GeorgeClooney.png', 'Im_JustinTimberlake.png', 'Im_RobertPattinson.png', 'Im_HughJackman.png', 'Im_RyanReynolds.png', 'Im_BradPitt.png', 'Im_RyanGosling.png', 'Im_LeonardoDiCaprio.png', 'Im_DanielRadcliffe.png', 'Im_RobertDowneyJr.png'],diff,1,1.6837445999999545,7,85.71428571428571,
GUJO1605,6,inv,120,pos120_id5_im1.bmp_pos120_id20_im12.bmp,['Im_GeorgeClooney.png', 'Im_JustinTimberlake.png', 'Im_RobertPattinson.png', 'Im_HughJackman.png', 'Im_RyanReynolds.png', 'Im_BradPitt.png', 'Im_RyanGosling.png', 'Im_LeonardoDiCaprio.png', 'Im_DanielRadcliffe.png', 'Im_RobertDowneyJr.png'],diff,1,0.433361800000057,8,85.71428571428571,
GUJO1605,6,inv,0,pos0_id20_im12.bmp_pos0_id5_im1.bmp,['Im_GeorgeClooney.png', 'Im_JustinTimberlake.png', 'Im_RobertPattinson.png', 'Im_HughJackman.png', 'Im_RyanReynolds.png', 'Im_BradPitt.png', 'Im_RyanGosling.png', 'Im_LeonardoDiCaprio.png', 'Im_DanielRadcliffe.png', 'Im_RobertDowneyJr.png'],diff,1,0.5666963999992731,9,85.71428571428571,
GUJO1605,6,inv,150,pos150_id21_im17.bmp_pos150_id7_im26.bmp,['Im_GeorgeClooney.png', 'Im_JustinTimberlake.png', 'Im_RobertPattinson.png', 'Im_HughJackman.png', 'Im_RyanReynolds.png', 'Im_BradPitt.png', 'Im_RyanGosling.png', 'Im_LeonardoDiCaprio.png', 'Im_DanielRadcliffe.png', 'Im_RobertDowneyJr.png'],diff,1,0.41651220000039757,10,85.71428571428571,
GUJO1605,6,inv,0,pos0_id21_im16.bmp_pos0_id18_im11.bmp,['Im_GeorgeClooney.png', 'Im_JustinTimberlake.png', 'Im_RobertPattinson.png', 'Im_HughJackman.png', 'Im_RyanReynolds.png', 'Im_BradPitt.png', 'Im_RyanGosling.png', 'Im_LeonardoDiCaprio.png', 'Im_DanielRadcliffe.png', 'Im_RobertDowneyJr.png'],diff,1,0.4749996000000465,11,85.71428571428571,
GUJO1605,6,inv,150,pos150_id8_im20.bmp_pos150_id8_im13.bmp,['Im_GeorgeClooney.png', 'Im_JustinTimberlake.png', 'Im_RobertPattinson.png', 'Im_HughJackman.png', 'Im_RyanReynolds.png', 'Im_BradPitt.png', 'Im_RyanGosling.png', 'Im_LeonardoDiCaprio.png', 'Im_DanielRadcliffe.png', 'Im_RobertDowneyJr.png'],same,1,1.4502691999996387,12,85.71428571428571,
GUJO1605,6,inv,fs,posfs_id20_im3.bmp_posfs_id20_im30.bmp,['Im_GeorgeClooney.png', 'Im_JustinTimberlake.png', 'Im_RobertPattinson.png', 'Im_HughJackman.png', 'Im_RyanReynolds.png', 'Im_BradPitt.png', 'Im_RyanGosling.png', 'Im_LeonardoDiCaprio.png', 'Im_DanielRadcliffe.png', 'Im_RobertDowneyJr.png'],same,1,0.4503002000001288,13,85.71428571428571,
GUJO1605,7,neg,150,neg150_id7_im15.bmp_neg150_id7_im26.bmp,['Im_GeorgeClooney.png', 'Im_JustinTimberlake.png', 'Im_RobertPattinson.png', 'Im_HughJackman.png', 'Im_RyanReynolds.png', 'Im_BradPitt.png', 'Im_RyanGosling.png', 'Im_LeonardoDiCaprio.png', 'Im_DanielRadcliffe.png', 'Im_RobertDowneyJr.png'],diff,0,1.2004595999997036,13,85.71428571428571,
GUJO1605,7,neg,30,neg30_id3_im8.bmp_neg30_id3_im6.bmp,['Im_GeorgeClooney.png', 'Im_JustinTimberlake.png', 'Im_RobertPattinson.png', 'Im_HughJackman.png', 'Im_RyanReynolds.png', 'Im_BradPitt.png', 'Im_RyanGosling.png', 'Im_LeonardoDiCaprio.png', 'Im_DanielRadcliffe.png', 'Im_RobertDowneyJr.png'],same,1,0.42506390000016836,14,85.71428571428571,
GUJO1605,7,neg,fs,negfs_id13_im15.bmp_negfs_id13_im10.bmp,['Im_GeorgeClooney.png', 'Im_JustinTimberlake.png', 'Im_RobertPattinson.png', 'Im_HughJackman.png', 'Im_RyanReynolds.png', 'Im_BradPitt.png', 'Im_RyanGosling.png', 'Im_LeonardoDiCaprio.png', 'Im_DanielRadcliffe.png', 'Im_RobertDowneyJr.png'],same,1,0.4251038000002154,15,85.71428571428571,
GUJO1605,7,neg,fs,negfs_id3_im6.bmp_negfs_id10_im17.bmp,['Im_GeorgeClooney.png', 'Im_JustinTimberlake.png', 'Im_RobertPattinson.png', 'Im_HughJackman.png', 'Im_RyanReynolds.png', 'Im_BradPitt.png', 'Im_RyanGosling.png', 'Im_LeonardoDiCaprio.png', 'Im_DanielRadcliffe.png', 'Im_RobertDowneyJr.png'],diff,1,0.416779499999393,16,85.71428571428571,
GUJO1605,7,neg,120,neg120_id5_im1.bmp_neg120_id7_im14.bmp,['Im_GeorgeClooney.png', 'Im_JustinTimberlake.png', 'Im_RobertPattinson.png', 'Im_HughJackman.png', 'Im_RyanReynolds.png', 'Im_BradPitt.png', 'Im_RyanGosling.png', 'Im_LeonardoDiCaprio.png', 'Im_DanielRadcliffe.png', 'Im_RobertDowneyJr.png'],diff,1,0.40844600000036735,17,85.71428571428571,
GUJO1605,7,neg,90,neg90_id8_im13.bmp_neg90_id18_im19.bmp,['Im_GeorgeClooney.png', 'Im_JustinTimberlake.png', 'Im_RobertPattinson.png', 'Im_HughJackman.png', 'Im_RyanReynolds.png', 'Im_BradPitt.png', 'Im_RyanGosling.png', 'Im_LeonardoDiCaprio.png', 'Im_DanielRadcliffe.png', 'Im_RobertDowneyJr.png'],diff,1,0.4167122999997446,18,85.71428571428571,
GUJO1605,7,neg,90,neg90_id21_im22.bmp_neg90_id21_im17.bmp,['Im_GeorgeClooney.png', 'Im_JustinTimberlake.png', 'Im_RobertPattinson.png', 'Im_HughJackman.png', 'Im_RyanReynolds.png', 'Im_BradPitt.png', 'Im_RyanGosling.png', 'Im_LeonardoDiCaprio.png', 'Im_DanielRadcliffe.png', 'Im_RobertDowneyJr.png'],same,1,0.9670225999998365,19,85.71428571428571,
GUJO1605,7,neg,60,neg60_id20_im3.bmp_neg60_id8_im21.bmp,['Im_GeorgeClooney.png', 'Im_JustinTimberlake.png', 'Im_RobertPattinson.png', 'Im_HughJackman.png', 'Im_RyanReynolds.png', 'Im_BradPitt.png', 'Im_RyanGosling.png', 'Im_LeonardoDiCaprio.png', 'Im_DanielRadcliffe.png', 'Im_RobertDowneyJr.png'],diff,1,0.41682159999982105,20,85.71428571428571,
GUJO1605,7,neg,150,neg150_id8_im20.bmp_neg150_id21_im16.bmp,['Im_GeorgeClooney.png', 'Im_JustinTimberlake.png', 'Im_RobertPattinson.png', 'Im_HughJackman.png', 'Im_RyanReynolds.png', 'Im_BradPitt.png', 'Im_RyanGosling.png', 'Im_LeonardoDiCaprio.png', 'Im_DanielRadcliffe.png', 'Im_RobertDowneyJr.png'],diff,1,0.5423131000006833,21,85.71428571428571,
GUJO1605,7,neg,120,neg120_id10_im18.bmp_neg120_id10_im17.bmp,['Im_GeorgeClooney.png', 'Im_JustinTimberlake.png', 'Im_RobertPattinson.png', 'Im_HughJackman.png', 'Im_RyanReynolds.png', 'Im_BradPitt.png', 'Im_RyanGosling.png', 'Im_LeonardoDiCaprio.png', 'Im_DanielRadcliffe.png', 'Im_RobertDowneyJr.png'],same,1,0.8416326999995363,22,85.71428571428571,
GUJO1605,7,neg,0,neg0_id20_im3.bmp_neg0_id20_im12.bmp,['Im_GeorgeClooney.png', 'Im_JustinTimberlake.png', 'Im_RobertPattinson.png', 'Im_HughJackman.png', 'Im_RyanReynolds.png', 'Im_BradPitt.png', 'Im_RyanGosling.png', 'Im_LeonardoDiCaprio.png', 'Im_DanielRadcliffe.png', 'Im_RobertDowneyJr.png'],same,1,0.6000291000000288,23,85.71428571428571,
GUJO1605,7,neg,30,neg30_id10_im17.bmp_neg30_id10_im18.bmp,['Im_GeorgeClooney.png', 'Im_JustinTimberlake.png', 'Im_RobertPattinson.png', 'Im_HughJackman.png', 'Im_RyanReynolds.png', 'Im_BradPitt.png', 'Im_RyanGosling.png', 'Im_LeonardoDiCaprio.png', 'Im_DanielRadcliffe.png', 'Im_RobertDowneyJr.png'],same,1,0.41684470000018337,24,85.71428571428571,
GUJO1605,7,neg,60,neg60_id19_im27.bmp_neg60_id3_im8.bmp,['Im_GeorgeClooney.png', 'Im_JustinTimberlake.png', 'Im_RobertPattinson.png', 'Im_HughJackman.png', 'Im_RyanReynolds.png', 'Im_BradPitt.png', 'Im_RyanGosling.png', 'Im_LeonardoDiCaprio.png', 'Im_DanielRadcliffe.png', 'Im_RobertDowneyJr.png'],diff,1,0.43362189999970724,25,85.71428571428571,
GUJO1605,7,neg,0,neg0_id21_im16.bmp_neg0_id18_im11.bmp,['Im_GeorgeClooney.png', 'Im_JustinTimberlake.png', 'Im_RobertPattinson.png', 'Im_HughJackman.png', 'Im_RyanReynolds.png', 'Im_BradPitt.png', 'Im_RyanGosling.png', 'Im_LeonardoDiCaprio.png', 'Im_DanielRadcliffe.png', 'Im_RobertDowneyJr.png'],diff,1,0.5419025999999576,26,85.71428571428571,
GUJO1605,8,pos,150,pos150_id10_im18.bmp_pos150_id21_im22.bmp,['Im_GeorgeClooney.png', 'Im_JustinTimberlake.png', 'Im_RobertPattinson.png', 'Im_HughJackman.png', 'Im_RyanReynolds.png', 'Im_BradPitt.png', 'Im_RyanGosling.png', 'Im_LeonardoDiCaprio.png', 'Im_DanielRadcliffe.png', 'Im_RobertDowneyJr.png'],diff,1,0.4419841999997516,27,85.71428571428571,
GUJO1605,8,pos,120,pos120_id7_im14.bmp_pos120_id10_im1.bmp,['Im_GeorgeClooney.png', 'Im_JustinTimberlake.png', 'Im_RobertPattinson.png', 'Im_HughJackman.png', 'Im_RyanReynolds.png', 'Im_BradPitt.png', 'Im_RyanGosling.png', 'Im_LeonardoDiCaprio.png', 'Im_DanielRadcliffe.png', 'Im_RobertDowneyJr.png'],diff,1,0.43342000000029657,28,85.71428571428571,
GUJO1605,8,pos,60,pos60_id19_im4.bmp_pos60_id19_im27.bmp,['Im_GeorgeClooney.png', 'Im_JustinTimberlake.png', 'Im_RobertPattinson.png', 'Im_HughJackman.png', 'Im_RyanReynolds.png', 'Im_BradPitt.png', 'Im_RyanGosling.png', 'Im_LeonardoDiCaprio.png', 'Im_DanielRadcliffe.png', 'Im_RobertDowneyJr.png'],same,1,0.41681289999996807,29,85.71428571428571,
GUJO1605,8,pos,fs,posfs_id7_im14.bmp_posfs_id7_im15.bmp,['Im_GeorgeClooney.png', 'Im_JustinTimberlake.png', 'Im_RobertPattinson.png', 'Im_HughJackman.png', 'Im_RyanReynolds.png', 'Im_BradPitt.png', 'Im_RyanGosling.png', 'Im_LeonardoDiCaprio.png', 'Im_DanielRadcliffe.png', 'Im_RobertDowneyJr.png'],same,1,0.42507079999995767,30,85.71428571428571,
GUJO1605,8,pos,60,pos60_id18_im19.bmp_pos60_id18_im11.bmp,['Im_GeorgeClooney.png', 'Im_JustinTimberlake.png', 'Im_RobertPattinson.png', 'Im_HughJackman.png', 'Im_RyanReynolds.png', 'Im_BradPitt.png', 'Im_RyanGosling.png', 'Im_LeonardoDiCaprio.png', 'Im_DanielRadcliffe.png', 'Im_RobertDowneyJr.png'],diff,0,0.7503806000004261,30,85.71428571428571,
GUJO1605,8,pos,90,pos90_id20_im30.bmp_pos90_id13_im10.bmp,['Im_GeorgeClooney.png', 'Im_JustinTimberlake.png', 'Im_RobertPattinson.png', 'Im_HughJackman.png', 'Im_RyanReynolds.png', 'Im_BradPitt.png', 'Im_RyanGosling.png', 'Im_LeonardoDiCaprio.png', 'Im_DanielRadcliffe.png', 'Im_RobertDowneyJr.png'],diff,1,0.5418694999998479,31,85.71428571428571,
GUJO1605,8,pos,0,pos0_id5_im20.bmp_pos0_id5_im10.bmp,['Im_GeorgeClooney.png', 'Im_JustinTimberlake.png', 'Im_RobertPattinson.png', 'Im_HughJackman.png', 'Im_RyanReynolds.png', 'Im_BradPitt.png', 'Im_RyanGosling.png', 'Im_LeonardoDiCaprio.png', 'Im_DanielRadcliffe.png', 'Im_RobertDowneyJr.png'],same,1,0.41673959999934596,32,85.71428571428571,
GUJO1605,8,pos,150,pos150_id19_im8.bmp_pos150_id19_im27.bmp,['Im_GeorgeClooney.png', 'Im_JustinTimberlake.png', 'Im_RobertPattinson.png', 'Im_HughJackman.png', 'Im_RyanReynolds.png', 'Im_BradPitt.png', 'Im_RyanGosling.png', 'Im_LeonardoDiCaprio.png', 'Im_DanielRadcliffe.png', 'Im_RobertDowneyJr.png'],same,1,0.4581402000003436,33,85.71428571428571,
GUJO1605,8,pos,fs,posfs_id8_im20.bmp_posfs_id8_im21.bmp,['Im_GeorgeClooney.png', 'Im_JustinTimberlake.png', 'Im_RobertPattinson.png', 'Im_HughJackman.png', 'Im_RyanReynolds.png', 'Im_BradPitt.png', 'Im_RyanGosling.png', 'Im_LeonardoDiCaprio.png', 'Im_DanielRadcliffe.png', 'Im_RobertDowneyJr.png'],same,1,0.42507500000010623,34,85.71428571428571,
GUJO1605,8,pos,0,pos0_id3_im17.bmp_pos0_id13_im29.bmp,['Im_GeorgeClooney.png', 'Im_JustinTimberlake.png', 'Im_RobertPattinson.png', 'Im_HughJackman.png', 'Im_RyanReynolds.png', 'Im_BradPitt.png', 'Im_RyanGosling.png', 'Im_LeonardoDiCaprio.png', 'Im_DanielRadcliffe.png', 'Im_RobertDowneyJr.png'],diff,1,0.4670836000004783,35,85.71428571428571,
GUJO1605,8,pos,90,pos90_id19_im4.bmp_pos90_id5_im20.bmp,['Im_GeorgeClooney.png', 'Im_JustinTimberlake.png', 'Im_RobertPattinson.png', 'Im_HughJackman.png', 'Im_RyanReynolds.png', 'Im_BradPitt.png', 'Im_RyanGosling.png', 'Im_LeonardoDiCaprio.png', 'Im_DanielRadcliffe.png', 'Im_RobertDowneyJr.png'],same,0,0.7585070999994059,35,85.71428571428571,
GUJO1605,8,pos,120,pos120_id13_im29.bmp_pos120_id13_im10.bmp,['Im_GeorgeClooney.png', 'Im_JustinTimberlake.png', 'Im_RobertPattinson.png', 'Im_HughJackman.png', 'Im_RyanReynolds.png', 'Im_BradPitt.png', 'Im_RyanGosling.png', 'Im_LeonardoDiCaprio.png', 'Im_DanielRadcliffe.png', 'Im_RobertDowneyJr.png'],same,1,0.4084008999998332,36,85.71428571428571,
GUJO1605,8,pos,30,pos30_id13_im15.bmp_pos30_id19_im27.bmp,['Im_GeorgeClooney.png', 'Im_JustinTimberlake.png', 'Im_RobertPattinson.png', 'Im_HughJackman.png', 'Im_RyanReynolds.png', 'Im_BradPitt.png', 'Im_RyanGosling.png', 'Im_LeonardoDiCaprio.png', 'Im_DanielRadcliffe.png', 'Im_RobertDowneyJr.png'],diff,1,0.416736199999832,37,85.71428571428571,
GUJO1605,8,pos,30,pos30_id5_im1.bmp_pos30_id20_im12.bmp,['Im_GeorgeClooney.png', 'Im_JustinTimberlake.png', 'Im_RobertPattinson.png', 'Im_HughJackman.png', 'Im_RyanReynolds.png', 'Im_BradPitt.png', 'Im_RyanGosling.png', 'Im_LeonardoDiCaprio.png', 'Im_DanielRadcliffe.png', 'Im_RobertDowneyJr.png'],diff,1,0.42507860000023356,38,85.71428571428571,
GUJO1605,9,pos,30,pos30_id19_im27.bmp_pos30_id19_im8.bmp,['Im_GeorgeClooney.png', 'Im_JustinTimberlake.png', 'Im_RobertPattinson.png', 'Im_HughJackman.png', 'Im_RyanReynolds.png', 'Im_BradPitt.png', 'Im_RyanGosling.png', 'Im_LeonardoDiCaprio.png', 'Im_DanielRadcliffe.png', 'Im_RobertDowneyJr.png'],same,1,1.2668321000001015,1,90.47619047619048,
GUJO1605,9,pos,120,pos120_id18_im19.bmp_pos120_id8_im13.bmp,['Im_GeorgeClooney.png', 'Im_JustinTimberlake.png', 'Im_RobertPattinson.png', 'Im_HughJackman.png', 'Im_RyanReynolds.png', 'Im_BradPitt.png', 'Im_RyanGosling.png', 'Im_LeonardoDiCaprio.png', 'Im_DanielRadcliffe.png', 'Im_RobertDowneyJr.png'],diff,1,0.550207500000397,2,90.47619047619048,
GUJO1605,9,pos,fs,posfs_id3_im8.bmp_posfs_id8_im21.bmp,['Im_GeorgeClooney.png', 'Im_JustinTimberlake.png', 'Im_RobertPattinson.png', 'Im_HughJackman.png', 'Im_RyanReynolds.png', 'Im_BradPitt.png', 'Im_RyanGosling.png', 'Im_LeonardoDiCaprio.png', 'Im_DanielRadcliffe.png', 'Im_RobertDowneyJr.png'],diff,1,0.43339019999984885,3,90.47619047619048,
GUJO1605,9,pos,150,pos150_id5_im10.bmp_pos150_id8_im13.bmp,['Im_GeorgeClooney.png', 'Im_JustinTimberlake.png', 'Im_RobertPattinson.png', 'Im_HughJackman.png', 'Im_RyanReynolds.png', 'Im_BradPitt.png', 'Im_RyanGosling.png', 'Im_LeonardoDiCaprio.png', 'Im_DanielRadcliffe.png', 'Im_RobertDowneyJr.png'],diff,1,0.8836225000004561,4,90.47619047619048,
GUJO1605,9,pos,30,pos30_id5_im10.bmp_pos30_id5_im20.bmp,['Im_GeorgeClooney.png', 'Im_JustinTimberlake.png', 'Im_RobertPattinson.png', 'Im_HughJackman.png', 'Im_RyanReynolds.png', 'Im_BradPitt.png', 'Im_RyanGosling.png', 'Im_LeonardoDiCaprio.png', 'Im_DanielRadcliffe.png', 'Im_RobertDowneyJr.png'],same,1,0.6169282999999268,5,90.47619047619048,
GUJO1605,9,pos,0,pos0_id13_im15.bmp_pos0_id19_im27.bmp,['Im_GeorgeClooney.png', 'Im_JustinTimberlake.png', 'Im_RobertPattinson.png', 'Im_HughJackman.png', 'Im_RyanReynolds.png', 'Im_BradPitt.png', 'Im_RyanGosling.png', 'Im_LeonardoDiCaprio.png', 'Im_DanielRadcliffe.png', 'Im_RobertDowneyJr.png'],diff,1,0.4167832000002818,6,90.47619047619048,
GUJO1605,9,pos,120,pos120_id5_im20.bmp_pos120_id5_im1.bmp,['Im_GeorgeClooney.png', 'Im_JustinTimberlake.png', 'Im_RobertPattinson.png', 'Im_HughJackman.png', 'Im_RyanReynolds.png', 'Im_BradPitt.png', 'Im_RyanGosling.png', 'Im_LeonardoDiCaprio.png', 'Im_DanielRadcliffe.png', 'Im_RobertDowneyJr.png'],same,1,0.4168013999997129,7,90.47619047619048,
GUJO1605,9,pos,60,pos60_id13_im29.bmp_pos60_id3_im17.bmp,['Im_GeorgeClooney.png', 'Im_JustinTimberlake.png', 'Im_RobertPattinson.png', 'Im_HughJackman.png', 'Im_RyanReynolds.png', 'Im_BradPitt.png', 'Im_RyanGosling.png', 'Im_LeonardoDiCaprio.png', 'Im_DanielRadcliffe.png', 'Im_RobertDowneyJr.png'],diff,1,0.5918875000006665,8,90.47619047619048,
GUJO1605,9,pos,150,pos150_id3_im6.bmp_pos150_id19_im8.bmp,['Im_GeorgeClooney.png', 'Im_JustinTimberlake.png', 'Im_RobertPattinson.png', 'Im_HughJackman.png', 'Im_RyanReynolds.png', 'Im_BradPitt.png', 'Im_RyanGosling.png', 'Im_LeonardoDiCaprio.png', 'Im_DanielRadcliffe.png', 'Im_RobertDowneyJr.png'],diff,1,0.6585752999999386,9,90.47619047619048,
GUJO1605,9,pos,0,pos0_id19_im27.bmp_pos0_id19_im8.bmp,['Im_GeorgeClooney.png', 'Im_JustinTimberlake.png', 'Im_RobertPattinson.png', 'Im_HughJackman.png', 'Im_RyanReynolds.png', 'Im_BradPitt.png', 'Im_RyanGosling.png', 'Im_LeonardoDiCaprio.png', 'Im_DanielRadcliffe.png', 'Im_RobertDowneyJr.png'],same,1,0.4167600999999195,10,90.47619047619048,
GUJO1605,9,pos,fs,posfs_id3_im17.bmp_posfs_id10_im1.bmp,['Im_GeorgeClooney.png', 'Im_JustinTimberlake.png', 'Im_RobertPattinson.png', 'Im_HughJackman.png', 'Im_RyanReynolds.png', 'Im_BradPitt.png', 'Im_RyanGosling.png', 'Im_LeonardoDiCaprio.png', 'Im_DanielRadcliffe.png', 'Im_RobertDowneyJr.png'],diff,1,0.42522029999963706,11,90.47619047619048,
GUJO1605,9,pos,90,pos90_id20_im3.bmp_pos90_id20_im12.bmp,['Im_GeorgeClooney.png', 'Im_JustinTimberlake.png', 'Im_RobertPattinson.png', 'Im_HughJackman.png', 'Im_RyanReynolds.png', 'Im_BradPitt.png', 'Im_RyanGosling.png', 'Im_LeonardoDiCaprio.png', 'Im_DanielRadcliffe.png', 'Im_RobertDowneyJr.png'],same,1,0.4085990000003221,12,90.47619047619048,
GUJO1605,9,pos,90,pos90_id7_im15.bmp_pos90_id21_im17.bmp,['Im_GeorgeClooney.png', 'Im_JustinTimberlake.png', 'Im_RobertPattinson.png', 'Im_HughJackman.png', 'Im_RyanReynolds.png', 'Im_BradPitt.png', 'Im_RyanGosling.png', 'Im_LeonardoDiCaprio.png', 'Im_DanielRadcliffe.png', 'Im_RobertDowneyJr.png'],diff,1,0.42507469999964087,13,90.47619047619048,
GUJO1605,9,pos,60,pos60_id18_im19.bmp_pos60_id8_im13.bmp,['Im_GeorgeClooney.png', 'Im_JustinTimberlake.png', 'Im_RobertPattinson.png', 'Im_HughJackman.png', 'Im_RyanReynolds.png', 'Im_BradPitt.png', 'Im_RyanGosling.png', 'Im_LeonardoDiCaprio.png', 'Im_DanielRadcliffe.png', 'Im_RobertDowneyJr.png'],diff,1,0.5249043999992864,14,90.47619047619048,
GUJO1605,10,inv,90,pos90_id10_im1.bmp_pos90_id7_im14.bmp,['Im_GeorgeClooney.png', 'Im_JustinTimberlake.png', 'Im_RobertPattinson.png', 'Im_HughJackman.png', 'Im_RyanReynolds.png', 'Im_BradPitt.png', 'Im_RyanGosling.png', 'Im_LeonardoDiCaprio.png', 'Im_DanielRadcliffe.png', 'Im_RobertDowneyJr.png'],diff,1,0.49173569999948086,15,90.47619047619048,
GUJO1605,10,inv,60,pos60_id20_im30.bmp_pos60_id13_im10.bmp,['Im_GeorgeClooney.png', 'Im_JustinTimberlake.png', 'Im_RobertPattinson.png', 'Im_HughJackman.png', 'Im_RyanReynolds.png', 'Im_BradPitt.png', 'Im_RyanGosling.png', 'Im_LeonardoDiCaprio.png', 'Im_DanielRadcliffe.png', 'Im_RobertDowneyJr.png'],diff,1,0.4168851000003997,16,90.47619047619048,
GUJO1605,10,inv,0,pos0_id7_im15.bmp_pos0_id7_im14.bmp,['Im_GeorgeClooney.png', 'Im_JustinTimberlake.png', 'Im_RobertPattinson.png', 'Im_HughJackman.png', 'Im_RyanReynolds.png', 'Im_BradPitt.png', 'Im_RyanGosling.png', 'Im_LeonardoDiCaprio.png', 'Im_DanielRadcliffe.png', 'Im_RobertDowneyJr.png'],same,1,0.4251038000002154,17,90.47619047619048,
GUJO1605,10,inv,60,pos60_id21_im22.bmp_pos60_id10_im18.bmp,['Im_GeorgeClooney.png', 'Im_JustinTimberlake.png', 'Im_RobertPattinson.png', 'Im_HughJackman.png', 'Im_RyanReynolds.png', 'Im_BradPitt.png', 'Im_RyanGosling.png', 'Im_LeonardoDiCaprio.png', 'Im_DanielRadcliffe.png', 'Im_RobertDowneyJr.png'],diff,1,1.6499089999997523,18,90.47619047619048,
GUJO1605,10,inv,fs,posfs_id13_im29.bmp_posfs_id13_im15.bmp,['Im_GeorgeClooney.png', 'Im_JustinTimberlake.png', 'Im_RobertPattinson.png', 'Im_HughJackman.png', 'Im_RyanReynolds.png', 'Im_BradPitt.png', 'Im_RyanGosling.png', 'Im_LeonardoDiCaprio.png', 'Im_DanielRadcliffe.png', 'Im_RobertDowneyJr.png'],same,1,0.7582168999997521,19,90.47619047619048,
GUJO1605,10,inv,30,pos30_id18_im11.bmp_pos30_id7_im26.bmp,['Im_GeorgeClooney.png', 'Im_JustinTimberlake.png', 'Im_RobertPattinson.png', 'Im_HughJackman.png', 'Im_RyanReynolds.png', 'Im_BradPitt.png', 'Im_RyanGosling.png', 'Im_LeonardoDiCaprio.png', 'Im_DanielRadcliffe.png', 'Im_RobertDowneyJr.png'],diff,1,0.9587787999998909,20,90.47619047619048,
GUJO1605,10,inv,90,pos90_id13_im29.bmp_pos90_id3_im17.bmp,['Im_GeorgeClooney.png', 'Im_JustinTimberlake.png', 'Im_RobertPattinson.png', 'Im_HughJackman.png', 'Im_RyanReynolds.png', 'Im_BradPitt.png', 'Im_RyanGosling.png', 'Im_LeonardoDiCaprio.png', 'Im_DanielRadcliffe.png', 'Im_RobertDowneyJr.png'],same,0,0.525415800000701,20,90.47619047619048,
GUJO1605,10,inv,30,pos30_id5_im10.bmp_pos30_id5_im1.bmp,['Im_GeorgeClooney.png', 'Im_JustinTimberlake.png', 'Im_RobertPattinson.png', 'Im_HughJackman.png', 'Im_RyanReynolds.png', 'Im_BradPitt.png', 'Im_RyanGosling.png', 'Im_LeonardoDiCaprio.png', 'Im_DanielRadcliffe.png', 'Im_RobertDowneyJr.png'],same,1,0.41675990000021557,21,90.47619047619048,
GUJO1605,10,inv,fs,posfs_id13_im10.bmp_posfs_id20_im30.bmp,['Im_GeorgeClooney.png', 'Im_JustinTimberlake.png', 'Im_RobertPattinson.png', 'Im_HughJackman.png', 'Im_RyanReynolds.png', 'Im_BradPitt.png', 'Im_RyanGosling.png', 'Im_LeonardoDiCaprio.png', 'Im_DanielRadcliffe.png', 'Im_RobertDowneyJr.png'],diff,1,0.4167741000001115,22,90.47619047619048,
GUJO1605,10,inv,150,pos150_id5_im1.bmp_pos150_id7_im14.bmp,['Im_GeorgeClooney.png', 'Im_JustinTimberlake.png', 'Im_RobertPattinson.png', 'Im_HughJackman.png', 'Im_RyanReynolds.png', 'Im_BradPitt.png', 'Im_RyanGosling.png', 'Im_LeonardoDiCaprio.png', 'Im_DanielRadcliffe.png', 'Im_RobertDowneyJr.png'],diff,1,0.4250985999997283,23,90.47619047619048,
GUJO1605,10,inv,150,pos150_id21_im16.bmp_pos150_id21_im22.bmp,['Im_GeorgeClooney.png', 'Im_JustinTimberlake.png', 'Im_RobertPattinson.png', 'Im_HughJackman.png', 'Im_RyanReynolds.png', 'Im_BradPitt.png', 'Im_RyanGosling.png', 'Im_LeonardoDiCaprio.png', 'Im_DanielRadcliffe.png', 'Im_RobertDowneyJr.png'],same,1,0.4167600000000675,24,90.47619047619048,
GUJO1605,10,inv,120,pos120_id7_im26.bmp_pos120_id7_im14.bmp,['Im_GeorgeClooney.png', 'Im_JustinTimberlake.png', 'Im_RobertPattinson.png', 'Im_HughJackman.png', 'Im_RyanReynolds.png', 'Im_BradPitt.png', 'Im_RyanGosling.png', 'Im_LeonardoDiCaprio.png', 'Im_DanielRadcliffe.png', 'Im_RobertDowneyJr.png'],diff,0,0.974969300000339,24,90.47619047619048,
GUJO1605,10,inv,120,pos120_id21_im16.bmp_pos120_id8_im20.bmp,['Im_GeorgeClooney.png', 'Im_JustinTimberlake.png', 'Im_RobertPattinson.png', 'Im_HughJackman.png', 'Im_RyanReynolds.png', 'Im_BradPitt.png', 'Im_RyanGosling.png', 'Im_LeonardoDiCaprio.png', 'Im_DanielRadcliffe.png', 'Im_RobertDowneyJr.png'],diff,1,1.2750839999998789,25,90.47619047619048,
GUJO1605,10,inv,0,pos0_id5_im10.bmp_pos0_id21_im22.bmp,['Im_GeorgeClooney.png', 'Im_JustinTimberlake.png', 'Im_RobertPattinson.png', 'Im_HughJackman.png', 'Im_RyanReynolds.png', 'Im_BradPitt.png', 'Im_RyanGosling.png', 'Im_LeonardoDiCaprio.png', 'Im_DanielRadcliffe.png', 'Im_RobertDowneyJr.png'],diff,1,0.425039800000377,26,90.47619047619048,
GUJO1605,11,neg,150,neg150_id21_im22.bmp_neg150_id21_im17.bmp,['Im_GeorgeClooney.png', 'Im_JustinTimberlake.png', 'Im_RobertPattinson.png', 'Im_HughJackman.png', 'Im_RyanReynolds.png', 'Im_BradPitt.png', 'Im_RyanGosling.png', 'Im_LeonardoDiCaprio.png', 'Im_DanielRadcliffe.png', 'Im_RobertDowneyJr.png'],same,1,0.42508209999959945,27,90.47619047619048,
GUJO1605,11,neg,120,neg120_id20_im3.bmp_neg120_id8_im21.bmp,['Im_GeorgeClooney.png', 'Im_JustinTimberlake.png', 'Im_RobertPattinson.png', 'Im_HughJackman.png', 'Im_RyanReynolds.png', 'Im_BradPitt.png', 'Im_RyanGosling.png', 'Im_LeonardoDiCaprio.png', 'Im_DanielRadcliffe.png', 'Im_RobertDowneyJr.png'],diff,1,0.4167230000002746,28,90.47619047619048,
GUJO1605,11,neg,30,neg30_id21_im16.bmp_neg30_id21_im17.bmp,['Im_GeorgeClooney.png', 'Im_JustinTimberlake.png', 'Im_RobertPattinson.png', 'Im_HughJackman.png', 'Im_RyanReynolds.png', 'Im_BradPitt.png', 'Im_RyanGosling.png', 'Im_LeonardoDiCaprio.png', 'Im_DanielRadcliffe.png', 'Im_RobertDowneyJr.png'],same,1,0.6832498000003397,29,90.47619047619048,
GUJO1605,11,neg,60,neg60_id10_im17.bmp_neg60_id10_im1.bmp,['Im_GeorgeClooney.png', 'Im_JustinTimberlake.png', 'Im_RobertPattinson.png', 'Im_HughJackman.png', 'Im_RyanReynolds.png', 'Im_BradPitt.png', 'Im_RyanGosling.png', 'Im_LeonardoDiCaprio.png', 'Im_DanielRadcliffe.png', 'Im_RobertDowneyJr.png'],same,1,0.40840509999998176,30,90.47619047619048,
GUJO1605,11,neg,0,neg0_id19_im8.bmp_neg0_id5_im20.bmp,['Im_GeorgeClooney.png', 'Im_JustinTimberlake.png', 'Im_RobertPattinson.png', 'Im_HughJackman.png', 'Im_RyanReynolds.png', 'Im_BradPitt.png', 'Im_RyanGosling.png', 'Im_LeonardoDiCaprio.png', 'Im_DanielRadcliffe.png', 'Im_RobertDowneyJr.png'],same,0,0.9166466999995464,30,90.47619047619048,
GUJO1605,11,neg,120,neg120_id5_im10.bmp_neg120_id21_im22.bmp,['Im_GeorgeClooney.png', 'Im_JustinTimberlake.png', 'Im_RobertPattinson.png', 'Im_HughJackman.png', 'Im_RyanReynolds.png', 'Im_BradPitt.png', 'Im_RyanGosling.png', 'Im_LeonardoDiCaprio.png', 'Im_DanielRadcliffe.png', 'Im_RobertDowneyJr.png'],same,0,1.008446200000435,30,90.47619047619048,
GUJO1605,11,neg,60,neg60_id21_im16.bmp_neg60_id21_im22.bmp,['Im_GeorgeClooney.png', 'Im_JustinTimberlake.png', 'Im_RobertPattinson.png', 'Im_HughJackman.png', 'Im_RyanReynolds.png', 'Im_BradPitt.png', 'Im_RyanGosling.png', 'Im_LeonardoDiCaprio.png', 'Im_DanielRadcliffe.png', 'Im_RobertDowneyJr.png'],same,1,0.42506590000084543,31,90.47619047619048,
GUJO1605,11,neg,30,neg30_id10_im17.bmp_neg30_id19_im4.bmp,['Im_GeorgeClooney.png', 'Im_JustinTimberlake.png', 'Im_RobertPattinson.png', 'Im_HughJackman.png', 'Im_RyanReynolds.png', 'Im_BradPitt.png', 'Im_RyanGosling.png', 'Im_LeonardoDiCaprio.png', 'Im_DanielRadcliffe.png', 'Im_RobertDowneyJr.png'],diff,1,0.5919700000004013,32,90.47619047619048,
GUJO1605,11,neg,fs,negfs_id21_im16.bmp_negfs_id21_im22.bmp,['Im_GeorgeClooney.png', 'Im_JustinTimberlake.png', 'Im_RobertPattinson.png', 'Im_HughJackman.png', 'Im_RyanReynolds.png', 'Im_BradPitt.png', 'Im_RyanGosling.png', 'Im_LeonardoDiCaprio.png', 'Im_DanielRadcliffe.png', 'Im_RobertDowneyJr.png'],same,1,0.42507149999983085,33,90.47619047619048,
GUJO1605,11,neg,0,neg0_id19_im4.bmp_neg0_id10_im17.bmp,['Im_GeorgeClooney.png', 'Im_JustinTimberlake.png', 'Im_RobertPattinson.png', 'Im_HughJackman.png', 'Im_RyanReynolds.png', 'Im_BradPitt.png', 'Im_RyanGosling.png', 'Im_LeonardoDiCaprio.png', 'Im_DanielRadcliffe.png', 'Im_RobertDowneyJr.png'],diff,1,0.52488589999939,34,90.47619047619048,
GUJO1605,11,neg,90,neg90_id7_im26.bmp_neg90_id21_im17.bmp,['Im_GeorgeClooney.png', 'Im_JustinTimberlake.png', 'Im_RobertPattinson.png', 'Im_HughJackman.png', 'Im_RyanReynolds.png', 'Im_BradPitt.png', 'Im_RyanGosling.png', 'Im_LeonardoDiCaprio.png', 'Im_DanielRadcliffe.png', 'Im_RobertDowneyJr.png'],same,0,0.6004167999999481,34,90.47619047619048,
GUJO1605,11,neg,90,neg90_id20_im30.bmp_neg90_id20_im12.bmp,['Im_GeorgeClooney.png', 'Im_JustinTimberlake.png', 'Im_RobertPattinson.png', 'Im_HughJackman.png', 'Im_RyanReynolds.png', 'Im_BradPitt.png', 'Im_RyanGosling.png', 'Im_LeonardoDiCaprio.png', 'Im_DanielRadcliffe.png', 'Im_RobertDowneyJr.png'],same,1,0.5500690000008035,35,90.47619047619048,
GUJO1605,11,neg,150,neg150_id10_im18.bmp_neg150_id13_im29.bmp,['Im_GeorgeClooney.png', 'Im_JustinTimberlake.png', 'Im_RobertPattinson.png', 'Im_HughJackman.png', 'Im_RyanReynolds.png', 'Im_BradPitt.png', 'Im_RyanGosling.png', 'Im_LeonardoDiCaprio.png', 'Im_DanielRadcliffe.png', 'Im_RobertDowneyJr.png'],diff,1,0.46682379999947443,36,90.47619047619048,
GUJO1605,11,neg,fs,negfs_id5_im10.bmp_negfs_id5_im1.bmp,['Im_GeorgeClooney.png', 'Im_JustinTimberlake.png', 'Im_RobertPattinson.png', 'Im_HughJackman.png', 'Im_RyanReynolds.png', 'Im_BradPitt.png', 'Im_RyanGosling.png', 'Im_LeonardoDiCaprio.png', 'Im_DanielRadcliffe.png', 'Im_RobertDowneyJr.png'],same,1,0.4333435999997164,37,90.47619047619048,
GUJO1605,12,inv,150,pos150_id18_im11.bmp_pos150_id21_im16.bmp,['Im_GeorgeClooney.png', 'Im_JustinTimberlake.png', 'Im_RobertPattinson.png', 'Im_HughJackman.png', 'Im_RyanReynolds.png', 'Im_BradPitt.png', 'Im_RyanGosling.png', 'Im_LeonardoDiCaprio.png', 'Im_DanielRadcliffe.png', 'Im_RobertDowneyJr.png'],diff,1,0.733594099999209,1,88.0952380952381,
GUJO1605,12,inv,120,pos120_id18_im19.bmp_pos120_id18_im18.bmp,['Im_GeorgeClooney.png', 'Im_JustinTimberlake.png', 'Im_RobertPattinson.png', 'Im_HughJackman.png', 'Im_RyanReynolds.png', 'Im_BradPitt.png', 'Im_RyanGosling.png', 'Im_LeonardoDiCaprio.png', 'Im_DanielRadcliffe.png', 'Im_RobertDowneyJr.png'],same,1,0.5673697000001994,2,88.0952380952381,
GUJO1605,12,inv,60,pos60_id7_im26.bmp_pos60_id18_im11.bmp,['Im_GeorgeClooney.png', 'Im_JustinTimberlake.png', 'Im_RobertPattinson.png', 'Im_HughJackman.png', 'Im_RyanReynolds.png', 'Im_BradPitt.png', 'Im_RyanGosling.png', 'Im_LeonardoDiCaprio.png', 'Im_DanielRadcliffe.png', 'Im_RobertDowneyJr.png'],diff,1,0.41671580000001995,3,88.0952380952381,
GUJO1605,12,inv,90,pos90_id21_im22.bmp_pos90_id21_im17.bmp,['Im_GeorgeClooney.png', 'Im_JustinTimberlake.png', 'Im_RobertPattinson.png', 'Im_HughJackman.png', 'Im_RyanReynolds.png', 'Im_BradPitt.png', 'Im_RyanGosling.png', 'Im_LeonardoDiCaprio.png', 'Im_DanielRadcliffe.png', 'Im_RobertDowneyJr.png'],diff,0,0.9500763000005463,3,88.0952380952381,
GUJO1605,12,inv,0,pos0_id18_im11.bmp_pos0_id7_im26.bmp,['Im_GeorgeClooney.png', 'Im_JustinTimberlake.png', 'Im_RobertPattinson.png', 'Im_HughJackman.png', 'Im_RyanReynolds.png', 'Im_BradPitt.png', 'Im_RyanGosling.png', 'Im_LeonardoDiCaprio.png', 'Im_DanielRadcliffe.png', 'Im_RobertDowneyJr.png'],diff,1,0.4167367000000013,4,88.0952380952381,
GUJO1605,12,inv,0,pos0_id18_im18.bmp_pos0_id13_im10.bmp,['Im_GeorgeClooney.png', 'Im_JustinTimberlake.png', 'Im_RobertPattinson.png', 'Im_HughJackman.png', 'Im_RyanReynolds.png', 'Im_BradPitt.png', 'Im_RyanGosling.png', 'Im_LeonardoDiCaprio.png', 'Im_DanielRadcliffe.png', 'Im_RobertDowneyJr.png'],diff,1,0.41658339999958116,5,88.0952380952381,
GUJO1605,12,inv,60,pos60_id18_im19.bmp_pos60_id18_im18.bmp,['Im_GeorgeClooney.png', 'Im_JustinTimberlake.png', 'Im_RobertPattinson.png', 'Im_HughJackman.png', 'Im_RyanReynolds.png', 'Im_BradPitt.png', 'Im_RyanGosling.png', 'Im_LeonardoDiCaprio.png', 'Im_DanielRadcliffe.png', 'Im_RobertDowneyJr.png'],diff,0,0.5166917999995349,5,88.0952380952381,
GUJO1605,12,inv,30,pos30_id21_im16.bmp_pos30_id8_im20.bmp,['Im_GeorgeClooney.png', 'Im_JustinTimberlake.png', 'Im_RobertPattinson.png', 'Im_HughJackman.png', 'Im_RyanReynolds.png', 'Im_BradPitt.png', 'Im_RyanGosling.png', 'Im_LeonardoDiCaprio.png', 'Im_DanielRadcliffe.png', 'Im_RobertDowneyJr.png'],diff,1,0.41673380000065663,6,88.0952380952381,
GUJO1605,12,inv,30,pos30_id3_im17.bmp_pos30_id3_im6.bmp,['Im_GeorgeClooney.png', 'Im_JustinTimberlake.png', 'Im_RobertPattinson.png', 'Im_HughJackman.png', 'Im_RyanReynolds.png', 'Im_BradPitt.png', 'Im_RyanGosling.png', 'Im_LeonardoDiCaprio.png', 'Im_DanielRadcliffe.png', 'Im_RobertDowneyJr.png'],diff,0,0.42529689999992115,6,88.0952380952381,
GUJO1605,12,inv,150,pos150_id5_im1.bmp_pos150_id20_im12.bmp,['Im_GeorgeClooney.png', 'Im_JustinTimberlake.png', 'Im_RobertPattinson.png', 'Im_HughJackman.png', 'Im_RyanReynolds.png', 'Im_BradPitt.png', 'Im_RyanGosling.png', 'Im_LeonardoDiCaprio.png', 'Im_DanielRadcliffe.png', 'Im_RobertDowneyJr.png'],diff,1,0.5249936999998681,7,88.0952380952381,
GUJO1605,12,inv,fs,posfs_id7_im15.bmp_posfs_id21_im17.bmp,['Im_GeorgeClooney.png', 'Im_JustinTimberlake.png', 'Im_RobertPattinson.png', 'Im_HughJackman.png', 'Im_RyanReynolds.png', 'Im_BradPitt.png', 'Im_RyanGosling.png', 'Im_LeonardoDiCaprio.png', 'Im_DanielRadcliffe.png', 'Im_RobertDowneyJr.png'],diff,1,0.4501598999995622,8,88.0952380952381,
GUJO1605,12,inv,fs,posfs_id20_im3.bmp_posfs_id20_im12.bmp,['Im_GeorgeClooney.png', 'Im_JustinTimberlake.png', 'Im_RobertPattinson.png', 'Im_HughJackman.png', 'Im_RyanReynolds.png', 'Im_BradPitt.png', 'Im_RyanGosling.png', 'Im_LeonardoDiCaprio.png', 'Im_DanielRadcliffe.png', 'Im_RobertDowneyJr.png'],same,1,0.6249317000001611,9,88.0952380952381,
GUJO1605,12,inv,90,pos90_id13_im29.bmp_pos90_id13_im15.bmp,['Im_GeorgeClooney.png', 'Im_JustinTimberlake.png', 'Im_RobertPattinson.png', 'Im_HughJackman.png', 'Im_RyanReynolds.png', 'Im_BradPitt.png', 'Im_RyanGosling.png', 'Im_LeonardoDiCaprio.png', 'Im_DanielRadcliffe.png', 'Im_RobertDowneyJr.png'],same,1,0.8667359999999462,10,88.0952380952381,
GUJO1605,12,inv,120,pos120_id7_im14.bmp_pos120_id5_im1.bmp,['Im_GeorgeClooney.png', 'Im_JustinTimberlake.png', 'Im_RobertPattinson.png', 'Im_HughJackman.png', 'Im_RyanReynolds.png', 'Im_BradPitt.png', 'Im_RyanGosling.png', 'Im_LeonardoDiCaprio.png', 'Im_DanielRadcliffe.png', 'Im_RobertDowneyJr.png'],diff,1,0.4084094999998342,11,88.0952380952381,
GUJO1605,13,neg,120,neg120_id21_im17.bmp_neg120_id7_im26.bmp,['Im_GeorgeClooney.png', 'Im_JustinTimberlake.png', 'Im_RobertPattinson.png', 'Im_HughJackman.png', 'Im_RyanReynolds.png', 'Im_BradPitt.png', 'Im_RyanGosling.png', 'Im_LeonardoDiCaprio.png', 'Im_DanielRadcliffe.png', 'Im_RobertDowneyJr.png'],diff,1,0.6419428000008338,12,88.0952380952381,
GUJO1605,13,neg,30,neg30_id5_im1.bmp_neg30_id5_im20.bmp,['Im_GeorgeClooney.png', 'Im_JustinTimberlake.png', 'Im_RobertPattinson.png', 'Im_HughJackman.png', 'Im_RyanReynolds.png', 'Im_BradPitt.png', 'Im_RyanGosling.png', 'Im_LeonardoDiCaprio.png', 'Im_DanielRadcliffe.png', 'Im_RobertDowneyJr.png'],same,1,0.4253113000004305,13,88.0952380952381,
GUJO1605,13,neg,fs,negfs_id13_im15.bmp_negfs_id13_im29.bmp,['Im_GeorgeClooney.png', 'Im_JustinTimberlake.png', 'Im_RobertPattinson.png', 'Im_HughJackman.png', 'Im_RyanReynolds.png', 'Im_BradPitt.png', 'Im_RyanGosling.png', 'Im_LeonardoDiCaprio.png', 'Im_DanielRadcliffe.png', 'Im_RobertDowneyJr.png'],diff,0,0.4671077000002697,13,88.0952380952381,
GUJO1605,13,neg,60,neg60_id13_im15.bmp_neg60_id13_im29.bmp,['Im_GeorgeClooney.png', 'Im_JustinTimberlake.png', 'Im_RobertPattinson.png', 'Im_HughJackman.png', 'Im_RyanReynolds.png', 'Im_BradPitt.png', 'Im_RyanGosling.png', 'Im_LeonardoDiCaprio.png', 'Im_DanielRadcliffe.png', 'Im_RobertDowneyJr.png'],same,1,1.0333757999997033,14,88.0952380952381,
GUJO1605,13,neg,90,neg90_id13_im10.bmp_neg90_id13_im15.bmp,['Im_GeorgeClooney.png', 'Im_JustinTimberlake.png', 'Im_RobertPattinson.png', 'Im_HughJackman.png', 'Im_RyanReynolds.png', 'Im_BradPitt.png', 'Im_RyanGosling.png', 'Im_LeonardoDiCaprio.png', 'Im_DanielRadcliffe.png', 'Im_RobertDowneyJr.png'],same,1,0.4251039999999193,15,88.0952380952381,
GUJO1605,13,neg,60,neg60_id7_im14.bmp_neg60_id7_im26.bmp,['Im_GeorgeClooney.png', 'Im_JustinTimberlake.png', 'Im_RobertPattinson.png', 'Im_HughJackman.png', 'Im_RyanReynolds.png', 'Im_BradPitt.png', 'Im_RyanGosling.png', 'Im_LeonardoDiCaprio.png', 'Im_DanielRadcliffe.png', 'Im_RobertDowneyJr.png'],same,1,0.41690770000059274,16,88.0952380952381,
GUJO1605,13,neg,30,neg30_id21_im16.bmp_neg30_id18_im11.bmp,['Im_GeorgeClooney.png', 'Im_JustinTimberlake.png', 'Im_RobertPattinson.png', 'Im_HughJackman.png', 'Im_RyanReynolds.png', 'Im_BradPitt.png', 'Im_RyanGosling.png', 'Im_LeonardoDiCaprio.png', 'Im_DanielRadcliffe.png', 'Im_RobertDowneyJr.png'],diff,1,0.6501515999998446,17,88.0952380952381,
GUJO1605,13,neg,fs,negfs_id20_im3.bmp_negfs_id20_im12.bmp,['Im_GeorgeClooney.png', 'Im_JustinTimberlake.png', 'Im_RobertPattinson.png', 'Im_HughJackman.png', 'Im_RyanReynolds.png', 'Im_BradPitt.png', 'Im_RyanGosling.png', 'Im_LeonardoDiCaprio.png', 'Im_DanielRadcliffe.png', 'Im_RobertDowneyJr.png'],same,1,0.41681810000045516,18,88.0952380952381,
GUJO1605,13,neg,120,neg120_id5_im20.bmp_neg120_id5_im1.bmp,['Im_GeorgeClooney.png', 'Im_JustinTimberlake.png', 'Im_RobertPattinson.png', 'Im_HughJackman.png', 'Im_RyanReynolds.png', 'Im_BradPitt.png', 'Im_RyanGosling.png', 'Im_LeonardoDiCaprio.png', 'Im_DanielRadcliffe.png', 'Im_RobertDowneyJr.png'],same,1,0.5999133999994228,19,88.0952380952381,
GUJO1605,13,neg,0,neg0_id18_im18.bmp_neg0_id7_im15.bmp,['Im_GeorgeClooney.png', 'Im_JustinTimberlake.png', 'Im_RobertPattinson.png', 'Im_HughJackman.png', 'Im_RyanReynolds.png', 'Im_BradPitt.png', 'Im_RyanGosling.png', 'Im_LeonardoDiCaprio.png', 'Im_DanielRadcliffe.png', 'Im_RobertDowneyJr.png'],diff,1,2.1250638000001345,20,88.0952380952381,
GUJO1605,13,neg,0,neg0_id8_im21.bmp_neg0_id3_im8.bmp,['Im_GeorgeClooney.png', 'Im_JustinTimberlake.png', 'Im_RobertPattinson.png', 'Im_HughJackman.png', 'Im_RyanReynolds.png', 'Im_BradPitt.png', 'Im_RyanGosling.png', 'Im_LeonardoDiCaprio.png', 'Im_DanielRadcliffe.png', 'Im_RobertDowneyJr.png'],diff,1,0.5252603000008094,21,88.0952380952381,
GUJO1605,13,neg,90,neg90_id10_im18.bmp_neg90_id13_im29.bmp,['Im_GeorgeClooney.png', 'Im_JustinTimberlake.png', 'Im_RobertPattinson.png', 'Im_HughJackman.png', 'Im_RyanReynolds.png', 'Im_BradPitt.png', 'Im_RyanGosling.png', 'Im_LeonardoDiCaprio.png', 'Im_DanielRadcliffe.png', 'Im_RobertDowneyJr.png'],diff,1,0.4250302999998894,22,88.0952380952381,
GUJO1605,13,neg,150,neg150_id5_im20.bmp_neg150_id5_im10.bmp,['Im_GeorgeClooney.png', 'Im_JustinTimberlake.png', 'Im_RobertPattinson.png', 'Im_HughJackman.png', 'Im_RyanReynolds.png', 'Im_BradPitt.png', 'Im_RyanGosling.png', 'Im_LeonardoDiCaprio.png', 'Im_DanielRadcliffe.png', 'Im_RobertDowneyJr.png'],same,1,0.41673439999976836,23,88.0952380952381,
GUJO1605,13,neg,150,neg150_id5_im20.bmp_neg150_id5_im1.bmp,['Im_GeorgeClooney.png', 'Im_JustinTimberlake.png', 'Im_RobertPattinson.png', 'Im_HughJackman.png', 'Im_RyanReynolds.png', 'Im_BradPitt.png', 'Im_RyanGosling.png', 'Im_LeonardoDiCaprio.png', 'Im_DanielRadcliffe.png', 'Im_RobertDowneyJr.png'],same,1,0.5084594999998444,24,88.0952380952381,
GUJO1605,14,pos,0,pos0_id18_im19.bmp_pos0_id20_im30.bmp,['Im_GeorgeClooney.png', 'Im_JustinTimberlake.png', 'Im_RobertPattinson.png', 'Im_HughJackman.png', 'Im_RyanReynolds.png', 'Im_BradPitt.png', 'Im_RyanGosling.png', 'Im_LeonardoDiCaprio.png', 'Im_DanielRadcliffe.png', 'Im_RobertDowneyJr.png'],diff,1,0.7670372000002317,25,88.0952380952381,
GUJO1605,14,pos,60,pos60_id3_im17.bmp_pos60_id3_im8.bmp,['Im_GeorgeClooney.png', 'Im_JustinTimberlake.png', 'Im_RobertPattinson.png', 'Im_HughJackman.png', 'Im_RyanReynolds.png', 'Im_BradPitt.png', 'Im_RyanGosling.png', 'Im_LeonardoDiCaprio.png', 'Im_DanielRadcliffe.png', 'Im_RobertDowneyJr.png'],diff,0,1.7836370000004536,25,88.0952380952381,
GUJO1605,14,pos,150,pos150_id3_im8.bmp_pos150_id3_im6.bmp,['Im_GeorgeClooney.png', 'Im_JustinTimberlake.png', 'Im_RobertPattinson.png', 'Im_HughJackman.png', 'Im_RyanReynolds.png', 'Im_BradPitt.png', 'Im_RyanGosling.png', 'Im_LeonardoDiCaprio.png', 'Im_DanielRadcliffe.png', 'Im_RobertDowneyJr.png'],same,1,0.683265399999982,26,88.0952380952381,
GUJO1605,14,pos,150,pos150_id8_im20.bmp_pos150_id8_im13.bmp,['Im_GeorgeClooney.png', 'Im_JustinTimberlake.png', 'Im_RobertPattinson.png', 'Im_HughJackman.png', 'Im_RyanReynolds.png', 'Im_BradPitt.png', 'Im_RyanGosling.png', 'Im_LeonardoDiCaprio.png', 'Im_DanielRadcliffe.png', 'Im_RobertDowneyJr.png'],same,1,0.46681029999945167,27,88.0952380952381,
GUJO1605,14,pos,120,pos120_id21_im17.bmp_pos120_id21_im22.bmp,['Im_GeorgeClooney.png', 'Im_JustinTimberlake.png', 'Im_RobertPattinson.png', 'Im_HughJackman.png', 'Im_RyanReynolds.png', 'Im_BradPitt.png', 'Im_RyanGosling.png', 'Im_LeonardoDiCaprio.png', 'Im_DanielRadcliffe.png', 'Im_RobertDowneyJr.png'],same,1,0.4166950999997425,28,88.0952380952381,
GUJO1605,14,pos,90,pos90_id19_im8.bmp_pos90_id5_im20.bmp,['Im_GeorgeClooney.png', 'Im_JustinTimberlake.png', 'Im_RobertPattinson.png', 'Im_HughJackman.png', 'Im_RyanReynolds.png', 'Im_BradPitt.png', 'Im_RyanGosling.png', 'Im_LeonardoDiCaprio.png', 'Im_DanielRadcliffe.png', 'Im_RobertDowneyJr.png'],diff,1,0.5167966999997589,29,88.0952380952381,
GUJO1605,14,pos,30,pos30_id7_im15.bmp_pos30_id7_im14.bmp,['Im_GeorgeClooney.png', 'Im_JustinTimberlake.png', 'Im_RobertPattinson.png', 'Im_HughJackman.png', 'Im_RyanReynolds.png', 'Im_BradPitt.png', 'Im_RyanGosling.png', 'Im_LeonardoDiCaprio.png', 'Im_DanielRadcliffe.png', 'Im_RobertDowneyJr.png'],same,1,0.4837230000002819,30,88.0952380952381,
GUJO1605,14,pos,fs,posfs_id13_im29.bmp_posfs_id13_im15.bmp,['Im_GeorgeClooney.png', 'Im_JustinTimberlake.png', 'Im_RobertPattinson.png', 'Im_HughJackman.png', 'Im_RyanReynolds.png', 'Im_BradPitt.png', 'Im_RyanGosling.png', 'Im_LeonardoDiCaprio.png', 'Im_DanielRadcliffe.png', 'Im_RobertDowneyJr.png'],same,1,0.4584190999994462,31,88.0952380952381,
GUJO1605,14,pos,120,pos120_id19_im27.bmp_pos120_id3_im8.bmp,['Im_GeorgeClooney.png', 'Im_JustinTimberlake.png', 'Im_RobertPattinson.png', 'Im_HughJackman.png', 'Im_RyanReynolds.png', 'Im_BradPitt.png', 'Im_RyanGosling.png', 'Im_LeonardoDiCaprio.png', 'Im_DanielRadcliffe.png', 'Im_RobertDowneyJr.png'],diff,1,0.42500699999982317,32,88.0952380952381,
