Sujet,Trial,Condition,Filter,Imname,Actor0,Actor1,Actor2,Actor3,Actor4,Actor5,Actor6,Actor7,Actor8,Actor9,Answer,Accu,RT,Score,Scoreperc, 
GUJU1708,_,posfs_HughJackman_im18.bmp,HughJackman,LeonardoDiCaprio,LeonardoDiCaprio,BradPitt,RyanGosling,DanielRadcliffe,,,,,posfs_HughJackman_im18.bmp,45.315306799999234,
GUJU1708,_,posfs_PatrickDempsey_im14.bmp,PatrickDempsey,KeanuReeves,KeanuReeves,RobertDowneyJr,HughJackman,RyanReynolds,,,,,posfs_PatrickDempsey_im14.bmp,6.81280070000048,
GUJU1708,_,posfs_BenAffleck_im24.bmp,BenAffleck,OrlandoBloom,OrlandoBloom,DanielRadcliffe,MattDamon,GeorgeClooney,,,,,posfs_BenAffleck_im24.bmp,62.21755359999952,
GUJU1708,_,posfs_KeanuReeves_im10.bmp,KeanuReeves,MattDamon,MattDamon,OrlandoBloom,PatrickDempsey,LeonardoDiCaprio,,,,,posfs_KeanuReeves_im10.bmp,13.415544299999965,
GUJU1708,_,posfs_RobertDowneyJr_im19.bmp,RobertDowneyJr,DanielRadcliffe,DanielRadcliffe,DanielCraig,PatrickDempsey,BenStiller,,,,,4,27.803236000000652,
GUJU1708,_,posfs_DanielRadcliffe_im8.bmp,DanielRadcliffe,MattDamon,MattDamon,PatrickDempsey,RyanReynolds,RobertDowneyJr,,,,,posfs_DanielRadcliffe_im8.bmp,6.064730399999462,
GUJU1708,_,posfs_LeonardoDiCaprio_im15.bmp,LeonardoDiCaprio,RobertPattinson,RobertPattinson,DanielCraig,BradPitt,DanielRadcliffe,,,,,posfs_LeonardoDiCaprio_im15.bmp,1.787353499999881,
GUJU1708,_,posfs_DanielCraig_im20.bmp,DanielCraig,BenStiller,BenStiller,BradPitt,LeonardoDiCaprio,OrlandoBloom,,,,,posfs_DanielCraig_im20.bmp,13.593795300000238,
GUJU1708,_,posfs_RobertPattinson_im27.bmp,RobertPattinson,RyanReynolds,RyanReynolds,OrlandoBloom,MattDamon,KeanuReeves,,,,,posfs_RobertPattinson_im27.bmp,2.070887500000026,
GUJU1708,_,posfs_BradPitt_im14.bmp,BradPitt,MattDamon,MattDamon,DanielCraig,OrlandoBloom,LeonardoDiCaprio,,,,,posfs_BradPitt_im14.bmp,2.5701516999997693,
GUJU1708,_,posfs_RobertDowneyJr_im4.bmp,RobertDowneyJr,RyanGosling,RyanGosling,BradPitt,HughJackman,ElijahWood,,,,,4,21.042081799999323,
GUJU1708,_,posfs_BradPitt_im6.bmp,BradPitt,RyanGosling,RyanGosling,RobertDowneyJr,OrlandoBloom,HughJackman,,,,,posfs_BradPitt_im6.bmp,2.9182620999999926,
GUJU1708,_,posfs_BenStiller_im7.bmp,BenStiller,LeonardoDiCaprio,LeonardoDiCaprio,RyanGosling,DanielCraig,PatrickDempsey,,,,,posfs_BenStiller_im7.bmp,6.486489899999469,
GUJU1708,_,posfs_DanielRadcliffe_im20.bmp,DanielRadcliffe,GeorgeClooney,GeorgeClooney,ElijahWood,RobertPattinson,KeanuReeves,,,,,2,1.4980239000005895,
GUJU1708,_,posfs_JustinTimberlake_im4.bmp,JustinTimberlake,BenStiller,BenStiller,RobertDowneyJr,OrlandoBloom,PatrickDempsey,,,,,posfs_JustinTimberlake_im4.bmp,2.580411200000526,
GUJU1708,_,posfs_BenAffleck_im4.bmp,BenAffleck,BenStiller,BenStiller,KeanuReeves,ElijahWood,PatrickDempsey,,,,,1,35.04373529999975,
GUJU1708,_,posfs_ElijahWood_im19.bmp,ElijahWood,PatrickDempsey,PatrickDempsey,RyanReynolds,BenAffleck,OrlandoBloom,,,,,4,22.504155900000114,
GUJU1708,_,posfs_KeanuReeves_im2.bmp,KeanuReeves,HughJackman,HughJackman,GeorgeClooney,RobertPattinson,BenStiller,,,,,0,42.691264400000364,
GUJU1708,_,posfs_RyanGosling_im25.bmp,RyanGosling,DanielCraig,DanielCraig,KeanuReeves,BradPitt,MattDamon,,,,,4,27.390269999999873,
GUJU1708,_,posfs_HughJackman_im13.bmp,HughJackman,BradPitt,BradPitt,PatrickDempsey,MattDamon,RobertPattinson,,,,,1,4.314213800000289,
GUJU1708,_,posfs_RobertPattinson_im8.bmp,RobertPattinson,DanielRadcliffe,DanielRadcliffe,OrlandoBloom,MattDamon,RyanGosling,,,,,posfs_RobertPattinson_im8.bmp,0.8525141000000076,
GUJU1708,_,posfs_PatrickDempsey_im9.bmp,PatrickDempsey,HughJackman,HughJackman,RobertDowneyJr,KeanuReeves,BenAffleck,,,,,posfs_PatrickDempsey_im9.bmp,18.08947040000021,
GUJU1708,_,posfs_RyanReynolds_im16.bmp,RyanReynolds,OrlandoBloom,OrlandoBloom,RobertPattinson,RyanGosling,LeonardoDiCaprio,,,,,4,19.964455199999975,
GUJU1708,_,posfs_MattDamon_im16.bmp,MattDamon,LeonardoDiCaprio,LeonardoDiCaprio,RyanGosling,KeanuReeves,BenStiller,,,,,posfs_MattDamon_im16.bmp,42.60521619999963,
GUJU1708,_,posfs_BenStiller_im2.bmp,BenStiller,RobertDowneyJr,RobertDowneyJr,GeorgeClooney,DanielCraig,RyanReynolds,,,,,2,5.331890500000554,
GUJU1708,_,posfs_BradPitt_im17.bmp,BradPitt,PatrickDempsey,PatrickDempsey,LeonardoDiCaprio,JustinTimberlake,HughJackman,,,,,posfs_BradPitt_im17.bmp,3.125293999999485,
GUJU1708,_,posfs_JustinTimberlake_im1.bmp,JustinTimberlake,BenAffleck,BenAffleck,ElijahWood,PatrickDempsey,HughJackman,,,,,4,34.702668699999776,
GUJU1708,_,posfs_RobertPattinson_im4.bmp,RobertPattinson,DanielRadcliffe,DanielRadcliffe,RyanGosling,MattDamon,ElijahWood,,,,,posfs_RobertPattinson_im4.bmp,1.2892180999997436,
GUJU1708,_,posfs_ElijahWood_im23.bmp,ElijahWood,BenAffleck,BenAffleck,RyanGosling,BenStiller,RobertDowneyJr,,,,,4,52.96438269999999,
GUJU1708,_,posfs_BenAffleck_im21.bmp,BenAffleck,RyanGosling,RyanGosling,GeorgeClooney,ElijahWood,BradPitt,,,,,0,26.147994899999503,
GUJU1708,_,posfs_RyanReynolds_im22.bmp,RyanReynolds,JustinTimberlake,JustinTimberlake,BradPitt,KeanuReeves,LeonardoDiCaprio,,,,,4,12.115511099999821,
GUJU1708,_,posfs_GeorgeClooney_im23.bmp,GeorgeClooney,BenAffleck,BenAffleck,MattDamon,OrlandoBloom,KeanuReeves,,,,,posfs_GeorgeClooney_im23.bmp,2.566384300000209,
GUJU1708,_,posfs_HughJackman_im20.bmp,HughJackman,JustinTimberlake,JustinTimberlake,RyanReynolds,DanielCraig,OrlandoBloom,,,,,2,48.590233299999454,
GUJU1708,_,posfs_MattDamon_im18.bmp,MattDamon,DanielCraig,DanielCraig,PatrickDempsey,DanielRadcliffe,ElijahWood,,,,,posfs_MattDamon_im18.bmp,35.052554599999894,
GUJU1708,_,posfs_BradPitt_im8.bmp,BradPitt,BenStiller,BenStiller,BenAffleck,OrlandoBloom,RobertPattinson,,,,,posfs_BradPitt_im8.bmp,3.408274899999924,
GUJU1708,_,posfs_GeorgeClooney_im14.bmp,GeorgeClooney,KeanuReeves,KeanuReeves,LeonardoDiCaprio,PatrickDempsey,RobertPattinson,,,,,posfs_GeorgeClooney_im14.bmp,1.541968999999881,
GUJU1708,_,posfs_RyanGosling_im12.bmp,RyanGosling,PatrickDempsey,PatrickDempsey,RyanReynolds,BradPitt,DanielCraig,,,,,posfs_RyanGosling_im12.bmp,7.3104232999994565,
GUJU1708,_,posfs_MattDamon_im24.bmp,MattDamon,RobertDowneyJr,RobertDowneyJr,BradPitt,HughJackman,RobertPattinson,,,,,4,6.007430700000441,
GUJU1708,_,posfs_DanielRadcliffe_im1.bmp,DanielRadcliffe,BradPitt,BradPitt,LeonardoDiCaprio,BenStiller,RobertPattinson,,,,,posfs_DanielRadcliffe_im1.bmp,2.052044400000341,
GUJU1708,_,posfs_LeonardoDiCaprio_im24.bmp,LeonardoDiCaprio,DanielCraig,DanielCraig,BradPitt,PatrickDempsey,RyanGosling,,,,,posfs_LeonardoDiCaprio_im24.bmp,1.1627588999999716,
GUJU1708,_,posfs_LeonardoDiCaprio_im10.bmp,LeonardoDiCaprio,BenStiller,BenStiller,RyanGosling,PatrickDempsey,RobertPattinson,,,,,posfs_LeonardoDiCaprio_im10.bmp,0.85164690000056,
GUJU1708,_,posfs_DanielRadcliffe_im10.bmp,DanielRadcliffe,LeonardoDiCaprio,LeonardoDiCaprio,KeanuReeves,ElijahWood,MattDamon,,,,,posfs_DanielRadcliffe_im10.bmp,1.4870405000001483,
GUJU1708,_,posfs_BenStiller_im16.bmp,BenStiller,KeanuReeves,KeanuReeves,MattDamon,JustinTimberlake,BenAffleck,,,,,0,20.54001909999988,
GUJU1708,_,posfs_LeonardoDiCaprio_im29.bmp,LeonardoDiCaprio,RobertDowneyJr,RobertDowneyJr,PatrickDempsey,OrlandoBloom,DanielCraig,,,,,posfs_LeonardoDiCaprio_im29.bmp,1.6353816000000734,
GUJU1708,_,posfs_DanielCraig_im8.bmp,DanielCraig,RobertPattinson,RobertPattinson,BenAffleck,BenStiller,LeonardoDiCaprio,,,,,posfs_DanielCraig_im8.bmp,16.784747800000332,
GUJU1708,_,posfs_RyanGosling_im3.bmp,RyanGosling,RobertPattinson,RobertPattinson,PatrickDempsey,DanielCraig,JustinTimberlake,,,,,3,4.751903399999719,
GUJU1708,_,posfs_MattDamon_im9.bmp,MattDamon,BradPitt,BradPitt,HughJackman,DanielCraig,LeonardoDiCaprio,,,,,3,4.329338999999891,
GUJU1708,_,posfs_PatrickDempsey_im8.bmp,PatrickDempsey,BenStiller,BenStiller,MattDamon,BradPitt,RyanGosling,,,,,posfs_PatrickDempsey_im8.bmp,8.433822999999393,
GUJU1708,_,posfs_BenAffleck_im8.bmp,BenAffleck,OrlandoBloom,OrlandoBloom,RobertPattinson,RyanReynolds,MattDamon,,,,,4,5.582741700000042,
GUJU1708,_,posfs_RobertDowneyJr_im11.bmp,RobertDowneyJr,HughJackman,HughJackman,RyanGosling,JustinTimberlake,BenStiller,,,,,posfs_RobertDowneyJr_im11.bmp,62.20594079999955,
GUJU1708,_,posfs_OrlandoBloom_im30.bmp,OrlandoBloom,JustinTimberlake,JustinTimberlake,BradPitt,KeanuReeves,RyanGosling,,,,,4,12.108477600000697,
GUJU1708,_,posfs_RyanReynolds_im17.bmp,RyanReynolds,PatrickDempsey,PatrickDempsey,ElijahWood,BenStiller,BradPitt,,,,,1,23.181870499999604,
GUJU1708,_,posfs_ElijahWood_im12.bmp,ElijahWood,DanielRadcliffe,DanielRadcliffe,RobertDowneyJr,GeorgeClooney,BenStiller,,,,,0,2.2366738999999143,
GUJU1708,_,posfs_KeanuReeves_im8.bmp,KeanuReeves,BenAffleck,BenAffleck,LeonardoDiCaprio,RyanGosling,GeorgeClooney,,,,,2,5.889862099999846,
GUJU1708,_,posfs_RyanGosling_im30.bmp,RyanGosling,RyanReynolds,RyanReynolds,DanielCraig,PatrickDempsey,RobertPattinson,,,,,1,5.124895300000389,
GUJU1708,_,posfs_OrlandoBloom_im3.bmp,OrlandoBloom,RobertPattinson,RobertPattinson,RyanReynolds,RyanGosling,RobertDowneyJr,,,,,4,3.8291216999996323,
GUJU1708,_,posfs_DanielCraig_im7.bmp,DanielCraig,BenAffleck,BenAffleck,KeanuReeves,PatrickDempsey,DanielRadcliffe,,,,,4,21.482031699999425,
GUJU1708,_,posfs_KeanuReeves_im1.bmp,KeanuReeves,LeonardoDiCaprio,LeonardoDiCaprio,BradPitt,JustinTimberlake,RobertPattinson,,,,,posfs_KeanuReeves_im1.bmp,4.084477599999445,
GUJU1708,_,posfs_ElijahWood_im18.bmp,ElijahWood,PatrickDempsey,PatrickDempsey,JustinTimberlake,RobertPattinson,RobertDowneyJr,,,,,posfs_ElijahWood_im18.bmp,10.768033100000139,
GUJU1708,_,posfs_OrlandoBloom_im2.bmp,OrlandoBloom,BenAffleck,BenAffleck,RyanGosling,MattDamon,RobertDowneyJr,,,,,4,6.881095799999457,
GUJU1708,_,posfs_RyanReynolds_im3.bmp,RyanReynolds,BenAffleck,BenAffleck,DanielCraig,MattDamon,OrlandoBloom,,,,,2,20.251870600000075,
GUJU1708,_,posfs_OrlandoBloom_im19.bmp,OrlandoBloom,ElijahWood,ElijahWood,DanielCraig,PatrickDempsey,LeonardoDiCaprio,,,,,0,8.864483000000291,
GUJU1708,_,posfs_DanielCraig_im15.bmp,DanielCraig,BenAffleck,BenAffleck,MattDamon,BenStiller,HughJackman,,,,,posfs_DanielCraig_im15.bmp,21.555833299999904,
GUJU1708,_,posfs_RobertPattinson_im30.bmp,RobertPattinson,DanielRadcliffe,DanielRadcliffe,DanielCraig,BenAffleck,JustinTimberlake,,,,,posfs_RobertPattinson_im30.bmp,1.9164142999998148,
GUJU1708,_,posfs_HughJackman_im21.bmp,HughJackman,OrlandoBloom,OrlandoBloom,GeorgeClooney,RyanGosling,BradPitt,,,,,0,42.06205709999995,
GUJU1708,_,posfs_RobertDowneyJr_im18.bmp,RobertDowneyJr,MattDamon,MattDamon,BradPitt,GeorgeClooney,JustinTimberlake,,,,,posfs_RobertDowneyJr_im18.bmp,4.424938299999667,
GUJU1708,_,posfs_JustinTimberlake_im17.bmp,JustinTimberlake,MattDamon,MattDamon,LeonardoDiCaprio,ElijahWood,GeorgeClooney,,,,,2,6.9181553000007625,
GUJU1708,_,posfs_GeorgeClooney_im15.bmp,GeorgeClooney,JustinTimberlake,JustinTimberlake,DanielRadcliffe,DanielCraig,BenAffleck,,,,,posfs_GeorgeClooney_im15.bmp,2.4557537000000593,
GUJU1708,_,posfs_JustinTimberlake_im18.bmp,JustinTimberlake,ElijahWood,ElijahWood,RyanGosling,DanielRadcliffe,LeonardoDiCaprio,,,,,1,9.17153959999996,
GUJU1708,_,posfs_BenStiller_im3.bmp,BenStiller,ElijahWood,ElijahWood,JustinTimberlake,BradPitt,RobertDowneyJr,,,,,3,4.428097299999536,
GUJU1708,_,posfs_PatrickDempsey_im16.bmp,PatrickDempsey,BradPitt,BradPitt,DanielCraig,DanielRadcliffe,LeonardoDiCaprio,,,,,posfs_PatrickDempsey_im16.bmp,3.144706600000063,
GUJU1708,_,posfs_GeorgeClooney_im26.bmp,GeorgeClooney,LeonardoDiCaprio,LeonardoDiCaprio,RobertPattinson,BenAffleck,ElijahWood,,,,,posfs_GeorgeClooney_im26.bmp,1.6735509999998612,
GUJU1708,train,pos,fs,posfs_id4_im7.bmp_posfs_id17_im8.bmp,['Im_BradPitt.png', 'Im_BenStiller.png', 'Im_JustinTimberlake.png', 'Im_DanielCraig.png', 'Im_GeorgeClooney.png', 'Im_PatrickDempsey.png', 'Im_DanielRadcliffe.png', 'Im_RobertPattinson.png', 'Im_LeonardoDiCaprio.png', 'Im_KeanuReeves.png'],diff,1,1.7915752999997494,1,0,
GUJU1708,train,pos,fs,posfs_id17_im8.bmp_posfs_id10_im17.bmp,['Im_BradPitt.png', 'Im_BenStiller.png', 'Im_JustinTimberlake.png', 'Im_DanielCraig.png', 'Im_GeorgeClooney.png', 'Im_PatrickDempsey.png', 'Im_DanielRadcliffe.png', 'Im_RobertPattinson.png', 'Im_LeonardoDiCaprio.png', 'Im_KeanuReeves.png'],diff,1,1.1749655000003258,2,0,
GUJU1708,train,pos,fs,posfs_id2_im3.bmp_posfs_id10_im18.bmp,['Im_BradPitt.png', 'Im_BenStiller.png', 'Im_JustinTimberlake.png', 'Im_DanielCraig.png', 'Im_GeorgeClooney.png', 'Im_PatrickDempsey.png', 'Im_DanielRadcliffe.png', 'Im_RobertPattinson.png', 'Im_LeonardoDiCaprio.png', 'Im_KeanuReeves.png'],diff,1,0.7000269999998636,3,0,
GUJU1708,train,pos,fs,posfs_id11_im10.bmp_posfs_id11_im1.bmp,['Im_BradPitt.png', 'Im_BenStiller.png', 'Im_JustinTimberlake.png', 'Im_DanielCraig.png', 'Im_GeorgeClooney.png', 'Im_PatrickDempsey.png', 'Im_DanielRadcliffe.png', 'Im_RobertPattinson.png', 'Im_LeonardoDiCaprio.png', 'Im_KeanuReeves.png'],same,1,0.7917123000006541,4,0,
GUJU1708,train,pos,fs,posfs_id5_im1.bmp_posfs_id5_im10.bmp,['Im_BradPitt.png', 'Im_BenStiller.png', 'Im_JustinTimberlake.png', 'Im_DanielCraig.png', 'Im_GeorgeClooney.png', 'Im_PatrickDempsey.png', 'Im_DanielRadcliffe.png', 'Im_RobertPattinson.png', 'Im_LeonardoDiCaprio.png', 'Im_KeanuReeves.png'],same,1,0.7167280000003302,5,0,
GUJU1708,train,pos,fs,posfs_id4_im7.bmp_posfs_id17_im9.bmp,['Im_BradPitt.png', 'Im_BenStiller.png', 'Im_JustinTimberlake.png', 'Im_DanielCraig.png', 'Im_GeorgeClooney.png', 'Im_PatrickDempsey.png', 'Im_DanielRadcliffe.png', 'Im_RobertPattinson.png', 'Im_LeonardoDiCaprio.png', 'Im_KeanuReeves.png'],diff,1,0.7334244999992734,6,0,
GUJU1708,train,pos,fs,posfs_id10_im1.bmp_posfs_id10_im18.bmp,['Im_BradPitt.png', 'Im_BenStiller.png', 'Im_JustinTimberlake.png', 'Im_DanielCraig.png', 'Im_GeorgeClooney.png', 'Im_PatrickDempsey.png', 'Im_DanielRadcliffe.png', 'Im_RobertPattinson.png', 'Im_LeonardoDiCaprio.png', 'Im_KeanuReeves.png'],same,1,1.2583420000000842,7,0,
GUJU1708,train,pos,fs,posfs_id2_im2.bmp_posfs_id5_im20.bmp,['Im_BradPitt.png', 'Im_BenStiller.png', 'Im_JustinTimberlake.png', 'Im_DanielCraig.png', 'Im_GeorgeClooney.png', 'Im_PatrickDempsey.png', 'Im_DanielRadcliffe.png', 'Im_RobertPattinson.png', 'Im_LeonardoDiCaprio.png', 'Im_KeanuReeves.png'],diff,1,3.2333362999997917,8,0,
GUJU1708,train,pos,fs,posfs_id10_im17.bmp_posfs_id10_im18.bmp,['Im_BradPitt.png', 'Im_BenStiller.png', 'Im_JustinTimberlake.png', 'Im_DanielCraig.png', 'Im_GeorgeClooney.png', 'Im_PatrickDempsey.png', 'Im_DanielRadcliffe.png', 'Im_RobertPattinson.png', 'Im_LeonardoDiCaprio.png', 'Im_KeanuReeves.png'],same,1,1.0585512999996354,9,0,
GUJU1708,train,pos,fs,posfs_id13_im15.bmp_posfs_id11_im1.bmp,['Im_BradPitt.png', 'Im_BenStiller.png', 'Im_JustinTimberlake.png', 'Im_DanielCraig.png', 'Im_GeorgeClooney.png', 'Im_PatrickDempsey.png', 'Im_DanielRadcliffe.png', 'Im_RobertPattinson.png', 'Im_LeonardoDiCaprio.png', 'Im_KeanuReeves.png'],diff,1,0.7998689999994895,10,0,
GUJU1708,train,pos,fs,posfs_id17_im8.bmp_posfs_id17_im9.bmp,['Im_BradPitt.png', 'Im_BenStiller.png', 'Im_JustinTimberlake.png', 'Im_DanielCraig.png', 'Im_GeorgeClooney.png', 'Im_PatrickDempsey.png', 'Im_DanielRadcliffe.png', 'Im_RobertPattinson.png', 'Im_LeonardoDiCaprio.png', 'Im_KeanuReeves.png'],same,1,0.7832511999995404,11,0,
GUJU1708,train,pos,fs,posfs_id13_im15.bmp_posfs_id13_im10.bmp,['Im_BradPitt.png', 'Im_BenStiller.png', 'Im_JustinTimberlake.png', 'Im_DanielCraig.png', 'Im_GeorgeClooney.png', 'Im_PatrickDempsey.png', 'Im_DanielRadcliffe.png', 'Im_RobertPattinson.png', 'Im_LeonardoDiCaprio.png', 'Im_KeanuReeves.png'],same,1,0.7749996000002284,12,0,
GUJU1708,train,pos,fs,posfs_id5_im10.bmp_posfs_id2_im2.bmp,['Im_BradPitt.png', 'Im_BenStiller.png', 'Im_JustinTimberlake.png', 'Im_DanielCraig.png', 'Im_GeorgeClooney.png', 'Im_PatrickDempsey.png', 'Im_DanielRadcliffe.png', 'Im_RobertPattinson.png', 'Im_LeonardoDiCaprio.png', 'Im_KeanuReeves.png'],diff,1,1.1499415999996927,13,0,
GUJU1708,train,pos,fs,posfs_id4_im7.bmp_posfs_id4_im20.bmp,['Im_BradPitt.png', 'Im_BenStiller.png', 'Im_JustinTimberlake.png', 'Im_DanielCraig.png', 'Im_GeorgeClooney.png', 'Im_PatrickDempsey.png', 'Im_DanielRadcliffe.png', 'Im_RobertPattinson.png', 'Im_LeonardoDiCaprio.png', 'Im_KeanuReeves.png'],same,1,0.7416915000003428,14,0,
GUJU1708,train,pos,fs,posfs_id2_im16.bmp_posfs_id2_im2.bmp,['Im_BradPitt.png', 'Im_BenStiller.png', 'Im_JustinTimberlake.png', 'Im_DanielCraig.png', 'Im_GeorgeClooney.png', 'Im_PatrickDempsey.png', 'Im_DanielRadcliffe.png', 'Im_RobertPattinson.png', 'Im_LeonardoDiCaprio.png', 'Im_KeanuReeves.png'],same,1,0.9000045000002501,15,0,
GUJU1708,train,pos,fs,posfs_id13_im10.bmp_posfs_id2_im16.bmp,['Im_BradPitt.png', 'Im_BenStiller.png', 'Im_JustinTimberlake.png', 'Im_DanielCraig.png', 'Im_GeorgeClooney.png', 'Im_PatrickDempsey.png', 'Im_DanielRadcliffe.png', 'Im_RobertPattinson.png', 'Im_LeonardoDiCaprio.png', 'Im_KeanuReeves.png'],diff,1,0.6248451999999816,16,0,
GUJU1708,train,pos,fs,posfs_id13_im15.bmp_posfs_id13_im29.bmp,['Im_BradPitt.png', 'Im_BenStiller.png', 'Im_JustinTimberlake.png', 'Im_DanielCraig.png', 'Im_GeorgeClooney.png', 'Im_PatrickDempsey.png', 'Im_DanielRadcliffe.png', 'Im_RobertPattinson.png', 'Im_LeonardoDiCaprio.png', 'Im_KeanuReeves.png'],same,1,1.0335693999995783,17,0,
GUJU1708,train,pos,fs,posfs_id17_im14.bmp_posfs_id11_im10.bmp,['Im_BradPitt.png', 'Im_BenStiller.png', 'Im_JustinTimberlake.png', 'Im_DanielCraig.png', 'Im_GeorgeClooney.png', 'Im_PatrickDempsey.png', 'Im_DanielRadcliffe.png', 'Im_RobertPattinson.png', 'Im_LeonardoDiCaprio.png', 'Im_KeanuReeves.png'],diff,1,0.9250998000006803,18,0,
GUJU1708,train,pos,fs,posfs_id5_im20.bmp_posfs_id13_im10.bmp,['Im_BradPitt.png', 'Im_BenStiller.png', 'Im_JustinTimberlake.png', 'Im_DanielCraig.png', 'Im_GeorgeClooney.png', 'Im_PatrickDempsey.png', 'Im_DanielRadcliffe.png', 'Im_RobertPattinson.png', 'Im_LeonardoDiCaprio.png', 'Im_KeanuReeves.png'],diff,1,1.2417231999997966,19,0,
GUJU1708,train,pos,fs,posfs_id3_im8.bmp_posfs_id3_im6.bmp,['Im_BradPitt.png', 'Im_BenStiller.png', 'Im_JustinTimberlake.png', 'Im_DanielCraig.png', 'Im_GeorgeClooney.png', 'Im_PatrickDempsey.png', 'Im_DanielRadcliffe.png', 'Im_RobertPattinson.png', 'Im_LeonardoDiCaprio.png', 'Im_KeanuReeves.png'],same,1,0.6416887000004863,20,0,
GUJU1708,train,pos,fs,posfs_id7_im26.bmp_posfs_id7_im15.bmp,['Im_BradPitt.png', 'Im_BenStiller.png', 'Im_JustinTimberlake.png', 'Im_DanielCraig.png', 'Im_GeorgeClooney.png', 'Im_PatrickDempsey.png', 'Im_DanielRadcliffe.png', 'Im_RobertPattinson.png', 'Im_LeonardoDiCaprio.png', 'Im_KeanuReeves.png'],same,1,0.7669882999998663,1,0,
GUJU1708,train,pos,fs,posfs_id11_im1.bmp_posfs_id13_im15.bmp,['Im_BradPitt.png', 'Im_BenStiller.png', 'Im_JustinTimberlake.png', 'Im_DanielCraig.png', 'Im_GeorgeClooney.png', 'Im_PatrickDempsey.png', 'Im_DanielRadcliffe.png', 'Im_RobertPattinson.png', 'Im_LeonardoDiCaprio.png', 'Im_KeanuReeves.png'],diff,1,1.0084609000005003,2,0,
GUJU1708,train,inv,fs,posfs_id4_im15.bmp_posfs_id19_im27.bmp,['Im_BradPitt.png', 'Im_BenStiller.png', 'Im_JustinTimberlake.png', 'Im_DanielCraig.png', 'Im_GeorgeClooney.png', 'Im_PatrickDempsey.png', 'Im_DanielRadcliffe.png', 'Im_RobertPattinson.png', 'Im_LeonardoDiCaprio.png', 'Im_KeanuReeves.png'],diff,1,0.5919112999999925,3,0,
GUJU1708,train,inv,fs,posfs_id17_im14.bmp_posfs_id11_im10.bmp,['Im_BradPitt.png', 'Im_BenStiller.png', 'Im_JustinTimberlake.png', 'Im_DanielCraig.png', 'Im_GeorgeClooney.png', 'Im_PatrickDempsey.png', 'Im_DanielRadcliffe.png', 'Im_RobertPattinson.png', 'Im_LeonardoDiCaprio.png', 'Im_KeanuReeves.png'],diff,1,1.5332830000006652,4,0,
GUJU1708,train,pos,fs,posfs_id4_im20.bmp_posfs_id4_im7.bmp,['Im_BradPitt.png', 'Im_BenStiller.png', 'Im_JustinTimberlake.png', 'Im_DanielCraig.png', 'Im_GeorgeClooney.png', 'Im_PatrickDempsey.png', 'Im_DanielRadcliffe.png', 'Im_RobertPattinson.png', 'Im_LeonardoDiCaprio.png', 'Im_KeanuReeves.png'],same,1,0.5341202999998131,5,0,
GUJU1708,train,inv,fs,posfs_id13_im29.bmp_posfs_id19_im8.bmp,['Im_BradPitt.png', 'Im_BenStiller.png', 'Im_JustinTimberlake.png', 'Im_DanielCraig.png', 'Im_GeorgeClooney.png', 'Im_PatrickDempsey.png', 'Im_DanielRadcliffe.png', 'Im_RobertPattinson.png', 'Im_LeonardoDiCaprio.png', 'Im_KeanuReeves.png'],same,0,3.516863900000317,5,0,
GUJU1708,train,pos,fs,posfs_id3_im6.bmp_posfs_id3_im17.bmp,['Im_BradPitt.png', 'Im_BenStiller.png', 'Im_JustinTimberlake.png', 'Im_DanielCraig.png', 'Im_GeorgeClooney.png', 'Im_PatrickDempsey.png', 'Im_DanielRadcliffe.png', 'Im_RobertPattinson.png', 'Im_LeonardoDiCaprio.png', 'Im_KeanuReeves.png'],same,1,0.5502297999992152,6,0,
GUJU1708,train,neg,fs,negfs_id13_im15.bmp_negfs_id13_im29.bmp,['Im_BradPitt.png', 'Im_BenStiller.png', 'Im_JustinTimberlake.png', 'Im_DanielCraig.png', 'Im_GeorgeClooney.png', 'Im_PatrickDempsey.png', 'Im_DanielRadcliffe.png', 'Im_RobertPattinson.png', 'Im_LeonardoDiCaprio.png', 'Im_KeanuReeves.png'],diff,0,1.4586860999988858,6,0,
GUJU1708,train,inv,fs,posfs_id5_im1.bmp_posfs_id5_im20.bmp,['Im_BradPitt.png', 'Im_BenStiller.png', 'Im_JustinTimberlake.png', 'Im_DanielCraig.png', 'Im_GeorgeClooney.png', 'Im_PatrickDempsey.png', 'Im_DanielRadcliffe.png', 'Im_RobertPattinson.png', 'Im_LeonardoDiCaprio.png', 'Im_KeanuReeves.png'],same,1,0.9000216999993427,7,0,
GUJU1708,train,neg,fs,negfs_id3_im17.bmp_negfs_id10_im1.bmp,['Im_BradPitt.png', 'Im_BenStiller.png', 'Im_JustinTimberlake.png', 'Im_DanielCraig.png', 'Im_GeorgeClooney.png', 'Im_PatrickDempsey.png', 'Im_DanielRadcliffe.png', 'Im_RobertPattinson.png', 'Im_LeonardoDiCaprio.png', 'Im_KeanuReeves.png'],diff,1,1.2500698000003467,8,0,
GUJU1708,train,pos,fs,posfs_id13_im10.bmp_posfs_id5_im20.bmp,['Im_BradPitt.png', 'Im_BenStiller.png', 'Im_JustinTimberlake.png', 'Im_DanielCraig.png', 'Im_GeorgeClooney.png', 'Im_PatrickDempsey.png', 'Im_DanielRadcliffe.png', 'Im_RobertPattinson.png', 'Im_LeonardoDiCaprio.png', 'Im_KeanuReeves.png'],diff,1,1.925226699999257,9,0,
GUJU1708,train,inv,fs,posfs_id7_im14.bmp_posfs_id4_im20.bmp,['Im_BradPitt.png', 'Im_BenStiller.png', 'Im_JustinTimberlake.png', 'Im_DanielCraig.png', 'Im_GeorgeClooney.png', 'Im_PatrickDempsey.png', 'Im_DanielRadcliffe.png', 'Im_RobertPattinson.png', 'Im_LeonardoDiCaprio.png', 'Im_KeanuReeves.png'],diff,1,0.7002921000002971,10,0,
GUJU1708,train,neg,fs,negfs_id13_im15.bmp_negfs_id13_im10.bmp,['Im_BradPitt.png', 'Im_BenStiller.png', 'Im_JustinTimberlake.png', 'Im_DanielCraig.png', 'Im_GeorgeClooney.png', 'Im_PatrickDempsey.png', 'Im_DanielRadcliffe.png', 'Im_RobertPattinson.png', 'Im_LeonardoDiCaprio.png', 'Im_KeanuReeves.png'],same,1,0.4250465000004624,11,0,
GUJU1708,train,neg,fs,negfs_id7_im15.bmp_negfs_id19_im4.bmp,['Im_BradPitt.png', 'Im_BenStiller.png', 'Im_JustinTimberlake.png', 'Im_DanielCraig.png', 'Im_GeorgeClooney.png', 'Im_PatrickDempsey.png', 'Im_DanielRadcliffe.png', 'Im_RobertPattinson.png', 'Im_LeonardoDiCaprio.png', 'Im_KeanuReeves.png'],diff,1,0.9083761999991111,12,0,
GUJU1708,train,inv,fs,posfs_id3_im6.bmp_posfs_id3_im8.bmp,['Im_BradPitt.png', 'Im_BenStiller.png', 'Im_JustinTimberlake.png', 'Im_DanielCraig.png', 'Im_GeorgeClooney.png', 'Im_PatrickDempsey.png', 'Im_DanielRadcliffe.png', 'Im_RobertPattinson.png', 'Im_LeonardoDiCaprio.png', 'Im_KeanuReeves.png'],same,1,0.4001026999994792,13,0,
GUJU1708,train,neg,fs,negfs_id2_im2.bmp_negfs_id5_im10.bmp,['Im_BradPitt.png', 'Im_BenStiller.png', 'Im_JustinTimberlake.png', 'Im_DanielCraig.png', 'Im_GeorgeClooney.png', 'Im_PatrickDempsey.png', 'Im_DanielRadcliffe.png', 'Im_RobertPattinson.png', 'Im_LeonardoDiCaprio.png', 'Im_KeanuReeves.png'],diff,1,0.43355570000130683,14,0,
GUJU1708,train,neg,fs,negfs_id5_im20.bmp_negfs_id5_im1.bmp,['Im_BradPitt.png', 'Im_BenStiller.png', 'Im_JustinTimberlake.png', 'Im_DanielCraig.png', 'Im_GeorgeClooney.png', 'Im_PatrickDempsey.png', 'Im_DanielRadcliffe.png', 'Im_RobertPattinson.png', 'Im_LeonardoDiCaprio.png', 'Im_KeanuReeves.png'],same,1,0.4250566999999137,15,0,
GUJU1708,train,inv,fs,posfs_id4_im15.bmp_posfs_id4_im7.bmp,['Im_BradPitt.png', 'Im_BenStiller.png', 'Im_JustinTimberlake.png', 'Im_DanielCraig.png', 'Im_GeorgeClooney.png', 'Im_PatrickDempsey.png', 'Im_DanielRadcliffe.png', 'Im_RobertPattinson.png', 'Im_LeonardoDiCaprio.png', 'Im_KeanuReeves.png'],same,1,0.6423788000010973,16,0,
GUJU1708,train,inv,fs,posfs_id7_im26.bmp_posfs_id7_im14.bmp,['Im_BradPitt.png', 'Im_BenStiller.png', 'Im_JustinTimberlake.png', 'Im_DanielCraig.png', 'Im_GeorgeClooney.png', 'Im_PatrickDempsey.png', 'Im_DanielRadcliffe.png', 'Im_RobertPattinson.png', 'Im_LeonardoDiCaprio.png', 'Im_KeanuReeves.png'],same,1,0.5333855000008043,17,0,
GUJU1708,train,neg,fs,negfs_id7_im14.bmp_negfs_id4_im20.bmp,['Im_BradPitt.png', 'Im_BenStiller.png', 'Im_JustinTimberlake.png', 'Im_DanielCraig.png', 'Im_GeorgeClooney.png', 'Im_PatrickDempsey.png', 'Im_DanielRadcliffe.png', 'Im_RobertPattinson.png', 'Im_LeonardoDiCaprio.png', 'Im_KeanuReeves.png'],diff,1,0.4669200999996974,18,0,
GUJU1708,train,pos,fs,posfs_id17_im14.bmp_posfs_id11_im10.bmp,['Im_BradPitt.png', 'Im_BenStiller.png', 'Im_JustinTimberlake.png', 'Im_DanielCraig.png', 'Im_GeorgeClooney.png', 'Im_PatrickDempsey.png', 'Im_DanielRadcliffe.png', 'Im_RobertPattinson.png', 'Im_LeonardoDiCaprio.png', 'Im_KeanuReeves.png'],diff,1,0.4250673000005918,1,0,
GUJU1708,train,pos,120,pos120_id13_im29.bmp_pos120_id19_im8.bmp,['Im_BradPitt.png', 'Im_BenStiller.png', 'Im_JustinTimberlake.png', 'Im_DanielCraig.png', 'Im_GeorgeClooney.png', 'Im_PatrickDempsey.png', 'Im_DanielRadcliffe.png', 'Im_RobertPattinson.png', 'Im_LeonardoDiCaprio.png', 'Im_KeanuReeves.png'],diff,1,0.7085815999998886,2,0,
GUJU1708,train,pos,120,pos120_id13_im15.bmp_pos120_id13_im29.bmp,['Im_BradPitt.png', 'Im_BenStiller.png', 'Im_JustinTimberlake.png', 'Im_DanielCraig.png', 'Im_GeorgeClooney.png', 'Im_PatrickDempsey.png', 'Im_DanielRadcliffe.png', 'Im_RobertPattinson.png', 'Im_LeonardoDiCaprio.png', 'Im_KeanuReeves.png'],same,1,0.4752396999992925,3,0,
GUJU1708,train,pos,90,pos90_id13_im10.bmp_pos90_id5_im20.bmp,['Im_BradPitt.png', 'Im_BenStiller.png', 'Im_JustinTimberlake.png', 'Im_DanielCraig.png', 'Im_GeorgeClooney.png', 'Im_PatrickDempsey.png', 'Im_DanielRadcliffe.png', 'Im_RobertPattinson.png', 'Im_LeonardoDiCaprio.png', 'Im_KeanuReeves.png'],diff,1,0.4080186999999569,4,0,
GUJU1708,train,pos,150,pos150_id2_im16.bmp_pos150_id13_im10.bmp,['Im_BradPitt.png', 'Im_BenStiller.png', 'Im_JustinTimberlake.png', 'Im_DanielCraig.png', 'Im_GeorgeClooney.png', 'Im_PatrickDempsey.png', 'Im_DanielRadcliffe.png', 'Im_RobertPattinson.png', 'Im_LeonardoDiCaprio.png', 'Im_KeanuReeves.png'],diff,1,0.4165482000007614,5,0,
GUJU1708,train,pos,60,pos60_id3_im8.bmp_pos60_id7_im26.bmp,['Im_BradPitt.png', 'Im_BenStiller.png', 'Im_JustinTimberlake.png', 'Im_DanielCraig.png', 'Im_GeorgeClooney.png', 'Im_PatrickDempsey.png', 'Im_DanielRadcliffe.png', 'Im_RobertPattinson.png', 'Im_LeonardoDiCaprio.png', 'Im_KeanuReeves.png'],diff,1,1.2916365000000951,6,0,
GUJU1708,train,pos,0,pos0_id10_im18.bmp_pos0_id10_im1.bmp,['Im_BradPitt.png', 'Im_BenStiller.png', 'Im_JustinTimberlake.png', 'Im_DanielCraig.png', 'Im_GeorgeClooney.png', 'Im_PatrickDempsey.png', 'Im_DanielRadcliffe.png', 'Im_RobertPattinson.png', 'Im_LeonardoDiCaprio.png', 'Im_KeanuReeves.png'],same,1,0.40842739999970945,7,0,
GUJU1708,train,pos,30,pos30_id5_im20.bmp_pos30_id13_im10.bmp,['Im_BradPitt.png', 'Im_BenStiller.png', 'Im_JustinTimberlake.png', 'Im_DanielCraig.png', 'Im_GeorgeClooney.png', 'Im_PatrickDempsey.png', 'Im_DanielRadcliffe.png', 'Im_RobertPattinson.png', 'Im_LeonardoDiCaprio.png', 'Im_KeanuReeves.png'],diff,1,0.7917852999999013,8,0,
GUJU1708,train,pos,30,pos30_id4_im7.bmp_pos30_id17_im8.bmp,['Im_BradPitt.png', 'Im_BenStiller.png', 'Im_JustinTimberlake.png', 'Im_DanielCraig.png', 'Im_GeorgeClooney.png', 'Im_PatrickDempsey.png', 'Im_DanielRadcliffe.png', 'Im_RobertPattinson.png', 'Im_LeonardoDiCaprio.png', 'Im_KeanuReeves.png'],diff,1,0.4334186000014597,9,0,
GUJU1708,train,pos,60,pos60_id4_im15.bmp_pos60_id4_im7.bmp,['Im_BradPitt.png', 'Im_BenStiller.png', 'Im_JustinTimberlake.png', 'Im_DanielCraig.png', 'Im_GeorgeClooney.png', 'Im_PatrickDempsey.png', 'Im_DanielRadcliffe.png', 'Im_RobertPattinson.png', 'Im_LeonardoDiCaprio.png', 'Im_KeanuReeves.png'],same,1,0.42506669999966107,10,0,
GUJU1708,train,pos,0,pos0_id2_im3.bmp_pos0_id4_im20.bmp,['Im_BradPitt.png', 'Im_BenStiller.png', 'Im_JustinTimberlake.png', 'Im_DanielCraig.png', 'Im_GeorgeClooney.png', 'Im_PatrickDempsey.png', 'Im_DanielRadcliffe.png', 'Im_RobertPattinson.png', 'Im_LeonardoDiCaprio.png', 'Im_KeanuReeves.png'],diff,1,0.6584024999992835,11,0,
GUJU1708,train,pos,90,pos90_id5_im1.bmp_pos90_id5_im20.bmp,['Im_BradPitt.png', 'Im_BenStiller.png', 'Im_JustinTimberlake.png', 'Im_DanielCraig.png', 'Im_GeorgeClooney.png', 'Im_PatrickDempsey.png', 'Im_DanielRadcliffe.png', 'Im_RobertPattinson.png', 'Im_LeonardoDiCaprio.png', 'Im_KeanuReeves.png'],same,1,0.40840709999974933,12,0,
GUJU1708,train,pos,fs,posfs_id13_im29.bmp_posfs_id13_im15.bmp,['Im_BradPitt.png', 'Im_BenStiller.png', 'Im_JustinTimberlake.png', 'Im_DanielCraig.png', 'Im_GeorgeClooney.png', 'Im_PatrickDempsey.png', 'Im_DanielRadcliffe.png', 'Im_RobertPattinson.png', 'Im_LeonardoDiCaprio.png', 'Im_KeanuReeves.png'],same,1,0.41681600000083563,13,0,
GUJU1708,train,pos,150,pos150_id4_im20.bmp_pos150_id2_im3.bmp,['Im_BradPitt.png', 'Im_BenStiller.png', 'Im_JustinTimberlake.png', 'Im_DanielCraig.png', 'Im_GeorgeClooney.png', 'Im_PatrickDempsey.png', 'Im_DanielRadcliffe.png', 'Im_RobertPattinson.png', 'Im_LeonardoDiCaprio.png', 'Im_KeanuReeves.png'],diff,1,0.6424050000005082,14,0,
GUJU1708,train,inv,90,pos90_id11_im1.bmp_pos90_id13_im15.bmp,['Im_BradPitt.png', 'Im_BenStiller.png', 'Im_JustinTimberlake.png', 'Im_DanielCraig.png', 'Im_GeorgeClooney.png', 'Im_PatrickDempsey.png', 'Im_DanielRadcliffe.png', 'Im_RobertPattinson.png', 'Im_LeonardoDiCaprio.png', 'Im_KeanuReeves.png'],same,0,0.4083941999997478,14,0,
GUJU1708,train,inv,90,pos90_id5_im20.bmp_pos90_id2_im2.bmp,['Im_BradPitt.png', 'Im_BenStiller.png', 'Im_JustinTimberlake.png', 'Im_DanielCraig.png', 'Im_GeorgeClooney.png', 'Im_PatrickDempsey.png', 'Im_DanielRadcliffe.png', 'Im_RobertPattinson.png', 'Im_LeonardoDiCaprio.png', 'Im_KeanuReeves.png'],diff,1,0.5419281000013143,15,0,
GUJU1708,train,inv,60,pos60_id2_im2.bmp_pos60_id5_im20.bmp,['Im_BradPitt.png', 'Im_BenStiller.png', 'Im_JustinTimberlake.png', 'Im_DanielCraig.png', 'Im_GeorgeClooney.png', 'Im_PatrickDempsey.png', 'Im_DanielRadcliffe.png', 'Im_RobertPattinson.png', 'Im_LeonardoDiCaprio.png', 'Im_KeanuReeves.png'],diff,1,0.9413012000004528,16,0,
GUJU1708,train,inv,60,pos60_id4_im7.bmp_pos60_id17_im9.bmp,['Im_BradPitt.png', 'Im_BenStiller.png', 'Im_JustinTimberlake.png', 'Im_DanielCraig.png', 'Im_GeorgeClooney.png', 'Im_PatrickDempsey.png', 'Im_DanielRadcliffe.png', 'Im_RobertPattinson.png', 'Im_LeonardoDiCaprio.png', 'Im_KeanuReeves.png'],diff,1,0.6086149000002479,17,0,
GUJU1708,train,inv,30,pos30_id4_im15.bmp_pos30_id5_im1.bmp,['Im_BradPitt.png', 'Im_BenStiller.png', 'Im_JustinTimberlake.png', 'Im_DanielCraig.png', 'Im_GeorgeClooney.png', 'Im_PatrickDempsey.png', 'Im_DanielRadcliffe.png', 'Im_RobertPattinson.png', 'Im_LeonardoDiCaprio.png', 'Im_KeanuReeves.png'],diff,1,0.4670564000007289,18,0,
GUJU1708,train,inv,120,pos120_id19_im27.bmp_pos120_id4_im15.bmp,['Im_BradPitt.png', 'Im_BenStiller.png', 'Im_JustinTimberlake.png', 'Im_DanielCraig.png', 'Im_GeorgeClooney.png', 'Im_PatrickDempsey.png', 'Im_DanielRadcliffe.png', 'Im_RobertPattinson.png', 'Im_LeonardoDiCaprio.png', 'Im_KeanuReeves.png'],diff,1,0.4582534000001033,19,0,
GUJU1708,train,inv,fs,posfs_id3_im6.bmp_posfs_id10_im17.bmp,['Im_BradPitt.png', 'Im_BenStiller.png', 'Im_JustinTimberlake.png', 'Im_DanielCraig.png', 'Im_GeorgeClooney.png', 'Im_PatrickDempsey.png', 'Im_DanielRadcliffe.png', 'Im_RobertPattinson.png', 'Im_LeonardoDiCaprio.png', 'Im_KeanuReeves.png'],diff,1,0.4750442999993538,20,0,
GUJU1708,train,inv,150,pos150_id4_im20.bmp_pos150_id4_im7.bmp,['Im_BradPitt.png', 'Im_BenStiller.png', 'Im_JustinTimberlake.png', 'Im_DanielCraig.png', 'Im_GeorgeClooney.png', 'Im_PatrickDempsey.png', 'Im_DanielRadcliffe.png', 'Im_RobertPattinson.png', 'Im_LeonardoDiCaprio.png', 'Im_KeanuReeves.png'],same,1,0.4084333999999217,21,0,
GUJU1708,train,inv,0,pos0_id10_im17.bmp_pos0_id17_im8.bmp,['Im_BradPitt.png', 'Im_BenStiller.png', 'Im_JustinTimberlake.png', 'Im_DanielCraig.png', 'Im_GeorgeClooney.png', 'Im_PatrickDempsey.png', 'Im_DanielRadcliffe.png', 'Im_RobertPattinson.png', 'Im_LeonardoDiCaprio.png', 'Im_KeanuReeves.png'],diff,1,0.6170356999991782,22,0,
GUJU1708,train,inv,fs,posfs_id2_im2.bmp_posfs_id5_im20.bmp,['Im_BradPitt.png', 'Im_BenStiller.png', 'Im_JustinTimberlake.png', 'Im_DanielCraig.png', 'Im_GeorgeClooney.png', 'Im_PatrickDempsey.png', 'Im_DanielRadcliffe.png', 'Im_RobertPattinson.png', 'Im_LeonardoDiCaprio.png', 'Im_KeanuReeves.png'],diff,1,0.4836155000011786,23,0,
GUJU1708,train,inv,150,pos150_id7_im15.bmp_pos150_id19_im4.bmp,['Im_BradPitt.png', 'Im_BenStiller.png', 'Im_JustinTimberlake.png', 'Im_DanielCraig.png', 'Im_GeorgeClooney.png', 'Im_PatrickDempsey.png', 'Im_DanielRadcliffe.png', 'Im_RobertPattinson.png', 'Im_LeonardoDiCaprio.png', 'Im_KeanuReeves.png'],same,0,0.41662580000047456,23,0,
GUJU1708,train,inv,30,pos30_id2_im16.bmp_pos30_id7_im15.bmp,['Im_BradPitt.png', 'Im_BenStiller.png', 'Im_JustinTimberlake.png', 'Im_DanielCraig.png', 'Im_GeorgeClooney.png', 'Im_PatrickDempsey.png', 'Im_DanielRadcliffe.png', 'Im_RobertPattinson.png', 'Im_LeonardoDiCaprio.png', 'Im_KeanuReeves.png'],diff,1,0.733369199999288,24,0,
GUJU1708,train,inv,120,pos120_id3_im6.bmp_pos120_id3_im8.bmp,['Im_BradPitt.png', 'Im_BenStiller.png', 'Im_JustinTimberlake.png', 'Im_DanielCraig.png', 'Im_GeorgeClooney.png', 'Im_PatrickDempsey.png', 'Im_DanielRadcliffe.png', 'Im_RobertPattinson.png', 'Im_LeonardoDiCaprio.png', 'Im_KeanuReeves.png'],same,1,1.041443000000072,25,0,
GUJU1708,train,inv,0,pos0_id19_im27.bmp_pos0_id11_im10.bmp,['Im_BradPitt.png', 'Im_BenStiller.png', 'Im_JustinTimberlake.png', 'Im_DanielCraig.png', 'Im_GeorgeClooney.png', 'Im_PatrickDempsey.png', 'Im_DanielRadcliffe.png', 'Im_RobertPattinson.png', 'Im_LeonardoDiCaprio.png', 'Im_KeanuReeves.png'],diff,1,0.43359290000080364,26,0,
GUJU1708,train,neg,120,neg120_id3_im6.bmp_neg120_id17_im9.bmp,['Im_BradPitt.png', 'Im_BenStiller.png', 'Im_JustinTimberlake.png', 'Im_DanielCraig.png', 'Im_GeorgeClooney.png', 'Im_PatrickDempsey.png', 'Im_DanielRadcliffe.png', 'Im_RobertPattinson.png', 'Im_LeonardoDiCaprio.png', 'Im_KeanuReeves.png'],diff,1,0.5333530000007158,27,0,
GUJU1708,train,neg,120,neg120_id19_im8.bmp_neg120_id11_im1.bmp,['Im_BradPitt.png', 'Im_BenStiller.png', 'Im_JustinTimberlake.png', 'Im_DanielCraig.png', 'Im_GeorgeClooney.png', 'Im_PatrickDempsey.png', 'Im_DanielRadcliffe.png', 'Im_RobertPattinson.png', 'Im_LeonardoDiCaprio.png', 'Im_KeanuReeves.png'],diff,1,0.4334734000003664,28,0,
GUJU1708,train,neg,90,neg90_id4_im7.bmp_neg90_id4_im20.bmp,['Im_BradPitt.png', 'Im_BenStiller.png', 'Im_JustinTimberlake.png', 'Im_DanielCraig.png', 'Im_GeorgeClooney.png', 'Im_PatrickDempsey.png', 'Im_DanielRadcliffe.png', 'Im_RobertPattinson.png', 'Im_LeonardoDiCaprio.png', 'Im_KeanuReeves.png'],same,1,0.4249937000004138,29,0,
GUJU1708,train,neg,60,neg60_id19_im8.bmp_neg60_id19_im4.bmp,['Im_BradPitt.png', 'Im_BenStiller.png', 'Im_JustinTimberlake.png', 'Im_DanielCraig.png', 'Im_GeorgeClooney.png', 'Im_PatrickDempsey.png', 'Im_DanielRadcliffe.png', 'Im_RobertPattinson.png', 'Im_LeonardoDiCaprio.png', 'Im_KeanuReeves.png'],diff,0,0.5500935000000027,29,0,
GUJU1708,train,neg,0,neg0_id7_im14.bmp_neg0_id7_im15.bmp,['Im_BradPitt.png', 'Im_BenStiller.png', 'Im_JustinTimberlake.png', 'Im_DanielCraig.png', 'Im_GeorgeClooney.png', 'Im_PatrickDempsey.png', 'Im_DanielRadcliffe.png', 'Im_RobertPattinson.png', 'Im_LeonardoDiCaprio.png', 'Im_KeanuReeves.png'],same,1,0.4251038000002154,30,0,
GUJU1708,train,neg,0,neg0_id3_im8.bmp_neg0_id7_im26.bmp,['Im_BradPitt.png', 'Im_BenStiller.png', 'Im_JustinTimberlake.png', 'Im_DanielCraig.png', 'Im_GeorgeClooney.png', 'Im_PatrickDempsey.png', 'Im_DanielRadcliffe.png', 'Im_RobertPattinson.png', 'Im_LeonardoDiCaprio.png', 'Im_KeanuReeves.png'],diff,1,1.8417841000009503,31,0,
GUJU1708,train,neg,fs,negfs_id7_im14.bmp_negfs_id7_im26.bmp,['Im_BradPitt.png', 'Im_BenStiller.png', 'Im_JustinTimberlake.png', 'Im_DanielCraig.png', 'Im_GeorgeClooney.png', 'Im_PatrickDempsey.png', 'Im_DanielRadcliffe.png', 'Im_RobertPattinson.png', 'Im_LeonardoDiCaprio.png', 'Im_KeanuReeves.png'],same,1,0.425213900000017,32,0,
GUJU1708,train,neg,fs,negfs_id17_im9.bmp_negfs_id17_im14.bmp,['Im_BradPitt.png', 'Im_BenStiller.png', 'Im_JustinTimberlake.png', 'Im_DanielCraig.png', 'Im_GeorgeClooney.png', 'Im_PatrickDempsey.png', 'Im_DanielRadcliffe.png', 'Im_RobertPattinson.png', 'Im_LeonardoDiCaprio.png', 'Im_KeanuReeves.png'],same,1,0.416616200000135,33,0,
GUJU1708,train,neg,30,neg30_id19_im27.bmp_neg30_id19_im8.bmp,['Im_BradPitt.png', 'Im_BenStiller.png', 'Im_JustinTimberlake.png', 'Im_DanielCraig.png', 'Im_GeorgeClooney.png', 'Im_PatrickDempsey.png', 'Im_DanielRadcliffe.png', 'Im_RobertPattinson.png', 'Im_LeonardoDiCaprio.png', 'Im_KeanuReeves.png'],same,1,0.41661849999945844,34,0,
GUJU1708,train,neg,150,neg150_id5_im10.bmp_neg150_id2_im2.bmp,['Im_BradPitt.png', 'Im_BenStiller.png', 'Im_JustinTimberlake.png', 'Im_DanielCraig.png', 'Im_GeorgeClooney.png', 'Im_PatrickDempsey.png', 'Im_DanielRadcliffe.png', 'Im_RobertPattinson.png', 'Im_LeonardoDiCaprio.png', 'Im_KeanuReeves.png'],diff,1,0.46679409999887866,35,0,
GUJU1708,train,neg,60,neg60_id4_im7.bmp_neg60_id17_im9.bmp,['Im_BradPitt.png', 'Im_BenStiller.png', 'Im_JustinTimberlake.png', 'Im_DanielCraig.png', 'Im_GeorgeClooney.png', 'Im_PatrickDempsey.png', 'Im_DanielRadcliffe.png', 'Im_RobertPattinson.png', 'Im_LeonardoDiCaprio.png', 'Im_KeanuReeves.png'],diff,1,0.525214600000254,36,0,
GUJU1708,train,neg,90,neg90_id13_im10.bmp_neg90_id13_im29.bmp,['Im_BradPitt.png', 'Im_BenStiller.png', 'Im_JustinTimberlake.png', 'Im_DanielCraig.png', 'Im_GeorgeClooney.png', 'Im_PatrickDempsey.png', 'Im_DanielRadcliffe.png', 'Im_RobertPattinson.png', 'Im_LeonardoDiCaprio.png', 'Im_KeanuReeves.png'],same,1,0.4083684999986872,37,0,
GUJU1708,train,neg,150,neg150_id11_im1.bmp_neg150_id11_im2.bmp,['Im_BradPitt.png', 'Im_BenStiller.png', 'Im_JustinTimberlake.png', 'Im_DanielCraig.png', 'Im_GeorgeClooney.png', 'Im_PatrickDempsey.png', 'Im_DanielRadcliffe.png', 'Im_RobertPattinson.png', 'Im_LeonardoDiCaprio.png', 'Im_KeanuReeves.png'],diff,0,0.40850329999921087,37,0,
GUJU1708,train,neg,30,neg30_id5_im20.bmp_neg30_id5_im1.bmp,['Im_BradPitt.png', 'Im_BenStiller.png', 'Im_JustinTimberlake.png', 'Im_DanielCraig.png', 'Im_GeorgeClooney.png', 'Im_PatrickDempsey.png', 'Im_DanielRadcliffe.png', 'Im_RobertPattinson.png', 'Im_LeonardoDiCaprio.png', 'Im_KeanuReeves.png'],same,1,0.4083811999989848,38,0,
GUJU1708,train,neg,120,neg120_id19_im8.bmp_neg120_id13_im29.bmp,['Im_BradPitt.png', 'Im_BenStiller.png', 'Im_JustinTimberlake.png', 'Im_DanielCraig.png', 'Im_GeorgeClooney.png', 'Im_PatrickDempsey.png', 'Im_DanielRadcliffe.png', 'Im_RobertPattinson.png', 'Im_LeonardoDiCaprio.png', 'Im_KeanuReeves.png'],diff,1,0.4167228000005707,1,90.47619047619048,
GUJU1708,train,neg,fs,negfs_id19_im4.bmp_negfs_id19_im27.bmp,['Im_BradPitt.png', 'Im_BenStiller.png', 'Im_JustinTimberlake.png', 'Im_DanielCraig.png', 'Im_GeorgeClooney.png', 'Im_PatrickDempsey.png', 'Im_DanielRadcliffe.png', 'Im_RobertPattinson.png', 'Im_LeonardoDiCaprio.png', 'Im_KeanuReeves.png'],diff,0,1.0667158000014751,1,90.47619047619048,
GUJU1708,train,neg,90,neg90_id11_im2.bmp_neg90_id3_im17.bmp,['Im_BradPitt.png', 'Im_BenStiller.png', 'Im_JustinTimberlake.png', 'Im_DanielCraig.png', 'Im_GeorgeClooney.png', 'Im_PatrickDempsey.png', 'Im_DanielRadcliffe.png', 'Im_RobertPattinson.png', 'Im_LeonardoDiCaprio.png', 'Im_KeanuReeves.png'],diff,1,0.5585102999993978,2,90.47619047619048,
GUJU1708,train,neg,0,neg0_id10_im17.bmp_neg0_id10_im18.bmp,['Im_BradPitt.png', 'Im_BenStiller.png', 'Im_JustinTimberlake.png', 'Im_DanielCraig.png', 'Im_GeorgeClooney.png', 'Im_PatrickDempsey.png', 'Im_DanielRadcliffe.png', 'Im_RobertPattinson.png', 'Im_LeonardoDiCaprio.png', 'Im_KeanuReeves.png'],same,1,0.425067999998646,3,90.47619047619048,
GUJU1708,train,neg,30,neg30_id13_im15.bmp_neg30_id13_im29.bmp,['Im_BradPitt.png', 'Im_BenStiller.png', 'Im_JustinTimberlake.png', 'Im_DanielCraig.png', 'Im_GeorgeClooney.png', 'Im_PatrickDempsey.png', 'Im_DanielRadcliffe.png', 'Im_RobertPattinson.png', 'Im_LeonardoDiCaprio.png', 'Im_KeanuReeves.png'],diff,0,0.41679389999990235,3,90.47619047619048,
GUJU1708,train,neg,150,neg150_id10_im17.bmp_neg150_id3_im6.bmp,['Im_BradPitt.png', 'Im_BenStiller.png', 'Im_JustinTimberlake.png', 'Im_DanielCraig.png', 'Im_GeorgeClooney.png', 'Im_PatrickDempsey.png', 'Im_DanielRadcliffe.png', 'Im_RobertPattinson.png', 'Im_LeonardoDiCaprio.png', 'Im_KeanuReeves.png'],diff,1,0.4749807999996847,4,90.47619047619048,
GUJU1708,train,neg,0,neg0_id13_im15.bmp_neg0_id5_im10.bmp,['Im_BradPitt.png', 'Im_BenStiller.png', 'Im_JustinTimberlake.png', 'Im_DanielCraig.png', 'Im_GeorgeClooney.png', 'Im_PatrickDempsey.png', 'Im_DanielRadcliffe.png', 'Im_RobertPattinson.png', 'Im_LeonardoDiCaprio.png', 'Im_KeanuReeves.png'],diff,1,0.5915982000005897,5,90.47619047619048,
GUJU1708,train,neg,90,neg90_id5_im10.bmp_neg90_id2_im2.bmp,['Im_BradPitt.png', 'Im_BenStiller.png', 'Im_JustinTimberlake.png', 'Im_DanielCraig.png', 'Im_GeorgeClooney.png', 'Im_PatrickDempsey.png', 'Im_DanielRadcliffe.png', 'Im_RobertPattinson.png', 'Im_LeonardoDiCaprio.png', 'Im_KeanuReeves.png'],diff,1,0.44166320000113046,6,90.47619047619048,
GUJU1708,train,neg,30,neg30_id3_im6.bmp_neg30_id17_im9.bmp,['Im_BradPitt.png', 'Im_BenStiller.png', 'Im_JustinTimberlake.png', 'Im_DanielCraig.png', 'Im_GeorgeClooney.png', 'Im_PatrickDempsey.png', 'Im_DanielRadcliffe.png', 'Im_RobertPattinson.png', 'Im_LeonardoDiCaprio.png', 'Im_KeanuReeves.png'],same,0,0.7249864000004891,6,90.47619047619048,
GUJU1708,train,neg,60,neg60_id19_im27.bmp_neg60_id19_im4.bmp,['Im_BradPitt.png', 'Im_BenStiller.png', 'Im_JustinTimberlake.png', 'Im_DanielCraig.png', 'Im_GeorgeClooney.png', 'Im_PatrickDempsey.png', 'Im_DanielRadcliffe.png', 'Im_RobertPattinson.png', 'Im_LeonardoDiCaprio.png', 'Im_KeanuReeves.png'],diff,0,0.4583431999999448,6,90.47619047619048,
GUJU1708,train,neg,60,neg60_id17_im9.bmp_neg60_id17_im14.bmp,['Im_BradPitt.png', 'Im_BenStiller.png', 'Im_JustinTimberlake.png', 'Im_DanielCraig.png', 'Im_GeorgeClooney.png', 'Im_PatrickDempsey.png', 'Im_DanielRadcliffe.png', 'Im_RobertPattinson.png', 'Im_LeonardoDiCaprio.png', 'Im_KeanuReeves.png'],same,1,0.6834710000002815,7,90.47619047619048,
GUJU1708,train,neg,120,neg120_id13_im10.bmp_neg120_id13_im15.bmp,['Im_BradPitt.png', 'Im_BenStiller.png', 'Im_JustinTimberlake.png', 'Im_DanielCraig.png', 'Im_GeorgeClooney.png', 'Im_PatrickDempsey.png', 'Im_DanielRadcliffe.png', 'Im_RobertPattinson.png', 'Im_LeonardoDiCaprio.png', 'Im_KeanuReeves.png'],same,1,0.40830970000024536,8,90.47619047619048,
GUJU1708,train,neg,fs,negfs_id11_im2.bmp_negfs_id10_im18.bmp,['Im_BradPitt.png', 'Im_BenStiller.png', 'Im_JustinTimberlake.png', 'Im_DanielCraig.png', 'Im_GeorgeClooney.png', 'Im_PatrickDempsey.png', 'Im_DanielRadcliffe.png', 'Im_RobertPattinson.png', 'Im_LeonardoDiCaprio.png', 'Im_KeanuReeves.png'],diff,1,0.59232990000055,9,90.47619047619048,
GUJU1708,train,neg,150,neg150_id17_im8.bmp_neg150_id17_im9.bmp,['Im_BradPitt.png', 'Im_BenStiller.png', 'Im_JustinTimberlake.png', 'Im_DanielCraig.png', 'Im_GeorgeClooney.png', 'Im_PatrickDempsey.png', 'Im_DanielRadcliffe.png', 'Im_RobertPattinson.png', 'Im_LeonardoDiCaprio.png', 'Im_KeanuReeves.png'],same,1,0.416674600000988,10,90.47619047619048,
GUJU1708,train,pos,120,pos120_id10_im18.bmp_pos120_id10_im17.bmp,['Im_BradPitt.png', 'Im_BenStiller.png', 'Im_JustinTimberlake.png', 'Im_DanielCraig.png', 'Im_GeorgeClooney.png', 'Im_PatrickDempsey.png', 'Im_DanielRadcliffe.png', 'Im_RobertPattinson.png', 'Im_LeonardoDiCaprio.png', 'Im_KeanuReeves.png'],same,1,0.6584517000010237,11,90.47619047619048,
GUJU1708,train,pos,60,pos60_id2_im3.bmp_pos60_id10_im18.bmp,['Im_BradPitt.png', 'Im_BenStiller.png', 'Im_JustinTimberlake.png', 'Im_DanielCraig.png', 'Im_GeorgeClooney.png', 'Im_PatrickDempsey.png', 'Im_DanielRadcliffe.png', 'Im_RobertPattinson.png', 'Im_LeonardoDiCaprio.png', 'Im_KeanuReeves.png'],diff,1,0.8332489000003989,12,90.47619047619048,
GUJU1708,train,pos,30,pos30_id5_im20.bmp_pos30_id5_im1.bmp,['Im_BradPitt.png', 'Im_BenStiller.png', 'Im_JustinTimberlake.png', 'Im_DanielCraig.png', 'Im_GeorgeClooney.png', 'Im_PatrickDempsey.png', 'Im_DanielRadcliffe.png', 'Im_RobertPattinson.png', 'Im_LeonardoDiCaprio.png', 'Im_KeanuReeves.png'],diff,0,0.8083546999987448,12,90.47619047619048,
GUJU1708,train,pos,fs,posfs_id13_im10.bmp_posfs_id5_im20.bmp,['Im_BradPitt.png', 'Im_BenStiller.png', 'Im_JustinTimberlake.png', 'Im_DanielCraig.png', 'Im_GeorgeClooney.png', 'Im_PatrickDempsey.png', 'Im_DanielRadcliffe.png', 'Im_RobertPattinson.png', 'Im_LeonardoDiCaprio.png', 'Im_KeanuReeves.png'],diff,1,1.5416738000003534,13,90.47619047619048,
GUJU1708,train,pos,0,pos0_id2_im2.bmp_pos0_id2_im16.bmp,['Im_BradPitt.png', 'Im_BenStiller.png', 'Im_JustinTimberlake.png', 'Im_DanielCraig.png', 'Im_GeorgeClooney.png', 'Im_PatrickDempsey.png', 'Im_DanielRadcliffe.png', 'Im_RobertPattinson.png', 'Im_LeonardoDiCaprio.png', 'Im_KeanuReeves.png'],same,1,0.4166700999994646,14,90.47619047619048,
GUJU1708,train,pos,150,pos150_id2_im16.bmp_pos150_id7_im15.bmp,['Im_BradPitt.png', 'Im_BenStiller.png', 'Im_JustinTimberlake.png', 'Im_DanielCraig.png', 'Im_GeorgeClooney.png', 'Im_PatrickDempsey.png', 'Im_DanielRadcliffe.png', 'Im_RobertPattinson.png', 'Im_LeonardoDiCaprio.png', 'Im_KeanuReeves.png'],diff,1,0.5583057000003464,15,90.47619047619048,
GUJU1708,train,pos,120,pos120_id2_im16.bmp_pos120_id13_im10.bmp,['Im_BradPitt.png', 'Im_BenStiller.png', 'Im_JustinTimberlake.png', 'Im_DanielCraig.png', 'Im_GeorgeClooney.png', 'Im_PatrickDempsey.png', 'Im_DanielRadcliffe.png', 'Im_RobertPattinson.png', 'Im_LeonardoDiCaprio.png', 'Im_KeanuReeves.png'],diff,1,0.4084700999992492,16,90.47619047619048,
GUJU1708,train,pos,fs,posfs_id3_im6.bmp_posfs_id3_im8.bmp,['Im_BradPitt.png', 'Im_BenStiller.png', 'Im_JustinTimberlake.png', 'Im_DanielCraig.png', 'Im_GeorgeClooney.png', 'Im_PatrickDempsey.png', 'Im_DanielRadcliffe.png', 'Im_RobertPattinson.png', 'Im_LeonardoDiCaprio.png', 'Im_KeanuReeves.png'],same,1,0.4083895999992819,17,90.47619047619048,
GUJU1708,train,pos,150,pos150_id19_im4.bmp_pos150_id7_im26.bmp,['Im_BradPitt.png', 'Im_BenStiller.png', 'Im_JustinTimberlake.png', 'Im_DanielCraig.png', 'Im_GeorgeClooney.png', 'Im_PatrickDempsey.png', 'Im_DanielRadcliffe.png', 'Im_RobertPattinson.png', 'Im_LeonardoDiCaprio.png', 'Im_KeanuReeves.png'],diff,1,0.40862600000036764,18,90.47619047619048,
GUJU1708,train,pos,0,pos0_id7_im14.bmp_pos0_id13_im29.bmp,['Im_BradPitt.png', 'Im_BenStiller.png', 'Im_JustinTimberlake.png', 'Im_DanielCraig.png', 'Im_GeorgeClooney.png', 'Im_PatrickDempsey.png', 'Im_DanielRadcliffe.png', 'Im_RobertPattinson.png', 'Im_LeonardoDiCaprio.png', 'Im_KeanuReeves.png'],diff,1,0.45844989999932295,19,90.47619047619048,
GUJU1708,train,pos,90,pos90_id10_im18.bmp_pos90_id2_im3.bmp,['Im_BradPitt.png', 'Im_BenStiller.png', 'Im_JustinTimberlake.png', 'Im_DanielCraig.png', 'Im_GeorgeClooney.png', 'Im_PatrickDempsey.png', 'Im_DanielRadcliffe.png', 'Im_RobertPattinson.png', 'Im_LeonardoDiCaprio.png', 'Im_KeanuReeves.png'],diff,1,0.40844619999916176,20,90.47619047619048,
GUJU1708,train,pos,30,pos30_id13_im29.bmp_pos30_id13_im10.bmp,['Im_BradPitt.png', 'Im_BenStiller.png', 'Im_JustinTimberlake.png', 'Im_DanielCraig.png', 'Im_GeorgeClooney.png', 'Im_PatrickDempsey.png', 'Im_DanielRadcliffe.png', 'Im_RobertPattinson.png', 'Im_LeonardoDiCaprio.png', 'Im_KeanuReeves.png'],same,1,0.42514569999912055,21,90.47619047619048,
GUJU1708,train,pos,90,pos90_id13_im15.bmp_pos90_id5_im10.bmp,['Im_BradPitt.png', 'Im_BenStiller.png', 'Im_JustinTimberlake.png', 'Im_DanielCraig.png', 'Im_GeorgeClooney.png', 'Im_PatrickDempsey.png', 'Im_DanielRadcliffe.png', 'Im_RobertPattinson.png', 'Im_LeonardoDiCaprio.png', 'Im_KeanuReeves.png'],diff,1,0.42498130000058154,22,90.47619047619048,
GUJU1708,train,pos,60,pos60_id19_im27.bmp_pos60_id19_im8.bmp,['Im_BradPitt.png', 'Im_BenStiller.png', 'Im_JustinTimberlake.png', 'Im_DanielCraig.png', 'Im_GeorgeClooney.png', 'Im_PatrickDempsey.png', 'Im_DanielRadcliffe.png', 'Im_RobertPattinson.png', 'Im_LeonardoDiCaprio.png', 'Im_KeanuReeves.png'],same,1,0.4167570000008709,23,90.47619047619048,
GUJU1708,train,inv,30,pos30_id3_im8.bmp_pos30_id3_im17.bmp,['Im_BradPitt.png', 'Im_BenStiller.png', 'Im_JustinTimberlake.png', 'Im_DanielCraig.png', 'Im_GeorgeClooney.png', 'Im_PatrickDempsey.png', 'Im_DanielRadcliffe.png', 'Im_RobertPattinson.png', 'Im_LeonardoDiCaprio.png', 'Im_KeanuReeves.png'],diff,0,1.0917437999996764,23,90.47619047619048,
GUJU1708,train,inv,fs,posfs_id11_im1.bmp_posfs_id11_im2.bmp,['Im_BradPitt.png', 'Im_BenStiller.png', 'Im_JustinTimberlake.png', 'Im_DanielCraig.png', 'Im_GeorgeClooney.png', 'Im_PatrickDempsey.png', 'Im_DanielRadcliffe.png', 'Im_RobertPattinson.png', 'Im_LeonardoDiCaprio.png', 'Im_KeanuReeves.png'],same,1,0.40844450000076904,24,90.47619047619048,
GUJU1708,train,inv,90,pos90_id7_im14.bmp_pos90_id7_im26.bmp,['Im_BradPitt.png', 'Im_BenStiller.png', 'Im_JustinTimberlake.png', 'Im_DanielCraig.png', 'Im_GeorgeClooney.png', 'Im_PatrickDempsey.png', 'Im_DanielRadcliffe.png', 'Im_RobertPattinson.png', 'Im_LeonardoDiCaprio.png', 'Im_KeanuReeves.png'],diff,0,0.43341809999947145,24,90.47619047619048,
GUJU1708,train,inv,0,pos0_id11_im1.bmp_pos0_id11_im2.bmp,['Im_BradPitt.png', 'Im_BenStiller.png', 'Im_JustinTimberlake.png', 'Im_DanielCraig.png', 'Im_GeorgeClooney.png', 'Im_PatrickDempsey.png', 'Im_DanielRadcliffe.png', 'Im_RobertPattinson.png', 'Im_LeonardoDiCaprio.png', 'Im_KeanuReeves.png'],same,1,0.43342029999985243,25,90.47619047619048,
GUJU1708,train,inv,fs,posfs_id3_im8.bmp_posfs_id17_im14.bmp,['Im_BradPitt.png', 'Im_BenStiller.png', 'Im_JustinTimberlake.png', 'Im_DanielCraig.png', 'Im_GeorgeClooney.png', 'Im_PatrickDempsey.png', 'Im_DanielRadcliffe.png', 'Im_RobertPattinson.png', 'Im_LeonardoDiCaprio.png', 'Im_KeanuReeves.png'],diff,1,0.7918816000001243,26,90.47619047619048,
GUJU1708,train,inv,0,pos0_id10_im17.bmp_pos0_id10_im18.bmp,['Im_BradPitt.png', 'Im_BenStiller.png', 'Im_JustinTimberlake.png', 'Im_DanielCraig.png', 'Im_GeorgeClooney.png', 'Im_PatrickDempsey.png', 'Im_DanielRadcliffe.png', 'Im_RobertPattinson.png', 'Im_LeonardoDiCaprio.png', 'Im_KeanuReeves.png'],diff,0,0.8500631000006251,26,90.47619047619048,
GUJU1708,train,inv,60,pos60_id11_im2.bmp_pos60_id11_im1.bmp,['Im_BradPitt.png', 'Im_BenStiller.png', 'Im_JustinTimberlake.png', 'Im_DanielCraig.png', 'Im_GeorgeClooney.png', 'Im_PatrickDempsey.png', 'Im_DanielRadcliffe.png', 'Im_RobertPattinson.png', 'Im_LeonardoDiCaprio.png', 'Im_KeanuReeves.png'],diff,0,0.4332689000002574,26,90.47619047619048,
GUJU1708,train,inv,120,pos120_id17_im8.bmp_pos120_id4_im7.bmp,['Im_BradPitt.png', 'Im_BenStiller.png', 'Im_JustinTimberlake.png', 'Im_DanielCraig.png', 'Im_GeorgeClooney.png', 'Im_PatrickDempsey.png', 'Im_DanielRadcliffe.png', 'Im_RobertPattinson.png', 'Im_LeonardoDiCaprio.png', 'Im_KeanuReeves.png'],diff,1,0.45855739999933576,27,90.47619047619048,
GUJU1708,train,inv,120,pos120_id11_im1.bmp_pos120_id19_im8.bmp,['Im_BradPitt.png', 'Im_BenStiller.png', 'Im_JustinTimberlake.png', 'Im_DanielCraig.png', 'Im_GeorgeClooney.png', 'Im_PatrickDempsey.png', 'Im_DanielRadcliffe.png', 'Im_RobertPattinson.png', 'Im_LeonardoDiCaprio.png', 'Im_KeanuReeves.png'],diff,1,0.4249614999989717,28,90.47619047619048,
GUJU1708,train,inv,150,pos150_id19_im27.bmp_pos150_id19_im4.bmp,['Im_BradPitt.png', 'Im_BenStiller.png', 'Im_JustinTimberlake.png', 'Im_DanielCraig.png', 'Im_GeorgeClooney.png', 'Im_PatrickDempsey.png', 'Im_DanielRadcliffe.png', 'Im_RobertPattinson.png', 'Im_LeonardoDiCaprio.png', 'Im_KeanuReeves.png'],same,1,0.9082938000010472,29,90.47619047619048,
GUJU1708,train,inv,150,pos150_id17_im14.bmp_pos150_id17_im9.bmp,['Im_BradPitt.png', 'Im_BenStiller.png', 'Im_JustinTimberlake.png', 'Im_DanielCraig.png', 'Im_GeorgeClooney.png', 'Im_PatrickDempsey.png', 'Im_DanielRadcliffe.png', 'Im_RobertPattinson.png', 'Im_LeonardoDiCaprio.png', 'Im_KeanuReeves.png'],same,1,0.4251164000015706,30,90.47619047619048,
GUJU1708,train,inv,60,pos60_id7_im26.bmp_pos60_id3_im8.bmp,['Im_BradPitt.png', 'Im_BenStiller.png', 'Im_JustinTimberlake.png', 'Im_DanielCraig.png', 'Im_GeorgeClooney.png', 'Im_PatrickDempsey.png', 'Im_DanielRadcliffe.png', 'Im_RobertPattinson.png', 'Im_LeonardoDiCaprio.png', 'Im_KeanuReeves.png'],diff,1,0.40835859999970126,31,90.47619047619048,
GUJU1708,train,inv,90,pos90_id10_im1.bmp_pos90_id5_im1.bmp,['Im_BradPitt.png', 'Im_BenStiller.png', 'Im_JustinTimberlake.png', 'Im_DanielCraig.png', 'Im_GeorgeClooney.png', 'Im_PatrickDempsey.png', 'Im_DanielRadcliffe.png', 'Im_RobertPattinson.png', 'Im_LeonardoDiCaprio.png', 'Im_KeanuReeves.png'],diff,1,0.4582530999996379,32,90.47619047619048,
GUJU1708,train,inv,30,pos30_id4_im7.bmp_pos30_id17_im9.bmp,['Im_BradPitt.png', 'Im_BenStiller.png', 'Im_JustinTimberlake.png', 'Im_DanielCraig.png', 'Im_GeorgeClooney.png', 'Im_PatrickDempsey.png', 'Im_DanielRadcliffe.png', 'Im_RobertPattinson.png', 'Im_LeonardoDiCaprio.png', 'Im_KeanuReeves.png'],diff,1,0.7915232999985164,33,90.47619047619048,
GUJU1708,0,inv,30,pos30_id5_im20.bmp_pos30_id2_im2.bmp,['Im_BradPitt.png', 'Im_BenStiller.png', 'Im_JustinTimberlake.png', 'Im_DanielCraig.png', 'Im_GeorgeClooney.png', 'Im_PatrickDempsey.png', 'Im_DanielRadcliffe.png', 'Im_RobertPattinson.png', 'Im_LeonardoDiCaprio.png', 'Im_KeanuReeves.png'],diff,1,1.08369010000024,1,0,
GUJU1708,0,inv,90,pos90_id2_im16.bmp_pos90_id2_im3.bmp,['Im_BradPitt.png', 'Im_BenStiller.png', 'Im_JustinTimberlake.png', 'Im_DanielCraig.png', 'Im_GeorgeClooney.png', 'Im_PatrickDempsey.png', 'Im_DanielRadcliffe.png', 'Im_RobertPattinson.png', 'Im_LeonardoDiCaprio.png', 'Im_KeanuReeves.png'],same,1,0.3998073000002478,2,0,
GUJU1708,0,inv,30,pos30_id17_im8.bmp_pos30_id17_im14.bmp,['Im_BradPitt.png', 'Im_BenStiller.png', 'Im_JustinTimberlake.png', 'Im_DanielCraig.png', 'Im_GeorgeClooney.png', 'Im_PatrickDempsey.png', 'Im_DanielRadcliffe.png', 'Im_RobertPattinson.png', 'Im_LeonardoDiCaprio.png', 'Im_KeanuReeves.png'],same,1,0.4250035000004573,3,0,
GUJU1708,0,inv,150,pos150_id10_im1.bmp_pos150_id10_im17.bmp,['Im_BradPitt.png', 'Im_BenStiller.png', 'Im_JustinTimberlake.png', 'Im_DanielCraig.png', 'Im_GeorgeClooney.png', 'Im_PatrickDempsey.png', 'Im_DanielRadcliffe.png', 'Im_RobertPattinson.png', 'Im_LeonardoDiCaprio.png', 'Im_KeanuReeves.png'],same,1,0.41679629999998724,4,0,
GUJU1708,0,inv,120,pos120_id5_im20.bmp_pos120_id13_im10.bmp,['Im_BradPitt.png', 'Im_BenStiller.png', 'Im_JustinTimberlake.png', 'Im_DanielCraig.png', 'Im_GeorgeClooney.png', 'Im_PatrickDempsey.png', 'Im_DanielRadcliffe.png', 'Im_RobertPattinson.png', 'Im_LeonardoDiCaprio.png', 'Im_KeanuReeves.png'],diff,1,0.5586820999997144,5,0,
GUJU1708,0,inv,120,pos120_id10_im18.bmp_pos120_id11_im2.bmp,['Im_BradPitt.png', 'Im_BenStiller.png', 'Im_JustinTimberlake.png', 'Im_DanielCraig.png', 'Im_GeorgeClooney.png', 'Im_PatrickDempsey.png', 'Im_DanielRadcliffe.png', 'Im_RobertPattinson.png', 'Im_LeonardoDiCaprio.png', 'Im_KeanuReeves.png'],diff,1,0.42540179999923566,6,0,
GUJU1708,0,inv,150,pos150_id13_im10.bmp_pos150_id2_im16.bmp,['Im_BradPitt.png', 'Im_BenStiller.png', 'Im_JustinTimberlake.png', 'Im_DanielCraig.png', 'Im_GeorgeClooney.png', 'Im_PatrickDempsey.png', 'Im_DanielRadcliffe.png', 'Im_RobertPattinson.png', 'Im_LeonardoDiCaprio.png', 'Im_KeanuReeves.png'],diff,1,0.41697930000009364,7,0,
GUJU1708,0,inv,60,pos60_id19_im27.bmp_pos60_id11_im10.bmp,['Im_BradPitt.png', 'Im_BenStiller.png', 'Im_JustinTimberlake.png', 'Im_DanielCraig.png', 'Im_GeorgeClooney.png', 'Im_PatrickDempsey.png', 'Im_DanielRadcliffe.png', 'Im_RobertPattinson.png', 'Im_LeonardoDiCaprio.png', 'Im_KeanuReeves.png'],diff,1,0.4166787000012846,8,0,
GUJU1708,0,inv,60,pos60_id19_im27.bmp_pos60_id19_im4.bmp,['Im_BradPitt.png', 'Im_BenStiller.png', 'Im_JustinTimberlake.png', 'Im_DanielCraig.png', 'Im_GeorgeClooney.png', 'Im_PatrickDempsey.png', 'Im_DanielRadcliffe.png', 'Im_RobertPattinson.png', 'Im_LeonardoDiCaprio.png', 'Im_KeanuReeves.png'],same,1,0.4250691999986884,9,0,
GUJU1708,0,inv,90,pos90_id3_im8.bmp_pos90_id17_im14.bmp,['Im_BradPitt.png', 'Im_BenStiller.png', 'Im_JustinTimberlake.png', 'Im_DanielCraig.png', 'Im_GeorgeClooney.png', 'Im_PatrickDempsey.png', 'Im_DanielRadcliffe.png', 'Im_RobertPattinson.png', 'Im_LeonardoDiCaprio.png', 'Im_KeanuReeves.png'],diff,1,0.6669325000002573,10,0,
GUJU1708,0,inv,0,pos0_id3_im17.bmp_pos0_id3_im6.bmp,['Im_BradPitt.png', 'Im_BenStiller.png', 'Im_JustinTimberlake.png', 'Im_DanielCraig.png', 'Im_GeorgeClooney.png', 'Im_PatrickDempsey.png', 'Im_DanielRadcliffe.png', 'Im_RobertPattinson.png', 'Im_LeonardoDiCaprio.png', 'Im_KeanuReeves.png'],diff,0,0.49168269999972836,10,0,
GUJU1708,0,inv,0,pos0_id3_im17.bmp_pos0_id10_im1.bmp,['Im_BradPitt.png', 'Im_BenStiller.png', 'Im_JustinTimberlake.png', 'Im_DanielCraig.png', 'Im_GeorgeClooney.png', 'Im_PatrickDempsey.png', 'Im_DanielRadcliffe.png', 'Im_RobertPattinson.png', 'Im_LeonardoDiCaprio.png', 'Im_KeanuReeves.png'],diff,1,0.6920351999997365,11,0,
GUJU1708,0,inv,fs,posfs_id10_im18.bmp_posfs_id10_im1.bmp,['Im_BradPitt.png', 'Im_BenStiller.png', 'Im_JustinTimberlake.png', 'Im_DanielCraig.png', 'Im_GeorgeClooney.png', 'Im_PatrickDempsey.png', 'Im_DanielRadcliffe.png', 'Im_RobertPattinson.png', 'Im_LeonardoDiCaprio.png', 'Im_KeanuReeves.png'],same,1,0.41678350000074715,12,0,
GUJU1708,0,inv,fs,posfs_id19_im27.bmp_posfs_id19_im4.bmp,['Im_BradPitt.png', 'Im_BenStiller.png', 'Im_JustinTimberlake.png', 'Im_DanielCraig.png', 'Im_GeorgeClooney.png', 'Im_PatrickDempsey.png', 'Im_DanielRadcliffe.png', 'Im_RobertPattinson.png', 'Im_LeonardoDiCaprio.png', 'Im_KeanuReeves.png'],same,1,0.400170299999445,13,0,
GUJU1708,1,neg,90,neg90_id10_im1.bmp_neg90_id5_im1.bmp,['Im_BradPitt.png', 'Im_BenStiller.png', 'Im_JustinTimberlake.png', 'Im_DanielCraig.png', 'Im_GeorgeClooney.png', 'Im_PatrickDempsey.png', 'Im_DanielRadcliffe.png', 'Im_RobertPattinson.png', 'Im_LeonardoDiCaprio.png', 'Im_KeanuReeves.png'],diff,1,0.4581109999999171,14,0,
GUJU1708,1,neg,fs,negfs_id7_im26.bmp_negfs_id3_im8.bmp,['Im_BradPitt.png', 'Im_BenStiller.png', 'Im_JustinTimberlake.png', 'Im_DanielCraig.png', 'Im_GeorgeClooney.png', 'Im_PatrickDempsey.png', 'Im_DanielRadcliffe.png', 'Im_RobertPattinson.png', 'Im_LeonardoDiCaprio.png', 'Im_KeanuReeves.png'],diff,1,0.808295700000599,15,0,
GUJU1708,1,neg,30,neg30_id10_im18.bmp_neg30_id11_im2.bmp,['Im_BradPitt.png', 'Im_BenStiller.png', 'Im_JustinTimberlake.png', 'Im_DanielCraig.png', 'Im_GeorgeClooney.png', 'Im_PatrickDempsey.png', 'Im_DanielRadcliffe.png', 'Im_RobertPattinson.png', 'Im_LeonardoDiCaprio.png', 'Im_KeanuReeves.png'],diff,1,0.4754864999995334,16,0,
GUJU1708,1,neg,150,neg150_id3_im17.bmp_neg150_id10_im1.bmp,['Im_BradPitt.png', 'Im_BenStiller.png', 'Im_JustinTimberlake.png', 'Im_DanielCraig.png', 'Im_GeorgeClooney.png', 'Im_PatrickDempsey.png', 'Im_DanielRadcliffe.png', 'Im_RobertPattinson.png', 'Im_LeonardoDiCaprio.png', 'Im_KeanuReeves.png'],same,0,0.6420608000007633,16,0,
GUJU1708,1,neg,60,neg60_id4_im20.bmp_neg60_id7_im14.bmp,['Im_BradPitt.png', 'Im_BenStiller.png', 'Im_JustinTimberlake.png', 'Im_DanielCraig.png', 'Im_GeorgeClooney.png', 'Im_PatrickDempsey.png', 'Im_DanielRadcliffe.png', 'Im_RobertPattinson.png', 'Im_LeonardoDiCaprio.png', 'Im_KeanuReeves.png'],diff,1,0.433230900000126,17,0,
GUJU1708,1,neg,120,neg120_id19_im27.bmp_neg120_id4_im15.bmp,['Im_BradPitt.png', 'Im_BenStiller.png', 'Im_JustinTimberlake.png', 'Im_DanielCraig.png', 'Im_GeorgeClooney.png', 'Im_PatrickDempsey.png', 'Im_DanielRadcliffe.png', 'Im_RobertPattinson.png', 'Im_LeonardoDiCaprio.png', 'Im_KeanuReeves.png'],diff,1,0.5999553999990894,18,0,
GUJU1708,1,neg,150,neg150_id13_im10.bmp_neg150_id5_im20.bmp,['Im_BradPitt.png', 'Im_BenStiller.png', 'Im_JustinTimberlake.png', 'Im_DanielCraig.png', 'Im_GeorgeClooney.png', 'Im_PatrickDempsey.png', 'Im_DanielRadcliffe.png', 'Im_RobertPattinson.png', 'Im_LeonardoDiCaprio.png', 'Im_KeanuReeves.png'],diff,1,0.5837931999994908,19,0,
GUJU1708,1,neg,fs,negfs_id19_im8.bmp_negfs_id13_im29.bmp,['Im_BradPitt.png', 'Im_BenStiller.png', 'Im_JustinTimberlake.png', 'Im_DanielCraig.png', 'Im_GeorgeClooney.png', 'Im_PatrickDempsey.png', 'Im_DanielRadcliffe.png', 'Im_RobertPattinson.png', 'Im_LeonardoDiCaprio.png', 'Im_KeanuReeves.png'],same,0,0.8166472000011709,19,0,
GUJU1708,1,neg,120,neg120_id5_im1.bmp_neg120_id4_im15.bmp,['Im_BradPitt.png', 'Im_BenStiller.png', 'Im_JustinTimberlake.png', 'Im_DanielCraig.png', 'Im_GeorgeClooney.png', 'Im_PatrickDempsey.png', 'Im_DanielRadcliffe.png', 'Im_RobertPattinson.png', 'Im_LeonardoDiCaprio.png', 'Im_KeanuReeves.png'],diff,1,0.41671820000010484,20,0,
GUJU1708,1,neg,90,neg90_id7_im14.bmp_neg90_id7_im26.bmp,['Im_BradPitt.png', 'Im_BenStiller.png', 'Im_JustinTimberlake.png', 'Im_DanielCraig.png', 'Im_GeorgeClooney.png', 'Im_PatrickDempsey.png', 'Im_DanielRadcliffe.png', 'Im_RobertPattinson.png', 'Im_LeonardoDiCaprio.png', 'Im_KeanuReeves.png'],same,1,0.4169106000008469,21,0,
GUJU1708,1,neg,60,neg60_id2_im2.bmp_neg60_id5_im10.bmp,['Im_BradPitt.png', 'Im_BenStiller.png', 'Im_JustinTimberlake.png', 'Im_DanielCraig.png', 'Im_GeorgeClooney.png', 'Im_PatrickDempsey.png', 'Im_DanielRadcliffe.png', 'Im_RobertPattinson.png', 'Im_LeonardoDiCaprio.png', 'Im_KeanuReeves.png'],diff,1,0.45839899999919,22,0,
GUJU1708,1,neg,0,neg0_id4_im7.bmp_neg0_id4_im20.bmp,['Im_BradPitt.png', 'Im_BenStiller.png', 'Im_JustinTimberlake.png', 'Im_DanielCraig.png', 'Im_GeorgeClooney.png', 'Im_PatrickDempsey.png', 'Im_DanielRadcliffe.png', 'Im_RobertPattinson.png', 'Im_LeonardoDiCaprio.png', 'Im_KeanuReeves.png'],same,1,0.4333939999996801,23,0,
GUJU1708,1,neg,30,neg30_id7_im26.bmp_neg30_id3_im8.bmp,['Im_BradPitt.png', 'Im_BenStiller.png', 'Im_JustinTimberlake.png', 'Im_DanielCraig.png', 'Im_GeorgeClooney.png', 'Im_PatrickDempsey.png', 'Im_DanielRadcliffe.png', 'Im_RobertPattinson.png', 'Im_LeonardoDiCaprio.png', 'Im_KeanuReeves.png'],diff,1,1.5001605999987078,24,0,
GUJU1708,1,neg,0,neg0_id5_im1.bmp_neg0_id10_im1.bmp,['Im_BradPitt.png', 'Im_BenStiller.png', 'Im_JustinTimberlake.png', 'Im_DanielCraig.png', 'Im_GeorgeClooney.png', 'Im_PatrickDempsey.png', 'Im_DanielRadcliffe.png', 'Im_RobertPattinson.png', 'Im_LeonardoDiCaprio.png', 'Im_KeanuReeves.png'],diff,1,0.4752667999982805,25,0,
GUJU1708,2,pos,fs,posfs_id10_im17.bmp_posfs_id17_im8.bmp,['Im_BradPitt.png', 'Im_BenStiller.png', 'Im_JustinTimberlake.png', 'Im_DanielCraig.png', 'Im_GeorgeClooney.png', 'Im_PatrickDempsey.png', 'Im_DanielRadcliffe.png', 'Im_RobertPattinson.png', 'Im_LeonardoDiCaprio.png', 'Im_KeanuReeves.png'],diff,1,0.4167187000002741,26,0,
GUJU1708,2,pos,0,pos0_id11_im1.bmp_pos0_id19_im8.bmp,['Im_BradPitt.png', 'Im_BenStiller.png', 'Im_JustinTimberlake.png', 'Im_DanielCraig.png', 'Im_GeorgeClooney.png', 'Im_PatrickDempsey.png', 'Im_DanielRadcliffe.png', 'Im_RobertPattinson.png', 'Im_LeonardoDiCaprio.png', 'Im_KeanuReeves.png'],diff,1,0.6668049999989307,27,0,
GUJU1708,2,pos,90,pos90_id2_im2.bmp_pos90_id5_im10.bmp,['Im_BradPitt.png', 'Im_BenStiller.png', 'Im_JustinTimberlake.png', 'Im_DanielCraig.png', 'Im_GeorgeClooney.png', 'Im_PatrickDempsey.png', 'Im_DanielRadcliffe.png', 'Im_RobertPattinson.png', 'Im_LeonardoDiCaprio.png', 'Im_KeanuReeves.png'],diff,1,0.43339129999912984,28,0,
GUJU1708,2,pos,150,pos150_id17_im14.bmp_pos150_id17_im8.bmp,['Im_BradPitt.png', 'Im_BenStiller.png', 'Im_JustinTimberlake.png', 'Im_DanielCraig.png', 'Im_GeorgeClooney.png', 'Im_PatrickDempsey.png', 'Im_DanielRadcliffe.png', 'Im_RobertPattinson.png', 'Im_LeonardoDiCaprio.png', 'Im_KeanuReeves.png'],same,1,0.4167443000005733,29,0,
GUJU1708,2,pos,30,pos30_id17_im9.bmp_pos30_id17_im8.bmp,['Im_BradPitt.png', 'Im_BenStiller.png', 'Im_JustinTimberlake.png', 'Im_DanielCraig.png', 'Im_GeorgeClooney.png', 'Im_PatrickDempsey.png', 'Im_DanielRadcliffe.png', 'Im_RobertPattinson.png', 'Im_LeonardoDiCaprio.png', 'Im_KeanuReeves.png'],same,1,0.41667210000014165,30,0,
GUJU1708,2,pos,150,pos150_id10_im18.bmp_pos150_id10_im1.bmp,['Im_BradPitt.png', 'Im_BenStiller.png', 'Im_JustinTimberlake.png', 'Im_DanielCraig.png', 'Im_GeorgeClooney.png', 'Im_PatrickDempsey.png', 'Im_DanielRadcliffe.png', 'Im_RobertPattinson.png', 'Im_LeonardoDiCaprio.png', 'Im_KeanuReeves.png'],same,1,0.4167334000012488,31,0,
GUJU1708,2,pos,120,pos120_id13_im15.bmp_pos120_id5_im10.bmp,['Im_BradPitt.png', 'Im_BenStiller.png', 'Im_JustinTimberlake.png', 'Im_DanielCraig.png', 'Im_GeorgeClooney.png', 'Im_PatrickDempsey.png', 'Im_DanielRadcliffe.png', 'Im_RobertPattinson.png', 'Im_LeonardoDiCaprio.png', 'Im_KeanuReeves.png'],diff,1,0.41673140000057174,32,0,
GUJU1708,2,pos,60,pos60_id11_im2.bmp_pos60_id10_im18.bmp,['Im_BradPitt.png', 'Im_BenStiller.png', 'Im_JustinTimberlake.png', 'Im_DanielCraig.png', 'Im_GeorgeClooney.png', 'Im_PatrickDempsey.png', 'Im_DanielRadcliffe.png', 'Im_RobertPattinson.png', 'Im_LeonardoDiCaprio.png', 'Im_KeanuReeves.png'],diff,1,0.4164854999999079,33,0,
GUJU1708,2,pos,0,pos0_id11_im1.bmp_pos0_id13_im15.bmp,['Im_BradPitt.png', 'Im_BenStiller.png', 'Im_JustinTimberlake.png', 'Im_DanielCraig.png', 'Im_GeorgeClooney.png', 'Im_PatrickDempsey.png', 'Im_DanielRadcliffe.png', 'Im_RobertPattinson.png', 'Im_LeonardoDiCaprio.png', 'Im_KeanuReeves.png'],diff,1,0.5666937999994843,34,0,
GUJU1708,2,pos,30,pos30_id3_im17.bmp_pos30_id10_im1.bmp,['Im_BradPitt.png', 'Im_BenStiller.png', 'Im_JustinTimberlake.png', 'Im_DanielCraig.png', 'Im_GeorgeClooney.png', 'Im_PatrickDempsey.png', 'Im_DanielRadcliffe.png', 'Im_RobertPattinson.png', 'Im_LeonardoDiCaprio.png', 'Im_KeanuReeves.png'],diff,1,0.45875059999889345,35,0,
GUJU1708,2,pos,fs,posfs_id4_im7.bmp_posfs_id17_im8.bmp,['Im_BradPitt.png', 'Im_BenStiller.png', 'Im_JustinTimberlake.png', 'Im_DanielCraig.png', 'Im_GeorgeClooney.png', 'Im_PatrickDempsey.png', 'Im_DanielRadcliffe.png', 'Im_RobertPattinson.png', 'Im_LeonardoDiCaprio.png', 'Im_KeanuReeves.png'],diff,1,0.42505979999987176,36,0,
GUJU1708,2,pos,90,pos90_id3_im17.bmp_pos90_id3_im8.bmp,['Im_BradPitt.png', 'Im_BenStiller.png', 'Im_JustinTimberlake.png', 'Im_DanielCraig.png', 'Im_GeorgeClooney.png', 'Im_PatrickDempsey.png', 'Im_DanielRadcliffe.png', 'Im_RobertPattinson.png', 'Im_LeonardoDiCaprio.png', 'Im_KeanuReeves.png'],same,1,1.6586228999985906,37,0,
GUJU1708,2,pos,120,pos120_id2_im2.bmp_pos120_id2_im3.bmp,['Im_BradPitt.png', 'Im_BenStiller.png', 'Im_JustinTimberlake.png', 'Im_DanielCraig.png', 'Im_GeorgeClooney.png', 'Im_PatrickDempsey.png', 'Im_DanielRadcliffe.png', 'Im_RobertPattinson.png', 'Im_LeonardoDiCaprio.png', 'Im_KeanuReeves.png'],diff,0,0.5583915000006527,37,0,
GUJU1708,2,pos,60,pos60_id4_im20.bmp_pos60_id2_im3.bmp,['Im_BradPitt.png', 'Im_BenStiller.png', 'Im_JustinTimberlake.png', 'Im_DanielCraig.png', 'Im_GeorgeClooney.png', 'Im_PatrickDempsey.png', 'Im_DanielRadcliffe.png', 'Im_RobertPattinson.png', 'Im_LeonardoDiCaprio.png', 'Im_KeanuReeves.png'],diff,1,0.42508080000152404,38,0,
GUJU1708,3,neg,30,neg30_id3_im17.bmp_neg30_id11_im2.bmp,['Im_BradPitt.png', 'Im_BenStiller.png', 'Im_JustinTimberlake.png', 'Im_DanielCraig.png', 'Im_GeorgeClooney.png', 'Im_PatrickDempsey.png', 'Im_DanielRadcliffe.png', 'Im_RobertPattinson.png', 'Im_LeonardoDiCaprio.png', 'Im_KeanuReeves.png'],diff,1,0.7000624000011157,1,90.47619047619048,
GUJU1708,3,neg,150,neg150_id2_im16.bmp_neg150_id2_im3.bmp,['Im_BradPitt.png', 'Im_BenStiller.png', 'Im_JustinTimberlake.png', 'Im_DanielCraig.png', 'Im_GeorgeClooney.png', 'Im_PatrickDempsey.png', 'Im_DanielRadcliffe.png', 'Im_RobertPattinson.png', 'Im_LeonardoDiCaprio.png', 'Im_KeanuReeves.png'],same,1,0.4167613000008714,2,90.47619047619048,
GUJU1708,3,neg,fs,negfs_id11_im10.bmp_negfs_id19_im27.bmp,['Im_BradPitt.png', 'Im_BenStiller.png', 'Im_JustinTimberlake.png', 'Im_DanielCraig.png', 'Im_GeorgeClooney.png', 'Im_PatrickDempsey.png', 'Im_DanielRadcliffe.png', 'Im_RobertPattinson.png', 'Im_LeonardoDiCaprio.png', 'Im_KeanuReeves.png'],diff,1,0.4250532000005478,3,90.47619047619048,
GUJU1708,3,neg,60,neg60_id17_im14.bmp_neg60_id11_im10.bmp,['Im_BradPitt.png', 'Im_BenStiller.png', 'Im_JustinTimberlake.png', 'Im_DanielCraig.png', 'Im_GeorgeClooney.png', 'Im_PatrickDempsey.png', 'Im_DanielRadcliffe.png', 'Im_RobertPattinson.png', 'Im_LeonardoDiCaprio.png', 'Im_KeanuReeves.png'],diff,1,0.41680230000019947,4,90.47619047619048,
GUJU1708,3,neg,90,neg90_id10_im18.bmp_neg90_id2_im3.bmp,['Im_BradPitt.png', 'Im_BenStiller.png', 'Im_JustinTimberlake.png', 'Im_DanielCraig.png', 'Im_GeorgeClooney.png', 'Im_PatrickDempsey.png', 'Im_DanielRadcliffe.png', 'Im_RobertPattinson.png', 'Im_LeonardoDiCaprio.png', 'Im_KeanuReeves.png'],diff,1,0.5001896999983728,5,90.47619047619048,
GUJU1708,3,neg,120,neg120_id13_im10.bmp_neg120_id13_im29.bmp,['Im_BradPitt.png', 'Im_BenStiller.png', 'Im_JustinTimberlake.png', 'Im_DanielCraig.png', 'Im_GeorgeClooney.png', 'Im_PatrickDempsey.png', 'Im_DanielRadcliffe.png', 'Im_RobertPattinson.png', 'Im_LeonardoDiCaprio.png', 'Im_KeanuReeves.png'],same,1,0.800269200000912,6,90.47619047619048,
GUJU1708,3,neg,60,neg60_id5_im1.bmp_neg60_id4_im15.bmp,['Im_BradPitt.png', 'Im_BenStiller.png', 'Im_JustinTimberlake.png', 'Im_DanielCraig.png', 'Im_GeorgeClooney.png', 'Im_PatrickDempsey.png', 'Im_DanielRadcliffe.png', 'Im_RobertPattinson.png', 'Im_LeonardoDiCaprio.png', 'Im_KeanuReeves.png'],diff,1,0.41678959999990184,7,90.47619047619048,
GUJU1708,3,neg,fs,negfs_id5_im20.bmp_negfs_id5_im1.bmp,['Im_BradPitt.png', 'Im_BenStiller.png', 'Im_JustinTimberlake.png', 'Im_DanielCraig.png', 'Im_GeorgeClooney.png', 'Im_PatrickDempsey.png', 'Im_DanielRadcliffe.png', 'Im_RobertPattinson.png', 'Im_LeonardoDiCaprio.png', 'Im_KeanuReeves.png'],same,1,0.42507630000000063,8,90.47619047619048,
GUJU1708,3,neg,0,neg0_id17_im14.bmp_neg0_id11_im10.bmp,['Im_BradPitt.png', 'Im_BenStiller.png', 'Im_JustinTimberlake.png', 'Im_DanielCraig.png', 'Im_GeorgeClooney.png', 'Im_PatrickDempsey.png', 'Im_DanielRadcliffe.png', 'Im_RobertPattinson.png', 'Im_LeonardoDiCaprio.png', 'Im_KeanuReeves.png'],diff,1,0.5416426000010688,9,90.47619047619048,
GUJU1708,3,neg,120,neg120_id2_im2.bmp_neg120_id5_im10.bmp,['Im_BradPitt.png', 'Im_BenStiller.png', 'Im_JustinTimberlake.png', 'Im_DanielCraig.png', 'Im_GeorgeClooney.png', 'Im_PatrickDempsey.png', 'Im_DanielRadcliffe.png', 'Im_RobertPattinson.png', 'Im_LeonardoDiCaprio.png', 'Im_KeanuReeves.png'],diff,1,0.43330969999988156,10,90.47619047619048,
GUJU1708,3,neg,90,neg90_id2_im16.bmp_neg90_id2_im3.bmp,['Im_BradPitt.png', 'Im_BenStiller.png', 'Im_JustinTimberlake.png', 'Im_DanielCraig.png', 'Im_GeorgeClooney.png', 'Im_PatrickDempsey.png', 'Im_DanielRadcliffe.png', 'Im_RobertPattinson.png', 'Im_LeonardoDiCaprio.png', 'Im_KeanuReeves.png'],same,1,0.40841180000097665,11,90.47619047619048,
GUJU1708,3,neg,30,neg30_id10_im17.bmp_neg30_id17_im8.bmp,['Im_BradPitt.png', 'Im_BenStiller.png', 'Im_JustinTimberlake.png', 'Im_DanielCraig.png', 'Im_GeorgeClooney.png', 'Im_PatrickDempsey.png', 'Im_DanielRadcliffe.png', 'Im_RobertPattinson.png', 'Im_LeonardoDiCaprio.png', 'Im_KeanuReeves.png'],same,0,0.5752126000006683,11,90.47619047619048,
GUJU1708,3,neg,0,neg0_id2_im3.bmp_neg0_id4_im20.bmp,['Im_BradPitt.png', 'Im_BenStiller.png', 'Im_JustinTimberlake.png', 'Im_DanielCraig.png', 'Im_GeorgeClooney.png', 'Im_PatrickDempsey.png', 'Im_DanielRadcliffe.png', 'Im_RobertPattinson.png', 'Im_LeonardoDiCaprio.png', 'Im_KeanuReeves.png'],diff,1,0.5582178000004205,12,90.47619047619048,
GUJU1708,3,neg,150,neg150_id13_im10.bmp_neg150_id13_im15.bmp,['Im_BradPitt.png', 'Im_BenStiller.png', 'Im_JustinTimberlake.png', 'Im_DanielCraig.png', 'Im_GeorgeClooney.png', 'Im_PatrickDempsey.png', 'Im_DanielRadcliffe.png', 'Im_RobertPattinson.png', 'Im_LeonardoDiCaprio.png', 'Im_KeanuReeves.png'],same,1,0.41669010000077833,13,90.47619047619048,
GUJU1708,4,inv,60,pos60_id2_im3.bmp_pos60_id2_im16.bmp,['Im_BradPitt.png', 'Im_BenStiller.png', 'Im_JustinTimberlake.png', 'Im_DanielCraig.png', 'Im_GeorgeClooney.png', 'Im_PatrickDempsey.png', 'Im_DanielRadcliffe.png', 'Im_RobertPattinson.png', 'Im_LeonardoDiCaprio.png', 'Im_KeanuReeves.png'],same,1,0.5750580999992962,14,90.47619047619048,
GUJU1708,4,inv,fs,posfs_id17_im8.bmp_posfs_id4_im7.bmp,['Im_BradPitt.png', 'Im_BenStiller.png', 'Im_JustinTimberlake.png', 'Im_DanielCraig.png', 'Im_GeorgeClooney.png', 'Im_PatrickDempsey.png', 'Im_DanielRadcliffe.png', 'Im_RobertPattinson.png', 'Im_LeonardoDiCaprio.png', 'Im_KeanuReeves.png'],diff,1,0.6086010999988503,15,90.47619047619048,
GUJU1708,4,inv,120,pos120_id3_im6.bmp_pos120_id3_im17.bmp,['Im_BradPitt.png', 'Im_BenStiller.png', 'Im_JustinTimberlake.png', 'Im_DanielCraig.png', 'Im_GeorgeClooney.png', 'Im_PatrickDempsey.png', 'Im_DanielRadcliffe.png', 'Im_RobertPattinson.png', 'Im_LeonardoDiCaprio.png', 'Im_KeanuReeves.png'],same,1,0.4502950000005512,16,90.47619047619048,
GUJU1708,4,inv,120,pos120_id4_im15.bmp_pos120_id4_im7.bmp,['Im_BradPitt.png', 'Im_BenStiller.png', 'Im_JustinTimberlake.png', 'Im_DanielCraig.png', 'Im_GeorgeClooney.png', 'Im_PatrickDempsey.png', 'Im_DanielRadcliffe.png', 'Im_RobertPattinson.png', 'Im_LeonardoDiCaprio.png', 'Im_KeanuReeves.png'],same,1,0.4167446999999811,17,90.47619047619048,
GUJU1708,4,inv,30,pos30_id4_im7.bmp_pos30_id4_im20.bmp,['Im_BradPitt.png', 'Im_BenStiller.png', 'Im_JustinTimberlake.png', 'Im_DanielCraig.png', 'Im_GeorgeClooney.png', 'Im_PatrickDempsey.png', 'Im_DanielRadcliffe.png', 'Im_RobertPattinson.png', 'Im_LeonardoDiCaprio.png', 'Im_KeanuReeves.png'],same,1,0.408418699998947,18,90.47619047619048,
GUJU1708,4,inv,150,pos150_id5_im1.bmp_pos150_id5_im20.bmp,['Im_BradPitt.png', 'Im_BenStiller.png', 'Im_JustinTimberlake.png', 'Im_DanielCraig.png', 'Im_GeorgeClooney.png', 'Im_PatrickDempsey.png', 'Im_DanielRadcliffe.png', 'Im_RobertPattinson.png', 'Im_LeonardoDiCaprio.png', 'Im_KeanuReeves.png'],same,1,0.4167555000003631,19,90.47619047619048,
GUJU1708,4,inv,60,pos60_id17_im14.bmp_pos60_id17_im9.bmp,['Im_BradPitt.png', 'Im_BenStiller.png', 'Im_JustinTimberlake.png', 'Im_DanielCraig.png', 'Im_GeorgeClooney.png', 'Im_PatrickDempsey.png', 'Im_DanielRadcliffe.png', 'Im_RobertPattinson.png', 'Im_LeonardoDiCaprio.png', 'Im_KeanuReeves.png'],same,1,0.42510980000042764,20,90.47619047619048,
GUJU1708,4,inv,90,pos90_id7_im15.bmp_pos90_id7_im26.bmp,['Im_BradPitt.png', 'Im_BenStiller.png', 'Im_JustinTimberlake.png', 'Im_DanielCraig.png', 'Im_GeorgeClooney.png', 'Im_PatrickDempsey.png', 'Im_DanielRadcliffe.png', 'Im_RobertPattinson.png', 'Im_LeonardoDiCaprio.png', 'Im_KeanuReeves.png'],same,1,0.43343389999972715,21,90.47619047619048,
GUJU1708,4,inv,150,pos150_id13_im15.bmp_pos150_id13_im10.bmp,['Im_BradPitt.png', 'Im_BenStiller.png', 'Im_JustinTimberlake.png', 'Im_DanielCraig.png', 'Im_GeorgeClooney.png', 'Im_PatrickDempsey.png', 'Im_DanielRadcliffe.png', 'Im_RobertPattinson.png', 'Im_LeonardoDiCaprio.png', 'Im_KeanuReeves.png'],same,1,0.43351980000079493,22,90.47619047619048,
GUJU1708,4,inv,0,pos0_id10_im18.bmp_pos0_id11_im2.bmp,['Im_BradPitt.png', 'Im_BenStiller.png', 'Im_JustinTimberlake.png', 'Im_DanielCraig.png', 'Im_GeorgeClooney.png', 'Im_PatrickDempsey.png', 'Im_DanielRadcliffe.png', 'Im_RobertPattinson.png', 'Im_LeonardoDiCaprio.png', 'Im_KeanuReeves.png'],diff,1,0.42513770000005024,23,90.47619047619048,
GUJU1708,4,inv,0,pos0_id10_im17.bmp_pos0_id10_im1.bmp,['Im_BradPitt.png', 'Im_BenStiller.png', 'Im_JustinTimberlake.png', 'Im_DanielCraig.png', 'Im_GeorgeClooney.png', 'Im_PatrickDempsey.png', 'Im_DanielRadcliffe.png', 'Im_RobertPattinson.png', 'Im_LeonardoDiCaprio.png', 'Im_KeanuReeves.png'],diff,0,0.5168620999993436,23,90.47619047619048,
GUJU1708,4,inv,fs,posfs_id5_im10.bmp_posfs_id5_im1.bmp,['Im_BradPitt.png', 'Im_BenStiller.png', 'Im_JustinTimberlake.png', 'Im_DanielCraig.png', 'Im_GeorgeClooney.png', 'Im_PatrickDempsey.png', 'Im_DanielRadcliffe.png', 'Im_RobertPattinson.png', 'Im_LeonardoDiCaprio.png', 'Im_KeanuReeves.png'],same,1,0.43329439999979513,24,90.47619047619048,
GUJU1708,4,inv,90,pos90_id13_im15.bmp_pos90_id13_im10.bmp,['Im_BradPitt.png', 'Im_BenStiller.png', 'Im_JustinTimberlake.png', 'Im_DanielCraig.png', 'Im_GeorgeClooney.png', 'Im_PatrickDempsey.png', 'Im_DanielRadcliffe.png', 'Im_RobertPattinson.png', 'Im_LeonardoDiCaprio.png', 'Im_KeanuReeves.png'],same,1,0.41686980000122276,25,90.47619047619048,
GUJU1708,4,inv,30,pos30_id19_im27.bmp_pos30_id11_im10.bmp,['Im_BradPitt.png', 'Im_BenStiller.png', 'Im_JustinTimberlake.png', 'Im_DanielCraig.png', 'Im_GeorgeClooney.png', 'Im_PatrickDempsey.png', 'Im_DanielRadcliffe.png', 'Im_RobertPattinson.png', 'Im_LeonardoDiCaprio.png', 'Im_KeanuReeves.png'],diff,1,0.42502740000054473,26,90.47619047619048,
GUJU1708,5,pos,fs,posfs_id11_im1.bmp_posfs_id11_im10.bmp,['Im_BradPitt.png', 'Im_BenStiller.png', 'Im_JustinTimberlake.png', 'Im_DanielCraig.png', 'Im_GeorgeClooney.png', 'Im_PatrickDempsey.png', 'Im_DanielRadcliffe.png', 'Im_RobertPattinson.png', 'Im_LeonardoDiCaprio.png', 'Im_KeanuReeves.png'],same,1,0.4083269000002474,27,90.47619047619048,
GUJU1708,5,pos,60,pos60_id17_im9.bmp_pos60_id4_im7.bmp,['Im_BradPitt.png', 'Im_BenStiller.png', 'Im_JustinTimberlake.png', 'Im_DanielCraig.png', 'Im_GeorgeClooney.png', 'Im_PatrickDempsey.png', 'Im_DanielRadcliffe.png', 'Im_RobertPattinson.png', 'Im_LeonardoDiCaprio.png', 'Im_KeanuReeves.png'],diff,1,0.41683310000007623,28,90.47619047619048,
GUJU1708,5,pos,90,pos90_id17_im14.bmp_pos90_id3_im8.bmp,['Im_BradPitt.png', 'Im_BenStiller.png', 'Im_JustinTimberlake.png', 'Im_DanielCraig.png', 'Im_GeorgeClooney.png', 'Im_PatrickDempsey.png', 'Im_DanielRadcliffe.png', 'Im_RobertPattinson.png', 'Im_LeonardoDiCaprio.png', 'Im_KeanuReeves.png'],same,0,0.8583409000002575,28,90.47619047619048,
GUJU1708,5,pos,30,pos30_id17_im8.bmp_pos30_id10_im17.bmp,['Im_BradPitt.png', 'Im_BenStiller.png', 'Im_JustinTimberlake.png', 'Im_DanielCraig.png', 'Im_GeorgeClooney.png', 'Im_PatrickDempsey.png', 'Im_DanielRadcliffe.png', 'Im_RobertPattinson.png', 'Im_LeonardoDiCaprio.png', 'Im_KeanuReeves.png'],diff,1,0.4250534000002517,29,90.47619047619048,
GUJU1708,5,pos,30,pos30_id7_im14.bmp_pos30_id4_im20.bmp,['Im_BradPitt.png', 'Im_BenStiller.png', 'Im_JustinTimberlake.png', 'Im_DanielCraig.png', 'Im_GeorgeClooney.png', 'Im_PatrickDempsey.png', 'Im_DanielRadcliffe.png', 'Im_RobertPattinson.png', 'Im_LeonardoDiCaprio.png', 'Im_KeanuReeves.png'],diff,1,0.4167467999996006,30,90.47619047619048,
GUJU1708,5,pos,120,pos120_id17_im8.bmp_pos120_id10_im17.bmp,['Im_BradPitt.png', 'Im_BenStiller.png', 'Im_JustinTimberlake.png', 'Im_DanielCraig.png', 'Im_GeorgeClooney.png', 'Im_PatrickDempsey.png', 'Im_DanielRadcliffe.png', 'Im_RobertPattinson.png', 'Im_LeonardoDiCaprio.png', 'Im_KeanuReeves.png'],diff,1,0.42494129999977304,31,90.47619047619048,
GUJU1708,5,pos,120,pos120_id2_im3.bmp_pos120_id2_im16.bmp,['Im_BradPitt.png', 'Im_BenStiller.png', 'Im_JustinTimberlake.png', 'Im_DanielCraig.png', 'Im_GeorgeClooney.png', 'Im_PatrickDempsey.png', 'Im_DanielRadcliffe.png', 'Im_RobertPattinson.png', 'Im_LeonardoDiCaprio.png', 'Im_KeanuReeves.png'],same,1,0.4836715000001277,32,90.47619047619048,
GUJU1708,5,pos,0,pos0_id11_im10.bmp_pos0_id11_im2.bmp,['Im_BradPitt.png', 'Im_BenStiller.png', 'Im_JustinTimberlake.png', 'Im_DanielCraig.png', 'Im_GeorgeClooney.png', 'Im_PatrickDempsey.png', 'Im_DanielRadcliffe.png', 'Im_RobertPattinson.png', 'Im_LeonardoDiCaprio.png', 'Im_KeanuReeves.png'],same,1,0.41668579999895883,33,90.47619047619048,
GUJU1708,5,pos,90,pos90_id7_im14.bmp_pos90_id7_im26.bmp,['Im_BradPitt.png', 'Im_BenStiller.png', 'Im_JustinTimberlake.png', 'Im_DanielCraig.png', 'Im_GeorgeClooney.png', 'Im_PatrickDempsey.png', 'Im_DanielRadcliffe.png', 'Im_RobertPattinson.png', 'Im_LeonardoDiCaprio.png', 'Im_KeanuReeves.png'],same,1,0.41674050000074203,34,90.47619047619048,
GUJU1708,5,pos,150,pos150_id7_im14.bmp_pos150_id13_im29.bmp,['Im_BradPitt.png', 'Im_BenStiller.png', 'Im_JustinTimberlake.png', 'Im_DanielCraig.png', 'Im_GeorgeClooney.png', 'Im_PatrickDempsey.png', 'Im_DanielRadcliffe.png', 'Im_RobertPattinson.png', 'Im_LeonardoDiCaprio.png', 'Im_KeanuReeves.png'],diff,1,0.4250021999996534,35,90.47619047619048,
GUJU1708,5,pos,150,pos150_id3_im8.bmp_pos150_id7_im26.bmp,['Im_BradPitt.png', 'Im_BenStiller.png', 'Im_JustinTimberlake.png', 'Im_DanielCraig.png', 'Im_GeorgeClooney.png', 'Im_PatrickDempsey.png', 'Im_DanielRadcliffe.png', 'Im_RobertPattinson.png', 'Im_LeonardoDiCaprio.png', 'Im_KeanuReeves.png'],same,0,1.192399799998384,35,90.47619047619048,
GUJU1708,5,pos,fs,posfs_id2_im3.bmp_posfs_id10_im18.bmp,['Im_BradPitt.png', 'Im_BenStiller.png', 'Im_JustinTimberlake.png', 'Im_DanielCraig.png', 'Im_GeorgeClooney.png', 'Im_PatrickDempsey.png', 'Im_DanielRadcliffe.png', 'Im_RobertPattinson.png', 'Im_LeonardoDiCaprio.png', 'Im_KeanuReeves.png'],diff,1,0.43341510000027483,36,90.47619047619048,
GUJU1708,5,pos,60,pos60_id10_im17.bmp_pos60_id10_im1.bmp,['Im_BradPitt.png', 'Im_BenStiller.png', 'Im_JustinTimberlake.png', 'Im_DanielCraig.png', 'Im_GeorgeClooney.png', 'Im_PatrickDempsey.png', 'Im_DanielRadcliffe.png', 'Im_RobertPattinson.png', 'Im_LeonardoDiCaprio.png', 'Im_KeanuReeves.png'],same,1,0.42505659999915224,37,90.47619047619048,
GUJU1708,5,pos,0,pos0_id2_im2.bmp_pos0_id2_im3.bmp,['Im_BradPitt.png', 'Im_BenStiller.png', 'Im_JustinTimberlake.png', 'Im_DanielCraig.png', 'Im_GeorgeClooney.png', 'Im_PatrickDempsey.png', 'Im_DanielRadcliffe.png', 'Im_RobertPattinson.png', 'Im_LeonardoDiCaprio.png', 'Im_KeanuReeves.png'],same,1,0.44986140000037267,38,90.47619047619048,
