Sujet,Trial,Condition,Filter,Imname,Actor0,Actor1,Actor2,Actor3,Actor4,Actor5,Actor6,Actor7,Actor8,Actor9,Answer,Accu,RT,Score,Scoreperc, 
GUJU1708,train,inv,30,pos30_id3_im8.bmp_pos30_id3_im17.bmp,['Im_BenStiller.png', 'Im_LeonardoDiCaprio.png', 'Im_GeorgeClooney.png', 'Im_JustinTimberlake.png', 'Im_PatrickDempsey.png', 'Im_DanielRadcliffe.png', 'Im_RobertPattinson.png', 'Im_DanielCraig.png', 'Im_BradPitt.png', 'Im_KeanuReeves.png'],diff,0,3.458418599999277,0,0,
GUJU1708,train,inv,fs,posfs_id11_im2.bmp_posfs_id11_im1.bmp,['Im_BenStiller.png', 'Im_LeonardoDiCaprio.png', 'Im_GeorgeClooney.png', 'Im_JustinTimberlake.png', 'Im_PatrickDempsey.png', 'Im_DanielRadcliffe.png', 'Im_RobertPattinson.png', 'Im_DanielCraig.png', 'Im_BradPitt.png', 'Im_KeanuReeves.png'],same,1,0.6829843000004985,1,0,
GUJU1708,train,inv,90,pos90_id7_im14.bmp_pos90_id7_im26.bmp,['Im_BenStiller.png', 'Im_LeonardoDiCaprio.png', 'Im_GeorgeClooney.png', 'Im_JustinTimberlake.png', 'Im_PatrickDempsey.png', 'Im_DanielRadcliffe.png', 'Im_RobertPattinson.png', 'Im_DanielCraig.png', 'Im_BradPitt.png', 'Im_KeanuReeves.png'],diff,0,0.6169558000001416,1,0,
GUJU1708,train,inv,0,pos0_id11_im1.bmp_pos0_id11_im2.bmp,['Im_BenStiller.png', 'Im_LeonardoDiCaprio.png', 'Im_GeorgeClooney.png', 'Im_JustinTimberlake.png', 'Im_PatrickDempsey.png', 'Im_DanielRadcliffe.png', 'Im_RobertPattinson.png', 'Im_DanielCraig.png', 'Im_BradPitt.png', 'Im_KeanuReeves.png'],same,1,0.4167595999997502,2,0,
GUJU1708,train,inv,fs,posfs_id3_im8.bmp_posfs_id17_im14.bmp,['Im_BenStiller.png', 'Im_LeonardoDiCaprio.png', 'Im_GeorgeClooney.png', 'Im_JustinTimberlake.png', 'Im_PatrickDempsey.png', 'Im_DanielRadcliffe.png', 'Im_RobertPattinson.png', 'Im_DanielCraig.png', 'Im_BradPitt.png', 'Im_KeanuReeves.png'],diff,1,0.5501637000006667,3,0,
GUJU1708,train,inv,0,pos0_id10_im18.bmp_pos0_id10_im17.bmp,['Im_BenStiller.png', 'Im_LeonardoDiCaprio.png', 'Im_GeorgeClooney.png', 'Im_JustinTimberlake.png', 'Im_PatrickDempsey.png', 'Im_DanielRadcliffe.png', 'Im_RobertPattinson.png', 'Im_DanielCraig.png', 'Im_BradPitt.png', 'Im_KeanuReeves.png'],same,1,0.42461289999937435,4,0,
GUJU1708,train,inv,60,pos60_id11_im2.bmp_pos60_id11_im1.bmp,['Im_BenStiller.png', 'Im_LeonardoDiCaprio.png', 'Im_GeorgeClooney.png', 'Im_JustinTimberlake.png', 'Im_PatrickDempsey.png', 'Im_DanielRadcliffe.png', 'Im_RobertPattinson.png', 'Im_DanielCraig.png', 'Im_BradPitt.png', 'Im_KeanuReeves.png'],same,1,0.8750618999993094,5,0,
GUJU1708,train,inv,120,pos120_id4_im7.bmp_pos120_id17_im8.bmp,['Im_BenStiller.png', 'Im_LeonardoDiCaprio.png', 'Im_GeorgeClooney.png', 'Im_JustinTimberlake.png', 'Im_PatrickDempsey.png', 'Im_DanielRadcliffe.png', 'Im_RobertPattinson.png', 'Im_DanielCraig.png', 'Im_BradPitt.png', 'Im_KeanuReeves.png'],diff,1,0.458386000000246,6,0,
GUJU1708,train,inv,120,pos120_id19_im8.bmp_pos120_id11_im1.bmp,['Im_BenStiller.png', 'Im_LeonardoDiCaprio.png', 'Im_GeorgeClooney.png', 'Im_JustinTimberlake.png', 'Im_PatrickDempsey.png', 'Im_DanielRadcliffe.png', 'Im_RobertPattinson.png', 'Im_DanielCraig.png', 'Im_BradPitt.png', 'Im_KeanuReeves.png'],diff,1,0.4415605999993204,7,0,
GUJU1708,train,inv,150,pos150_id19_im4.bmp_pos150_id19_im27.bmp,['Im_BenStiller.png', 'Im_LeonardoDiCaprio.png', 'Im_GeorgeClooney.png', 'Im_JustinTimberlake.png', 'Im_PatrickDempsey.png', 'Im_DanielRadcliffe.png', 'Im_RobertPattinson.png', 'Im_DanielCraig.png', 'Im_BradPitt.png', 'Im_KeanuReeves.png'],diff,0,0.791914700000234,7,0,
GUJU1708,train,inv,150,pos150_id17_im14.bmp_pos150_id17_im9.bmp,['Im_BenStiller.png', 'Im_LeonardoDiCaprio.png', 'Im_GeorgeClooney.png', 'Im_JustinTimberlake.png', 'Im_PatrickDempsey.png', 'Im_DanielRadcliffe.png', 'Im_RobertPattinson.png', 'Im_DanielCraig.png', 'Im_BradPitt.png', 'Im_KeanuReeves.png'],same,1,0.5250221999995119,8,0,
GUJU1708,train,inv,60,pos60_id3_im8.bmp_pos60_id7_im26.bmp,['Im_BenStiller.png', 'Im_LeonardoDiCaprio.png', 'Im_GeorgeClooney.png', 'Im_JustinTimberlake.png', 'Im_PatrickDempsey.png', 'Im_DanielRadcliffe.png', 'Im_RobertPattinson.png', 'Im_DanielCraig.png', 'Im_BradPitt.png', 'Im_KeanuReeves.png'],diff,1,0.824931999999535,9,0,
GUJU1708,train,inv,90,pos90_id10_im1.bmp_pos90_id5_im1.bmp,['Im_BenStiller.png', 'Im_LeonardoDiCaprio.png', 'Im_GeorgeClooney.png', 'Im_JustinTimberlake.png', 'Im_PatrickDempsey.png', 'Im_DanielRadcliffe.png', 'Im_RobertPattinson.png', 'Im_DanielCraig.png', 'Im_BradPitt.png', 'Im_KeanuReeves.png'],same,0,0.6916929999997592,9,0,
GUJU1708,train,inv,30,pos30_id17_im9.bmp_pos30_id4_im7.bmp,['Im_BenStiller.png', 'Im_LeonardoDiCaprio.png', 'Im_GeorgeClooney.png', 'Im_JustinTimberlake.png', 'Im_PatrickDempsey.png', 'Im_DanielRadcliffe.png', 'Im_RobertPattinson.png', 'Im_DanielCraig.png', 'Im_BradPitt.png', 'Im_KeanuReeves.png'],diff,1,0.5835581000001184,10,0,
GUJU1708,train,pos,120,pos120_id3_im17.bmp_pos120_id3_im8.bmp,['Im_BenStiller.png', 'Im_LeonardoDiCaprio.png', 'Im_GeorgeClooney.png', 'Im_JustinTimberlake.png', 'Im_PatrickDempsey.png', 'Im_DanielRadcliffe.png', 'Im_RobertPattinson.png', 'Im_DanielCraig.png', 'Im_BradPitt.png', 'Im_KeanuReeves.png'],same,1,0.5499324999991586,11,0,
GUJU1708,train,pos,fs,posfs_id3_im17.bmp_posfs_id3_im6.bmp,['Im_BenStiller.png', 'Im_LeonardoDiCaprio.png', 'Im_GeorgeClooney.png', 'Im_JustinTimberlake.png', 'Im_PatrickDempsey.png', 'Im_DanielRadcliffe.png', 'Im_RobertPattinson.png', 'Im_DanielCraig.png', 'Im_BradPitt.png', 'Im_KeanuReeves.png'],same,1,0.42501739999988786,12,0,
GUJU1708,train,pos,0,pos0_id17_im9.bmp_pos0_id17_im14.bmp,['Im_BenStiller.png', 'Im_LeonardoDiCaprio.png', 'Im_GeorgeClooney.png', 'Im_JustinTimberlake.png', 'Im_PatrickDempsey.png', 'Im_DanielRadcliffe.png', 'Im_RobertPattinson.png', 'Im_DanielCraig.png', 'Im_BradPitt.png', 'Im_KeanuReeves.png'],same,1,0.4833684999994148,13,0,
GUJU1708,train,pos,90,pos90_id2_im16.bmp_pos90_id7_im15.bmp,['Im_BenStiller.png', 'Im_LeonardoDiCaprio.png', 'Im_GeorgeClooney.png', 'Im_JustinTimberlake.png', 'Im_PatrickDempsey.png', 'Im_DanielRadcliffe.png', 'Im_RobertPattinson.png', 'Im_DanielCraig.png', 'Im_BradPitt.png', 'Im_KeanuReeves.png'],diff,1,0.4503607999995438,14,0,
GUJU1708,train,pos,30,pos30_id7_im15.bmp_pos30_id2_im16.bmp,['Im_BenStiller.png', 'Im_LeonardoDiCaprio.png', 'Im_GeorgeClooney.png', 'Im_JustinTimberlake.png', 'Im_PatrickDempsey.png', 'Im_DanielRadcliffe.png', 'Im_RobertPattinson.png', 'Im_DanielCraig.png', 'Im_BradPitt.png', 'Im_KeanuReeves.png'],diff,1,0.45823269999982585,15,0,
GUJU1708,train,pos,90,pos90_id11_im2.bmp_pos90_id3_im17.bmp,['Im_BenStiller.png', 'Im_LeonardoDiCaprio.png', 'Im_GeorgeClooney.png', 'Im_JustinTimberlake.png', 'Im_PatrickDempsey.png', 'Im_DanielRadcliffe.png', 'Im_RobertPattinson.png', 'Im_DanielCraig.png', 'Im_BradPitt.png', 'Im_KeanuReeves.png'],diff,1,0.424690499999997,16,0,
GUJU1708,train,pos,60,pos60_id2_im3.bmp_pos60_id2_im2.bmp,['Im_BenStiller.png', 'Im_LeonardoDiCaprio.png', 'Im_GeorgeClooney.png', 'Im_JustinTimberlake.png', 'Im_PatrickDempsey.png', 'Im_DanielRadcliffe.png', 'Im_RobertPattinson.png', 'Im_DanielCraig.png', 'Im_BradPitt.png', 'Im_KeanuReeves.png'],same,1,0.4582549000006111,17,0,
GUJU1708,train,pos,30,pos30_id3_im6.bmp_pos30_id3_im17.bmp,['Im_BenStiller.png', 'Im_LeonardoDiCaprio.png', 'Im_GeorgeClooney.png', 'Im_JustinTimberlake.png', 'Im_PatrickDempsey.png', 'Im_DanielRadcliffe.png', 'Im_RobertPattinson.png', 'Im_DanielCraig.png', 'Im_BradPitt.png', 'Im_KeanuReeves.png'],same,1,0.4082528999997521,18,0,
GUJU1708,train,pos,fs,posfs_id4_im20.bmp_posfs_id7_im14.bmp,['Im_BenStiller.png', 'Im_LeonardoDiCaprio.png', 'Im_GeorgeClooney.png', 'Im_JustinTimberlake.png', 'Im_PatrickDempsey.png', 'Im_DanielRadcliffe.png', 'Im_RobertPattinson.png', 'Im_DanielCraig.png', 'Im_BradPitt.png', 'Im_KeanuReeves.png'],diff,1,0.40802890000031766,19,0,
GUJU1708,train,pos,120,pos120_id11_im1.bmp_pos120_id11_im10.bmp,['Im_BenStiller.png', 'Im_LeonardoDiCaprio.png', 'Im_GeorgeClooney.png', 'Im_JustinTimberlake.png', 'Im_PatrickDempsey.png', 'Im_DanielRadcliffe.png', 'Im_RobertPattinson.png', 'Im_DanielCraig.png', 'Im_BradPitt.png', 'Im_KeanuReeves.png'],same,1,0.9417542000001049,20,0,
GUJU1708,train,pos,60,pos60_id13_im15.bmp_pos60_id13_im10.bmp,['Im_BenStiller.png', 'Im_LeonardoDiCaprio.png', 'Im_GeorgeClooney.png', 'Im_JustinTimberlake.png', 'Im_PatrickDempsey.png', 'Im_DanielRadcliffe.png', 'Im_RobertPattinson.png', 'Im_DanielCraig.png', 'Im_BradPitt.png', 'Im_KeanuReeves.png'],same,1,0.4169371999996656,21,0,
GUJU1708,train,pos,0,pos0_id2_im2.bmp_pos0_id5_im10.bmp,['Im_BenStiller.png', 'Im_LeonardoDiCaprio.png', 'Im_GeorgeClooney.png', 'Im_JustinTimberlake.png', 'Im_PatrickDempsey.png', 'Im_DanielRadcliffe.png', 'Im_RobertPattinson.png', 'Im_DanielCraig.png', 'Im_BradPitt.png', 'Im_KeanuReeves.png'],diff,1,0.41684889999942243,22,0,
GUJU1708,train,pos,150,pos150_id10_im18.bmp_pos150_id2_im3.bmp,['Im_BenStiller.png', 'Im_LeonardoDiCaprio.png', 'Im_GeorgeClooney.png', 'Im_JustinTimberlake.png', 'Im_PatrickDempsey.png', 'Im_DanielRadcliffe.png', 'Im_RobertPattinson.png', 'Im_DanielCraig.png', 'Im_BradPitt.png', 'Im_KeanuReeves.png'],diff,1,0.42493930000000546,23,0,
GUJU1708,train,pos,150,pos150_id2_im3.bmp_pos150_id2_im16.bmp,['Im_BenStiller.png', 'Im_LeonardoDiCaprio.png', 'Im_GeorgeClooney.png', 'Im_JustinTimberlake.png', 'Im_PatrickDempsey.png', 'Im_DanielRadcliffe.png', 'Im_RobertPattinson.png', 'Im_DanielCraig.png', 'Im_BradPitt.png', 'Im_KeanuReeves.png'],same,1,0.408460799999375,24,0,
GUJU1708,train,neg,fs,negfs_id7_im26.bmp_negfs_id7_im15.bmp,['Im_BenStiller.png', 'Im_LeonardoDiCaprio.png', 'Im_GeorgeClooney.png', 'Im_JustinTimberlake.png', 'Im_PatrickDempsey.png', 'Im_DanielRadcliffe.png', 'Im_RobertPattinson.png', 'Im_DanielCraig.png', 'Im_BradPitt.png', 'Im_KeanuReeves.png'],same,1,0.4083436000000802,25,0,
GUJU1708,train,neg,30,neg30_id13_im10.bmp_neg30_id5_im20.bmp,['Im_BenStiller.png', 'Im_LeonardoDiCaprio.png', 'Im_GeorgeClooney.png', 'Im_JustinTimberlake.png', 'Im_PatrickDempsey.png', 'Im_DanielRadcliffe.png', 'Im_RobertPattinson.png', 'Im_DanielCraig.png', 'Im_BradPitt.png', 'Im_KeanuReeves.png'],diff,1,0.4919509000001199,26,0,
GUJU1708,train,neg,60,neg60_id13_im15.bmp_neg60_id13_im29.bmp,['Im_BenStiller.png', 'Im_LeonardoDiCaprio.png', 'Im_GeorgeClooney.png', 'Im_JustinTimberlake.png', 'Im_PatrickDempsey.png', 'Im_DanielRadcliffe.png', 'Im_RobertPattinson.png', 'Im_DanielCraig.png', 'Im_BradPitt.png', 'Im_KeanuReeves.png'],same,1,0.9250783999996202,27,0,
GUJU1708,train,neg,0,neg0_id10_im17.bmp_neg0_id10_im1.bmp,['Im_BenStiller.png', 'Im_LeonardoDiCaprio.png', 'Im_GeorgeClooney.png', 'Im_JustinTimberlake.png', 'Im_PatrickDempsey.png', 'Im_DanielRadcliffe.png', 'Im_RobertPattinson.png', 'Im_DanielCraig.png', 'Im_BradPitt.png', 'Im_KeanuReeves.png'],same,1,0.46676119999938237,28,0,
GUJU1708,train,neg,fs,negfs_id13_im15.bmp_negfs_id13_im10.bmp,['Im_BenStiller.png', 'Im_LeonardoDiCaprio.png', 'Im_GeorgeClooney.png', 'Im_JustinTimberlake.png', 'Im_PatrickDempsey.png', 'Im_DanielRadcliffe.png', 'Im_RobertPattinson.png', 'Im_DanielCraig.png', 'Im_BradPitt.png', 'Im_KeanuReeves.png'],same,1,0.41683719999946334,29,0,
GUJU1708,train,neg,90,neg90_id4_im15.bmp_neg90_id19_im27.bmp,['Im_BenStiller.png', 'Im_LeonardoDiCaprio.png', 'Im_GeorgeClooney.png', 'Im_JustinTimberlake.png', 'Im_PatrickDempsey.png', 'Im_DanielRadcliffe.png', 'Im_RobertPattinson.png', 'Im_DanielCraig.png', 'Im_BradPitt.png', 'Im_KeanuReeves.png'],diff,1,0.4752249999992273,30,0,
GUJU1708,train,neg,60,neg60_id3_im6.bmp_neg60_id3_im8.bmp,['Im_BenStiller.png', 'Im_LeonardoDiCaprio.png', 'Im_GeorgeClooney.png', 'Im_JustinTimberlake.png', 'Im_PatrickDempsey.png', 'Im_DanielRadcliffe.png', 'Im_RobertPattinson.png', 'Im_DanielCraig.png', 'Im_BradPitt.png', 'Im_KeanuReeves.png'],same,1,0.41669760000058886,31,0,
GUJU1708,train,neg,30,neg30_id7_im15.bmp_neg30_id7_im14.bmp,['Im_BenStiller.png', 'Im_LeonardoDiCaprio.png', 'Im_GeorgeClooney.png', 'Im_JustinTimberlake.png', 'Im_PatrickDempsey.png', 'Im_DanielRadcliffe.png', 'Im_RobertPattinson.png', 'Im_DanielCraig.png', 'Im_BradPitt.png', 'Im_KeanuReeves.png'],same,1,0.41687910000018746,32,0,
GUJU1708,train,neg,120,neg120_id11_im10.bmp_neg120_id17_im14.bmp,['Im_BenStiller.png', 'Im_LeonardoDiCaprio.png', 'Im_GeorgeClooney.png', 'Im_JustinTimberlake.png', 'Im_PatrickDempsey.png', 'Im_DanielRadcliffe.png', 'Im_RobertPattinson.png', 'Im_DanielCraig.png', 'Im_BradPitt.png', 'Im_KeanuReeves.png'],diff,1,0.4083762000000206,33,0,
GUJU1708,train,neg,90,neg90_id3_im17.bmp_neg90_id3_im6.bmp,['Im_BenStiller.png', 'Im_LeonardoDiCaprio.png', 'Im_GeorgeClooney.png', 'Im_JustinTimberlake.png', 'Im_PatrickDempsey.png', 'Im_DanielRadcliffe.png', 'Im_RobertPattinson.png', 'Im_DanielCraig.png', 'Im_BradPitt.png', 'Im_KeanuReeves.png'],same,1,0.47465289999945526,34,0,
GUJU1708,train,neg,0,neg0_id19_im4.bmp_neg0_id7_im26.bmp,['Im_BenStiller.png', 'Im_LeonardoDiCaprio.png', 'Im_GeorgeClooney.png', 'Im_JustinTimberlake.png', 'Im_PatrickDempsey.png', 'Im_DanielRadcliffe.png', 'Im_RobertPattinson.png', 'Im_DanielCraig.png', 'Im_BradPitt.png', 'Im_KeanuReeves.png'],diff,1,0.4248184999996738,35,0,
GUJU1708,train,neg,150,neg150_id11_im10.bmp_neg150_id11_im1.bmp,['Im_BenStiller.png', 'Im_LeonardoDiCaprio.png', 'Im_GeorgeClooney.png', 'Im_JustinTimberlake.png', 'Im_PatrickDempsey.png', 'Im_DanielRadcliffe.png', 'Im_RobertPattinson.png', 'Im_DanielCraig.png', 'Im_BradPitt.png', 'Im_KeanuReeves.png'],same,1,0.7416715999997905,36,0,
GUJU1708,train,neg,120,neg120_id11_im2.bmp_neg120_id3_im17.bmp,['Im_BenStiller.png', 'Im_LeonardoDiCaprio.png', 'Im_GeorgeClooney.png', 'Im_JustinTimberlake.png', 'Im_PatrickDempsey.png', 'Im_DanielRadcliffe.png', 'Im_RobertPattinson.png', 'Im_DanielCraig.png', 'Im_BradPitt.png', 'Im_KeanuReeves.png'],diff,1,0.4334640999995827,37,0,
GUJU1708,train,neg,150,neg150_id19_im8.bmp_neg150_id11_im1.bmp,['Im_BenStiller.png', 'Im_LeonardoDiCaprio.png', 'Im_GeorgeClooney.png', 'Im_JustinTimberlake.png', 'Im_PatrickDempsey.png', 'Im_DanielRadcliffe.png', 'Im_RobertPattinson.png', 'Im_DanielCraig.png', 'Im_BradPitt.png', 'Im_KeanuReeves.png'],diff,1,0.9166752999999517,38,0,
GUJU1708,train,inv,30,pos30_id3_im8.bmp_pos30_id3_im6.bmp,['Im_BenStiller.png', 'Im_LeonardoDiCaprio.png', 'Im_GeorgeClooney.png', 'Im_JustinTimberlake.png', 'Im_PatrickDempsey.png', 'Im_DanielRadcliffe.png', 'Im_RobertPattinson.png', 'Im_DanielCraig.png', 'Im_BradPitt.png', 'Im_KeanuReeves.png'],same,1,0.41681919999973616,1,90.47619047619048,
GUJU1708,train,inv,90,pos90_id3_im6.bmp_pos90_id3_im8.bmp,['Im_BenStiller.png', 'Im_LeonardoDiCaprio.png', 'Im_GeorgeClooney.png', 'Im_JustinTimberlake.png', 'Im_PatrickDempsey.png', 'Im_DanielRadcliffe.png', 'Im_RobertPattinson.png', 'Im_DanielCraig.png', 'Im_BradPitt.png', 'Im_KeanuReeves.png'],same,1,0.425116600000365,2,90.47619047619048,
GUJU1708,train,inv,120,pos120_id19_im4.bmp_pos120_id19_im8.bmp,['Im_BenStiller.png', 'Im_LeonardoDiCaprio.png', 'Im_GeorgeClooney.png', 'Im_JustinTimberlake.png', 'Im_PatrickDempsey.png', 'Im_DanielRadcliffe.png', 'Im_RobertPattinson.png', 'Im_DanielCraig.png', 'Im_BradPitt.png', 'Im_KeanuReeves.png'],diff,0,0.7919223999997484,2,90.47619047619048,
GUJU1708,train,inv,150,pos150_id19_im27.bmp_pos150_id19_im8.bmp,['Im_BenStiller.png', 'Im_LeonardoDiCaprio.png', 'Im_GeorgeClooney.png', 'Im_JustinTimberlake.png', 'Im_PatrickDempsey.png', 'Im_DanielRadcliffe.png', 'Im_RobertPattinson.png', 'Im_DanielCraig.png', 'Im_BradPitt.png', 'Im_KeanuReeves.png'],same,1,0.4247667999998157,3,90.47619047619048,
GUJU1708,train,inv,60,pos60_id10_im1.bmp_pos60_id3_im17.bmp,['Im_BenStiller.png', 'Im_LeonardoDiCaprio.png', 'Im_GeorgeClooney.png', 'Im_JustinTimberlake.png', 'Im_PatrickDempsey.png', 'Im_DanielRadcliffe.png', 'Im_RobertPattinson.png', 'Im_DanielCraig.png', 'Im_BradPitt.png', 'Im_KeanuReeves.png'],diff,1,0.41668420000041806,4,90.47619047619048,
GUJU1708,train,inv,120,pos120_id17_im14.bmp_pos120_id17_im8.bmp,['Im_BenStiller.png', 'Im_LeonardoDiCaprio.png', 'Im_GeorgeClooney.png', 'Im_JustinTimberlake.png', 'Im_PatrickDempsey.png', 'Im_DanielRadcliffe.png', 'Im_RobertPattinson.png', 'Im_DanielCraig.png', 'Im_BradPitt.png', 'Im_KeanuReeves.png'],diff,0,0.41635540000061155,4,90.47619047619048,
GUJU1708,train,inv,0,pos0_id2_im16.bmp_pos0_id2_im3.bmp,['Im_BenStiller.png', 'Im_LeonardoDiCaprio.png', 'Im_GeorgeClooney.png', 'Im_JustinTimberlake.png', 'Im_PatrickDempsey.png', 'Im_DanielRadcliffe.png', 'Im_RobertPattinson.png', 'Im_DanielCraig.png', 'Im_BradPitt.png', 'Im_KeanuReeves.png'],same,1,0.40846090000013646,5,90.47619047619048,
GUJU1708,train,inv,150,pos150_id13_im29.bmp_pos150_id7_im14.bmp,['Im_BenStiller.png', 'Im_LeonardoDiCaprio.png', 'Im_GeorgeClooney.png', 'Im_JustinTimberlake.png', 'Im_PatrickDempsey.png', 'Im_DanielRadcliffe.png', 'Im_RobertPattinson.png', 'Im_DanielCraig.png', 'Im_BradPitt.png', 'Im_KeanuReeves.png'],diff,1,0.41682850000051985,6,90.47619047619048,
GUJU1708,train,inv,fs,posfs_id7_im15.bmp_posfs_id19_im4.bmp,['Im_BenStiller.png', 'Im_LeonardoDiCaprio.png', 'Im_GeorgeClooney.png', 'Im_JustinTimberlake.png', 'Im_PatrickDempsey.png', 'Im_DanielRadcliffe.png', 'Im_RobertPattinson.png', 'Im_DanielCraig.png', 'Im_BradPitt.png', 'Im_KeanuReeves.png'],diff,1,0.4415969000001496,7,90.47619047619048,
GUJU1708,train,inv,60,pos60_id11_im2.bmp_pos60_id3_im17.bmp,['Im_BenStiller.png', 'Im_LeonardoDiCaprio.png', 'Im_GeorgeClooney.png', 'Im_JustinTimberlake.png', 'Im_PatrickDempsey.png', 'Im_DanielRadcliffe.png', 'Im_RobertPattinson.png', 'Im_DanielCraig.png', 'Im_BradPitt.png', 'Im_KeanuReeves.png'],diff,1,0.4167090000000826,8,90.47619047619048,
GUJU1708,train,inv,0,pos0_id17_im9.bmp_pos0_id3_im6.bmp,['Im_BenStiller.png', 'Im_LeonardoDiCaprio.png', 'Im_GeorgeClooney.png', 'Im_JustinTimberlake.png', 'Im_PatrickDempsey.png', 'Im_DanielRadcliffe.png', 'Im_RobertPattinson.png', 'Im_DanielCraig.png', 'Im_BradPitt.png', 'Im_KeanuReeves.png'],diff,1,0.41685620000043855,9,90.47619047619048,
GUJU1708,train,inv,90,pos90_id5_im10.bmp_pos90_id2_im2.bmp,['Im_BenStiller.png', 'Im_LeonardoDiCaprio.png', 'Im_GeorgeClooney.png', 'Im_JustinTimberlake.png', 'Im_PatrickDempsey.png', 'Im_DanielRadcliffe.png', 'Im_RobertPattinson.png', 'Im_DanielCraig.png', 'Im_BradPitt.png', 'Im_KeanuReeves.png'],diff,1,0.40838569999959873,10,90.47619047619048,
GUJU1708,train,inv,30,pos30_id11_im10.bmp_pos30_id17_im14.bmp,['Im_BenStiller.png', 'Im_LeonardoDiCaprio.png', 'Im_GeorgeClooney.png', 'Im_JustinTimberlake.png', 'Im_PatrickDempsey.png', 'Im_DanielRadcliffe.png', 'Im_RobertPattinson.png', 'Im_DanielCraig.png', 'Im_BradPitt.png', 'Im_KeanuReeves.png'],diff,1,0.725288300000102,11,90.47619047619048,
GUJU1708,train,inv,fs,posfs_id4_im7.bmp_posfs_id4_im15.bmp,['Im_BenStiller.png', 'Im_LeonardoDiCaprio.png', 'Im_GeorgeClooney.png', 'Im_JustinTimberlake.png', 'Im_PatrickDempsey.png', 'Im_DanielRadcliffe.png', 'Im_RobertPattinson.png', 'Im_DanielCraig.png', 'Im_BradPitt.png', 'Im_KeanuReeves.png'],diff,0,1.9502964000002976,11,90.47619047619048,
GUJU1708,train,pos,120,pos120_id4_im7.bmp_pos120_id17_im9.bmp,['Im_BenStiller.png', 'Im_LeonardoDiCaprio.png', 'Im_GeorgeClooney.png', 'Im_JustinTimberlake.png', 'Im_PatrickDempsey.png', 'Im_DanielRadcliffe.png', 'Im_RobertPattinson.png', 'Im_DanielCraig.png', 'Im_BradPitt.png', 'Im_KeanuReeves.png'],diff,1,0.44170560000020487,12,90.47619047619048,
GUJU1708,train,pos,fs,posfs_id10_im1.bmp_posfs_id10_im17.bmp,['Im_BenStiller.png', 'Im_LeonardoDiCaprio.png', 'Im_GeorgeClooney.png', 'Im_JustinTimberlake.png', 'Im_PatrickDempsey.png', 'Im_DanielRadcliffe.png', 'Im_RobertPattinson.png', 'Im_DanielCraig.png', 'Im_BradPitt.png', 'Im_KeanuReeves.png'],same,1,0.41669699999965815,13,90.47619047619048,
GUJU1708,train,pos,60,pos60_id10_im17.bmp_pos60_id10_im18.bmp,['Im_BenStiller.png', 'Im_LeonardoDiCaprio.png', 'Im_GeorgeClooney.png', 'Im_JustinTimberlake.png', 'Im_PatrickDempsey.png', 'Im_DanielRadcliffe.png', 'Im_RobertPattinson.png', 'Im_DanielCraig.png', 'Im_BradPitt.png', 'Im_KeanuReeves.png'],same,1,0.40852320000067266,14,90.47619047619048,
GUJU1708,train,pos,150,pos150_id5_im20.bmp_pos150_id5_im10.bmp,['Im_BenStiller.png', 'Im_LeonardoDiCaprio.png', 'Im_GeorgeClooney.png', 'Im_JustinTimberlake.png', 'Im_PatrickDempsey.png', 'Im_DanielRadcliffe.png', 'Im_RobertPattinson.png', 'Im_DanielCraig.png', 'Im_BradPitt.png', 'Im_KeanuReeves.png'],same,1,0.8424871999995958,15,90.47619047619048,
GUJU1708,train,pos,fs,posfs_id11_im2.bmp_posfs_id11_im10.bmp,['Im_BenStiller.png', 'Im_LeonardoDiCaprio.png', 'Im_GeorgeClooney.png', 'Im_JustinTimberlake.png', 'Im_PatrickDempsey.png', 'Im_DanielRadcliffe.png', 'Im_RobertPattinson.png', 'Im_DanielCraig.png', 'Im_BradPitt.png', 'Im_KeanuReeves.png'],same,1,0.41669139999976323,16,90.47619047619048,
GUJU1708,train,pos,90,pos90_id3_im8.bmp_pos90_id7_im26.bmp,['Im_BenStiller.png', 'Im_LeonardoDiCaprio.png', 'Im_GeorgeClooney.png', 'Im_JustinTimberlake.png', 'Im_PatrickDempsey.png', 'Im_DanielRadcliffe.png', 'Im_RobertPattinson.png', 'Im_DanielCraig.png', 'Im_BradPitt.png', 'Im_KeanuReeves.png'],diff,1,0.425071200000275,17,90.47619047619048,
GUJU1708,train,pos,120,pos120_id7_im14.bmp_pos120_id7_im15.bmp,['Im_BenStiller.png', 'Im_LeonardoDiCaprio.png', 'Im_GeorgeClooney.png', 'Im_JustinTimberlake.png', 'Im_PatrickDempsey.png', 'Im_DanielRadcliffe.png', 'Im_RobertPattinson.png', 'Im_DanielCraig.png', 'Im_BradPitt.png', 'Im_KeanuReeves.png'],same,1,0.4083677999997235,18,90.47619047619048,
GUJU1708,train,pos,60,pos60_id19_im27.bmp_pos60_id19_im4.bmp,['Im_BenStiller.png', 'Im_LeonardoDiCaprio.png', 'Im_GeorgeClooney.png', 'Im_JustinTimberlake.png', 'Im_PatrickDempsey.png', 'Im_DanielRadcliffe.png', 'Im_RobertPattinson.png', 'Im_DanielCraig.png', 'Im_BradPitt.png', 'Im_KeanuReeves.png'],same,1,0.42507130000012694,19,90.47619047619048,
GUJU1708,train,pos,0,pos0_id19_im8.bmp_pos0_id19_im4.bmp,['Im_BenStiller.png', 'Im_LeonardoDiCaprio.png', 'Im_GeorgeClooney.png', 'Im_JustinTimberlake.png', 'Im_PatrickDempsey.png', 'Im_DanielRadcliffe.png', 'Im_RobertPattinson.png', 'Im_DanielCraig.png', 'Im_BradPitt.png', 'Im_KeanuReeves.png'],same,1,0.44192309999925783,20,90.47619047619048,
GUJU1708,train,pos,30,pos30_id11_im2.bmp_pos30_id11_im1.bmp,['Im_BenStiller.png', 'Im_LeonardoDiCaprio.png', 'Im_GeorgeClooney.png', 'Im_JustinTimberlake.png', 'Im_PatrickDempsey.png', 'Im_DanielRadcliffe.png', 'Im_RobertPattinson.png', 'Im_DanielCraig.png', 'Im_BradPitt.png', 'Im_KeanuReeves.png'],same,1,0.408357000000251,21,90.47619047619048,
GUJU1708,train,pos,90,pos90_id7_im14.bmp_pos90_id4_im20.bmp,['Im_BenStiller.png', 'Im_LeonardoDiCaprio.png', 'Im_GeorgeClooney.png', 'Im_JustinTimberlake.png', 'Im_PatrickDempsey.png', 'Im_DanielRadcliffe.png', 'Im_RobertPattinson.png', 'Im_DanielCraig.png', 'Im_BradPitt.png', 'Im_KeanuReeves.png'],diff,1,0.4251180999999633,22,90.47619047619048,
GUJU1708,train,pos,150,pos150_id5_im20.bmp_pos150_id2_im2.bmp,['Im_BenStiller.png', 'Im_LeonardoDiCaprio.png', 'Im_GeorgeClooney.png', 'Im_JustinTimberlake.png', 'Im_PatrickDempsey.png', 'Im_DanielRadcliffe.png', 'Im_RobertPattinson.png', 'Im_DanielCraig.png', 'Im_BradPitt.png', 'Im_KeanuReeves.png'],diff,1,0.4251713000003292,23,90.47619047619048,
GUJU1708,train,pos,30,pos30_id11_im10.bmp_pos30_id19_im27.bmp,['Im_BenStiller.png', 'Im_LeonardoDiCaprio.png', 'Im_GeorgeClooney.png', 'Im_JustinTimberlake.png', 'Im_PatrickDempsey.png', 'Im_DanielRadcliffe.png', 'Im_RobertPattinson.png', 'Im_DanielCraig.png', 'Im_BradPitt.png', 'Im_KeanuReeves.png'],diff,1,0.4167041999999128,24,90.47619047619048,
GUJU1708,train,pos,0,pos0_id13_im29.bmp_pos0_id19_im8.bmp,['Im_BenStiller.png', 'Im_LeonardoDiCaprio.png', 'Im_GeorgeClooney.png', 'Im_JustinTimberlake.png', 'Im_PatrickDempsey.png', 'Im_DanielRadcliffe.png', 'Im_RobertPattinson.png', 'Im_DanielCraig.png', 'Im_BradPitt.png', 'Im_KeanuReeves.png'],same,0,0.9915170000003855,24,90.47619047619048,
GUJU1708,train,inv,30,pos30_id2_im16.bmp_pos30_id2_im2.bmp,['Im_BenStiller.png', 'Im_LeonardoDiCaprio.png', 'Im_GeorgeClooney.png', 'Im_JustinTimberlake.png', 'Im_PatrickDempsey.png', 'Im_DanielRadcliffe.png', 'Im_RobertPattinson.png', 'Im_DanielCraig.png', 'Im_BradPitt.png', 'Im_KeanuReeves.png'],same,1,0.4083295000000362,25,90.47619047619048,
GUJU1708,train,inv,120,pos120_id5_im1.bmp_pos120_id5_im10.bmp,['Im_BenStiller.png', 'Im_LeonardoDiCaprio.png', 'Im_GeorgeClooney.png', 'Im_JustinTimberlake.png', 'Im_PatrickDempsey.png', 'Im_DanielRadcliffe.png', 'Im_RobertPattinson.png', 'Im_DanielCraig.png', 'Im_BradPitt.png', 'Im_KeanuReeves.png'],same,1,0.42501760000050126,26,90.47619047619048,
GUJU1708,train,inv,60,pos60_id5_im10.bmp_pos60_id13_im15.bmp,['Im_BenStiller.png', 'Im_LeonardoDiCaprio.png', 'Im_GeorgeClooney.png', 'Im_JustinTimberlake.png', 'Im_PatrickDempsey.png', 'Im_DanielRadcliffe.png', 'Im_RobertPattinson.png', 'Im_DanielCraig.png', 'Im_BradPitt.png', 'Im_KeanuReeves.png'],diff,1,0.4167642000002161,27,90.47619047619048,
GUJU1708,train,inv,120,pos120_id17_im9.bmp_pos120_id17_im8.bmp,['Im_BenStiller.png', 'Im_LeonardoDiCaprio.png', 'Im_GeorgeClooney.png', 'Im_JustinTimberlake.png', 'Im_PatrickDempsey.png', 'Im_DanielRadcliffe.png', 'Im_RobertPattinson.png', 'Im_DanielCraig.png', 'Im_BradPitt.png', 'Im_KeanuReeves.png'],diff,0,0.8502285000004122,27,90.47619047619048,
GUJU1708,train,inv,150,pos150_id7_im26.bmp_pos150_id7_im15.bmp,['Im_BenStiller.png', 'Im_LeonardoDiCaprio.png', 'Im_GeorgeClooney.png', 'Im_JustinTimberlake.png', 'Im_PatrickDempsey.png', 'Im_DanielRadcliffe.png', 'Im_RobertPattinson.png', 'Im_DanielCraig.png', 'Im_BradPitt.png', 'Im_KeanuReeves.png'],same,1,0.40835559999959514,28,90.47619047619048,
GUJU1708,train,inv,30,pos30_id7_im26.bmp_pos30_id3_im8.bmp,['Im_BenStiller.png', 'Im_LeonardoDiCaprio.png', 'Im_GeorgeClooney.png', 'Im_JustinTimberlake.png', 'Im_PatrickDempsey.png', 'Im_DanielRadcliffe.png', 'Im_RobertPattinson.png', 'Im_DanielCraig.png', 'Im_BradPitt.png', 'Im_KeanuReeves.png'],diff,1,0.5420665000001463,29,90.47619047619048,
GUJU1708,train,inv,0,pos0_id13_im29.bmp_pos0_id7_im14.bmp,['Im_BenStiller.png', 'Im_LeonardoDiCaprio.png', 'Im_GeorgeClooney.png', 'Im_JustinTimberlake.png', 'Im_PatrickDempsey.png', 'Im_DanielRadcliffe.png', 'Im_RobertPattinson.png', 'Im_DanielCraig.png', 'Im_BradPitt.png', 'Im_KeanuReeves.png'],diff,1,0.4083645000000615,30,90.47619047619048,
GUJU1708,train,inv,150,pos150_id5_im20.bmp_pos150_id2_im2.bmp,['Im_BenStiller.png', 'Im_LeonardoDiCaprio.png', 'Im_GeorgeClooney.png', 'Im_JustinTimberlake.png', 'Im_PatrickDempsey.png', 'Im_DanielRadcliffe.png', 'Im_RobertPattinson.png', 'Im_DanielCraig.png', 'Im_BradPitt.png', 'Im_KeanuReeves.png'],diff,1,0.4168164999991859,31,90.47619047619048,
GUJU1708,train,inv,90,pos90_id13_im29.bmp_pos90_id13_im10.bmp,['Im_BenStiller.png', 'Im_LeonardoDiCaprio.png', 'Im_GeorgeClooney.png', 'Im_JustinTimberlake.png', 'Im_PatrickDempsey.png', 'Im_DanielRadcliffe.png', 'Im_RobertPattinson.png', 'Im_DanielCraig.png', 'Im_BradPitt.png', 'Im_KeanuReeves.png'],same,1,0.4166800000002695,32,90.47619047619048,
GUJU1708,train,inv,fs,posfs_id3_im17.bmp_posfs_id3_im6.bmp,['Im_BenStiller.png', 'Im_LeonardoDiCaprio.png', 'Im_GeorgeClooney.png', 'Im_JustinTimberlake.png', 'Im_PatrickDempsey.png', 'Im_DanielRadcliffe.png', 'Im_RobertPattinson.png', 'Im_DanielCraig.png', 'Im_BradPitt.png', 'Im_KeanuReeves.png'],same,1,0.4250125999997181,33,90.47619047619048,
GUJU1708,train,inv,0,pos0_id13_im15.bmp_pos0_id5_im10.bmp,['Im_BenStiller.png', 'Im_LeonardoDiCaprio.png', 'Im_GeorgeClooney.png', 'Im_JustinTimberlake.png', 'Im_PatrickDempsey.png', 'Im_DanielRadcliffe.png', 'Im_RobertPattinson.png', 'Im_DanielCraig.png', 'Im_BradPitt.png', 'Im_KeanuReeves.png'],diff,1,0.4251022999997076,34,90.47619047619048,
GUJU1708,train,inv,60,pos60_id2_im2.bmp_pos60_id2_im3.bmp,['Im_BenStiller.png', 'Im_LeonardoDiCaprio.png', 'Im_GeorgeClooney.png', 'Im_JustinTimberlake.png', 'Im_PatrickDempsey.png', 'Im_DanielRadcliffe.png', 'Im_RobertPattinson.png', 'Im_DanielCraig.png', 'Im_BradPitt.png', 'Im_KeanuReeves.png'],same,1,0.41684340000028897,35,90.47619047619048,
GUJU1708,train,inv,90,pos90_id13_im15.bmp_pos90_id5_im10.bmp,['Im_BenStiller.png', 'Im_LeonardoDiCaprio.png', 'Im_GeorgeClooney.png', 'Im_JustinTimberlake.png', 'Im_PatrickDempsey.png', 'Im_DanielRadcliffe.png', 'Im_RobertPattinson.png', 'Im_DanielCraig.png', 'Im_BradPitt.png', 'Im_KeanuReeves.png'],diff,1,0.4500074000006862,36,90.47619047619048,
GUJU1708,train,inv,fs,posfs_id2_im16.bmp_posfs_id7_im15.bmp,['Im_BenStiller.png', 'Im_LeonardoDiCaprio.png', 'Im_GeorgeClooney.png', 'Im_JustinTimberlake.png', 'Im_PatrickDempsey.png', 'Im_DanielRadcliffe.png', 'Im_RobertPattinson.png', 'Im_DanielCraig.png', 'Im_BradPitt.png', 'Im_KeanuReeves.png'],same,0,1.0501328000000285,36,90.47619047619048,
GUJU1708,0,pos,fs,posfs_id11_im10.bmp_posfs_id11_im1.bmp,['Im_BenStiller.png', 'Im_LeonardoDiCaprio.png', 'Im_GeorgeClooney.png', 'Im_JustinTimberlake.png', 'Im_PatrickDempsey.png', 'Im_DanielRadcliffe.png', 'Im_RobertPattinson.png', 'Im_DanielCraig.png', 'Im_BradPitt.png', 'Im_KeanuReeves.png'],same,1,1.125115800000458,1,0,
GUJU1708,0,pos,60,pos60_id17_im9.bmp_pos60_id4_im7.bmp,['Im_BenStiller.png', 'Im_LeonardoDiCaprio.png', 'Im_GeorgeClooney.png', 'Im_JustinTimberlake.png', 'Im_PatrickDempsey.png', 'Im_DanielRadcliffe.png', 'Im_RobertPattinson.png', 'Im_DanielCraig.png', 'Im_BradPitt.png', 'Im_KeanuReeves.png'],diff,1,0.4334305000002132,2,0,
GUJU1708,0,pos,90,pos90_id3_im8.bmp_pos90_id17_im14.bmp,['Im_BenStiller.png', 'Im_LeonardoDiCaprio.png', 'Im_GeorgeClooney.png', 'Im_JustinTimberlake.png', 'Im_PatrickDempsey.png', 'Im_DanielRadcliffe.png', 'Im_RobertPattinson.png', 'Im_DanielCraig.png', 'Im_BradPitt.png', 'Im_KeanuReeves.png'],diff,1,0.4333334000002651,3,0,
GUJU1708,0,pos,30,pos30_id17_im8.bmp_pos30_id10_im17.bmp,['Im_BenStiller.png', 'Im_LeonardoDiCaprio.png', 'Im_GeorgeClooney.png', 'Im_JustinTimberlake.png', 'Im_PatrickDempsey.png', 'Im_DanielRadcliffe.png', 'Im_RobertPattinson.png', 'Im_DanielCraig.png', 'Im_BradPitt.png', 'Im_KeanuReeves.png'],diff,1,0.40004769999995915,4,0,
GUJU1708,0,pos,30,pos30_id7_im14.bmp_pos30_id4_im20.bmp,['Im_BenStiller.png', 'Im_LeonardoDiCaprio.png', 'Im_GeorgeClooney.png', 'Im_JustinTimberlake.png', 'Im_PatrickDempsey.png', 'Im_DanielRadcliffe.png', 'Im_RobertPattinson.png', 'Im_DanielCraig.png', 'Im_BradPitt.png', 'Im_KeanuReeves.png'],diff,1,0.4166331000005812,5,0,
GUJU1708,0,pos,120,pos120_id17_im8.bmp_pos120_id10_im17.bmp,['Im_BenStiller.png', 'Im_LeonardoDiCaprio.png', 'Im_GeorgeClooney.png', 'Im_JustinTimberlake.png', 'Im_PatrickDempsey.png', 'Im_DanielRadcliffe.png', 'Im_RobertPattinson.png', 'Im_DanielCraig.png', 'Im_BradPitt.png', 'Im_KeanuReeves.png'],diff,1,0.4249686000002839,6,0,
GUJU1708,0,pos,120,pos120_id2_im3.bmp_pos120_id2_im16.bmp,['Im_BenStiller.png', 'Im_LeonardoDiCaprio.png', 'Im_GeorgeClooney.png', 'Im_JustinTimberlake.png', 'Im_PatrickDempsey.png', 'Im_DanielRadcliffe.png', 'Im_RobertPattinson.png', 'Im_DanielCraig.png', 'Im_BradPitt.png', 'Im_KeanuReeves.png'],same,1,0.40008750000015425,7,0,
GUJU1708,0,pos,0,pos0_id11_im10.bmp_pos0_id11_im2.bmp,['Im_BenStiller.png', 'Im_LeonardoDiCaprio.png', 'Im_GeorgeClooney.png', 'Im_JustinTimberlake.png', 'Im_PatrickDempsey.png', 'Im_DanielRadcliffe.png', 'Im_RobertPattinson.png', 'Im_DanielCraig.png', 'Im_BradPitt.png', 'Im_KeanuReeves.png'],same,1,0.4000207999997656,8,0,
GUJU1708,0,pos,90,pos90_id7_im26.bmp_pos90_id7_im14.bmp,['Im_BenStiller.png', 'Im_LeonardoDiCaprio.png', 'Im_GeorgeClooney.png', 'Im_JustinTimberlake.png', 'Im_PatrickDempsey.png', 'Im_DanielRadcliffe.png', 'Im_RobertPattinson.png', 'Im_DanielCraig.png', 'Im_BradPitt.png', 'Im_KeanuReeves.png'],diff,0,0.967023700000027,8,0,
GUJU1708,0,pos,150,pos150_id7_im14.bmp_pos150_id13_im29.bmp,['Im_BenStiller.png', 'Im_LeonardoDiCaprio.png', 'Im_GeorgeClooney.png', 'Im_JustinTimberlake.png', 'Im_PatrickDempsey.png', 'Im_DanielRadcliffe.png', 'Im_RobertPattinson.png', 'Im_DanielCraig.png', 'Im_BradPitt.png', 'Im_KeanuReeves.png'],diff,1,0.43339469999955327,9,0,
GUJU1708,0,pos,150,pos150_id7_im26.bmp_pos150_id3_im8.bmp,['Im_BenStiller.png', 'Im_LeonardoDiCaprio.png', 'Im_GeorgeClooney.png', 'Im_JustinTimberlake.png', 'Im_PatrickDempsey.png', 'Im_DanielRadcliffe.png', 'Im_RobertPattinson.png', 'Im_DanielCraig.png', 'Im_BradPitt.png', 'Im_KeanuReeves.png'],diff,1,2.125281399999949,10,0,
GUJU1708,0,pos,fs,posfs_id10_im18.bmp_posfs_id2_im3.bmp,['Im_BenStiller.png', 'Im_LeonardoDiCaprio.png', 'Im_GeorgeClooney.png', 'Im_JustinTimberlake.png', 'Im_PatrickDempsey.png', 'Im_DanielRadcliffe.png', 'Im_RobertPattinson.png', 'Im_DanielCraig.png', 'Im_BradPitt.png', 'Im_KeanuReeves.png'],diff,1,0.42514219999975467,11,0,
GUJU1708,0,pos,60,pos60_id10_im1.bmp_pos60_id10_im17.bmp,['Im_BenStiller.png', 'Im_LeonardoDiCaprio.png', 'Im_GeorgeClooney.png', 'Im_JustinTimberlake.png', 'Im_PatrickDempsey.png', 'Im_DanielRadcliffe.png', 'Im_RobertPattinson.png', 'Im_DanielCraig.png', 'Im_BradPitt.png', 'Im_KeanuReeves.png'],same,1,0.4002250000003187,12,0,
GUJU1708,0,pos,0,pos0_id2_im3.bmp_pos0_id2_im2.bmp,['Im_BenStiller.png', 'Im_LeonardoDiCaprio.png', 'Im_GeorgeClooney.png', 'Im_JustinTimberlake.png', 'Im_PatrickDempsey.png', 'Im_DanielRadcliffe.png', 'Im_RobertPattinson.png', 'Im_DanielCraig.png', 'Im_BradPitt.png', 'Im_KeanuReeves.png'],same,1,0.44217810000009194,13,0,
GUJU1708,1,pos,90,pos90_id11_im1.bmp_pos90_id19_im8.bmp,['Im_BenStiller.png', 'Im_LeonardoDiCaprio.png', 'Im_GeorgeClooney.png', 'Im_JustinTimberlake.png', 'Im_PatrickDempsey.png', 'Im_DanielRadcliffe.png', 'Im_RobertPattinson.png', 'Im_DanielCraig.png', 'Im_BradPitt.png', 'Im_KeanuReeves.png'],same,0,0.4248111999995672,13,0,
GUJU1708,1,pos,150,pos150_id11_im10.bmp_pos150_id11_im1.bmp,['Im_BenStiller.png', 'Im_LeonardoDiCaprio.png', 'Im_GeorgeClooney.png', 'Im_JustinTimberlake.png', 'Im_PatrickDempsey.png', 'Im_DanielRadcliffe.png', 'Im_RobertPattinson.png', 'Im_DanielCraig.png', 'Im_BradPitt.png', 'Im_KeanuReeves.png'],same,1,0.4250814999995782,14,0,
GUJU1708,1,pos,90,pos90_id11_im10.bmp_pos90_id11_im1.bmp,['Im_BenStiller.png', 'Im_LeonardoDiCaprio.png', 'Im_GeorgeClooney.png', 'Im_JustinTimberlake.png', 'Im_PatrickDempsey.png', 'Im_DanielRadcliffe.png', 'Im_RobertPattinson.png', 'Im_DanielCraig.png', 'Im_BradPitt.png', 'Im_KeanuReeves.png'],same,1,0.41672379999999976,15,0,
GUJU1708,1,pos,150,pos150_id10_im17.bmp_pos150_id3_im6.bmp,['Im_BenStiller.png', 'Im_LeonardoDiCaprio.png', 'Im_GeorgeClooney.png', 'Im_JustinTimberlake.png', 'Im_PatrickDempsey.png', 'Im_DanielRadcliffe.png', 'Im_RobertPattinson.png', 'Im_DanielCraig.png', 'Im_BradPitt.png', 'Im_KeanuReeves.png'],diff,1,0.42508510000061506,16,0,
GUJU1708,1,pos,0,pos0_id17_im14.bmp_pos0_id11_im10.bmp,['Im_BenStiller.png', 'Im_LeonardoDiCaprio.png', 'Im_GeorgeClooney.png', 'Im_JustinTimberlake.png', 'Im_PatrickDempsey.png', 'Im_DanielRadcliffe.png', 'Im_RobertPattinson.png', 'Im_DanielCraig.png', 'Im_BradPitt.png', 'Im_KeanuReeves.png'],diff,1,0.4251775999991878,17,0,
GUJU1708,1,pos,60,pos60_id11_im1.bmp_pos60_id13_im15.bmp,['Im_BenStiller.png', 'Im_LeonardoDiCaprio.png', 'Im_GeorgeClooney.png', 'Im_JustinTimberlake.png', 'Im_PatrickDempsey.png', 'Im_DanielRadcliffe.png', 'Im_RobertPattinson.png', 'Im_DanielCraig.png', 'Im_BradPitt.png', 'Im_KeanuReeves.png'],diff,1,0.4250698999994711,18,0,
GUJU1708,1,pos,60,pos60_id19_im8.bmp_pos60_id19_im4.bmp,['Im_BenStiller.png', 'Im_LeonardoDiCaprio.png', 'Im_GeorgeClooney.png', 'Im_JustinTimberlake.png', 'Im_PatrickDempsey.png', 'Im_DanielRadcliffe.png', 'Im_RobertPattinson.png', 'Im_DanielCraig.png', 'Im_BradPitt.png', 'Im_KeanuReeves.png'],same,1,0.4169141000002128,19,0,
GUJU1708,1,pos,120,pos120_id17_im9.bmp_pos120_id17_im8.bmp,['Im_BenStiller.png', 'Im_LeonardoDiCaprio.png', 'Im_GeorgeClooney.png', 'Im_JustinTimberlake.png', 'Im_PatrickDempsey.png', 'Im_DanielRadcliffe.png', 'Im_RobertPattinson.png', 'Im_DanielCraig.png', 'Im_BradPitt.png', 'Im_KeanuReeves.png'],same,1,0.4083067999999912,20,0,
GUJU1708,1,pos,fs,posfs_id5_im1.bmp_posfs_id5_im10.bmp,['Im_BenStiller.png', 'Im_LeonardoDiCaprio.png', 'Im_GeorgeClooney.png', 'Im_JustinTimberlake.png', 'Im_PatrickDempsey.png', 'Im_DanielRadcliffe.png', 'Im_RobertPattinson.png', 'Im_DanielCraig.png', 'Im_BradPitt.png', 'Im_KeanuReeves.png'],same,1,0.41666280000026745,21,0,
GUJU1708,1,pos,30,pos30_id7_im26.bmp_pos30_id3_im8.bmp,['Im_BenStiller.png', 'Im_LeonardoDiCaprio.png', 'Im_GeorgeClooney.png', 'Im_JustinTimberlake.png', 'Im_PatrickDempsey.png', 'Im_DanielRadcliffe.png', 'Im_RobertPattinson.png', 'Im_DanielCraig.png', 'Im_BradPitt.png', 'Im_KeanuReeves.png'],diff,1,1.0499841999999262,22,0,
GUJU1708,1,pos,30,pos30_id7_im15.bmp_pos30_id19_im4.bmp,['Im_BenStiller.png', 'Im_LeonardoDiCaprio.png', 'Im_GeorgeClooney.png', 'Im_JustinTimberlake.png', 'Im_PatrickDempsey.png', 'Im_DanielRadcliffe.png', 'Im_RobertPattinson.png', 'Im_DanielCraig.png', 'Im_BradPitt.png', 'Im_KeanuReeves.png'],diff,1,0.7584695999994437,23,0,
GUJU1708,1,pos,fs,posfs_id4_im7.bmp_posfs_id17_im9.bmp,['Im_BenStiller.png', 'Im_LeonardoDiCaprio.png', 'Im_GeorgeClooney.png', 'Im_JustinTimberlake.png', 'Im_PatrickDempsey.png', 'Im_DanielRadcliffe.png', 'Im_RobertPattinson.png', 'Im_DanielCraig.png', 'Im_BradPitt.png', 'Im_KeanuReeves.png'],diff,1,0.4166337000006024,24,0,
GUJU1708,1,pos,120,pos120_id4_im20.bmp_pos120_id2_im3.bmp,['Im_BenStiller.png', 'Im_LeonardoDiCaprio.png', 'Im_GeorgeClooney.png', 'Im_JustinTimberlake.png', 'Im_PatrickDempsey.png', 'Im_DanielRadcliffe.png', 'Im_RobertPattinson.png', 'Im_DanielCraig.png', 'Im_BradPitt.png', 'Im_KeanuReeves.png'],diff,1,0.42504420000022947,25,0,
GUJU1708,1,pos,0,pos0_id5_im20.bmp_pos0_id5_im10.bmp,['Im_BenStiller.png', 'Im_LeonardoDiCaprio.png', 'Im_GeorgeClooney.png', 'Im_JustinTimberlake.png', 'Im_PatrickDempsey.png', 'Im_DanielRadcliffe.png', 'Im_RobertPattinson.png', 'Im_DanielCraig.png', 'Im_BradPitt.png', 'Im_KeanuReeves.png'],same,1,0.42509200000040437,26,0,
GUJU1708,2,inv,60,pos60_id4_im7.bmp_pos60_id4_im15.bmp,['Im_BenStiller.png', 'Im_LeonardoDiCaprio.png', 'Im_GeorgeClooney.png', 'Im_JustinTimberlake.png', 'Im_PatrickDempsey.png', 'Im_DanielRadcliffe.png', 'Im_RobertPattinson.png', 'Im_DanielCraig.png', 'Im_BradPitt.png', 'Im_KeanuReeves.png'],same,1,0.4583077000006597,27,0,
GUJU1708,2,inv,0,pos0_id19_im27.bmp_pos0_id4_im15.bmp,['Im_BenStiller.png', 'Im_LeonardoDiCaprio.png', 'Im_GeorgeClooney.png', 'Im_JustinTimberlake.png', 'Im_PatrickDempsey.png', 'Im_DanielRadcliffe.png', 'Im_RobertPattinson.png', 'Im_DanielCraig.png', 'Im_BradPitt.png', 'Im_KeanuReeves.png'],diff,1,0.5252129000000423,28,0,
GUJU1708,2,inv,150,pos150_id17_im9.bmp_pos150_id17_im8.bmp,['Im_BenStiller.png', 'Im_LeonardoDiCaprio.png', 'Im_GeorgeClooney.png', 'Im_JustinTimberlake.png', 'Im_PatrickDempsey.png', 'Im_DanielRadcliffe.png', 'Im_RobertPattinson.png', 'Im_DanielCraig.png', 'Im_BradPitt.png', 'Im_KeanuReeves.png'],same,1,0.41671080000014626,29,0,
GUJU1708,2,inv,120,pos120_id10_im1.bmp_pos120_id3_im17.bmp,['Im_BenStiller.png', 'Im_LeonardoDiCaprio.png', 'Im_GeorgeClooney.png', 'Im_JustinTimberlake.png', 'Im_PatrickDempsey.png', 'Im_DanielRadcliffe.png', 'Im_RobertPattinson.png', 'Im_DanielCraig.png', 'Im_BradPitt.png', 'Im_KeanuReeves.png'],diff,1,0.42494299999998475,30,0,
GUJU1708,2,inv,30,pos30_id5_im20.bmp_pos30_id13_im10.bmp,['Im_BenStiller.png', 'Im_LeonardoDiCaprio.png', 'Im_GeorgeClooney.png', 'Im_JustinTimberlake.png', 'Im_PatrickDempsey.png', 'Im_DanielRadcliffe.png', 'Im_RobertPattinson.png', 'Im_DanielCraig.png', 'Im_BradPitt.png', 'Im_KeanuReeves.png'],diff,1,0.4169348999994327,31,0,
GUJU1708,2,inv,fs,posfs_id10_im1.bmp_posfs_id5_im1.bmp,['Im_BenStiller.png', 'Im_LeonardoDiCaprio.png', 'Im_GeorgeClooney.png', 'Im_JustinTimberlake.png', 'Im_PatrickDempsey.png', 'Im_DanielRadcliffe.png', 'Im_RobertPattinson.png', 'Im_DanielCraig.png', 'Im_BradPitt.png', 'Im_KeanuReeves.png'],diff,1,0.41678370000045106,32,0,
GUJU1708,2,inv,0,pos0_id2_im2.bmp_pos0_id2_im16.bmp,['Im_BenStiller.png', 'Im_LeonardoDiCaprio.png', 'Im_GeorgeClooney.png', 'Im_JustinTimberlake.png', 'Im_PatrickDempsey.png', 'Im_DanielRadcliffe.png', 'Im_RobertPattinson.png', 'Im_DanielCraig.png', 'Im_BradPitt.png', 'Im_KeanuReeves.png'],same,1,0.41673330000048736,33,0,
GUJU1708,2,inv,90,pos90_id7_im14.bmp_pos90_id4_im20.bmp,['Im_BenStiller.png', 'Im_LeonardoDiCaprio.png', 'Im_GeorgeClooney.png', 'Im_JustinTimberlake.png', 'Im_PatrickDempsey.png', 'Im_DanielRadcliffe.png', 'Im_RobertPattinson.png', 'Im_DanielCraig.png', 'Im_BradPitt.png', 'Im_KeanuReeves.png'],diff,1,0.5919066999995266,34,0,
GUJU1708,2,inv,90,pos90_id3_im17.bmp_pos90_id11_im2.bmp,['Im_BenStiller.png', 'Im_LeonardoDiCaprio.png', 'Im_GeorgeClooney.png', 'Im_JustinTimberlake.png', 'Im_PatrickDempsey.png', 'Im_DanielRadcliffe.png', 'Im_RobertPattinson.png', 'Im_DanielCraig.png', 'Im_BradPitt.png', 'Im_KeanuReeves.png'],diff,1,0.45871269999952347,35,0,
GUJU1708,2,inv,150,pos150_id4_im7.bmp_pos150_id17_im9.bmp,['Im_BenStiller.png', 'Im_LeonardoDiCaprio.png', 'Im_GeorgeClooney.png', 'Im_JustinTimberlake.png', 'Im_PatrickDempsey.png', 'Im_DanielRadcliffe.png', 'Im_RobertPattinson.png', 'Im_DanielCraig.png', 'Im_BradPitt.png', 'Im_KeanuReeves.png'],diff,1,0.42506950000006327,36,0,
GUJU1708,2,inv,60,pos60_id17_im8.bmp_pos60_id17_im14.bmp,['Im_BenStiller.png', 'Im_LeonardoDiCaprio.png', 'Im_GeorgeClooney.png', 'Im_JustinTimberlake.png', 'Im_PatrickDempsey.png', 'Im_DanielRadcliffe.png', 'Im_RobertPattinson.png', 'Im_DanielCraig.png', 'Im_BradPitt.png', 'Im_KeanuReeves.png'],same,1,0.5250569999998334,37,0,
GUJU1708,2,inv,120,pos120_id5_im20.bmp_pos120_id2_im2.bmp,['Im_BenStiller.png', 'Im_LeonardoDiCaprio.png', 'Im_GeorgeClooney.png', 'Im_JustinTimberlake.png', 'Im_PatrickDempsey.png', 'Im_DanielRadcliffe.png', 'Im_RobertPattinson.png', 'Im_DanielCraig.png', 'Im_BradPitt.png', 'Im_KeanuReeves.png'],diff,1,0.42514529999971273,38,0,
GUJU1708,2,inv,30,pos30_id13_im29.bmp_pos30_id7_im14.bmp,['Im_BenStiller.png', 'Im_LeonardoDiCaprio.png', 'Im_GeorgeClooney.png', 'Im_JustinTimberlake.png', 'Im_PatrickDempsey.png', 'Im_DanielRadcliffe.png', 'Im_RobertPattinson.png', 'Im_DanielCraig.png', 'Im_BradPitt.png', 'Im_KeanuReeves.png'],diff,1,0.4167453000000023,39,0,
GUJU1708,2,inv,fs,posfs_id19_im8.bmp_posfs_id11_im1.bmp,['Im_BenStiller.png', 'Im_LeonardoDiCaprio.png', 'Im_GeorgeClooney.png', 'Im_JustinTimberlake.png', 'Im_PatrickDempsey.png', 'Im_DanielRadcliffe.png', 'Im_RobertPattinson.png', 'Im_DanielCraig.png', 'Im_BradPitt.png', 'Im_KeanuReeves.png'],diff,1,0.4168128000001161,40,0,
GUJU1708,3,neg,120,neg120_id13_im10.bmp_neg120_id5_im20.bmp,['Im_BenStiller.png', 'Im_LeonardoDiCaprio.png', 'Im_GeorgeClooney.png', 'Im_JustinTimberlake.png', 'Im_PatrickDempsey.png', 'Im_DanielRadcliffe.png', 'Im_RobertPattinson.png', 'Im_DanielCraig.png', 'Im_BradPitt.png', 'Im_KeanuReeves.png'],diff,1,0.5004192999995212,1,95.23809523809524,
GUJU1708,3,neg,120,neg120_id19_im4.bmp_neg120_id19_im8.bmp,['Im_BenStiller.png', 'Im_LeonardoDiCaprio.png', 'Im_GeorgeClooney.png', 'Im_JustinTimberlake.png', 'Im_PatrickDempsey.png', 'Im_DanielRadcliffe.png', 'Im_RobertPattinson.png', 'Im_DanielCraig.png', 'Im_BradPitt.png', 'Im_KeanuReeves.png'],same,1,0.916572900000574,2,95.23809523809524,
GUJU1708,3,neg,60,neg60_id13_im10.bmp_neg60_id2_im16.bmp,['Im_BenStiller.png', 'Im_LeonardoDiCaprio.png', 'Im_GeorgeClooney.png', 'Im_JustinTimberlake.png', 'Im_PatrickDempsey.png', 'Im_DanielRadcliffe.png', 'Im_RobertPattinson.png', 'Im_DanielCraig.png', 'Im_BradPitt.png', 'Im_KeanuReeves.png'],diff,1,0.41681289999996807,3,95.23809523809524,
GUJU1708,3,neg,fs,negfs_id17_im8.bmp_negfs_id17_im14.bmp,['Im_BenStiller.png', 'Im_LeonardoDiCaprio.png', 'Im_GeorgeClooney.png', 'Im_JustinTimberlake.png', 'Im_PatrickDempsey.png', 'Im_DanielRadcliffe.png', 'Im_RobertPattinson.png', 'Im_DanielCraig.png', 'Im_BradPitt.png', 'Im_KeanuReeves.png'],same,1,0.45006890000058775,4,95.23809523809524,
GUJU1708,3,neg,fs,negfs_id3_im17.bmp_negfs_id3_im8.bmp,['Im_BenStiller.png', 'Im_LeonardoDiCaprio.png', 'Im_GeorgeClooney.png', 'Im_JustinTimberlake.png', 'Im_PatrickDempsey.png', 'Im_DanielRadcliffe.png', 'Im_RobertPattinson.png', 'Im_DanielCraig.png', 'Im_BradPitt.png', 'Im_KeanuReeves.png'],same,1,0.416525300000103,5,95.23809523809524,
GUJU1708,3,neg,30,neg30_id2_im3.bmp_neg30_id2_im16.bmp,['Im_BenStiller.png', 'Im_LeonardoDiCaprio.png', 'Im_GeorgeClooney.png', 'Im_JustinTimberlake.png', 'Im_PatrickDempsey.png', 'Im_DanielRadcliffe.png', 'Im_RobertPattinson.png', 'Im_DanielCraig.png', 'Im_BradPitt.png', 'Im_KeanuReeves.png'],same,1,0.9334151000002748,6,95.23809523809524,
GUJU1708,3,neg,90,neg90_id7_im15.bmp_neg90_id7_im14.bmp,['Im_BenStiller.png', 'Im_LeonardoDiCaprio.png', 'Im_GeorgeClooney.png', 'Im_JustinTimberlake.png', 'Im_PatrickDempsey.png', 'Im_DanielRadcliffe.png', 'Im_RobertPattinson.png', 'Im_DanielCraig.png', 'Im_BradPitt.png', 'Im_KeanuReeves.png'],same,1,0.4250846000004458,7,95.23809523809524,
GUJU1708,3,neg,30,neg30_id4_im7.bmp_neg30_id17_im8.bmp,['Im_BenStiller.png', 'Im_LeonardoDiCaprio.png', 'Im_GeorgeClooney.png', 'Im_JustinTimberlake.png', 'Im_PatrickDempsey.png', 'Im_DanielRadcliffe.png', 'Im_RobertPattinson.png', 'Im_DanielCraig.png', 'Im_BradPitt.png', 'Im_KeanuReeves.png'],diff,1,0.4669057999999495,8,95.23809523809524,
GUJU1708,3,neg,0,neg0_id2_im16.bmp_neg0_id2_im3.bmp,['Im_BenStiller.png', 'Im_LeonardoDiCaprio.png', 'Im_GeorgeClooney.png', 'Im_JustinTimberlake.png', 'Im_PatrickDempsey.png', 'Im_DanielRadcliffe.png', 'Im_RobertPattinson.png', 'Im_DanielCraig.png', 'Im_BradPitt.png', 'Im_KeanuReeves.png'],same,1,0.4250996999999188,9,95.23809523809524,
GUJU1708,3,neg,60,neg60_id3_im17.bmp_neg60_id10_im1.bmp,['Im_BenStiller.png', 'Im_LeonardoDiCaprio.png', 'Im_GeorgeClooney.png', 'Im_JustinTimberlake.png', 'Im_PatrickDempsey.png', 'Im_DanielRadcliffe.png', 'Im_RobertPattinson.png', 'Im_DanielCraig.png', 'Im_BradPitt.png', 'Im_KeanuReeves.png'],diff,1,0.5333795999995345,10,95.23809523809524,
GUJU1708,3,neg,90,neg90_id4_im7.bmp_neg90_id17_im9.bmp,['Im_BenStiller.png', 'Im_LeonardoDiCaprio.png', 'Im_GeorgeClooney.png', 'Im_JustinTimberlake.png', 'Im_PatrickDempsey.png', 'Im_DanielRadcliffe.png', 'Im_RobertPattinson.png', 'Im_DanielCraig.png', 'Im_BradPitt.png', 'Im_KeanuReeves.png'],diff,1,0.4167392999997901,11,95.23809523809524,
GUJU1708,3,neg,150,neg150_id11_im10.bmp_neg150_id19_im27.bmp,['Im_BenStiller.png', 'Im_LeonardoDiCaprio.png', 'Im_GeorgeClooney.png', 'Im_JustinTimberlake.png', 'Im_PatrickDempsey.png', 'Im_DanielRadcliffe.png', 'Im_RobertPattinson.png', 'Im_DanielCraig.png', 'Im_BradPitt.png', 'Im_KeanuReeves.png'],diff,1,0.40842549999979383,12,95.23809523809524,
GUJU1708,3,neg,150,neg150_id17_im8.bmp_neg150_id17_im14.bmp,['Im_BenStiller.png', 'Im_LeonardoDiCaprio.png', 'Im_GeorgeClooney.png', 'Im_JustinTimberlake.png', 'Im_PatrickDempsey.png', 'Im_DanielRadcliffe.png', 'Im_RobertPattinson.png', 'Im_DanielCraig.png', 'Im_BradPitt.png', 'Im_KeanuReeves.png'],same,1,0.42505980000078125,13,95.23809523809524,
GUJU1708,3,neg,0,neg0_id3_im8.bmp_neg0_id3_im17.bmp,['Im_BenStiller.png', 'Im_LeonardoDiCaprio.png', 'Im_GeorgeClooney.png', 'Im_JustinTimberlake.png', 'Im_PatrickDempsey.png', 'Im_DanielRadcliffe.png', 'Im_RobertPattinson.png', 'Im_DanielCraig.png', 'Im_BradPitt.png', 'Im_KeanuReeves.png'],same,1,0.41669939999974304,14,95.23809523809524,
GUJU1708,4,inv,30,pos30_id17_im8.bmp_pos30_id10_im17.bmp,['Im_BenStiller.png', 'Im_LeonardoDiCaprio.png', 'Im_GeorgeClooney.png', 'Im_JustinTimberlake.png', 'Im_PatrickDempsey.png', 'Im_DanielRadcliffe.png', 'Im_RobertPattinson.png', 'Im_DanielCraig.png', 'Im_BradPitt.png', 'Im_KeanuReeves.png'],diff,1,0.5002494999998817,15,95.23809523809524,
GUJU1708,4,inv,90,pos90_id7_im15.bmp_pos90_id2_im16.bmp,['Im_BenStiller.png', 'Im_LeonardoDiCaprio.png', 'Im_GeorgeClooney.png', 'Im_JustinTimberlake.png', 'Im_PatrickDempsey.png', 'Im_DanielRadcliffe.png', 'Im_RobertPattinson.png', 'Im_DanielCraig.png', 'Im_BradPitt.png', 'Im_KeanuReeves.png'],same,0,0.8334557999996832,15,95.23809523809524,
GUJU1708,4,inv,60,pos60_id19_im27.bmp_pos60_id19_im8.bmp,['Im_BenStiller.png', 'Im_LeonardoDiCaprio.png', 'Im_GeorgeClooney.png', 'Im_JustinTimberlake.png', 'Im_PatrickDempsey.png', 'Im_DanielRadcliffe.png', 'Im_RobertPattinson.png', 'Im_DanielCraig.png', 'Im_BradPitt.png', 'Im_KeanuReeves.png'],diff,0,0.5083948999999848,15,95.23809523809524,
GUJU1708,4,inv,120,pos120_id2_im3.bmp_pos120_id10_im18.bmp,['Im_BenStiller.png', 'Im_LeonardoDiCaprio.png', 'Im_GeorgeClooney.png', 'Im_JustinTimberlake.png', 'Im_PatrickDempsey.png', 'Im_DanielRadcliffe.png', 'Im_RobertPattinson.png', 'Im_DanielCraig.png', 'Im_BradPitt.png', 'Im_KeanuReeves.png'],same,0,0.6168663999997079,15,95.23809523809524,
GUJU1708,4,inv,120,pos120_id7_im26.bmp_pos120_id7_im14.bmp,['Im_BenStiller.png', 'Im_LeonardoDiCaprio.png', 'Im_GeorgeClooney.png', 'Im_JustinTimberlake.png', 'Im_PatrickDempsey.png', 'Im_DanielRadcliffe.png', 'Im_RobertPattinson.png', 'Im_DanielCraig.png', 'Im_BradPitt.png', 'Im_KeanuReeves.png'],same,1,0.5166916999996829,16,95.23809523809524,
GUJU1708,4,inv,150,pos150_id11_im10.bmp_pos150_id17_im14.bmp,['Im_BenStiller.png', 'Im_LeonardoDiCaprio.png', 'Im_GeorgeClooney.png', 'Im_JustinTimberlake.png', 'Im_PatrickDempsey.png', 'Im_DanielRadcliffe.png', 'Im_RobertPattinson.png', 'Im_DanielCraig.png', 'Im_BradPitt.png', 'Im_KeanuReeves.png'],diff,1,0.7500661000003674,17,95.23809523809524,
GUJU1708,4,inv,fs,posfs_id13_im10.bmp_posfs_id13_im29.bmp,['Im_BenStiller.png', 'Im_LeonardoDiCaprio.png', 'Im_GeorgeClooney.png', 'Im_JustinTimberlake.png', 'Im_PatrickDempsey.png', 'Im_DanielRadcliffe.png', 'Im_RobertPattinson.png', 'Im_DanielCraig.png', 'Im_BradPitt.png', 'Im_KeanuReeves.png'],diff,0,0.633375000000342,17,95.23809523809524,
GUJU1708,4,inv,150,pos150_id3_im8.bmp_pos150_id3_im17.bmp,['Im_BenStiller.png', 'Im_LeonardoDiCaprio.png', 'Im_GeorgeClooney.png', 'Im_JustinTimberlake.png', 'Im_PatrickDempsey.png', 'Im_DanielRadcliffe.png', 'Im_RobertPattinson.png', 'Im_DanielCraig.png', 'Im_BradPitt.png', 'Im_KeanuReeves.png'],same,1,0.49167990000023565,18,95.23809523809524,
GUJU1708,4,inv,0,pos0_id11_im1.bmp_pos0_id11_im10.bmp,['Im_BenStiller.png', 'Im_LeonardoDiCaprio.png', 'Im_GeorgeClooney.png', 'Im_JustinTimberlake.png', 'Im_PatrickDempsey.png', 'Im_DanielRadcliffe.png', 'Im_RobertPattinson.png', 'Im_DanielCraig.png', 'Im_BradPitt.png', 'Im_KeanuReeves.png'],same,1,0.41669590000037715,19,95.23809523809524,
GUJU1708,4,inv,0,pos0_id4_im7.bmp_pos0_id17_im8.bmp,['Im_BenStiller.png', 'Im_LeonardoDiCaprio.png', 'Im_GeorgeClooney.png', 'Im_JustinTimberlake.png', 'Im_PatrickDempsey.png', 'Im_DanielRadcliffe.png', 'Im_RobertPattinson.png', 'Im_DanielCraig.png', 'Im_BradPitt.png', 'Im_KeanuReeves.png'],diff,1,0.4251079999994545,20,95.23809523809524,
GUJU1708,4,inv,fs,posfs_id11_im2.bmp_posfs_id10_im18.bmp,['Im_BenStiller.png', 'Im_LeonardoDiCaprio.png', 'Im_GeorgeClooney.png', 'Im_JustinTimberlake.png', 'Im_PatrickDempsey.png', 'Im_DanielRadcliffe.png', 'Im_RobertPattinson.png', 'Im_DanielCraig.png', 'Im_BradPitt.png', 'Im_KeanuReeves.png'],diff,1,0.6920024000000922,21,95.23809523809524,
GUJU1708,4,inv,90,pos90_id19_im4.bmp_pos90_id7_im26.bmp,['Im_BenStiller.png', 'Im_LeonardoDiCaprio.png', 'Im_GeorgeClooney.png', 'Im_JustinTimberlake.png', 'Im_PatrickDempsey.png', 'Im_DanielRadcliffe.png', 'Im_RobertPattinson.png', 'Im_DanielCraig.png', 'Im_BradPitt.png', 'Im_KeanuReeves.png'],diff,1,0.41673009999976784,22,95.23809523809524,
GUJU1708,4,inv,60,pos60_id13_im10.bmp_pos60_id13_im29.bmp,['Im_BenStiller.png', 'Im_LeonardoDiCaprio.png', 'Im_GeorgeClooney.png', 'Im_JustinTimberlake.png', 'Im_PatrickDempsey.png', 'Im_DanielRadcliffe.png', 'Im_RobertPattinson.png', 'Im_DanielCraig.png', 'Im_BradPitt.png', 'Im_KeanuReeves.png'],same,1,0.4334564999999202,23,95.23809523809524,
GUJU1708,4,inv,30,pos30_id19_im27.bmp_pos30_id19_im8.bmp,['Im_BenStiller.png', 'Im_LeonardoDiCaprio.png', 'Im_GeorgeClooney.png', 'Im_JustinTimberlake.png', 'Im_PatrickDempsey.png', 'Im_DanielRadcliffe.png', 'Im_RobertPattinson.png', 'Im_DanielCraig.png', 'Im_BradPitt.png', 'Im_KeanuReeves.png'],same,1,0.41670239999984915,24,95.23809523809524,
GUJU1708,5,neg,90,neg90_id11_im1.bmp_neg90_id11_im10.bmp,['Im_BenStiller.png', 'Im_LeonardoDiCaprio.png', 'Im_GeorgeClooney.png', 'Im_JustinTimberlake.png', 'Im_PatrickDempsey.png', 'Im_DanielRadcliffe.png', 'Im_RobertPattinson.png', 'Im_DanielCraig.png', 'Im_BradPitt.png', 'Im_KeanuReeves.png'],diff,0,0.416755700000067,24,95.23809523809524,
GUJU1708,5,neg,150,neg150_id10_im17.bmp_neg150_id10_im1.bmp,['Im_BenStiller.png', 'Im_LeonardoDiCaprio.png', 'Im_GeorgeClooney.png', 'Im_JustinTimberlake.png', 'Im_PatrickDempsey.png', 'Im_DanielRadcliffe.png', 'Im_RobertPattinson.png', 'Im_DanielCraig.png', 'Im_BradPitt.png', 'Im_KeanuReeves.png'],same,1,0.4166185999993104,25,95.23809523809524,
GUJU1708,5,neg,120,neg120_id4_im20.bmp_neg120_id7_im14.bmp,['Im_BenStiller.png', 'Im_LeonardoDiCaprio.png', 'Im_GeorgeClooney.png', 'Im_JustinTimberlake.png', 'Im_PatrickDempsey.png', 'Im_DanielRadcliffe.png', 'Im_RobertPattinson.png', 'Im_DanielCraig.png', 'Im_BradPitt.png', 'Im_KeanuReeves.png'],diff,1,0.4166973000001235,26,95.23809523809524,
GUJU1708,5,neg,30,neg30_id3_im17.bmp_neg30_id3_im8.bmp,['Im_BenStiller.png', 'Im_LeonardoDiCaprio.png', 'Im_GeorgeClooney.png', 'Im_JustinTimberlake.png', 'Im_PatrickDempsey.png', 'Im_DanielRadcliffe.png', 'Im_RobertPattinson.png', 'Im_DanielCraig.png', 'Im_BradPitt.png', 'Im_KeanuReeves.png'],same,1,0.4251041000006808,27,95.23809523809524,
GUJU1708,5,neg,60,neg60_id4_im15.bmp_neg60_id4_im7.bmp,['Im_BenStiller.png', 'Im_LeonardoDiCaprio.png', 'Im_GeorgeClooney.png', 'Im_JustinTimberlake.png', 'Im_PatrickDempsey.png', 'Im_DanielRadcliffe.png', 'Im_RobertPattinson.png', 'Im_DanielCraig.png', 'Im_BradPitt.png', 'Im_KeanuReeves.png'],same,1,0.4251092000004064,28,95.23809523809524,
GUJU1708,5,neg,120,neg120_id2_im2.bmp_neg120_id2_im16.bmp,['Im_BenStiller.png', 'Im_LeonardoDiCaprio.png', 'Im_GeorgeClooney.png', 'Im_JustinTimberlake.png', 'Im_PatrickDempsey.png', 'Im_DanielRadcliffe.png', 'Im_RobertPattinson.png', 'Im_DanielCraig.png', 'Im_BradPitt.png', 'Im_KeanuReeves.png'],same,1,0.41654490000018995,29,95.23809523809524,
GUJU1708,5,neg,0,neg0_id4_im15.bmp_neg0_id5_im1.bmp,['Im_BenStiller.png', 'Im_LeonardoDiCaprio.png', 'Im_GeorgeClooney.png', 'Im_JustinTimberlake.png', 'Im_PatrickDempsey.png', 'Im_DanielRadcliffe.png', 'Im_RobertPattinson.png', 'Im_DanielCraig.png', 'Im_BradPitt.png', 'Im_KeanuReeves.png'],diff,1,0.41669309999997495,30,95.23809523809524,
GUJU1708,5,neg,fs,negfs_id7_im15.bmp_negfs_id7_im14.bmp,['Im_BenStiller.png', 'Im_LeonardoDiCaprio.png', 'Im_GeorgeClooney.png', 'Im_JustinTimberlake.png', 'Im_PatrickDempsey.png', 'Im_DanielRadcliffe.png', 'Im_RobertPattinson.png', 'Im_DanielCraig.png', 'Im_BradPitt.png', 'Im_KeanuReeves.png'],same,1,0.41678960000081133,31,95.23809523809524,
GUJU1708,5,neg,0,neg0_id5_im10.bmp_neg0_id5_im1.bmp,['Im_BenStiller.png', 'Im_LeonardoDiCaprio.png', 'Im_GeorgeClooney.png', 'Im_JustinTimberlake.png', 'Im_PatrickDempsey.png', 'Im_DanielRadcliffe.png', 'Im_RobertPattinson.png', 'Im_DanielCraig.png', 'Im_BradPitt.png', 'Im_KeanuReeves.png'],same,1,0.4084371999997529,32,95.23809523809524,
GUJU1708,5,neg,60,neg60_id13_im29.bmp_neg60_id13_im10.bmp,['Im_BenStiller.png', 'Im_LeonardoDiCaprio.png', 'Im_GeorgeClooney.png', 'Im_JustinTimberlake.png', 'Im_PatrickDempsey.png', 'Im_DanielRadcliffe.png', 'Im_RobertPattinson.png', 'Im_DanielCraig.png', 'Im_BradPitt.png', 'Im_KeanuReeves.png'],same,1,0.4250709000007191,33,95.23809523809524,
GUJU1708,5,neg,fs,negfs_id4_im7.bmp_negfs_id17_im9.bmp,['Im_BenStiller.png', 'Im_LeonardoDiCaprio.png', 'Im_GeorgeClooney.png', 'Im_JustinTimberlake.png', 'Im_PatrickDempsey.png', 'Im_DanielRadcliffe.png', 'Im_RobertPattinson.png', 'Im_DanielCraig.png', 'Im_BradPitt.png', 'Im_KeanuReeves.png'],diff,1,0.4250685999995767,34,95.23809523809524,
GUJU1708,5,neg,150,neg150_id10_im17.bmp_neg150_id17_im8.bmp,['Im_BenStiller.png', 'Im_LeonardoDiCaprio.png', 'Im_GeorgeClooney.png', 'Im_JustinTimberlake.png', 'Im_PatrickDempsey.png', 'Im_DanielRadcliffe.png', 'Im_RobertPattinson.png', 'Im_DanielCraig.png', 'Im_BradPitt.png', 'Im_KeanuReeves.png'],diff,1,1.5250408000001698,35,95.23809523809524,
GUJU1708,5,neg,30,neg30_id11_im10.bmp_neg30_id19_im27.bmp,['Im_BenStiller.png', 'Im_LeonardoDiCaprio.png', 'Im_GeorgeClooney.png', 'Im_JustinTimberlake.png', 'Im_PatrickDempsey.png', 'Im_DanielRadcliffe.png', 'Im_RobertPattinson.png', 'Im_DanielCraig.png', 'Im_BradPitt.png', 'Im_KeanuReeves.png'],diff,1,0.4170334999998886,36,95.23809523809524,
GUJU1708,5,neg,90,neg90_id5_im10.bmp_neg90_id5_im1.bmp,['Im_BenStiller.png', 'Im_LeonardoDiCaprio.png', 'Im_GeorgeClooney.png', 'Im_JustinTimberlake.png', 'Im_PatrickDempsey.png', 'Im_DanielRadcliffe.png', 'Im_RobertPattinson.png', 'Im_DanielCraig.png', 'Im_BradPitt.png', 'Im_KeanuReeves.png'],same,1,0.4250471000004836,37,95.23809523809524,
GUJU1708,6,pos,120,pos120_id5_im10.bmp_pos120_id5_im1.bmp,['Im_BenStiller.png', 'Im_LeonardoDiCaprio.png', 'Im_GeorgeClooney.png', 'Im_JustinTimberlake.png', 'Im_PatrickDempsey.png', 'Im_DanielRadcliffe.png', 'Im_RobertPattinson.png', 'Im_DanielCraig.png', 'Im_BradPitt.png', 'Im_KeanuReeves.png'],same,1,0.4250074000001405,1,88.0952380952381,
GUJU1708,6,pos,30,pos30_id4_im15.bmp_pos30_id4_im7.bmp,['Im_BenStiller.png', 'Im_LeonardoDiCaprio.png', 'Im_GeorgeClooney.png', 'Im_JustinTimberlake.png', 'Im_PatrickDempsey.png', 'Im_DanielRadcliffe.png', 'Im_RobertPattinson.png', 'Im_DanielCraig.png', 'Im_BradPitt.png', 'Im_KeanuReeves.png'],same,1,0.4250792000002548,2,88.0952380952381,
GUJU1708,6,pos,90,pos90_id4_im15.bmp_pos90_id19_im27.bmp,['Im_BenStiller.png', 'Im_LeonardoDiCaprio.png', 'Im_GeorgeClooney.png', 'Im_JustinTimberlake.png', 'Im_PatrickDempsey.png', 'Im_DanielRadcliffe.png', 'Im_RobertPattinson.png', 'Im_DanielCraig.png', 'Im_BradPitt.png', 'Im_KeanuReeves.png'],diff,1,0.4250906999996005,3,88.0952380952381,
GUJU1708,6,pos,fs,posfs_id5_im20.bmp_posfs_id2_im2.bmp,['Im_BenStiller.png', 'Im_LeonardoDiCaprio.png', 'Im_GeorgeClooney.png', 'Im_JustinTimberlake.png', 'Im_PatrickDempsey.png', 'Im_DanielRadcliffe.png', 'Im_RobertPattinson.png', 'Im_DanielCraig.png', 'Im_BradPitt.png', 'Im_KeanuReeves.png'],diff,1,0.41675909999958094,4,88.0952380952381,
GUJU1708,6,pos,30,pos30_id3_im6.bmp_pos30_id10_im17.bmp,['Im_BenStiller.png', 'Im_LeonardoDiCaprio.png', 'Im_GeorgeClooney.png', 'Im_JustinTimberlake.png', 'Im_PatrickDempsey.png', 'Im_DanielRadcliffe.png', 'Im_RobertPattinson.png', 'Im_DanielCraig.png', 'Im_BradPitt.png', 'Im_KeanuReeves.png'],diff,1,0.4251069000001735,5,88.0952380952381,
GUJU1708,6,pos,0,pos0_id17_im8.bmp_pos0_id17_im9.bmp,['Im_BenStiller.png', 'Im_LeonardoDiCaprio.png', 'Im_GeorgeClooney.png', 'Im_JustinTimberlake.png', 'Im_PatrickDempsey.png', 'Im_DanielRadcliffe.png', 'Im_RobertPattinson.png', 'Im_DanielCraig.png', 'Im_BradPitt.png', 'Im_KeanuReeves.png'],same,1,0.43343039999945177,6,88.0952380952381,
GUJU1708,6,pos,60,pos60_id11_im10.bmp_pos60_id11_im1.bmp,['Im_BenStiller.png', 'Im_LeonardoDiCaprio.png', 'Im_GeorgeClooney.png', 'Im_JustinTimberlake.png', 'Im_PatrickDempsey.png', 'Im_DanielRadcliffe.png', 'Im_RobertPattinson.png', 'Im_DanielCraig.png', 'Im_BradPitt.png', 'Im_KeanuReeves.png'],same,1,0.42510700000002544,7,88.0952380952381,
GUJU1708,6,pos,150,pos150_id7_im15.bmp_pos150_id7_im14.bmp,['Im_BenStiller.png', 'Im_LeonardoDiCaprio.png', 'Im_GeorgeClooney.png', 'Im_JustinTimberlake.png', 'Im_PatrickDempsey.png', 'Im_DanielRadcliffe.png', 'Im_RobertPattinson.png', 'Im_DanielCraig.png', 'Im_BradPitt.png', 'Im_KeanuReeves.png'],same,1,0.41674069999953645,8,88.0952380952381,
GUJU1708,6,pos,0,pos0_id13_im10.bmp_pos0_id13_im15.bmp,['Im_BenStiller.png', 'Im_LeonardoDiCaprio.png', 'Im_GeorgeClooney.png', 'Im_JustinTimberlake.png', 'Im_PatrickDempsey.png', 'Im_DanielRadcliffe.png', 'Im_RobertPattinson.png', 'Im_DanielCraig.png', 'Im_BradPitt.png', 'Im_KeanuReeves.png'],same,1,0.41674849999981234,9,88.0952380952381,
GUJU1708,6,pos,120,pos120_id10_im18.bmp_pos120_id10_im1.bmp,['Im_BenStiller.png', 'Im_LeonardoDiCaprio.png', 'Im_GeorgeClooney.png', 'Im_JustinTimberlake.png', 'Im_PatrickDempsey.png', 'Im_DanielRadcliffe.png', 'Im_RobertPattinson.png', 'Im_DanielCraig.png', 'Im_BradPitt.png', 'Im_KeanuReeves.png'],same,1,0.4168793999997433,10,88.0952380952381,
GUJU1708,6,pos,60,pos60_id17_im14.bmp_pos60_id17_im8.bmp,['Im_BenStiller.png', 'Im_LeonardoDiCaprio.png', 'Im_GeorgeClooney.png', 'Im_JustinTimberlake.png', 'Im_PatrickDempsey.png', 'Im_DanielRadcliffe.png', 'Im_RobertPattinson.png', 'Im_DanielCraig.png', 'Im_BradPitt.png', 'Im_KeanuReeves.png'],same,1,0.4334452000002784,11,88.0952380952381,
GUJU1708,6,pos,150,pos150_id3_im17.bmp_pos150_id11_im2.bmp,['Im_BenStiller.png', 'Im_LeonardoDiCaprio.png', 'Im_GeorgeClooney.png', 'Im_JustinTimberlake.png', 'Im_PatrickDempsey.png', 'Im_DanielRadcliffe.png', 'Im_RobertPattinson.png', 'Im_DanielCraig.png', 'Im_BradPitt.png', 'Im_KeanuReeves.png'],diff,1,0.4167357999995147,12,88.0952380952381,
GUJU1708,6,pos,90,pos90_id19_im4.bmp_pos90_id7_im15.bmp,['Im_BenStiller.png', 'Im_LeonardoDiCaprio.png', 'Im_GeorgeClooney.png', 'Im_JustinTimberlake.png', 'Im_PatrickDempsey.png', 'Im_DanielRadcliffe.png', 'Im_RobertPattinson.png', 'Im_DanielCraig.png', 'Im_BradPitt.png', 'Im_KeanuReeves.png'],diff,1,0.41661329999988084,13,88.0952380952381,
GUJU1708,6,pos,fs,posfs_id10_im1.bmp_posfs_id10_im18.bmp,['Im_BenStiller.png', 'Im_LeonardoDiCaprio.png', 'Im_GeorgeClooney.png', 'Im_JustinTimberlake.png', 'Im_PatrickDempsey.png', 'Im_DanielRadcliffe.png', 'Im_RobertPattinson.png', 'Im_DanielCraig.png', 'Im_BradPitt.png', 'Im_KeanuReeves.png'],same,1,0.41810239999995247,14,88.0952380952381,
GUJU1708,7,pos,90,pos90_id3_im6.bmp_pos90_id3_im8.bmp,['Im_BenStiller.png', 'Im_LeonardoDiCaprio.png', 'Im_GeorgeClooney.png', 'Im_JustinTimberlake.png', 'Im_PatrickDempsey.png', 'Im_DanielRadcliffe.png', 'Im_RobertPattinson.png', 'Im_DanielCraig.png', 'Im_BradPitt.png', 'Im_KeanuReeves.png'],same,1,0.40843669999958365,15,88.0952380952381,
GUJU1708,7,pos,120,pos120_id2_im16.bmp_pos120_id2_im2.bmp,['Im_BenStiller.png', 'Im_LeonardoDiCaprio.png', 'Im_GeorgeClooney.png', 'Im_JustinTimberlake.png', 'Im_PatrickDempsey.png', 'Im_DanielRadcliffe.png', 'Im_RobertPattinson.png', 'Im_DanielCraig.png', 'Im_BradPitt.png', 'Im_KeanuReeves.png'],same,1,0.41685790000065026,16,88.0952380952381,
GUJU1708,7,pos,fs,posfs_id10_im18.bmp_posfs_id10_im17.bmp,['Im_BenStiller.png', 'Im_LeonardoDiCaprio.png', 'Im_GeorgeClooney.png', 'Im_JustinTimberlake.png', 'Im_PatrickDempsey.png', 'Im_DanielRadcliffe.png', 'Im_RobertPattinson.png', 'Im_DanielCraig.png', 'Im_BradPitt.png', 'Im_KeanuReeves.png'],same,1,0.4249415999993289,17,88.0952380952381,
GUJU1708,7,pos,90,pos90_id3_im6.bmp_pos90_id3_im17.bmp,['Im_BenStiller.png', 'Im_LeonardoDiCaprio.png', 'Im_GeorgeClooney.png', 'Im_JustinTimberlake.png', 'Im_PatrickDempsey.png', 'Im_DanielRadcliffe.png', 'Im_RobertPattinson.png', 'Im_DanielCraig.png', 'Im_BradPitt.png', 'Im_KeanuReeves.png'],same,1,0.4164964000001419,18,88.0952380952381,
GUJU1708,7,pos,0,pos0_id19_im27.bmp_pos0_id19_im4.bmp,['Im_BenStiller.png', 'Im_LeonardoDiCaprio.png', 'Im_GeorgeClooney.png', 'Im_JustinTimberlake.png', 'Im_PatrickDempsey.png', 'Im_DanielRadcliffe.png', 'Im_RobertPattinson.png', 'Im_DanielCraig.png', 'Im_BradPitt.png', 'Im_KeanuReeves.png'],same,1,0.4666128999997454,19,88.0952380952381,
GUJU1708,7,pos,150,pos150_id17_im14.bmp_pos150_id3_im8.bmp,['Im_BenStiller.png', 'Im_LeonardoDiCaprio.png', 'Im_GeorgeClooney.png', 'Im_JustinTimberlake.png', 'Im_PatrickDempsey.png', 'Im_DanielRadcliffe.png', 'Im_RobertPattinson.png', 'Im_DanielCraig.png', 'Im_BradPitt.png', 'Im_KeanuReeves.png'],diff,1,0.4503415999997742,20,88.0952380952381,
GUJU1708,7,pos,30,pos30_id11_im2.bmp_pos30_id3_im17.bmp,['Im_BenStiller.png', 'Im_LeonardoDiCaprio.png', 'Im_GeorgeClooney.png', 'Im_JustinTimberlake.png', 'Im_PatrickDempsey.png', 'Im_DanielRadcliffe.png', 'Im_RobertPattinson.png', 'Im_DanielCraig.png', 'Im_BradPitt.png', 'Im_KeanuReeves.png'],diff,1,0.4167239000007612,21,88.0952380952381,
GUJU1708,7,pos,60,pos60_id17_im8.bmp_pos60_id4_im7.bmp,['Im_BenStiller.png', 'Im_LeonardoDiCaprio.png', 'Im_GeorgeClooney.png', 'Im_JustinTimberlake.png', 'Im_PatrickDempsey.png', 'Im_DanielRadcliffe.png', 'Im_RobertPattinson.png', 'Im_DanielCraig.png', 'Im_BradPitt.png', 'Im_KeanuReeves.png'],diff,1,0.4166992000000391,22,88.0952380952381,
GUJU1708,7,pos,fs,posfs_id11_im1.bmp_posfs_id13_im15.bmp,['Im_BenStiller.png', 'Im_LeonardoDiCaprio.png', 'Im_GeorgeClooney.png', 'Im_JustinTimberlake.png', 'Im_PatrickDempsey.png', 'Im_DanielRadcliffe.png', 'Im_RobertPattinson.png', 'Im_DanielCraig.png', 'Im_BradPitt.png', 'Im_KeanuReeves.png'],diff,1,0.41647940000075323,23,88.0952380952381,
GUJU1708,7,pos,60,pos60_id5_im20.bmp_pos60_id5_im1.bmp,['Im_BenStiller.png', 'Im_LeonardoDiCaprio.png', 'Im_GeorgeClooney.png', 'Im_JustinTimberlake.png', 'Im_PatrickDempsey.png', 'Im_DanielRadcliffe.png', 'Im_RobertPattinson.png', 'Im_DanielCraig.png', 'Im_BradPitt.png', 'Im_KeanuReeves.png'],same,1,0.41672830000061367,24,88.0952380952381,
GUJU1708,7,pos,0,pos0_id10_im18.bmp_pos0_id11_im2.bmp,['Im_BenStiller.png', 'Im_LeonardoDiCaprio.png', 'Im_GeorgeClooney.png', 'Im_JustinTimberlake.png', 'Im_PatrickDempsey.png', 'Im_DanielRadcliffe.png', 'Im_RobertPattinson.png', 'Im_DanielCraig.png', 'Im_BradPitt.png', 'Im_KeanuReeves.png'],diff,1,0.41675559999930556,25,88.0952380952381,
GUJU1708,7,pos,30,pos30_id11_im10.bmp_pos30_id11_im2.bmp,['Im_BenStiller.png', 'Im_LeonardoDiCaprio.png', 'Im_GeorgeClooney.png', 'Im_JustinTimberlake.png', 'Im_PatrickDempsey.png', 'Im_DanielRadcliffe.png', 'Im_RobertPattinson.png', 'Im_DanielCraig.png', 'Im_BradPitt.png', 'Im_KeanuReeves.png'],same,1,0.4335227000010491,26,88.0952380952381,
GUJU1708,7,pos,120,pos120_id5_im20.bmp_pos120_id2_im2.bmp,['Im_BenStiller.png', 'Im_LeonardoDiCaprio.png', 'Im_GeorgeClooney.png', 'Im_JustinTimberlake.png', 'Im_PatrickDempsey.png', 'Im_DanielRadcliffe.png', 'Im_RobertPattinson.png', 'Im_DanielCraig.png', 'Im_BradPitt.png', 'Im_KeanuReeves.png'],diff,1,0.42504490000101214,27,88.0952380952381,
GUJU1708,7,pos,150,pos150_id10_im17.bmp_pos150_id10_im1.bmp,['Im_BenStiller.png', 'Im_LeonardoDiCaprio.png', 'Im_GeorgeClooney.png', 'Im_JustinTimberlake.png', 'Im_PatrickDempsey.png', 'Im_DanielRadcliffe.png', 'Im_RobertPattinson.png', 'Im_DanielCraig.png', 'Im_BradPitt.png', 'Im_KeanuReeves.png'],same,1,0.40849039999920933,28,88.0952380952381,
GUJU1708,8,inv,120,pos120_id13_im15.bmp_pos120_id13_im10.bmp,['Im_BenStiller.png', 'Im_LeonardoDiCaprio.png', 'Im_GeorgeClooney.png', 'Im_JustinTimberlake.png', 'Im_PatrickDempsey.png', 'Im_DanielRadcliffe.png', 'Im_RobertPattinson.png', 'Im_DanielCraig.png', 'Im_BradPitt.png', 'Im_KeanuReeves.png'],same,1,0.41672399999879417,29,88.0952380952381,
GUJU1708,8,inv,0,pos0_id11_im10.bmp_pos0_id17_im14.bmp,['Im_BenStiller.png', 'Im_LeonardoDiCaprio.png', 'Im_GeorgeClooney.png', 'Im_JustinTimberlake.png', 'Im_PatrickDempsey.png', 'Im_DanielRadcliffe.png', 'Im_RobertPattinson.png', 'Im_DanielCraig.png', 'Im_BradPitt.png', 'Im_KeanuReeves.png'],diff,1,0.5167235999997501,30,88.0952380952381,
GUJU1708,8,inv,30,pos30_id5_im1.bmp_pos30_id10_im1.bmp,['Im_BenStiller.png', 'Im_LeonardoDiCaprio.png', 'Im_GeorgeClooney.png', 'Im_JustinTimberlake.png', 'Im_PatrickDempsey.png', 'Im_DanielRadcliffe.png', 'Im_RobertPattinson.png', 'Im_DanielCraig.png', 'Im_BradPitt.png', 'Im_KeanuReeves.png'],diff,1,0.41672160000052827,31,88.0952380952381,
GUJU1708,8,inv,60,pos60_id11_im1.bmp_pos60_id13_im15.bmp,['Im_BenStiller.png', 'Im_LeonardoDiCaprio.png', 'Im_GeorgeClooney.png', 'Im_JustinTimberlake.png', 'Im_PatrickDempsey.png', 'Im_DanielRadcliffe.png', 'Im_RobertPattinson.png', 'Im_DanielCraig.png', 'Im_BradPitt.png', 'Im_KeanuReeves.png'],diff,1,0.41685919999872567,32,88.0952380952381,
GUJU1708,8,inv,60,pos60_id4_im20.bmp_pos60_id2_im3.bmp,['Im_BenStiller.png', 'Im_LeonardoDiCaprio.png', 'Im_GeorgeClooney.png', 'Im_JustinTimberlake.png', 'Im_PatrickDempsey.png', 'Im_DanielRadcliffe.png', 'Im_RobertPattinson.png', 'Im_DanielCraig.png', 'Im_BradPitt.png', 'Im_KeanuReeves.png'],diff,1,0.4251702000001387,33,88.0952380952381,
GUJU1708,8,inv,fs,posfs_id7_im14.bmp_posfs_id7_im26.bmp,['Im_BenStiller.png', 'Im_LeonardoDiCaprio.png', 'Im_GeorgeClooney.png', 'Im_JustinTimberlake.png', 'Im_PatrickDempsey.png', 'Im_DanielRadcliffe.png', 'Im_RobertPattinson.png', 'Im_DanielCraig.png', 'Im_BradPitt.png', 'Im_KeanuReeves.png'],same,1,0.41684129999885045,34,88.0952380952381,
GUJU1708,8,inv,90,pos90_id11_im10.bmp_pos90_id11_im1.bmp,['Im_BenStiller.png', 'Im_LeonardoDiCaprio.png', 'Im_GeorgeClooney.png', 'Im_JustinTimberlake.png', 'Im_PatrickDempsey.png', 'Im_DanielRadcliffe.png', 'Im_RobertPattinson.png', 'Im_DanielCraig.png', 'Im_BradPitt.png', 'Im_KeanuReeves.png'],same,1,0.8584068000000116,35,88.0952380952381,
GUJU1708,8,inv,0,pos0_id19_im8.bmp_pos0_id19_im27.bmp,['Im_BenStiller.png', 'Im_LeonardoDiCaprio.png', 'Im_GeorgeClooney.png', 'Im_JustinTimberlake.png', 'Im_PatrickDempsey.png', 'Im_DanielRadcliffe.png', 'Im_RobertPattinson.png', 'Im_DanielCraig.png', 'Im_BradPitt.png', 'Im_KeanuReeves.png'],same,1,0.4167493999993894,36,88.0952380952381,
GUJU1708,8,inv,fs,posfs_id2_im16.bmp_posfs_id13_im10.bmp,['Im_BenStiller.png', 'Im_LeonardoDiCaprio.png', 'Im_GeorgeClooney.png', 'Im_JustinTimberlake.png', 'Im_PatrickDempsey.png', 'Im_DanielRadcliffe.png', 'Im_RobertPattinson.png', 'Im_DanielCraig.png', 'Im_BradPitt.png', 'Im_KeanuReeves.png'],diff,1,0.42505220000020927,37,88.0952380952381,
GUJU1708,8,inv,150,pos150_id19_im4.bmp_pos150_id7_im26.bmp,['Im_BenStiller.png', 'Im_LeonardoDiCaprio.png', 'Im_GeorgeClooney.png', 'Im_JustinTimberlake.png', 'Im_PatrickDempsey.png', 'Im_DanielRadcliffe.png', 'Im_RobertPattinson.png', 'Im_DanielCraig.png', 'Im_BradPitt.png', 'Im_KeanuReeves.png'],diff,1,1.0252254999995785,38,88.0952380952381,
GUJU1708,8,inv,120,pos120_id4_im7.bmp_pos120_id4_im20.bmp,['Im_BenStiller.png', 'Im_LeonardoDiCaprio.png', 'Im_GeorgeClooney.png', 'Im_JustinTimberlake.png', 'Im_PatrickDempsey.png', 'Im_DanielRadcliffe.png', 'Im_RobertPattinson.png', 'Im_DanielCraig.png', 'Im_BradPitt.png', 'Im_KeanuReeves.png'],same,1,0.4166294000006019,39,88.0952380952381,
GUJU1708,8,inv,30,pos30_id7_im14.bmp_pos30_id4_im20.bmp,['Im_BenStiller.png', 'Im_LeonardoDiCaprio.png', 'Im_GeorgeClooney.png', 'Im_JustinTimberlake.png', 'Im_PatrickDempsey.png', 'Im_DanielRadcliffe.png', 'Im_RobertPattinson.png', 'Im_DanielCraig.png', 'Im_BradPitt.png', 'Im_KeanuReeves.png'],diff,1,0.41675690000010945,40,88.0952380952381,
GUJU1708,8,inv,90,pos90_id3_im8.bmp_pos90_id3_im17.bmp,['Im_BenStiller.png', 'Im_LeonardoDiCaprio.png', 'Im_GeorgeClooney.png', 'Im_JustinTimberlake.png', 'Im_PatrickDempsey.png', 'Im_DanielRadcliffe.png', 'Im_RobertPattinson.png', 'Im_DanielCraig.png', 'Im_BradPitt.png', 'Im_KeanuReeves.png'],same,1,0.4167662999989261,41,88.0952380952381,
GUJU1708,8,inv,150,pos150_id10_im17.bmp_pos150_id17_im8.bmp,['Im_BenStiller.png', 'Im_LeonardoDiCaprio.png', 'Im_GeorgeClooney.png', 'Im_JustinTimberlake.png', 'Im_PatrickDempsey.png', 'Im_DanielRadcliffe.png', 'Im_RobertPattinson.png', 'Im_DanielCraig.png', 'Im_BradPitt.png', 'Im_KeanuReeves.png'],diff,1,0.4167096999990463,42,88.0952380952381,
GUJU1708,9,neg,150,neg150_id2_im16.bmp_neg150_id2_im2.bmp,['Im_BenStiller.png', 'Im_LeonardoDiCaprio.png', 'Im_GeorgeClooney.png', 'Im_JustinTimberlake.png', 'Im_PatrickDempsey.png', 'Im_DanielRadcliffe.png', 'Im_RobertPattinson.png', 'Im_DanielCraig.png', 'Im_BradPitt.png', 'Im_KeanuReeves.png'],same,1,0.41673050000099465,1,100.0,
GUJU1708,9,neg,fs,negfs_id17_im8.bmp_negfs_id4_im7.bmp,['Im_BenStiller.png', 'Im_LeonardoDiCaprio.png', 'Im_GeorgeClooney.png', 'Im_JustinTimberlake.png', 'Im_PatrickDempsey.png', 'Im_DanielRadcliffe.png', 'Im_RobertPattinson.png', 'Im_DanielCraig.png', 'Im_BradPitt.png', 'Im_KeanuReeves.png'],diff,1,0.41690059999928053,2,100.0,
GUJU1708,9,neg,90,neg90_id5_im10.bmp_neg90_id5_im20.bmp,['Im_BenStiller.png', 'Im_LeonardoDiCaprio.png', 'Im_GeorgeClooney.png', 'Im_JustinTimberlake.png', 'Im_PatrickDempsey.png', 'Im_DanielRadcliffe.png', 'Im_RobertPattinson.png', 'Im_DanielCraig.png', 'Im_BradPitt.png', 'Im_KeanuReeves.png'],same,1,0.433382299999721,3,100.0,
GUJU1708,9,neg,60,neg60_id5_im20.bmp_neg60_id2_im2.bmp,['Im_BenStiller.png', 'Im_LeonardoDiCaprio.png', 'Im_GeorgeClooney.png', 'Im_JustinTimberlake.png', 'Im_PatrickDempsey.png', 'Im_DanielRadcliffe.png', 'Im_RobertPattinson.png', 'Im_DanielCraig.png', 'Im_BradPitt.png', 'Im_KeanuReeves.png'],diff,1,0.40855829999964044,4,100.0,
GUJU1708,9,neg,30,neg30_id10_im18.bmp_neg30_id10_im1.bmp,['Im_BenStiller.png', 'Im_LeonardoDiCaprio.png', 'Im_GeorgeClooney.png', 'Im_JustinTimberlake.png', 'Im_PatrickDempsey.png', 'Im_DanielRadcliffe.png', 'Im_RobertPattinson.png', 'Im_DanielCraig.png', 'Im_BradPitt.png', 'Im_KeanuReeves.png'],same,1,1.3416623000011896,5,100.0,
GUJU1708,9,neg,150,neg150_id3_im17.bmp_neg150_id3_im8.bmp,['Im_BenStiller.png', 'Im_LeonardoDiCaprio.png', 'Im_GeorgeClooney.png', 'Im_JustinTimberlake.png', 'Im_PatrickDempsey.png', 'Im_DanielRadcliffe.png', 'Im_RobertPattinson.png', 'Im_DanielCraig.png', 'Im_BradPitt.png', 'Im_KeanuReeves.png'],same,1,0.7833398000002489,6,100.0,
GUJU1708,9,neg,fs,negfs_id7_im15.bmp_negfs_id19_im4.bmp,['Im_BenStiller.png', 'Im_LeonardoDiCaprio.png', 'Im_GeorgeClooney.png', 'Im_JustinTimberlake.png', 'Im_PatrickDempsey.png', 'Im_DanielRadcliffe.png', 'Im_RobertPattinson.png', 'Im_DanielCraig.png', 'Im_BradPitt.png', 'Im_KeanuReeves.png'],diff,1,0.5749486999993678,7,100.0,
GUJU1708,9,neg,120,neg120_id17_im8.bmp_neg120_id17_im9.bmp,['Im_BenStiller.png', 'Im_LeonardoDiCaprio.png', 'Im_GeorgeClooney.png', 'Im_JustinTimberlake.png', 'Im_PatrickDempsey.png', 'Im_DanielRadcliffe.png', 'Im_RobertPattinson.png', 'Im_DanielCraig.png', 'Im_BradPitt.png', 'Im_KeanuReeves.png'],same,1,0.4084218999996665,8,100.0,
GUJU1708,9,neg,30,neg30_id13_im29.bmp_neg30_id7_im14.bmp,['Im_BenStiller.png', 'Im_LeonardoDiCaprio.png', 'Im_GeorgeClooney.png', 'Im_JustinTimberlake.png', 'Im_PatrickDempsey.png', 'Im_DanielRadcliffe.png', 'Im_RobertPattinson.png', 'Im_DanielCraig.png', 'Im_BradPitt.png', 'Im_KeanuReeves.png'],diff,1,0.4250910999999178,9,100.0,
GUJU1708,9,neg,120,neg120_id5_im20.bmp_neg120_id5_im10.bmp,['Im_BenStiller.png', 'Im_LeonardoDiCaprio.png', 'Im_GeorgeClooney.png', 'Im_JustinTimberlake.png', 'Im_PatrickDempsey.png', 'Im_DanielRadcliffe.png', 'Im_RobertPattinson.png', 'Im_DanielCraig.png', 'Im_BradPitt.png', 'Im_KeanuReeves.png'],same,1,0.4334002999985387,10,100.0,
GUJU1708,9,neg,90,neg90_id5_im20.bmp_neg90_id13_im10.bmp,['Im_BenStiller.png', 'Im_LeonardoDiCaprio.png', 'Im_GeorgeClooney.png', 'Im_JustinTimberlake.png', 'Im_PatrickDempsey.png', 'Im_DanielRadcliffe.png', 'Im_RobertPattinson.png', 'Im_DanielCraig.png', 'Im_BradPitt.png', 'Im_KeanuReeves.png'],diff,1,0.42507969999860507,11,100.0,
GUJU1708,9,neg,0,neg0_id3_im8.bmp_neg0_id17_im14.bmp,['Im_BenStiller.png', 'Im_LeonardoDiCaprio.png', 'Im_GeorgeClooney.png', 'Im_JustinTimberlake.png', 'Im_PatrickDempsey.png', 'Im_DanielRadcliffe.png', 'Im_RobertPattinson.png', 'Im_DanielCraig.png', 'Im_BradPitt.png', 'Im_KeanuReeves.png'],diff,1,0.4586081999987073,12,100.0,
GUJU1708,9,neg,60,neg60_id11_im10.bmp_neg60_id11_im1.bmp,['Im_BenStiller.png', 'Im_LeonardoDiCaprio.png', 'Im_GeorgeClooney.png', 'Im_JustinTimberlake.png', 'Im_PatrickDempsey.png', 'Im_DanielRadcliffe.png', 'Im_RobertPattinson.png', 'Im_DanielCraig.png', 'Im_BradPitt.png', 'Im_KeanuReeves.png'],diff,0,0.42534359999990556,12,100.0,
GUJU1708,9,neg,0,neg0_id17_im14.bmp_neg0_id17_im8.bmp,['Im_BenStiller.png', 'Im_LeonardoDiCaprio.png', 'Im_GeorgeClooney.png', 'Im_JustinTimberlake.png', 'Im_PatrickDempsey.png', 'Im_DanielRadcliffe.png', 'Im_RobertPattinson.png', 'Im_DanielCraig.png', 'Im_BradPitt.png', 'Im_KeanuReeves.png'],same,1,0.4250534000002517,13,100.0,
GUJU1708,10,pos,fs,posfs_id13_im15.bmp_posfs_id13_im10.bmp,['Im_BenStiller.png', 'Im_LeonardoDiCaprio.png', 'Im_GeorgeClooney.png', 'Im_JustinTimberlake.png', 'Im_PatrickDempsey.png', 'Im_DanielRadcliffe.png', 'Im_RobertPattinson.png', 'Im_DanielCraig.png', 'Im_BradPitt.png', 'Im_KeanuReeves.png'],same,1,0.42477750000034575,14,100.0,
GUJU1708,10,pos,30,pos30_id10_im1.bmp_pos30_id10_im17.bmp,['Im_BenStiller.png', 'Im_LeonardoDiCaprio.png', 'Im_GeorgeClooney.png', 'Im_JustinTimberlake.png', 'Im_PatrickDempsey.png', 'Im_DanielRadcliffe.png', 'Im_RobertPattinson.png', 'Im_DanielCraig.png', 'Im_BradPitt.png', 'Im_KeanuReeves.png'],same,1,0.42506239999966056,15,100.0,
GUJU1708,10,pos,90,pos90_id5_im1.bmp_pos90_id4_im15.bmp,['Im_BenStiller.png', 'Im_LeonardoDiCaprio.png', 'Im_GeorgeClooney.png', 'Im_JustinTimberlake.png', 'Im_PatrickDempsey.png', 'Im_DanielRadcliffe.png', 'Im_RobertPattinson.png', 'Im_DanielCraig.png', 'Im_BradPitt.png', 'Im_KeanuReeves.png'],diff,1,0.4167661000010412,16,100.0,
GUJU1708,10,pos,120,pos120_id3_im17.bmp_pos120_id10_im1.bmp,['Im_BenStiller.png', 'Im_LeonardoDiCaprio.png', 'Im_GeorgeClooney.png', 'Im_JustinTimberlake.png', 'Im_PatrickDempsey.png', 'Im_DanielRadcliffe.png', 'Im_RobertPattinson.png', 'Im_DanielCraig.png', 'Im_BradPitt.png', 'Im_KeanuReeves.png'],diff,1,0.4167842999995628,17,100.0,
GUJU1708,10,pos,90,pos90_id2_im2.bmp_pos90_id2_im3.bmp,['Im_BenStiller.png', 'Im_LeonardoDiCaprio.png', 'Im_GeorgeClooney.png', 'Im_JustinTimberlake.png', 'Im_PatrickDempsey.png', 'Im_DanielRadcliffe.png', 'Im_RobertPattinson.png', 'Im_DanielCraig.png', 'Im_BradPitt.png', 'Im_KeanuReeves.png'],same,1,0.48338609999882465,18,100.0,
GUJU1708,10,pos,0,pos0_id3_im8.bmp_pos0_id3_im6.bmp,['Im_BenStiller.png', 'Im_LeonardoDiCaprio.png', 'Im_GeorgeClooney.png', 'Im_JustinTimberlake.png', 'Im_PatrickDempsey.png', 'Im_DanielRadcliffe.png', 'Im_RobertPattinson.png', 'Im_DanielCraig.png', 'Im_BradPitt.png', 'Im_KeanuReeves.png'],same,1,0.4167747999999847,19,100.0,
GUJU1708,10,pos,150,pos150_id19_im4.bmp_pos150_id19_im8.bmp,['Im_BenStiller.png', 'Im_LeonardoDiCaprio.png', 'Im_GeorgeClooney.png', 'Im_JustinTimberlake.png', 'Im_PatrickDempsey.png', 'Im_DanielRadcliffe.png', 'Im_RobertPattinson.png', 'Im_DanielCraig.png', 'Im_BradPitt.png', 'Im_KeanuReeves.png'],same,1,0.4168465999991895,20,100.0,
GUJU1708,10,pos,fs,posfs_id17_im8.bmp_posfs_id17_im9.bmp,['Im_BenStiller.png', 'Im_LeonardoDiCaprio.png', 'Im_GeorgeClooney.png', 'Im_JustinTimberlake.png', 'Im_PatrickDempsey.png', 'Im_DanielRadcliffe.png', 'Im_RobertPattinson.png', 'Im_DanielCraig.png', 'Im_BradPitt.png', 'Im_KeanuReeves.png'],same,1,0.42504489999919315,21,100.0,
GUJU1708,10,pos,120,pos120_id17_im9.bmp_pos120_id3_im6.bmp,['Im_BenStiller.png', 'Im_LeonardoDiCaprio.png', 'Im_GeorgeClooney.png', 'Im_JustinTimberlake.png', 'Im_PatrickDempsey.png', 'Im_DanielRadcliffe.png', 'Im_RobertPattinson.png', 'Im_DanielCraig.png', 'Im_BradPitt.png', 'Im_KeanuReeves.png'],diff,1,0.5418590000008408,22,100.0,
GUJU1708,10,pos,0,pos0_id4_im15.bmp_pos0_id5_im1.bmp,['Im_BenStiller.png', 'Im_LeonardoDiCaprio.png', 'Im_GeorgeClooney.png', 'Im_JustinTimberlake.png', 'Im_PatrickDempsey.png', 'Im_DanielRadcliffe.png', 'Im_RobertPattinson.png', 'Im_DanielCraig.png', 'Im_BradPitt.png', 'Im_KeanuReeves.png'],diff,1,0.41683329999978014,23,100.0,
GUJU1708,10,pos,60,pos60_id17_im14.bmp_pos60_id11_im10.bmp,['Im_BenStiller.png', 'Im_LeonardoDiCaprio.png', 'Im_GeorgeClooney.png', 'Im_JustinTimberlake.png', 'Im_PatrickDempsey.png', 'Im_DanielRadcliffe.png', 'Im_RobertPattinson.png', 'Im_DanielCraig.png', 'Im_BradPitt.png', 'Im_KeanuReeves.png'],diff,1,0.425040899999658,24,100.0,
GUJU1708,10,pos,60,pos60_id5_im20.bmp_pos60_id13_im10.bmp,['Im_BenStiller.png', 'Im_LeonardoDiCaprio.png', 'Im_GeorgeClooney.png', 'Im_JustinTimberlake.png', 'Im_PatrickDempsey.png', 'Im_DanielRadcliffe.png', 'Im_RobertPattinson.png', 'Im_DanielCraig.png', 'Im_BradPitt.png', 'Im_KeanuReeves.png'],diff,1,0.4167718999997305,25,100.0,
GUJU1708,10,pos,30,pos30_id2_im3.bmp_pos30_id10_im18.bmp,['Im_BenStiller.png', 'Im_LeonardoDiCaprio.png', 'Im_GeorgeClooney.png', 'Im_JustinTimberlake.png', 'Im_PatrickDempsey.png', 'Im_DanielRadcliffe.png', 'Im_RobertPattinson.png', 'Im_DanielCraig.png', 'Im_BradPitt.png', 'Im_KeanuReeves.png'],diff,1,0.424925199999052,26,100.0,
GUJU1708,10,pos,150,pos150_id2_im16.bmp_pos150_id2_im2.bmp,['Im_BenStiller.png', 'Im_LeonardoDiCaprio.png', 'Im_GeorgeClooney.png', 'Im_JustinTimberlake.png', 'Im_PatrickDempsey.png', 'Im_DanielRadcliffe.png', 'Im_RobertPattinson.png', 'Im_DanielCraig.png', 'Im_BradPitt.png', 'Im_KeanuReeves.png'],same,1,0.5417457000003196,27,100.0,
GUJU1708,11,neg,30,neg30_id7_im15.bmp_neg30_id19_im4.bmp,['Im_BenStiller.png', 'Im_LeonardoDiCaprio.png', 'Im_GeorgeClooney.png', 'Im_JustinTimberlake.png', 'Im_PatrickDempsey.png', 'Im_DanielRadcliffe.png', 'Im_RobertPattinson.png', 'Im_DanielCraig.png', 'Im_BradPitt.png', 'Im_KeanuReeves.png'],diff,1,0.6000321000010445,28,100.0,
GUJU1708,11,neg,60,neg60_id2_im3.bmp_neg60_id4_im20.bmp,['Im_BenStiller.png', 'Im_LeonardoDiCaprio.png', 'Im_GeorgeClooney.png', 'Im_JustinTimberlake.png', 'Im_PatrickDempsey.png', 'Im_DanielRadcliffe.png', 'Im_RobertPattinson.png', 'Im_DanielCraig.png', 'Im_BradPitt.png', 'Im_KeanuReeves.png'],diff,1,0.41679910000129894,29,100.0,
GUJU1708,11,neg,120,neg120_id19_im4.bmp_neg120_id7_im26.bmp,['Im_BenStiller.png', 'Im_LeonardoDiCaprio.png', 'Im_GeorgeClooney.png', 'Im_JustinTimberlake.png', 'Im_PatrickDempsey.png', 'Im_DanielRadcliffe.png', 'Im_RobertPattinson.png', 'Im_DanielCraig.png', 'Im_BradPitt.png', 'Im_KeanuReeves.png'],diff,1,0.42501199999969685,30,100.0,
GUJU1708,11,neg,0,neg0_id7_im14.bmp_neg0_id4_im20.bmp,['Im_BenStiller.png', 'Im_LeonardoDiCaprio.png', 'Im_GeorgeClooney.png', 'Im_JustinTimberlake.png', 'Im_PatrickDempsey.png', 'Im_DanielRadcliffe.png', 'Im_RobertPattinson.png', 'Im_DanielCraig.png', 'Im_BradPitt.png', 'Im_KeanuReeves.png'],diff,1,0.41674570000031963,31,100.0,
GUJU1708,11,neg,60,neg60_id10_im1.bmp_neg60_id10_im17.bmp,['Im_BenStiller.png', 'Im_LeonardoDiCaprio.png', 'Im_GeorgeClooney.png', 'Im_JustinTimberlake.png', 'Im_PatrickDempsey.png', 'Im_DanielRadcliffe.png', 'Im_RobertPattinson.png', 'Im_DanielCraig.png', 'Im_BradPitt.png', 'Im_KeanuReeves.png'],same,1,0.416754599998967,32,100.0,
GUJU1708,11,neg,150,neg150_id4_im20.bmp_neg150_id2_im3.bmp,['Im_BenStiller.png', 'Im_LeonardoDiCaprio.png', 'Im_GeorgeClooney.png', 'Im_JustinTimberlake.png', 'Im_PatrickDempsey.png', 'Im_DanielRadcliffe.png', 'Im_RobertPattinson.png', 'Im_DanielCraig.png', 'Im_BradPitt.png', 'Im_KeanuReeves.png'],diff,1,0.4084157999986928,33,100.0,
GUJU1708,11,neg,90,neg90_id11_im1.bmp_neg90_id13_im15.bmp,['Im_BenStiller.png', 'Im_LeonardoDiCaprio.png', 'Im_GeorgeClooney.png', 'Im_JustinTimberlake.png', 'Im_PatrickDempsey.png', 'Im_DanielRadcliffe.png', 'Im_RobertPattinson.png', 'Im_DanielCraig.png', 'Im_BradPitt.png', 'Im_KeanuReeves.png'],diff,1,0.4250642999995762,34,100.0,
GUJU1708,11,neg,0,neg0_id11_im2.bmp_neg0_id3_im17.bmp,['Im_BenStiller.png', 'Im_LeonardoDiCaprio.png', 'Im_GeorgeClooney.png', 'Im_JustinTimberlake.png', 'Im_PatrickDempsey.png', 'Im_DanielRadcliffe.png', 'Im_RobertPattinson.png', 'Im_DanielCraig.png', 'Im_BradPitt.png', 'Im_KeanuReeves.png'],diff,1,0.4249581999993097,35,100.0,
GUJU1708,11,neg,fs,negfs_id10_im1.bmp_negfs_id3_im17.bmp,['Im_BenStiller.png', 'Im_LeonardoDiCaprio.png', 'Im_GeorgeClooney.png', 'Im_JustinTimberlake.png', 'Im_PatrickDempsey.png', 'Im_DanielRadcliffe.png', 'Im_RobertPattinson.png', 'Im_DanielCraig.png', 'Im_BradPitt.png', 'Im_KeanuReeves.png'],diff,1,0.4084519999996701,36,100.0,
GUJU1708,11,neg,30,neg30_id17_im14.bmp_neg30_id17_im8.bmp,['Im_BenStiller.png', 'Im_LeonardoDiCaprio.png', 'Im_GeorgeClooney.png', 'Im_JustinTimberlake.png', 'Im_PatrickDempsey.png', 'Im_DanielRadcliffe.png', 'Im_RobertPattinson.png', 'Im_DanielCraig.png', 'Im_BradPitt.png', 'Im_KeanuReeves.png'],same,1,0.41686159999881056,37,100.0,
GUJU1708,11,neg,fs,negfs_id3_im6.bmp_negfs_id3_im8.bmp,['Im_BenStiller.png', 'Im_LeonardoDiCaprio.png', 'Im_GeorgeClooney.png', 'Im_JustinTimberlake.png', 'Im_PatrickDempsey.png', 'Im_DanielRadcliffe.png', 'Im_RobertPattinson.png', 'Im_DanielCraig.png', 'Im_BradPitt.png', 'Im_KeanuReeves.png'],same,1,0.4251476999997976,38,100.0,
GUJU1708,11,neg,150,neg150_id17_im14.bmp_neg150_id3_im8.bmp,['Im_BenStiller.png', 'Im_LeonardoDiCaprio.png', 'Im_GeorgeClooney.png', 'Im_JustinTimberlake.png', 'Im_PatrickDempsey.png', 'Im_DanielRadcliffe.png', 'Im_RobertPattinson.png', 'Im_DanielCraig.png', 'Im_BradPitt.png', 'Im_KeanuReeves.png'],diff,1,0.4250499000008858,39,100.0,
GUJU1708,11,neg,90,neg90_id3_im17.bmp_neg90_id10_im1.bmp,['Im_BenStiller.png', 'Im_LeonardoDiCaprio.png', 'Im_GeorgeClooney.png', 'Im_JustinTimberlake.png', 'Im_PatrickDempsey.png', 'Im_DanielRadcliffe.png', 'Im_RobertPattinson.png', 'Im_DanielCraig.png', 'Im_BradPitt.png', 'Im_KeanuReeves.png'],diff,1,0.4748712999989948,40,100.0,
GUJU1708,11,neg,120,neg120_id17_im8.bmp_neg120_id10_im17.bmp,['Im_BenStiller.png', 'Im_LeonardoDiCaprio.png', 'Im_GeorgeClooney.png', 'Im_JustinTimberlake.png', 'Im_PatrickDempsey.png', 'Im_DanielRadcliffe.png', 'Im_RobertPattinson.png', 'Im_DanielCraig.png', 'Im_BradPitt.png', 'Im_KeanuReeves.png'],diff,1,0.441841600000771,41,100.0,
GUJU1708,12,inv,60,pos60_id19_im4.bmp_pos60_id7_im15.bmp,['Im_BenStiller.png', 'Im_LeonardoDiCaprio.png', 'Im_GeorgeClooney.png', 'Im_JustinTimberlake.png', 'Im_PatrickDempsey.png', 'Im_DanielRadcliffe.png', 'Im_RobertPattinson.png', 'Im_DanielCraig.png', 'Im_BradPitt.png', 'Im_KeanuReeves.png'],diff,1,0.4332460000005085,1,97.61904761904762,
GUJU1708,12,inv,fs,posfs_id3_im8.bmp_posfs_id3_im17.bmp,['Im_BenStiller.png', 'Im_LeonardoDiCaprio.png', 'Im_GeorgeClooney.png', 'Im_JustinTimberlake.png', 'Im_PatrickDempsey.png', 'Im_DanielRadcliffe.png', 'Im_RobertPattinson.png', 'Im_DanielCraig.png', 'Im_BradPitt.png', 'Im_KeanuReeves.png'],same,1,0.4250288000002911,2,97.61904761904762,
GUJU1708,12,inv,0,pos0_id5_im10.bmp_pos0_id5_im1.bmp,['Im_BenStiller.png', 'Im_LeonardoDiCaprio.png', 'Im_GeorgeClooney.png', 'Im_JustinTimberlake.png', 'Im_PatrickDempsey.png', 'Im_DanielRadcliffe.png', 'Im_RobertPattinson.png', 'Im_DanielCraig.png', 'Im_BradPitt.png', 'Im_KeanuReeves.png'],same,1,0.4167328000003181,3,97.61904761904762,
GUJU1708,12,inv,60,pos60_id13_im29.bmp_pos60_id13_im15.bmp,['Im_BenStiller.png', 'Im_LeonardoDiCaprio.png', 'Im_GeorgeClooney.png', 'Im_JustinTimberlake.png', 'Im_PatrickDempsey.png', 'Im_DanielRadcliffe.png', 'Im_RobertPattinson.png', 'Im_DanielCraig.png', 'Im_BradPitt.png', 'Im_KeanuReeves.png'],same,1,0.4167293000009522,4,97.61904761904762,
GUJU1708,12,inv,150,pos150_id17_im9.bmp_pos150_id3_im6.bmp,['Im_BenStiller.png', 'Im_LeonardoDiCaprio.png', 'Im_GeorgeClooney.png', 'Im_JustinTimberlake.png', 'Im_PatrickDempsey.png', 'Im_DanielRadcliffe.png', 'Im_RobertPattinson.png', 'Im_DanielCraig.png', 'Im_BradPitt.png', 'Im_KeanuReeves.png'],diff,1,0.47507839999889256,5,97.61904761904762,
GUJU1708,12,inv,0,pos0_id7_im26.bmp_pos0_id7_im15.bmp,['Im_BenStiller.png', 'Im_LeonardoDiCaprio.png', 'Im_GeorgeClooney.png', 'Im_JustinTimberlake.png', 'Im_PatrickDempsey.png', 'Im_DanielRadcliffe.png', 'Im_RobertPattinson.png', 'Im_DanielCraig.png', 'Im_BradPitt.png', 'Im_KeanuReeves.png'],diff,0,0.5003487000012683,5,97.61904761904762,
GUJU1708,12,inv,fs,posfs_id4_im15.bmp_posfs_id5_im1.bmp,['Im_BenStiller.png', 'Im_LeonardoDiCaprio.png', 'Im_GeorgeClooney.png', 'Im_JustinTimberlake.png', 'Im_PatrickDempsey.png', 'Im_DanielRadcliffe.png', 'Im_RobertPattinson.png', 'Im_DanielCraig.png', 'Im_BradPitt.png', 'Im_KeanuReeves.png'],diff,1,0.4336125000008906,6,97.61904761904762,
GUJU1708,12,inv,90,pos90_id13_im10.bmp_pos90_id2_im16.bmp,['Im_BenStiller.png', 'Im_LeonardoDiCaprio.png', 'Im_GeorgeClooney.png', 'Im_JustinTimberlake.png', 'Im_PatrickDempsey.png', 'Im_DanielRadcliffe.png', 'Im_RobertPattinson.png', 'Im_DanielCraig.png', 'Im_BradPitt.png', 'Im_KeanuReeves.png'],diff,1,0.4834585999997216,7,97.61904761904762,
GUJU1708,12,inv,30,pos30_id2_im16.bmp_pos30_id2_im3.bmp,['Im_BenStiller.png', 'Im_LeonardoDiCaprio.png', 'Im_GeorgeClooney.png', 'Im_JustinTimberlake.png', 'Im_PatrickDempsey.png', 'Im_DanielRadcliffe.png', 'Im_RobertPattinson.png', 'Im_DanielCraig.png', 'Im_BradPitt.png', 'Im_KeanuReeves.png'],same,1,0.5006400999991456,8,97.61904761904762,
GUJU1708,12,inv,90,pos90_id5_im1.bmp_pos90_id4_im15.bmp,['Im_BenStiller.png', 'Im_LeonardoDiCaprio.png', 'Im_GeorgeClooney.png', 'Im_JustinTimberlake.png', 'Im_PatrickDempsey.png', 'Im_DanielRadcliffe.png', 'Im_RobertPattinson.png', 'Im_DanielCraig.png', 'Im_BradPitt.png', 'Im_KeanuReeves.png'],diff,1,0.4167419000004884,9,97.61904761904762,
GUJU1708,12,inv,120,pos120_id11_im1.bmp_pos120_id13_im15.bmp,['Im_BenStiller.png', 'Im_LeonardoDiCaprio.png', 'Im_GeorgeClooney.png', 'Im_JustinTimberlake.png', 'Im_PatrickDempsey.png', 'Im_DanielRadcliffe.png', 'Im_RobertPattinson.png', 'Im_DanielCraig.png', 'Im_BradPitt.png', 'Im_KeanuReeves.png'],same,0,0.6667472000008274,9,97.61904761904762,
GUJU1708,12,inv,30,pos30_id11_im2.bmp_pos30_id3_im17.bmp,['Im_BenStiller.png', 'Im_LeonardoDiCaprio.png', 'Im_GeorgeClooney.png', 'Im_JustinTimberlake.png', 'Im_PatrickDempsey.png', 'Im_DanielRadcliffe.png', 'Im_RobertPattinson.png', 'Im_DanielCraig.png', 'Im_BradPitt.png', 'Im_KeanuReeves.png'],diff,1,0.5166124000006675,10,97.61904761904762,
GUJU1708,12,inv,120,pos120_id5_im20.bmp_pos120_id5_im10.bmp,['Im_BenStiller.png', 'Im_LeonardoDiCaprio.png', 'Im_GeorgeClooney.png', 'Im_JustinTimberlake.png', 'Im_PatrickDempsey.png', 'Im_DanielRadcliffe.png', 'Im_RobertPattinson.png', 'Im_DanielCraig.png', 'Im_BradPitt.png', 'Im_KeanuReeves.png'],same,1,0.41671280000082334,11,97.61904761904762,
GUJU1708,12,inv,150,pos150_id3_im8.bmp_pos150_id17_im14.bmp,['Im_BenStiller.png', 'Im_LeonardoDiCaprio.png', 'Im_GeorgeClooney.png', 'Im_JustinTimberlake.png', 'Im_PatrickDempsey.png', 'Im_DanielRadcliffe.png', 'Im_RobertPattinson.png', 'Im_DanielCraig.png', 'Im_BradPitt.png', 'Im_KeanuReeves.png'],diff,1,0.45027010000012524,12,97.61904761904762,
GUJU1708,13,pos,120,pos120_id10_im17.bmp_pos120_id3_im6.bmp,['Im_BenStiller.png', 'Im_LeonardoDiCaprio.png', 'Im_GeorgeClooney.png', 'Im_JustinTimberlake.png', 'Im_PatrickDempsey.png', 'Im_DanielRadcliffe.png', 'Im_RobertPattinson.png', 'Im_DanielCraig.png', 'Im_BradPitt.png', 'Im_KeanuReeves.png'],diff,1,0.41673940000146104,13,97.61904761904762,
GUJU1708,13,pos,0,pos0_id3_im8.bmp_pos0_id7_im26.bmp,['Im_BenStiller.png', 'Im_LeonardoDiCaprio.png', 'Im_GeorgeClooney.png', 'Im_JustinTimberlake.png', 'Im_PatrickDempsey.png', 'Im_DanielRadcliffe.png', 'Im_RobertPattinson.png', 'Im_DanielCraig.png', 'Im_BradPitt.png', 'Im_KeanuReeves.png'],diff,1,0.7167475000005652,14,97.61904761904762,
GUJU1708,13,pos,90,pos90_id7_im14.bmp_pos90_id13_im29.bmp,['Im_BenStiller.png', 'Im_LeonardoDiCaprio.png', 'Im_GeorgeClooney.png', 'Im_JustinTimberlake.png', 'Im_PatrickDempsey.png', 'Im_DanielRadcliffe.png', 'Im_RobertPattinson.png', 'Im_DanielCraig.png', 'Im_BradPitt.png', 'Im_KeanuReeves.png'],diff,1,0.4250921999991988,15,97.61904761904762,
GUJU1708,13,pos,150,pos150_id5_im20.bmp_pos150_id13_im10.bmp,['Im_BenStiller.png', 'Im_LeonardoDiCaprio.png', 'Im_GeorgeClooney.png', 'Im_JustinTimberlake.png', 'Im_PatrickDempsey.png', 'Im_DanielRadcliffe.png', 'Im_RobertPattinson.png', 'Im_DanielCraig.png', 'Im_BradPitt.png', 'Im_KeanuReeves.png'],diff,1,0.41675519999989774,16,97.61904761904762,
GUJU1708,13,pos,fs,posfs_id2_im2.bmp_posfs_id5_im10.bmp,['Im_BenStiller.png', 'Im_LeonardoDiCaprio.png', 'Im_GeorgeClooney.png', 'Im_JustinTimberlake.png', 'Im_PatrickDempsey.png', 'Im_DanielRadcliffe.png', 'Im_RobertPattinson.png', 'Im_DanielCraig.png', 'Im_BradPitt.png', 'Im_KeanuReeves.png'],diff,1,0.4166211000010662,17,97.61904761904762,
GUJU1708,13,pos,0,pos0_id3_im17.bmp_pos0_id3_im6.bmp,['Im_BenStiller.png', 'Im_LeonardoDiCaprio.png', 'Im_GeorgeClooney.png', 'Im_JustinTimberlake.png', 'Im_PatrickDempsey.png', 'Im_DanielRadcliffe.png', 'Im_RobertPattinson.png', 'Im_DanielCraig.png', 'Im_BradPitt.png', 'Im_KeanuReeves.png'],same,1,2.391599900000074,18,97.61904761904762,
GUJU1708,13,pos,30,pos30_id17_im14.bmp_pos30_id3_im8.bmp,['Im_BenStiller.png', 'Im_LeonardoDiCaprio.png', 'Im_GeorgeClooney.png', 'Im_JustinTimberlake.png', 'Im_PatrickDempsey.png', 'Im_DanielRadcliffe.png', 'Im_RobertPattinson.png', 'Im_DanielCraig.png', 'Im_BradPitt.png', 'Im_KeanuReeves.png'],diff,1,0.533603600000788,19,97.61904761904762,
GUJU1708,13,pos,60,pos60_id13_im29.bmp_pos60_id13_im15.bmp,['Im_BenStiller.png', 'Im_LeonardoDiCaprio.png', 'Im_GeorgeClooney.png', 'Im_JustinTimberlake.png', 'Im_PatrickDempsey.png', 'Im_DanielRadcliffe.png', 'Im_RobertPattinson.png', 'Im_DanielCraig.png', 'Im_BradPitt.png', 'Im_KeanuReeves.png'],same,1,0.40854070000023057,20,97.61904761904762,
GUJU1708,13,pos,150,pos150_id19_im8.bmp_pos150_id13_im29.bmp,['Im_BenStiller.png', 'Im_LeonardoDiCaprio.png', 'Im_GeorgeClooney.png', 'Im_JustinTimberlake.png', 'Im_PatrickDempsey.png', 'Im_DanielRadcliffe.png', 'Im_RobertPattinson.png', 'Im_DanielCraig.png', 'Im_BradPitt.png', 'Im_KeanuReeves.png'],diff,1,0.725086200000078,21,97.61904761904762,
GUJU1708,13,pos,90,pos90_id17_im14.bmp_pos90_id11_im10.bmp,['Im_BenStiller.png', 'Im_LeonardoDiCaprio.png', 'Im_GeorgeClooney.png', 'Im_JustinTimberlake.png', 'Im_PatrickDempsey.png', 'Im_DanielRadcliffe.png', 'Im_RobertPattinson.png', 'Im_DanielCraig.png', 'Im_BradPitt.png', 'Im_KeanuReeves.png'],diff,1,0.4167464000001928,22,97.61904761904762,
GUJU1708,13,pos,60,pos60_id11_im10.bmp_pos60_id19_im27.bmp,['Im_BenStiller.png', 'Im_LeonardoDiCaprio.png', 'Im_GeorgeClooney.png', 'Im_JustinTimberlake.png', 'Im_PatrickDempsey.png', 'Im_DanielRadcliffe.png', 'Im_RobertPattinson.png', 'Im_DanielCraig.png', 'Im_BradPitt.png', 'Im_KeanuReeves.png'],diff,1,0.4167127000000619,23,97.61904761904762,
GUJU1708,13,pos,fs,posfs_id4_im7.bmp_posfs_id4_im20.bmp,['Im_BenStiller.png', 'Im_LeonardoDiCaprio.png', 'Im_GeorgeClooney.png', 'Im_JustinTimberlake.png', 'Im_PatrickDempsey.png', 'Im_DanielRadcliffe.png', 'Im_RobertPattinson.png', 'Im_DanielCraig.png', 'Im_BradPitt.png', 'Im_KeanuReeves.png'],same,1,0.7169833999996627,24,97.61904761904762,
GUJU1708,13,pos,30,pos30_id4_im7.bmp_pos30_id4_im20.bmp,['Im_BenStiller.png', 'Im_LeonardoDiCaprio.png', 'Im_GeorgeClooney.png', 'Im_JustinTimberlake.png', 'Im_PatrickDempsey.png', 'Im_DanielRadcliffe.png', 'Im_RobertPattinson.png', 'Im_DanielCraig.png', 'Im_BradPitt.png', 'Im_KeanuReeves.png'],same,1,0.41679689999909897,25,97.61904761904762,
GUJU1708,13,pos,120,pos120_id4_im15.bmp_pos120_id4_im20.bmp,['Im_BenStiller.png', 'Im_LeonardoDiCaprio.png', 'Im_GeorgeClooney.png', 'Im_JustinTimberlake.png', 'Im_PatrickDempsey.png', 'Im_DanielRadcliffe.png', 'Im_RobertPattinson.png', 'Im_DanielCraig.png', 'Im_BradPitt.png', 'Im_KeanuReeves.png'],same,1,0.42509590000008757,26,97.61904761904762,
GUJU1708,14,neg,30,neg30_id3_im17.bmp_neg30_id3_im6.bmp,['Im_BenStiller.png', 'Im_LeonardoDiCaprio.png', 'Im_GeorgeClooney.png', 'Im_JustinTimberlake.png', 'Im_PatrickDempsey.png', 'Im_DanielRadcliffe.png', 'Im_RobertPattinson.png', 'Im_DanielCraig.png', 'Im_BradPitt.png', 'Im_KeanuReeves.png'],same,1,0.42480260000047565,27,97.61904761904762,
GUJU1708,14,neg,fs,negfs_id2_im2.bmp_negfs_id2_im3.bmp,['Im_BenStiller.png', 'Im_LeonardoDiCaprio.png', 'Im_GeorgeClooney.png', 'Im_JustinTimberlake.png', 'Im_PatrickDempsey.png', 'Im_DanielRadcliffe.png', 'Im_RobertPattinson.png', 'Im_DanielCraig.png', 'Im_BradPitt.png', 'Im_KeanuReeves.png'],same,1,0.4167563999999402,28,97.61904761904762,
GUJU1708,14,neg,150,neg150_id19_im4.bmp_neg150_id7_im15.bmp,['Im_BenStiller.png', 'Im_LeonardoDiCaprio.png', 'Im_GeorgeClooney.png', 'Im_JustinTimberlake.png', 'Im_PatrickDempsey.png', 'Im_DanielRadcliffe.png', 'Im_RobertPattinson.png', 'Im_DanielCraig.png', 'Im_BradPitt.png', 'Im_KeanuReeves.png'],diff,1,0.5254499999991822,29,97.61904761904762,
GUJU1708,14,neg,0,neg0_id13_im29.bmp_neg0_id7_im14.bmp,['Im_BenStiller.png', 'Im_LeonardoDiCaprio.png', 'Im_GeorgeClooney.png', 'Im_JustinTimberlake.png', 'Im_PatrickDempsey.png', 'Im_DanielRadcliffe.png', 'Im_RobertPattinson.png', 'Im_DanielCraig.png', 'Im_BradPitt.png', 'Im_KeanuReeves.png'],diff,1,0.5421867000004568,30,97.61904761904762,
GUJU1708,14,neg,120,neg120_id17_im9.bmp_neg120_id17_im14.bmp,['Im_BenStiller.png', 'Im_LeonardoDiCaprio.png', 'Im_GeorgeClooney.png', 'Im_JustinTimberlake.png', 'Im_PatrickDempsey.png', 'Im_DanielRadcliffe.png', 'Im_RobertPattinson.png', 'Im_DanielCraig.png', 'Im_BradPitt.png', 'Im_KeanuReeves.png'],diff,0,0.5584130999995978,30,97.61904761904762,
GUJU1708,14,neg,90,neg90_id17_im14.bmp_neg90_id17_im8.bmp,['Im_BenStiller.png', 'Im_LeonardoDiCaprio.png', 'Im_GeorgeClooney.png', 'Im_JustinTimberlake.png', 'Im_PatrickDempsey.png', 'Im_DanielRadcliffe.png', 'Im_RobertPattinson.png', 'Im_DanielCraig.png', 'Im_BradPitt.png', 'Im_KeanuReeves.png'],diff,0,0.6003658000008727,30,97.61904761904762,
GUJU1708,14,neg,30,neg30_id7_im15.bmp_neg30_id2_im16.bmp,['Im_BenStiller.png', 'Im_LeonardoDiCaprio.png', 'Im_GeorgeClooney.png', 'Im_JustinTimberlake.png', 'Im_PatrickDempsey.png', 'Im_DanielRadcliffe.png', 'Im_RobertPattinson.png', 'Im_DanielCraig.png', 'Im_BradPitt.png', 'Im_KeanuReeves.png'],same,0,0.5250497000015457,30,97.61904761904762,
GUJU1708,14,neg,0,neg0_id11_im2.bmp_neg0_id10_im18.bmp,['Im_BenStiller.png', 'Im_LeonardoDiCaprio.png', 'Im_GeorgeClooney.png', 'Im_JustinTimberlake.png', 'Im_PatrickDempsey.png', 'Im_DanielRadcliffe.png', 'Im_RobertPattinson.png', 'Im_DanielCraig.png', 'Im_BradPitt.png', 'Im_KeanuReeves.png'],diff,1,0.7750813000002381,31,97.61904761904762,
GUJU1708,14,neg,120,neg120_id3_im17.bmp_neg120_id3_im8.bmp,['Im_BenStiller.png', 'Im_LeonardoDiCaprio.png', 'Im_GeorgeClooney.png', 'Im_JustinTimberlake.png', 'Im_PatrickDempsey.png', 'Im_DanielRadcliffe.png', 'Im_RobertPattinson.png', 'Im_DanielCraig.png', 'Im_BradPitt.png', 'Im_KeanuReeves.png'],diff,0,1.7419356999998854,31,97.61904761904762,
GUJU1708,14,neg,60,neg60_id10_im18.bmp_neg60_id11_im2.bmp,['Im_BenStiller.png', 'Im_LeonardoDiCaprio.png', 'Im_GeorgeClooney.png', 'Im_JustinTimberlake.png', 'Im_PatrickDempsey.png', 'Im_DanielRadcliffe.png', 'Im_RobertPattinson.png', 'Im_DanielCraig.png', 'Im_BradPitt.png', 'Im_KeanuReeves.png'],diff,1,0.8581783000008727,32,97.61904761904762,
GUJU1708,14,neg,60,neg60_id2_im3.bmp_neg60_id2_im16.bmp,['Im_BenStiller.png', 'Im_LeonardoDiCaprio.png', 'Im_GeorgeClooney.png', 'Im_JustinTimberlake.png', 'Im_PatrickDempsey.png', 'Im_DanielRadcliffe.png', 'Im_RobertPattinson.png', 'Im_DanielCraig.png', 'Im_BradPitt.png', 'Im_KeanuReeves.png'],diff,0,0.9084246000002167,32,97.61904761904762,
GUJU1708,14,neg,90,neg90_id13_im29.bmp_neg90_id13_im15.bmp,['Im_BenStiller.png', 'Im_LeonardoDiCaprio.png', 'Im_GeorgeClooney.png', 'Im_JustinTimberlake.png', 'Im_PatrickDempsey.png', 'Im_DanielRadcliffe.png', 'Im_RobertPattinson.png', 'Im_DanielCraig.png', 'Im_BradPitt.png', 'Im_KeanuReeves.png'],same,1,0.41672339999968244,33,97.61904761904762,
GUJU1708,14,neg,150,neg150_id17_im9.bmp_neg150_id17_im14.bmp,['Im_BenStiller.png', 'Im_LeonardoDiCaprio.png', 'Im_GeorgeClooney.png', 'Im_JustinTimberlake.png', 'Im_PatrickDempsey.png', 'Im_DanielRadcliffe.png', 'Im_RobertPattinson.png', 'Im_DanielCraig.png', 'Im_BradPitt.png', 'Im_KeanuReeves.png'],same,1,0.6334447999997792,34,97.61904761904762,
