Sujet,Trial,Condition,Filter,Imname,Actor0,Actor1,Actor2,Actor3,Actor4,Actor5,Actor6,Actor7,Actor8,Actor9,Answer,Accu,RT,Score,Scoreperc, 
JENA1012,_,posfs_BradPitt_im8.bmp,BradPitt,BenStiller,BenStiller,BenAffleck,OrlandoBloom,RobertPattinson,,,,,posfs_BradPitt_im8.bmp,3.8746086999999534,
JENA1012,_,posfs_OrlandoBloom_im19.bmp,OrlandoBloom,ElijahWood,ElijahWood,DanielCraig,PatrickDempsey,LeonardoDiCaprio,,,,,posfs_OrlandoBloom_im19.bmp,30.28519849999975,
JENA1012,_,posfs_OrlandoBloom_im2.bmp,OrlandoBloom,BenAffleck,BenAffleck,RyanGosling,MattDamon,RobertDowneyJr,,,,,2,55.4875518000008,
JENA1012,_,posfs_ElijahWood_im12.bmp,ElijahWood,DanielRadcliffe,DanielRadcliffe,RobertDowneyJr,GeorgeClooney,BenStiller,,,,,posfs_ElijahWood_im12.bmp,2.546057200001087,
JENA1012,_,posfs_JustinTimberlake_im17.bmp,JustinTimberlake,MattDamon,MattDamon,LeonardoDiCaprio,ElijahWood,GeorgeClooney,,,,,posfs_JustinTimberlake_im17.bmp,2.1548094999998284,
JENA1012,_,posfs_JustinTimberlake_im1.bmp,JustinTimberlake,BenAffleck,BenAffleck,ElijahWood,PatrickDempsey,HughJackman,,,,,posfs_JustinTimberlake_im1.bmp,2.330514299999777,
JENA1012,_,posfs_RobertPattinson_im30.bmp,RobertPattinson,DanielRadcliffe,DanielRadcliffe,DanielCraig,BenAffleck,JustinTimberlake,,,,,posfs_RobertPattinson_im30.bmp,5.851778700000068,
JENA1012,_,posfs_GeorgeClooney_im23.bmp,GeorgeClooney,BenAffleck,BenAffleck,MattDamon,OrlandoBloom,KeanuReeves,,,,,posfs_GeorgeClooney_im23.bmp,1.9431889000006777,
JENA1012,_,posfs_RyanReynolds_im22.bmp,RyanReynolds,JustinTimberlake,JustinTimberlake,BradPitt,KeanuReeves,LeonardoDiCaprio,,,,,posfs_RyanReynolds_im22.bmp,30.35969819999991,
JENA1012,_,posfs_RobertDowneyJr_im4.bmp,RobertDowneyJr,RyanGosling,RyanGosling,BradPitt,HughJackman,ElijahWood,,,,,posfs_RobertDowneyJr_im4.bmp,7.055462700000135,
JENA1012,_,posfs_PatrickDempsey_im8.bmp,PatrickDempsey,BenStiller,BenStiller,MattDamon,BradPitt,RyanGosling,,,,,posfs_PatrickDempsey_im8.bmp,24.6755933000004,
JENA1012,_,posfs_LeonardoDiCaprio_im10.bmp,LeonardoDiCaprio,BenStiller,BenStiller,RyanGosling,PatrickDempsey,RobertPattinson,,,,,posfs_LeonardoDiCaprio_im10.bmp,1.534668000000238,
JENA1012,_,posfs_RobertPattinson_im4.bmp,RobertPattinson,DanielRadcliffe,DanielRadcliffe,RyanGosling,MattDamon,ElijahWood,,,,,posfs_RobertPattinson_im4.bmp,3.7674740999991627,
JENA1012,_,posfs_MattDamon_im18.bmp,MattDamon,DanielCraig,DanielCraig,PatrickDempsey,DanielRadcliffe,ElijahWood,,,,,posfs_MattDamon_im18.bmp,38.27776830000039,
JENA1012,_,posfs_RobertDowneyJr_im11.bmp,RobertDowneyJr,HughJackman,HughJackman,RyanGosling,JustinTimberlake,BenStiller,,,,,posfs_RobertDowneyJr_im11.bmp,30.376174699998955,
JENA1012,_,posfs_JustinTimberlake_im4.bmp,JustinTimberlake,BenStiller,BenStiller,RobertDowneyJr,OrlandoBloom,PatrickDempsey,,,,,posfs_JustinTimberlake_im4.bmp,2.3030435999990004,
JENA1012,_,posfs_PatrickDempsey_im9.bmp,PatrickDempsey,HughJackman,HughJackman,RobertDowneyJr,KeanuReeves,BenAffleck,,,,,posfs_PatrickDempsey_im9.bmp,8.136302300001262,
JENA1012,_,posfs_LeonardoDiCaprio_im29.bmp,LeonardoDiCaprio,RobertDowneyJr,RobertDowneyJr,PatrickDempsey,OrlandoBloom,DanielCraig,,,,,posfs_LeonardoDiCaprio_im29.bmp,2.5370479000011983,
JENA1012,_,posfs_DanielCraig_im7.bmp,DanielCraig,BenAffleck,BenAffleck,KeanuReeves,PatrickDempsey,DanielRadcliffe,,,,,posfs_DanielCraig_im7.bmp,35.48867180000161,
JENA1012,_,posfs_RyanGosling_im3.bmp,RyanGosling,RobertPattinson,RobertPattinson,PatrickDempsey,DanielCraig,JustinTimberlake,,,,,posfs_RyanGosling_im3.bmp,6.252063399999315,
JENA1012,_,posfs_DanielCraig_im8.bmp,DanielCraig,RobertPattinson,RobertPattinson,BenAffleck,BenStiller,LeonardoDiCaprio,,,,,posfs_DanielCraig_im8.bmp,11.031466800000999,
JENA1012,_,posfs_OrlandoBloom_im30.bmp,OrlandoBloom,JustinTimberlake,JustinTimberlake,BradPitt,KeanuReeves,RyanGosling,,,,,posfs_OrlandoBloom_im30.bmp,10.331242999998722,
JENA1012,_,posfs_LeonardoDiCaprio_im24.bmp,LeonardoDiCaprio,DanielCraig,DanielCraig,BradPitt,PatrickDempsey,RyanGosling,,,,,posfs_LeonardoDiCaprio_im24.bmp,2.8437818000002153,
JENA1012,_,posfs_ElijahWood_im19.bmp,ElijahWood,PatrickDempsey,PatrickDempsey,RyanReynolds,BenAffleck,OrlandoBloom,,,,,posfs_ElijahWood_im19.bmp,1.5520720000004076,
JENA1012,_,posfs_BenAffleck_im24.bmp,BenAffleck,OrlandoBloom,OrlandoBloom,DanielRadcliffe,MattDamon,GeorgeClooney,,,,,4,30.550595799999428,
JENA1012,_,posfs_KeanuReeves_im2.bmp,KeanuReeves,HughJackman,HughJackman,GeorgeClooney,RobertPattinson,BenStiller,,,,,posfs_KeanuReeves_im2.bmp,2.893374600000243,
JENA1012,_,posfs_KeanuReeves_im8.bmp,KeanuReeves,BenAffleck,BenAffleck,LeonardoDiCaprio,RyanGosling,GeorgeClooney,,,,,posfs_KeanuReeves_im8.bmp,1.7043737999993027,
JENA1012,_,posfs_RyanReynolds_im17.bmp,RyanReynolds,PatrickDempsey,PatrickDempsey,ElijahWood,BenStiller,BradPitt,,,,,4,6.2744812999990245,
JENA1012,_,posfs_BenAffleck_im21.bmp,BenAffleck,RyanGosling,RyanGosling,GeorgeClooney,ElijahWood,BradPitt,,,,,posfs_BenAffleck_im21.bmp,7.740072000000509,
JENA1012,_,posfs_BenStiller_im7.bmp,BenStiller,LeonardoDiCaprio,LeonardoDiCaprio,RyanGosling,DanielCraig,PatrickDempsey,,,,,posfs_BenStiller_im7.bmp,7.940419299999121,
JENA1012,_,posfs_BradPitt_im17.bmp,BradPitt,PatrickDempsey,PatrickDempsey,LeonardoDiCaprio,JustinTimberlake,HughJackman,,,,,posfs_BradPitt_im17.bmp,2.4122088000003714,
JENA1012,_,posfs_DanielRadcliffe_im20.bmp,DanielRadcliffe,GeorgeClooney,GeorgeClooney,ElijahWood,RobertPattinson,KeanuReeves,,,,,posfs_DanielRadcliffe_im20.bmp,5.546149100000548,
JENA1012,_,posfs_MattDamon_im9.bmp,MattDamon,BradPitt,BradPitt,HughJackman,DanielCraig,LeonardoDiCaprio,,,,,1,23.88136459999987,
JENA1012,_,posfs_BenStiller_im2.bmp,BenStiller,RobertDowneyJr,RobertDowneyJr,GeorgeClooney,DanielCraig,RyanReynolds,,,,,4,5.91550929999903,
JENA1012,_,posfs_GeorgeClooney_im14.bmp,GeorgeClooney,KeanuReeves,KeanuReeves,LeonardoDiCaprio,PatrickDempsey,RobertPattinson,,,,,posfs_GeorgeClooney_im14.bmp,1.1724670000003243,
JENA1012,_,posfs_BenStiller_im3.bmp,BenStiller,ElijahWood,ElijahWood,JustinTimberlake,BradPitt,RobertDowneyJr,,,,,posfs_BenStiller_im3.bmp,10.490491900000052,
JENA1012,_,posfs_RyanGosling_im12.bmp,RyanGosling,PatrickDempsey,PatrickDempsey,RyanReynolds,BradPitt,DanielCraig,,,,,posfs_RyanGosling_im12.bmp,2.597234599999865,
JENA1012,_,posfs_RyanReynolds_im3.bmp,RyanReynolds,BenAffleck,BenAffleck,DanielCraig,MattDamon,OrlandoBloom,,,,,4,4.002711500001169,
JENA1012,_,posfs_GeorgeClooney_im15.bmp,GeorgeClooney,JustinTimberlake,JustinTimberlake,DanielRadcliffe,DanielCraig,BenAffleck,,,,,posfs_GeorgeClooney_im15.bmp,1.345288000000437,
JENA1012,_,posfs_RyanReynolds_im16.bmp,RyanReynolds,OrlandoBloom,OrlandoBloom,RobertPattinson,RyanGosling,LeonardoDiCaprio,,,,,4,2.3131075000001147,
JENA1012,_,posfs_MattDamon_im16.bmp,MattDamon,LeonardoDiCaprio,LeonardoDiCaprio,RyanGosling,KeanuReeves,BenStiller,,,,,posfs_MattDamon_im16.bmp,28.38659329999973,
JENA1012,_,posfs_RobertDowneyJr_im18.bmp,RobertDowneyJr,MattDamon,MattDamon,BradPitt,GeorgeClooney,JustinTimberlake,,,,,posfs_RobertDowneyJr_im18.bmp,6.896723500000007,
JENA1012,_,posfs_JustinTimberlake_im18.bmp,JustinTimberlake,ElijahWood,ElijahWood,RyanGosling,DanielRadcliffe,LeonardoDiCaprio,,,,,posfs_JustinTimberlake_im18.bmp,2.243520500000159,
JENA1012,_,posfs_PatrickDempsey_im16.bmp,PatrickDempsey,BradPitt,BradPitt,DanielCraig,DanielRadcliffe,LeonardoDiCaprio,,,,,posfs_PatrickDempsey_im16.bmp,17.191949800000657,
JENA1012,_,posfs_RyanGosling_im25.bmp,RyanGosling,DanielCraig,DanielCraig,KeanuReeves,BradPitt,MattDamon,,,,,posfs_RyanGosling_im25.bmp,6.094003199999861,
JENA1012,_,posfs_BenAffleck_im8.bmp,BenAffleck,OrlandoBloom,OrlandoBloom,RobertPattinson,RyanReynolds,MattDamon,,,,,4,2.52810590000081,
JENA1012,_,posfs_OrlandoBloom_im3.bmp,OrlandoBloom,RobertPattinson,RobertPattinson,RyanReynolds,RyanGosling,RobertDowneyJr,,,,,4,3.79187869999987,
JENA1012,_,posfs_RobertPattinson_im27.bmp,RobertPattinson,RyanReynolds,RyanReynolds,OrlandoBloom,MattDamon,KeanuReeves,,,,,posfs_RobertPattinson_im27.bmp,2.990064000001439,
JENA1012,_,posfs_BenAffleck_im4.bmp,BenAffleck,BenStiller,BenStiller,KeanuReeves,ElijahWood,PatrickDempsey,,,,,posfs_BenAffleck_im4.bmp,18.763323899998795,
JENA1012,_,posfs_KeanuReeves_im1.bmp,KeanuReeves,LeonardoDiCaprio,LeonardoDiCaprio,BradPitt,JustinTimberlake,RobertPattinson,,,,,4,3.714107400001012,
JENA1012,_,posfs_ElijahWood_im18.bmp,ElijahWood,PatrickDempsey,PatrickDempsey,JustinTimberlake,RobertPattinson,RobertDowneyJr,,,,,posfs_ElijahWood_im18.bmp,1.9542074000000866,
JENA1012,_,posfs_KeanuReeves_im10.bmp,KeanuReeves,MattDamon,MattDamon,OrlandoBloom,PatrickDempsey,LeonardoDiCaprio,,,,,posfs_KeanuReeves_im10.bmp,1.61778669999876,
JENA1012,_,posfs_ElijahWood_im23.bmp,ElijahWood,BenAffleck,BenAffleck,RyanGosling,BenStiller,RobertDowneyJr,,,,,posfs_ElijahWood_im23.bmp,3.1579935000008845,
JENA1012,_,posfs_DanielCraig_im20.bmp,DanielCraig,BenStiller,BenStiller,BradPitt,LeonardoDiCaprio,OrlandoBloom,,,,,posfs_DanielCraig_im20.bmp,9.677481600001556,
JENA1012,_,posfs_DanielRadcliffe_im8.bmp,DanielRadcliffe,MattDamon,MattDamon,PatrickDempsey,RyanReynolds,RobertDowneyJr,,,,,posfs_DanielRadcliffe_im8.bmp,6.728453400000944,
JENA1012,_,posfs_HughJackman_im20.bmp,HughJackman,JustinTimberlake,JustinTimberlake,RyanReynolds,DanielCraig,OrlandoBloom,,,,,4,4.226265200000853,
JENA1012,_,posfs_RyanGosling_im30.bmp,RyanGosling,RyanReynolds,RyanReynolds,DanielCraig,PatrickDempsey,RobertPattinson,,,,,posfs_RyanGosling_im30.bmp,4.79073470000003,
JENA1012,_,posfs_RobertDowneyJr_im19.bmp,RobertDowneyJr,DanielRadcliffe,DanielRadcliffe,DanielCraig,PatrickDempsey,BenStiller,,,,,posfs_RobertDowneyJr_im19.bmp,8.364944699998887,
JENA1012,_,posfs_DanielRadcliffe_im10.bmp,DanielRadcliffe,LeonardoDiCaprio,LeonardoDiCaprio,KeanuReeves,ElijahWood,MattDamon,,,,,posfs_DanielRadcliffe_im10.bmp,4.604074900000342,
JENA1012,_,posfs_BradPitt_im6.bmp,BradPitt,RyanGosling,RyanGosling,RobertDowneyJr,OrlandoBloom,HughJackman,,,,,posfs_BradPitt_im6.bmp,1.562245900000562,
JENA1012,_,posfs_GeorgeClooney_im26.bmp,GeorgeClooney,LeonardoDiCaprio,LeonardoDiCaprio,RobertPattinson,BenAffleck,ElijahWood,,,,,posfs_GeorgeClooney_im26.bmp,1.721464800000831,
JENA1012,_,posfs_MattDamon_im24.bmp,MattDamon,RobertDowneyJr,RobertDowneyJr,BradPitt,HughJackman,RobertPattinson,,,,,posfs_MattDamon_im24.bmp,16.811160699999164,
JENA1012,_,posfs_BradPitt_im14.bmp,BradPitt,MattDamon,MattDamon,DanielCraig,OrlandoBloom,LeonardoDiCaprio,,,,,posfs_BradPitt_im14.bmp,2.31272589999935,
JENA1012,_,posfs_PatrickDempsey_im14.bmp,PatrickDempsey,KeanuReeves,KeanuReeves,RobertDowneyJr,HughJackman,RyanReynolds,,,,,4,29.36314029999994,
JENA1012,_,posfs_RobertPattinson_im8.bmp,RobertPattinson,DanielRadcliffe,DanielRadcliffe,OrlandoBloom,MattDamon,RyanGosling,,,,,posfs_RobertPattinson_im8.bmp,1.7221110000009503,
JENA1012,_,posfs_HughJackman_im21.bmp,HughJackman,OrlandoBloom,OrlandoBloom,GeorgeClooney,RyanGosling,BradPitt,,,,,4,7.699828799999523,
JENA1012,_,posfs_HughJackman_im18.bmp,HughJackman,LeonardoDiCaprio,LeonardoDiCaprio,BradPitt,RyanGosling,DanielRadcliffe,,,,,4,1.8215059000012843,
JENA1012,_,posfs_DanielRadcliffe_im1.bmp,DanielRadcliffe,BradPitt,BradPitt,LeonardoDiCaprio,BenStiller,RobertPattinson,,,,,posfs_DanielRadcliffe_im1.bmp,8.794758300000467,
JENA1012,_,posfs_HughJackman_im13.bmp,HughJackman,BradPitt,BradPitt,PatrickDempsey,MattDamon,RobertPattinson,,,,,4,3.209786299999905,
JENA1012,_,posfs_LeonardoDiCaprio_im15.bmp,LeonardoDiCaprio,RobertPattinson,RobertPattinson,DanielCraig,BradPitt,DanielRadcliffe,,,,,posfs_LeonardoDiCaprio_im15.bmp,2.2385905999999522,
JENA1012,_,posfs_BenStiller_im16.bmp,BenStiller,KeanuReeves,KeanuReeves,MattDamon,JustinTimberlake,BenAffleck,,,,,4,4.05945199999951,
JENA1012,_,posfs_DanielCraig_im15.bmp,DanielCraig,BenAffleck,BenAffleck,MattDamon,BenStiller,HughJackman,,,,,posfs_DanielCraig_im15.bmp,12.855404399999316,
JENA1012,train,pos,fs,posfs_id20_im30.bmp_posfs_id18_im19.bmp,['Im_RobertDowneyJr.png', 'Im_RobertPattinson.png', 'Im_JustinTimberlake.png', 'Im_LeonardoDiCaprio.png', 'Im_DanielRadcliffe.png', 'Im_DanielCraig.png', 'Im_GeorgeClooney.png', 'Im_ElijahWood.png', 'Im_RyanGosling.png', 'Im_BradPitt.png'],diff,1,1.5000067000000854,1,0,
JENA1012,train,pos,fs,posfs_id7_im15.bmp_posfs_id7_im14.bmp,['Im_RobertDowneyJr.png', 'Im_RobertPattinson.png', 'Im_JustinTimberlake.png', 'Im_LeonardoDiCaprio.png', 'Im_DanielRadcliffe.png', 'Im_DanielCraig.png', 'Im_GeorgeClooney.png', 'Im_ElijahWood.png', 'Im_RyanGosling.png', 'Im_BradPitt.png'],same,1,1.0416121999987809,2,0,
JENA1012,train,pos,fs,posfs_id10_im1.bmp_posfs_id6_im12.bmp,['Im_RobertDowneyJr.png', 'Im_RobertPattinson.png', 'Im_JustinTimberlake.png', 'Im_LeonardoDiCaprio.png', 'Im_DanielRadcliffe.png', 'Im_DanielCraig.png', 'Im_GeorgeClooney.png', 'Im_ElijahWood.png', 'Im_RyanGosling.png', 'Im_BradPitt.png'],diff,1,1.0249731000003521,3,0,
JENA1012,train,pos,fs,posfs_id19_im8.bmp_posfs_id4_im20.bmp,['Im_RobertDowneyJr.png', 'Im_RobertPattinson.png', 'Im_JustinTimberlake.png', 'Im_LeonardoDiCaprio.png', 'Im_DanielRadcliffe.png', 'Im_DanielCraig.png', 'Im_GeorgeClooney.png', 'Im_ElijahWood.png', 'Im_RyanGosling.png', 'Im_BradPitt.png'],diff,1,0.6508591000001616,4,0,
JENA1012,train,pos,fs,posfs_id20_im3.bmp_posfs_id20_im12.bmp,['Im_RobertDowneyJr.png', 'Im_RobertPattinson.png', 'Im_JustinTimberlake.png', 'Im_LeonardoDiCaprio.png', 'Im_DanielRadcliffe.png', 'Im_DanielCraig.png', 'Im_GeorgeClooney.png', 'Im_ElijahWood.png', 'Im_RyanGosling.png', 'Im_BradPitt.png'],same,1,0.5082743000002665,5,0,
JENA1012,train,pos,fs,posfs_id18_im18.bmp_posfs_id18_im19.bmp,['Im_RobertDowneyJr.png', 'Im_RobertPattinson.png', 'Im_JustinTimberlake.png', 'Im_LeonardoDiCaprio.png', 'Im_DanielRadcliffe.png', 'Im_DanielCraig.png', 'Im_GeorgeClooney.png', 'Im_ElijahWood.png', 'Im_RyanGosling.png', 'Im_BradPitt.png'],same,1,1.333467299999029,6,0,
JENA1012,train,pos,fs,posfs_id5_im20.bmp_posfs_id19_im8.bmp,['Im_RobertDowneyJr.png', 'Im_RobertPattinson.png', 'Im_JustinTimberlake.png', 'Im_LeonardoDiCaprio.png', 'Im_DanielRadcliffe.png', 'Im_DanielCraig.png', 'Im_GeorgeClooney.png', 'Im_ElijahWood.png', 'Im_RyanGosling.png', 'Im_BradPitt.png'],diff,1,0.9002804000010656,7,0,
JENA1012,train,pos,fs,posfs_id13_im29.bmp_posfs_id13_im10.bmp,['Im_RobertDowneyJr.png', 'Im_RobertPattinson.png', 'Im_JustinTimberlake.png', 'Im_LeonardoDiCaprio.png', 'Im_DanielRadcliffe.png', 'Im_DanielCraig.png', 'Im_GeorgeClooney.png', 'Im_ElijahWood.png', 'Im_RyanGosling.png', 'Im_BradPitt.png'],same,1,1.5499226000010822,8,0,
JENA1012,train,pos,fs,posfs_id6_im18.bmp_posfs_id18_im18.bmp,['Im_RobertDowneyJr.png', 'Im_RobertPattinson.png', 'Im_JustinTimberlake.png', 'Im_LeonardoDiCaprio.png', 'Im_DanielRadcliffe.png', 'Im_DanielCraig.png', 'Im_GeorgeClooney.png', 'Im_ElijahWood.png', 'Im_RyanGosling.png', 'Im_BradPitt.png'],diff,1,0.5502329000009922,9,0,
JENA1012,train,pos,fs,posfs_id7_im14.bmp_posfs_id7_im26.bmp,['Im_RobertDowneyJr.png', 'Im_RobertPattinson.png', 'Im_JustinTimberlake.png', 'Im_LeonardoDiCaprio.png', 'Im_DanielRadcliffe.png', 'Im_DanielCraig.png', 'Im_GeorgeClooney.png', 'Im_ElijahWood.png', 'Im_RyanGosling.png', 'Im_BradPitt.png'],same,1,0.6917901000015263,10,0,
JENA1012,train,pos,fs,posfs_id6_im12.bmp_posfs_id6_im18.bmp,['Im_RobertDowneyJr.png', 'Im_RobertPattinson.png', 'Im_JustinTimberlake.png', 'Im_LeonardoDiCaprio.png', 'Im_DanielRadcliffe.png', 'Im_DanielCraig.png', 'Im_GeorgeClooney.png', 'Im_ElijahWood.png', 'Im_RyanGosling.png', 'Im_BradPitt.png'],same,1,1.4669191000011779,11,0,
JENA1012,train,pos,fs,posfs_id18_im19.bmp_posfs_id7_im14.bmp,['Im_RobertDowneyJr.png', 'Im_RobertPattinson.png', 'Im_JustinTimberlake.png', 'Im_LeonardoDiCaprio.png', 'Im_DanielRadcliffe.png', 'Im_DanielCraig.png', 'Im_GeorgeClooney.png', 'Im_ElijahWood.png', 'Im_RyanGosling.png', 'Im_BradPitt.png'],diff,1,0.6583191999998235,12,0,
JENA1012,train,pos,fs,posfs_id4_im7.bmp_posfs_id19_im27.bmp,['Im_RobertDowneyJr.png', 'Im_RobertPattinson.png', 'Im_JustinTimberlake.png', 'Im_LeonardoDiCaprio.png', 'Im_DanielRadcliffe.png', 'Im_DanielCraig.png', 'Im_GeorgeClooney.png', 'Im_ElijahWood.png', 'Im_RyanGosling.png', 'Im_BradPitt.png'],diff,1,0.6918461000004754,13,0,
JENA1012,train,pos,fs,posfs_id13_im29.bmp_posfs_id10_im18.bmp,['Im_RobertDowneyJr.png', 'Im_RobertPattinson.png', 'Im_JustinTimberlake.png', 'Im_LeonardoDiCaprio.png', 'Im_DanielRadcliffe.png', 'Im_DanielCraig.png', 'Im_GeorgeClooney.png', 'Im_ElijahWood.png', 'Im_RyanGosling.png', 'Im_BradPitt.png'],diff,1,0.6749356000000262,14,0,
JENA1012,train,pos,fs,posfs_id20_im30.bmp_posfs_id20_im3.bmp,['Im_RobertDowneyJr.png', 'Im_RobertPattinson.png', 'Im_JustinTimberlake.png', 'Im_LeonardoDiCaprio.png', 'Im_DanielRadcliffe.png', 'Im_DanielCraig.png', 'Im_GeorgeClooney.png', 'Im_ElijahWood.png', 'Im_RyanGosling.png', 'Im_BradPitt.png'],same,1,0.8583910999986983,15,0,
JENA1012,train,pos,fs,posfs_id3_im6.bmp_posfs_id6_im19.bmp,['Im_RobertDowneyJr.png', 'Im_RobertPattinson.png', 'Im_JustinTimberlake.png', 'Im_LeonardoDiCaprio.png', 'Im_DanielRadcliffe.png', 'Im_DanielCraig.png', 'Im_GeorgeClooney.png', 'Im_ElijahWood.png', 'Im_RyanGosling.png', 'Im_BradPitt.png'],diff,1,0.6416922000007617,16,0,
JENA1012,train,pos,fs,posfs_id3_im17.bmp_posfs_id3_im8.bmp,['Im_RobertDowneyJr.png', 'Im_RobertPattinson.png', 'Im_JustinTimberlake.png', 'Im_LeonardoDiCaprio.png', 'Im_DanielRadcliffe.png', 'Im_DanielCraig.png', 'Im_GeorgeClooney.png', 'Im_ElijahWood.png', 'Im_RyanGosling.png', 'Im_BradPitt.png'],same,1,0.650115000000369,17,0,
JENA1012,train,pos,fs,posfs_id5_im20.bmp_posfs_id5_im10.bmp,['Im_RobertDowneyJr.png', 'Im_RobertPattinson.png', 'Im_JustinTimberlake.png', 'Im_LeonardoDiCaprio.png', 'Im_DanielRadcliffe.png', 'Im_DanielCraig.png', 'Im_GeorgeClooney.png', 'Im_ElijahWood.png', 'Im_RyanGosling.png', 'Im_BradPitt.png'],same,1,0.6750068000001193,18,0,
JENA1012,train,pos,fs,posfs_id3_im6.bmp_posfs_id6_im18.bmp,['Im_RobertDowneyJr.png', 'Im_RobertPattinson.png', 'Im_JustinTimberlake.png', 'Im_LeonardoDiCaprio.png', 'Im_DanielRadcliffe.png', 'Im_DanielCraig.png', 'Im_GeorgeClooney.png', 'Im_ElijahWood.png', 'Im_RyanGosling.png', 'Im_BradPitt.png'],diff,1,0.7753527999993821,19,0,
JENA1012,train,pos,fs,posfs_id7_im26.bmp_posfs_id7_im15.bmp,['Im_RobertDowneyJr.png', 'Im_RobertPattinson.png', 'Im_JustinTimberlake.png', 'Im_LeonardoDiCaprio.png', 'Im_DanielRadcliffe.png', 'Im_DanielCraig.png', 'Im_GeorgeClooney.png', 'Im_ElijahWood.png', 'Im_RyanGosling.png', 'Im_BradPitt.png'],same,1,0.6997979000007035,20,0,
JENA1012,train,neg,fs,negfs_id13_im29.bmp_negfs_id10_im18.bmp,['Im_RobertDowneyJr.png', 'Im_RobertPattinson.png', 'Im_JustinTimberlake.png', 'Im_LeonardoDiCaprio.png', 'Im_DanielRadcliffe.png', 'Im_DanielCraig.png', 'Im_GeorgeClooney.png', 'Im_ElijahWood.png', 'Im_RyanGosling.png', 'Im_BradPitt.png'],diff,1,0.4832440999998653,1,0,
JENA1012,train,pos,fs,posfs_id19_im4.bmp_posfs_id10_im17.bmp,['Im_RobertDowneyJr.png', 'Im_RobertPattinson.png', 'Im_JustinTimberlake.png', 'Im_LeonardoDiCaprio.png', 'Im_DanielRadcliffe.png', 'Im_DanielCraig.png', 'Im_GeorgeClooney.png', 'Im_ElijahWood.png', 'Im_RyanGosling.png', 'Im_BradPitt.png'],diff,1,1.2920019999983197,2,0,
JENA1012,train,neg,fs,negfs_id3_im17.bmp_negfs_id3_im6.bmp,['Im_RobertDowneyJr.png', 'Im_RobertPattinson.png', 'Im_JustinTimberlake.png', 'Im_LeonardoDiCaprio.png', 'Im_DanielRadcliffe.png', 'Im_DanielCraig.png', 'Im_GeorgeClooney.png', 'Im_ElijahWood.png', 'Im_RyanGosling.png', 'Im_BradPitt.png'],same,1,0.46704590000081225,3,0,
JENA1012,train,neg,fs,negfs_id7_im26.bmp_negfs_id7_im15.bmp,['Im_RobertDowneyJr.png', 'Im_RobertPattinson.png', 'Im_JustinTimberlake.png', 'Im_LeonardoDiCaprio.png', 'Im_DanielRadcliffe.png', 'Im_DanielCraig.png', 'Im_GeorgeClooney.png', 'Im_ElijahWood.png', 'Im_RyanGosling.png', 'Im_BradPitt.png'],diff,0,0.7167339999996329,3,0,
JENA1012,train,inv,fs,posfs_id5_im10.bmp_posfs_id3_im8.bmp,['Im_RobertDowneyJr.png', 'Im_RobertPattinson.png', 'Im_JustinTimberlake.png', 'Im_LeonardoDiCaprio.png', 'Im_DanielRadcliffe.png', 'Im_DanielCraig.png', 'Im_GeorgeClooney.png', 'Im_ElijahWood.png', 'Im_RyanGosling.png', 'Im_BradPitt.png'],diff,1,0.40840130000106,4,0,
JENA1012,train,pos,fs,posfs_id6_im12.bmp_posfs_id5_im1.bmp,['Im_RobertDowneyJr.png', 'Im_RobertPattinson.png', 'Im_JustinTimberlake.png', 'Im_LeonardoDiCaprio.png', 'Im_DanielRadcliffe.png', 'Im_DanielCraig.png', 'Im_GeorgeClooney.png', 'Im_ElijahWood.png', 'Im_RyanGosling.png', 'Im_BradPitt.png'],diff,1,0.5251411000008375,5,0,
JENA1012,train,inv,fs,posfs_id3_im17.bmp_posfs_id7_im15.bmp,['Im_RobertDowneyJr.png', 'Im_RobertPattinson.png', 'Im_JustinTimberlake.png', 'Im_LeonardoDiCaprio.png', 'Im_DanielRadcliffe.png', 'Im_DanielCraig.png', 'Im_GeorgeClooney.png', 'Im_ElijahWood.png', 'Im_RyanGosling.png', 'Im_BradPitt.png'],diff,1,0.47518099999979313,6,0,
JENA1012,train,inv,fs,posfs_id20_im30.bmp_posfs_id13_im10.bmp,['Im_RobertDowneyJr.png', 'Im_RobertPattinson.png', 'Im_JustinTimberlake.png', 'Im_LeonardoDiCaprio.png', 'Im_DanielRadcliffe.png', 'Im_DanielCraig.png', 'Im_GeorgeClooney.png', 'Im_ElijahWood.png', 'Im_RyanGosling.png', 'Im_BradPitt.png'],diff,1,0.5169692999988911,7,0,
JENA1012,train,pos,fs,posfs_id3_im8.bmp_posfs_id10_im18.bmp,['Im_RobertDowneyJr.png', 'Im_RobertPattinson.png', 'Im_JustinTimberlake.png', 'Im_LeonardoDiCaprio.png', 'Im_DanielRadcliffe.png', 'Im_DanielCraig.png', 'Im_GeorgeClooney.png', 'Im_ElijahWood.png', 'Im_RyanGosling.png', 'Im_BradPitt.png'],diff,1,0.41688240000075893,8,0,
JENA1012,train,inv,fs,posfs_id13_im29.bmp_posfs_id10_im18.bmp,['Im_RobertDowneyJr.png', 'Im_RobertPattinson.png', 'Im_JustinTimberlake.png', 'Im_LeonardoDiCaprio.png', 'Im_DanielRadcliffe.png', 'Im_DanielCraig.png', 'Im_GeorgeClooney.png', 'Im_ElijahWood.png', 'Im_RyanGosling.png', 'Im_BradPitt.png'],diff,1,0.4581493000005139,9,0,
JENA1012,train,inv,fs,posfs_id7_im14.bmp_posfs_id7_im15.bmp,['Im_RobertDowneyJr.png', 'Im_RobertPattinson.png', 'Im_JustinTimberlake.png', 'Im_LeonardoDiCaprio.png', 'Im_DanielRadcliffe.png', 'Im_DanielCraig.png', 'Im_GeorgeClooney.png', 'Im_ElijahWood.png', 'Im_RyanGosling.png', 'Im_BradPitt.png'],same,1,0.6009387000012794,10,0,
JENA1012,train,neg,fs,negfs_id10_im17.bmp_negfs_id19_im4.bmp,['Im_RobertDowneyJr.png', 'Im_RobertPattinson.png', 'Im_JustinTimberlake.png', 'Im_LeonardoDiCaprio.png', 'Im_DanielRadcliffe.png', 'Im_DanielCraig.png', 'Im_GeorgeClooney.png', 'Im_ElijahWood.png', 'Im_RyanGosling.png', 'Im_BradPitt.png'],same,0,2.450246000000334,10,0,
JENA1012,train,neg,fs,negfs_id13_im10.bmp_negfs_id13_im29.bmp,['Im_RobertDowneyJr.png', 'Im_RobertPattinson.png', 'Im_JustinTimberlake.png', 'Im_LeonardoDiCaprio.png', 'Im_DanielRadcliffe.png', 'Im_DanielCraig.png', 'Im_GeorgeClooney.png', 'Im_ElijahWood.png', 'Im_RyanGosling.png', 'Im_BradPitt.png'],same,1,1.091839800001253,11,0,
JENA1012,train,pos,fs,posfs_id5_im10.bmp_posfs_id5_im20.bmp,['Im_RobertDowneyJr.png', 'Im_RobertPattinson.png', 'Im_JustinTimberlake.png', 'Im_LeonardoDiCaprio.png', 'Im_DanielRadcliffe.png', 'Im_DanielCraig.png', 'Im_GeorgeClooney.png', 'Im_ElijahWood.png', 'Im_RyanGosling.png', 'Im_BradPitt.png'],same,1,0.9500210000005609,12,0,
JENA1012,train,inv,fs,posfs_id5_im10.bmp_posfs_id5_im1.bmp,['Im_RobertDowneyJr.png', 'Im_RobertPattinson.png', 'Im_JustinTimberlake.png', 'Im_LeonardoDiCaprio.png', 'Im_DanielRadcliffe.png', 'Im_DanielCraig.png', 'Im_GeorgeClooney.png', 'Im_ElijahWood.png', 'Im_RyanGosling.png', 'Im_BradPitt.png'],same,1,1.2919053999994503,13,0,
JENA1012,train,neg,fs,negfs_id3_im8.bmp_negfs_id10_im18.bmp,['Im_RobertDowneyJr.png', 'Im_RobertPattinson.png', 'Im_JustinTimberlake.png', 'Im_LeonardoDiCaprio.png', 'Im_DanielRadcliffe.png', 'Im_DanielCraig.png', 'Im_GeorgeClooney.png', 'Im_ElijahWood.png', 'Im_RyanGosling.png', 'Im_BradPitt.png'],diff,1,0.41677809999964666,14,0,
JENA1012,train,inv,fs,posfs_id19_im27.bmp_posfs_id19_im4.bmp,['Im_RobertDowneyJr.png', 'Im_RobertPattinson.png', 'Im_JustinTimberlake.png', 'Im_LeonardoDiCaprio.png', 'Im_DanielRadcliffe.png', 'Im_DanielCraig.png', 'Im_GeorgeClooney.png', 'Im_ElijahWood.png', 'Im_RyanGosling.png', 'Im_BradPitt.png'],same,1,0.4252141999986634,15,0,
JENA1012,train,inv,fs,posfs_id4_im7.bmp_posfs_id7_im26.bmp,['Im_RobertDowneyJr.png', 'Im_RobertPattinson.png', 'Im_JustinTimberlake.png', 'Im_LeonardoDiCaprio.png', 'Im_DanielRadcliffe.png', 'Im_DanielCraig.png', 'Im_GeorgeClooney.png', 'Im_ElijahWood.png', 'Im_RyanGosling.png', 'Im_BradPitt.png'],diff,1,0.4250886999998329,16,0,
JENA1012,train,neg,fs,negfs_id13_im15.bmp_negfs_id13_im29.bmp,['Im_RobertDowneyJr.png', 'Im_RobertPattinson.png', 'Im_JustinTimberlake.png', 'Im_LeonardoDiCaprio.png', 'Im_DanielRadcliffe.png', 'Im_DanielCraig.png', 'Im_GeorgeClooney.png', 'Im_ElijahWood.png', 'Im_RyanGosling.png', 'Im_BradPitt.png'],same,1,0.5084050000004936,17,0,
JENA1012,train,pos,fs,posfs_id18_im11.bmp_posfs_id6_im19.bmp,['Im_RobertDowneyJr.png', 'Im_RobertPattinson.png', 'Im_JustinTimberlake.png', 'Im_LeonardoDiCaprio.png', 'Im_DanielRadcliffe.png', 'Im_DanielCraig.png', 'Im_GeorgeClooney.png', 'Im_ElijahWood.png', 'Im_RyanGosling.png', 'Im_BradPitt.png'],diff,1,0.6002098999997543,18,0,
JENA1012,train,pos,60,pos60_id6_im12.bmp_pos60_id10_im1.bmp,['Im_RobertDowneyJr.png', 'Im_RobertPattinson.png', 'Im_JustinTimberlake.png', 'Im_LeonardoDiCaprio.png', 'Im_DanielRadcliffe.png', 'Im_DanielCraig.png', 'Im_GeorgeClooney.png', 'Im_ElijahWood.png', 'Im_RyanGosling.png', 'Im_BradPitt.png'],diff,1,0.4082938000010472,1,0,
JENA1012,train,pos,120,pos120_id7_im26.bmp_pos120_id20_im3.bmp,['Im_RobertDowneyJr.png', 'Im_RobertPattinson.png', 'Im_JustinTimberlake.png', 'Im_LeonardoDiCaprio.png', 'Im_DanielRadcliffe.png', 'Im_DanielCraig.png', 'Im_GeorgeClooney.png', 'Im_ElijahWood.png', 'Im_RyanGosling.png', 'Im_BradPitt.png'],diff,1,0.4250094999988505,2,0,
JENA1012,train,pos,0,pos0_id20_im3.bmp_pos0_id7_im26.bmp,['Im_RobertDowneyJr.png', 'Im_RobertPattinson.png', 'Im_JustinTimberlake.png', 'Im_LeonardoDiCaprio.png', 'Im_DanielRadcliffe.png', 'Im_DanielCraig.png', 'Im_GeorgeClooney.png', 'Im_ElijahWood.png', 'Im_RyanGosling.png', 'Im_BradPitt.png'],diff,1,0.4083963000011863,3,0,
JENA1012,train,pos,30,pos30_id7_im14.bmp_pos30_id18_im19.bmp,['Im_RobertDowneyJr.png', 'Im_RobertPattinson.png', 'Im_JustinTimberlake.png', 'Im_LeonardoDiCaprio.png', 'Im_DanielRadcliffe.png', 'Im_DanielCraig.png', 'Im_GeorgeClooney.png', 'Im_ElijahWood.png', 'Im_RyanGosling.png', 'Im_BradPitt.png'],diff,1,0.4083562999985588,4,0,
JENA1012,train,pos,0,pos0_id18_im19.bmp_pos0_id18_im11.bmp,['Im_RobertDowneyJr.png', 'Im_RobertPattinson.png', 'Im_JustinTimberlake.png', 'Im_LeonardoDiCaprio.png', 'Im_DanielRadcliffe.png', 'Im_DanielCraig.png', 'Im_GeorgeClooney.png', 'Im_ElijahWood.png', 'Im_RyanGosling.png', 'Im_BradPitt.png'],same,1,0.4249939000001177,5,0,
JENA1012,train,pos,90,pos90_id4_im15.bmp_pos90_id4_im7.bmp,['Im_RobertDowneyJr.png', 'Im_RobertPattinson.png', 'Im_JustinTimberlake.png', 'Im_LeonardoDiCaprio.png', 'Im_DanielRadcliffe.png', 'Im_DanielCraig.png', 'Im_GeorgeClooney.png', 'Im_ElijahWood.png', 'Im_RyanGosling.png', 'Im_BradPitt.png'],same,1,0.424959800000579,6,0,
JENA1012,train,pos,150,pos150_id10_im1.bmp_pos150_id10_im17.bmp,['Im_RobertDowneyJr.png', 'Im_RobertPattinson.png', 'Im_JustinTimberlake.png', 'Im_LeonardoDiCaprio.png', 'Im_DanielRadcliffe.png', 'Im_DanielCraig.png', 'Im_GeorgeClooney.png', 'Im_ElijahWood.png', 'Im_RyanGosling.png', 'Im_BradPitt.png'],same,1,0.43308170000091195,7,0,
JENA1012,train,pos,60,pos60_id20_im30.bmp_pos60_id13_im10.bmp,['Im_RobertDowneyJr.png', 'Im_RobertPattinson.png', 'Im_JustinTimberlake.png', 'Im_LeonardoDiCaprio.png', 'Im_DanielRadcliffe.png', 'Im_DanielCraig.png', 'Im_GeorgeClooney.png', 'Im_ElijahWood.png', 'Im_RyanGosling.png', 'Im_BradPitt.png'],diff,1,0.40839450000021316,8,0,
JENA1012,train,pos,90,pos90_id7_im15.bmp_pos90_id3_im17.bmp,['Im_RobertDowneyJr.png', 'Im_RobertPattinson.png', 'Im_JustinTimberlake.png', 'Im_LeonardoDiCaprio.png', 'Im_DanielRadcliffe.png', 'Im_DanielCraig.png', 'Im_GeorgeClooney.png', 'Im_ElijahWood.png', 'Im_RyanGosling.png', 'Im_BradPitt.png'],diff,1,0.5168920999985858,9,0,
JENA1012,train,pos,150,pos150_id3_im17.bmp_pos150_id3_im6.bmp,['Im_RobertDowneyJr.png', 'Im_RobertPattinson.png', 'Im_JustinTimberlake.png', 'Im_LeonardoDiCaprio.png', 'Im_DanielRadcliffe.png', 'Im_DanielCraig.png', 'Im_GeorgeClooney.png', 'Im_ElijahWood.png', 'Im_RyanGosling.png', 'Im_BradPitt.png'],same,1,0.4170773999994708,10,0,
JENA1012,train,pos,120,pos120_id10_im1.bmp_pos120_id4_im15.bmp,['Im_RobertDowneyJr.png', 'Im_RobertPattinson.png', 'Im_JustinTimberlake.png', 'Im_LeonardoDiCaprio.png', 'Im_DanielRadcliffe.png', 'Im_DanielCraig.png', 'Im_GeorgeClooney.png', 'Im_ElijahWood.png', 'Im_RyanGosling.png', 'Im_BradPitt.png'],diff,1,0.40842219999831286,11,0,
JENA1012,train,pos,30,pos30_id3_im8.bmp_pos30_id10_im18.bmp,['Im_RobertDowneyJr.png', 'Im_RobertPattinson.png', 'Im_JustinTimberlake.png', 'Im_LeonardoDiCaprio.png', 'Im_DanielRadcliffe.png', 'Im_DanielCraig.png', 'Im_GeorgeClooney.png', 'Im_ElijahWood.png', 'Im_RyanGosling.png', 'Im_BradPitt.png'],diff,1,0.4083055000010063,12,0,
JENA1012,train,pos,fs,posfs_id5_im10.bmp_posfs_id5_im20.bmp,['Im_RobertDowneyJr.png', 'Im_RobertPattinson.png', 'Im_JustinTimberlake.png', 'Im_LeonardoDiCaprio.png', 'Im_DanielRadcliffe.png', 'Im_DanielCraig.png', 'Im_GeorgeClooney.png', 'Im_ElijahWood.png', 'Im_RyanGosling.png', 'Im_BradPitt.png'],same,1,0.7750667000000249,13,0,
JENA1012,train,pos,fs,posfs_id3_im8.bmp_posfs_id3_im17.bmp,['Im_RobertDowneyJr.png', 'Im_RobertPattinson.png', 'Im_JustinTimberlake.png', 'Im_LeonardoDiCaprio.png', 'Im_DanielRadcliffe.png', 'Im_DanielCraig.png', 'Im_GeorgeClooney.png', 'Im_ElijahWood.png', 'Im_RyanGosling.png', 'Im_BradPitt.png'],same,1,0.408428400000048,14,0,
JENA1012,train,inv,90,pos90_id19_im4.bmp_pos90_id5_im20.bmp,['Im_RobertDowneyJr.png', 'Im_RobertPattinson.png', 'Im_JustinTimberlake.png', 'Im_LeonardoDiCaprio.png', 'Im_DanielRadcliffe.png', 'Im_DanielCraig.png', 'Im_GeorgeClooney.png', 'Im_ElijahWood.png', 'Im_RyanGosling.png', 'Im_BradPitt.png'],same,0,0.9749947000000247,14,0,
JENA1012,train,inv,0,pos0_id6_im18.bmp_pos0_id6_im19.bmp,['Im_RobertDowneyJr.png', 'Im_RobertPattinson.png', 'Im_JustinTimberlake.png', 'Im_LeonardoDiCaprio.png', 'Im_DanielRadcliffe.png', 'Im_DanielCraig.png', 'Im_GeorgeClooney.png', 'Im_ElijahWood.png', 'Im_RyanGosling.png', 'Im_BradPitt.png'],same,1,0.8169250999999349,15,0,
JENA1012,train,inv,30,pos30_id6_im19.bmp_pos30_id18_im11.bmp,['Im_RobertDowneyJr.png', 'Im_RobertPattinson.png', 'Im_JustinTimberlake.png', 'Im_LeonardoDiCaprio.png', 'Im_DanielRadcliffe.png', 'Im_DanielCraig.png', 'Im_GeorgeClooney.png', 'Im_ElijahWood.png', 'Im_RyanGosling.png', 'Im_BradPitt.png'],diff,1,0.4167328000003181,16,0,
JENA1012,train,inv,150,pos150_id7_im26.bmp_pos150_id7_im15.bmp,['Im_RobertDowneyJr.png', 'Im_RobertPattinson.png', 'Im_JustinTimberlake.png', 'Im_LeonardoDiCaprio.png', 'Im_DanielRadcliffe.png', 'Im_DanielCraig.png', 'Im_GeorgeClooney.png', 'Im_ElijahWood.png', 'Im_RyanGosling.png', 'Im_BradPitt.png'],same,1,0.47525470000073256,17,0,
JENA1012,train,inv,30,pos30_id4_im7.bmp_pos30_id19_im27.bmp,['Im_RobertDowneyJr.png', 'Im_RobertPattinson.png', 'Im_JustinTimberlake.png', 'Im_LeonardoDiCaprio.png', 'Im_DanielRadcliffe.png', 'Im_DanielCraig.png', 'Im_GeorgeClooney.png', 'Im_ElijahWood.png', 'Im_RyanGosling.png', 'Im_BradPitt.png'],diff,1,0.41673480000099516,18,0,
JENA1012,train,inv,fs,posfs_id3_im17.bmp_posfs_id3_im6.bmp,['Im_RobertDowneyJr.png', 'Im_RobertPattinson.png', 'Im_JustinTimberlake.png', 'Im_LeonardoDiCaprio.png', 'Im_DanielRadcliffe.png', 'Im_DanielCraig.png', 'Im_GeorgeClooney.png', 'Im_ElijahWood.png', 'Im_RyanGosling.png', 'Im_BradPitt.png'],same,1,0.40841939999882015,19,0,
JENA1012,train,inv,90,pos90_id5_im1.bmp_pos90_id6_im12.bmp,['Im_RobertDowneyJr.png', 'Im_RobertPattinson.png', 'Im_JustinTimberlake.png', 'Im_LeonardoDiCaprio.png', 'Im_DanielRadcliffe.png', 'Im_DanielCraig.png', 'Im_GeorgeClooney.png', 'Im_ElijahWood.png', 'Im_RyanGosling.png', 'Im_BradPitt.png'],same,0,0.5585964000001695,19,0,
JENA1012,train,inv,fs,posfs_id18_im18.bmp_posfs_id18_im11.bmp,['Im_RobertDowneyJr.png', 'Im_RobertPattinson.png', 'Im_JustinTimberlake.png', 'Im_LeonardoDiCaprio.png', 'Im_DanielRadcliffe.png', 'Im_DanielCraig.png', 'Im_GeorgeClooney.png', 'Im_ElijahWood.png', 'Im_RyanGosling.png', 'Im_BradPitt.png'],same,1,1.1583429999991495,20,0,
JENA1012,train,inv,120,pos120_id7_im15.bmp_pos120_id3_im17.bmp,['Im_RobertDowneyJr.png', 'Im_RobertPattinson.png', 'Im_JustinTimberlake.png', 'Im_LeonardoDiCaprio.png', 'Im_DanielRadcliffe.png', 'Im_DanielCraig.png', 'Im_GeorgeClooney.png', 'Im_ElijahWood.png', 'Im_RyanGosling.png', 'Im_BradPitt.png'],diff,1,0.41677009999875736,21,0,
JENA1012,train,inv,0,pos0_id20_im30.bmp_pos0_id13_im10.bmp,['Im_RobertDowneyJr.png', 'Im_RobertPattinson.png', 'Im_JustinTimberlake.png', 'Im_LeonardoDiCaprio.png', 'Im_DanielRadcliffe.png', 'Im_DanielCraig.png', 'Im_GeorgeClooney.png', 'Im_ElijahWood.png', 'Im_RyanGosling.png', 'Im_BradPitt.png'],diff,1,0.4084863000007317,22,0,
JENA1012,train,inv,60,pos60_id18_im19.bmp_pos60_id7_im14.bmp,['Im_RobertDowneyJr.png', 'Im_RobertPattinson.png', 'Im_JustinTimberlake.png', 'Im_LeonardoDiCaprio.png', 'Im_DanielRadcliffe.png', 'Im_DanielCraig.png', 'Im_GeorgeClooney.png', 'Im_ElijahWood.png', 'Im_RyanGosling.png', 'Im_BradPitt.png'],diff,1,0.45007930000065244,23,0,
JENA1012,train,inv,120,pos120_id19_im4.bmp_pos120_id19_im8.bmp,['Im_RobertDowneyJr.png', 'Im_RobertPattinson.png', 'Im_JustinTimberlake.png', 'Im_LeonardoDiCaprio.png', 'Im_DanielRadcliffe.png', 'Im_DanielCraig.png', 'Im_GeorgeClooney.png', 'Im_ElijahWood.png', 'Im_RyanGosling.png', 'Im_BradPitt.png'],same,1,0.4166964999985794,24,0,
JENA1012,train,inv,150,pos150_id3_im8.bmp_pos150_id3_im6.bmp,['Im_RobertDowneyJr.png', 'Im_RobertPattinson.png', 'Im_JustinTimberlake.png', 'Im_LeonardoDiCaprio.png', 'Im_DanielRadcliffe.png', 'Im_DanielCraig.png', 'Im_GeorgeClooney.png', 'Im_ElijahWood.png', 'Im_RyanGosling.png', 'Im_BradPitt.png'],same,1,0.425056099998983,25,0,
JENA1012,train,inv,60,pos60_id3_im6.bmp_pos60_id6_im18.bmp,['Im_RobertDowneyJr.png', 'Im_RobertPattinson.png', 'Im_JustinTimberlake.png', 'Im_LeonardoDiCaprio.png', 'Im_DanielRadcliffe.png', 'Im_DanielCraig.png', 'Im_GeorgeClooney.png', 'Im_ElijahWood.png', 'Im_RyanGosling.png', 'Im_BradPitt.png'],diff,1,0.4249703999994381,26,0,
JENA1012,train,neg,30,neg30_id10_im18.bmp_neg30_id13_im29.bmp,['Im_RobertDowneyJr.png', 'Im_RobertPattinson.png', 'Im_JustinTimberlake.png', 'Im_LeonardoDiCaprio.png', 'Im_DanielRadcliffe.png', 'Im_DanielCraig.png', 'Im_GeorgeClooney.png', 'Im_ElijahWood.png', 'Im_RyanGosling.png', 'Im_BradPitt.png'],diff,1,0.47516219999852183,27,0,
JENA1012,train,neg,fs,negfs_id10_im17.bmp_negfs_id10_im18.bmp,['Im_RobertDowneyJr.png', 'Im_RobertPattinson.png', 'Im_JustinTimberlake.png', 'Im_LeonardoDiCaprio.png', 'Im_DanielRadcliffe.png', 'Im_DanielCraig.png', 'Im_GeorgeClooney.png', 'Im_ElijahWood.png', 'Im_RyanGosling.png', 'Im_BradPitt.png'],same,1,0.416424700000789,28,0,
JENA1012,train,neg,120,neg120_id7_im15.bmp_neg120_id7_im14.bmp,['Im_RobertDowneyJr.png', 'Im_RobertPattinson.png', 'Im_JustinTimberlake.png', 'Im_LeonardoDiCaprio.png', 'Im_DanielRadcliffe.png', 'Im_DanielCraig.png', 'Im_GeorgeClooney.png', 'Im_ElijahWood.png', 'Im_RyanGosling.png', 'Im_BradPitt.png'],same,1,0.6086013999993156,29,0,
JENA1012,train,neg,150,neg150_id10_im1.bmp_neg150_id6_im12.bmp,['Im_RobertDowneyJr.png', 'Im_RobertPattinson.png', 'Im_JustinTimberlake.png', 'Im_LeonardoDiCaprio.png', 'Im_DanielRadcliffe.png', 'Im_DanielCraig.png', 'Im_GeorgeClooney.png', 'Im_ElijahWood.png', 'Im_RyanGosling.png', 'Im_BradPitt.png'],diff,1,0.43317839999872376,30,0,
JENA1012,train,neg,120,neg120_id5_im10.bmp_neg120_id7_im14.bmp,['Im_RobertDowneyJr.png', 'Im_RobertPattinson.png', 'Im_JustinTimberlake.png', 'Im_LeonardoDiCaprio.png', 'Im_DanielRadcliffe.png', 'Im_DanielCraig.png', 'Im_GeorgeClooney.png', 'Im_ElijahWood.png', 'Im_RyanGosling.png', 'Im_BradPitt.png'],diff,1,0.4250337999983458,31,0,
JENA1012,train,neg,150,neg150_id13_im10.bmp_neg150_id13_im29.bmp,['Im_RobertDowneyJr.png', 'Im_RobertPattinson.png', 'Im_JustinTimberlake.png', 'Im_LeonardoDiCaprio.png', 'Im_DanielRadcliffe.png', 'Im_DanielCraig.png', 'Im_GeorgeClooney.png', 'Im_ElijahWood.png', 'Im_RyanGosling.png', 'Im_BradPitt.png'],diff,0,0.40804260000004433,31,0,
JENA1012,train,neg,60,neg60_id10_im18.bmp_neg60_id10_im1.bmp,['Im_RobertDowneyJr.png', 'Im_RobertPattinson.png', 'Im_JustinTimberlake.png', 'Im_LeonardoDiCaprio.png', 'Im_DanielRadcliffe.png', 'Im_DanielCraig.png', 'Im_GeorgeClooney.png', 'Im_ElijahWood.png', 'Im_RyanGosling.png', 'Im_BradPitt.png'],same,1,0.4167238999998517,32,0,
JENA1012,train,neg,60,neg60_id19_im27.bmp_neg60_id19_im4.bmp,['Im_RobertDowneyJr.png', 'Im_RobertPattinson.png', 'Im_JustinTimberlake.png', 'Im_LeonardoDiCaprio.png', 'Im_DanielRadcliffe.png', 'Im_DanielCraig.png', 'Im_GeorgeClooney.png', 'Im_ElijahWood.png', 'Im_RyanGosling.png', 'Im_BradPitt.png'],diff,0,0.416741600000023,32,0,
JENA1012,train,neg,fs,negfs_id13_im10.bmp_negfs_id13_im29.bmp,['Im_RobertDowneyJr.png', 'Im_RobertPattinson.png', 'Im_JustinTimberlake.png', 'Im_LeonardoDiCaprio.png', 'Im_DanielRadcliffe.png', 'Im_DanielCraig.png', 'Im_GeorgeClooney.png', 'Im_ElijahWood.png', 'Im_RyanGosling.png', 'Im_BradPitt.png'],same,1,0.4165608000002976,33,0,
JENA1012,train,neg,30,neg30_id13_im15.bmp_neg30_id19_im27.bmp,['Im_RobertDowneyJr.png', 'Im_RobertPattinson.png', 'Im_JustinTimberlake.png', 'Im_LeonardoDiCaprio.png', 'Im_DanielRadcliffe.png', 'Im_DanielCraig.png', 'Im_GeorgeClooney.png', 'Im_ElijahWood.png', 'Im_RyanGosling.png', 'Im_BradPitt.png'],diff,1,0.4083738999997877,34,0,
JENA1012,train,neg,90,neg90_id3_im6.bmp_neg90_id3_im17.bmp,['Im_RobertDowneyJr.png', 'Im_RobertPattinson.png', 'Im_JustinTimberlake.png', 'Im_LeonardoDiCaprio.png', 'Im_DanielRadcliffe.png', 'Im_DanielCraig.png', 'Im_GeorgeClooney.png', 'Im_ElijahWood.png', 'Im_RyanGosling.png', 'Im_BradPitt.png'],same,1,0.40849660000094445,35,0,
JENA1012,train,neg,0,neg0_id5_im1.bmp_neg0_id20_im12.bmp,['Im_RobertDowneyJr.png', 'Im_RobertPattinson.png', 'Im_JustinTimberlake.png', 'Im_LeonardoDiCaprio.png', 'Im_DanielRadcliffe.png', 'Im_DanielCraig.png', 'Im_GeorgeClooney.png', 'Im_ElijahWood.png', 'Im_RyanGosling.png', 'Im_BradPitt.png'],diff,1,0.4168030999990151,36,0,
JENA1012,train,neg,90,neg90_id4_im15.bmp_neg90_id13_im29.bmp,['Im_RobertDowneyJr.png', 'Im_RobertPattinson.png', 'Im_JustinTimberlake.png', 'Im_LeonardoDiCaprio.png', 'Im_DanielRadcliffe.png', 'Im_DanielCraig.png', 'Im_GeorgeClooney.png', 'Im_ElijahWood.png', 'Im_RyanGosling.png', 'Im_BradPitt.png'],diff,1,0.42515590000039083,37,0,
JENA1012,train,neg,0,neg0_id6_im12.bmp_neg0_id6_im19.bmp,['Im_RobertDowneyJr.png', 'Im_RobertPattinson.png', 'Im_JustinTimberlake.png', 'Im_LeonardoDiCaprio.png', 'Im_DanielRadcliffe.png', 'Im_DanielCraig.png', 'Im_GeorgeClooney.png', 'Im_ElijahWood.png', 'Im_RyanGosling.png', 'Im_BradPitt.png'],diff,0,2.8748933999995643,37,0,
JENA1012,train,inv,60,pos60_id20_im12.bmp_pos60_id5_im1.bmp,['Im_RobertDowneyJr.png', 'Im_RobertPattinson.png', 'Im_JustinTimberlake.png', 'Im_LeonardoDiCaprio.png', 'Im_DanielRadcliffe.png', 'Im_DanielCraig.png', 'Im_GeorgeClooney.png', 'Im_ElijahWood.png', 'Im_RyanGosling.png', 'Im_BradPitt.png'],diff,1,0.4333984999993845,1,88.0952380952381,
JENA1012,train,inv,0,pos0_id13_im29.bmp_pos0_id10_im18.bmp,['Im_RobertDowneyJr.png', 'Im_RobertPattinson.png', 'Im_JustinTimberlake.png', 'Im_LeonardoDiCaprio.png', 'Im_DanielRadcliffe.png', 'Im_DanielCraig.png', 'Im_GeorgeClooney.png', 'Im_ElijahWood.png', 'Im_RyanGosling.png', 'Im_BradPitt.png'],diff,1,0.4167398999998113,2,88.0952380952381,
JENA1012,train,inv,90,pos90_id18_im11.bmp_pos90_id18_im18.bmp,['Im_RobertDowneyJr.png', 'Im_RobertPattinson.png', 'Im_JustinTimberlake.png', 'Im_LeonardoDiCaprio.png', 'Im_DanielRadcliffe.png', 'Im_DanielCraig.png', 'Im_GeorgeClooney.png', 'Im_ElijahWood.png', 'Im_RyanGosling.png', 'Im_BradPitt.png'],same,1,0.5918880999997782,3,88.0952380952381,
JENA1012,train,inv,120,pos120_id20_im12.bmp_pos120_id20_im30.bmp,['Im_RobertDowneyJr.png', 'Im_RobertPattinson.png', 'Im_JustinTimberlake.png', 'Im_LeonardoDiCaprio.png', 'Im_DanielRadcliffe.png', 'Im_DanielCraig.png', 'Im_GeorgeClooney.png', 'Im_ElijahWood.png', 'Im_RyanGosling.png', 'Im_BradPitt.png'],same,1,0.41674070000044594,4,88.0952380952381,
JENA1012,train,inv,120,pos120_id5_im1.bmp_pos120_id5_im20.bmp,['Im_RobertDowneyJr.png', 'Im_RobertPattinson.png', 'Im_JustinTimberlake.png', 'Im_LeonardoDiCaprio.png', 'Im_DanielRadcliffe.png', 'Im_DanielCraig.png', 'Im_GeorgeClooney.png', 'Im_ElijahWood.png', 'Im_RyanGosling.png', 'Im_BradPitt.png'],diff,0,0.4250114000005851,4,88.0952380952381,
JENA1012,train,inv,150,pos150_id5_im1.bmp_pos150_id5_im10.bmp,['Im_RobertDowneyJr.png', 'Im_RobertPattinson.png', 'Im_JustinTimberlake.png', 'Im_LeonardoDiCaprio.png', 'Im_DanielRadcliffe.png', 'Im_DanielCraig.png', 'Im_GeorgeClooney.png', 'Im_ElijahWood.png', 'Im_RyanGosling.png', 'Im_BradPitt.png'],diff,0,1.0749455999994098,4,88.0952380952381,
JENA1012,train,inv,150,pos150_id18_im18.bmp_pos150_id13_im10.bmp,['Im_RobertDowneyJr.png', 'Im_RobertPattinson.png', 'Im_JustinTimberlake.png', 'Im_LeonardoDiCaprio.png', 'Im_DanielRadcliffe.png', 'Im_DanielCraig.png', 'Im_GeorgeClooney.png', 'Im_ElijahWood.png', 'Im_RyanGosling.png', 'Im_BradPitt.png'],diff,1,1.7668903000012506,5,88.0952380952381,
JENA1012,train,inv,fs,posfs_id18_im11.bmp_posfs_id3_im17.bmp,['Im_RobertDowneyJr.png', 'Im_RobertPattinson.png', 'Im_JustinTimberlake.png', 'Im_LeonardoDiCaprio.png', 'Im_DanielRadcliffe.png', 'Im_DanielCraig.png', 'Im_GeorgeClooney.png', 'Im_ElijahWood.png', 'Im_RyanGosling.png', 'Im_BradPitt.png'],diff,1,0.42480309999882593,6,88.0952380952381,
JENA1012,train,inv,90,pos90_id10_im18.bmp_pos90_id3_im8.bmp,['Im_RobertDowneyJr.png', 'Im_RobertPattinson.png', 'Im_JustinTimberlake.png', 'Im_LeonardoDiCaprio.png', 'Im_DanielRadcliffe.png', 'Im_DanielCraig.png', 'Im_GeorgeClooney.png', 'Im_ElijahWood.png', 'Im_RyanGosling.png', 'Im_BradPitt.png'],same,0,0.8420017999997071,6,88.0952380952381,
JENA1012,train,inv,30,pos30_id10_im1.bmp_pos30_id10_im18.bmp,['Im_RobertDowneyJr.png', 'Im_RobertPattinson.png', 'Im_JustinTimberlake.png', 'Im_LeonardoDiCaprio.png', 'Im_DanielRadcliffe.png', 'Im_DanielCraig.png', 'Im_GeorgeClooney.png', 'Im_ElijahWood.png', 'Im_RyanGosling.png', 'Im_BradPitt.png'],same,1,1.8666558000004443,7,88.0952380952381,
JENA1012,train,inv,60,pos60_id6_im12.bmp_pos60_id5_im1.bmp,['Im_RobertDowneyJr.png', 'Im_RobertPattinson.png', 'Im_JustinTimberlake.png', 'Im_LeonardoDiCaprio.png', 'Im_DanielRadcliffe.png', 'Im_DanielCraig.png', 'Im_GeorgeClooney.png', 'Im_ElijahWood.png', 'Im_RyanGosling.png', 'Im_BradPitt.png'],same,0,2.9332564000014827,7,88.0952380952381,
JENA1012,train,inv,0,pos0_id13_im15.bmp_pos0_id13_im10.bmp,['Im_RobertDowneyJr.png', 'Im_RobertPattinson.png', 'Im_JustinTimberlake.png', 'Im_LeonardoDiCaprio.png', 'Im_DanielRadcliffe.png', 'Im_DanielCraig.png', 'Im_GeorgeClooney.png', 'Im_ElijahWood.png', 'Im_RyanGosling.png', 'Im_BradPitt.png'],same,1,0.4332568000008905,8,88.0952380952381,
JENA1012,train,inv,fs,posfs_id18_im19.bmp_posfs_id18_im11.bmp,['Im_RobertDowneyJr.png', 'Im_RobertPattinson.png', 'Im_JustinTimberlake.png', 'Im_LeonardoDiCaprio.png', 'Im_DanielRadcliffe.png', 'Im_DanielCraig.png', 'Im_GeorgeClooney.png', 'Im_ElijahWood.png', 'Im_RyanGosling.png', 'Im_BradPitt.png'],same,1,0.49980670000149985,9,88.0952380952381,
JENA1012,train,inv,30,pos30_id5_im20.bmp_pos30_id19_im4.bmp,['Im_RobertDowneyJr.png', 'Im_RobertPattinson.png', 'Im_JustinTimberlake.png', 'Im_LeonardoDiCaprio.png', 'Im_DanielRadcliffe.png', 'Im_DanielCraig.png', 'Im_GeorgeClooney.png', 'Im_ElijahWood.png', 'Im_RyanGosling.png', 'Im_BradPitt.png'],diff,1,0.41670239999984915,10,88.0952380952381,
JENA1012,train,pos,0,pos0_id20_im3.bmp_pos0_id20_im12.bmp,['Im_RobertDowneyJr.png', 'Im_RobertPattinson.png', 'Im_JustinTimberlake.png', 'Im_LeonardoDiCaprio.png', 'Im_DanielRadcliffe.png', 'Im_DanielCraig.png', 'Im_GeorgeClooney.png', 'Im_ElijahWood.png', 'Im_RyanGosling.png', 'Im_BradPitt.png'],same,1,1.1335779999990336,11,88.0952380952381,
JENA1012,train,pos,fs,posfs_id6_im18.bmp_posfs_id3_im6.bmp,['Im_RobertDowneyJr.png', 'Im_RobertPattinson.png', 'Im_JustinTimberlake.png', 'Im_LeonardoDiCaprio.png', 'Im_DanielRadcliffe.png', 'Im_DanielCraig.png', 'Im_GeorgeClooney.png', 'Im_ElijahWood.png', 'Im_RyanGosling.png', 'Im_BradPitt.png'],diff,1,0.4167059999999765,12,88.0952380952381,
JENA1012,train,pos,fs,posfs_id7_im26.bmp_posfs_id7_im15.bmp,['Im_RobertDowneyJr.png', 'Im_RobertPattinson.png', 'Im_JustinTimberlake.png', 'Im_LeonardoDiCaprio.png', 'Im_DanielRadcliffe.png', 'Im_DanielCraig.png', 'Im_GeorgeClooney.png', 'Im_ElijahWood.png', 'Im_RyanGosling.png', 'Im_BradPitt.png'],same,1,0.4083951000011439,13,88.0952380952381,
JENA1012,train,pos,90,pos90_id18_im11.bmp_pos90_id18_im18.bmp,['Im_RobertDowneyJr.png', 'Im_RobertPattinson.png', 'Im_JustinTimberlake.png', 'Im_LeonardoDiCaprio.png', 'Im_DanielRadcliffe.png', 'Im_DanielCraig.png', 'Im_GeorgeClooney.png', 'Im_ElijahWood.png', 'Im_RyanGosling.png', 'Im_BradPitt.png'],same,1,0.5918903999991016,14,88.0952380952381,
JENA1012,train,pos,150,pos150_id6_im19.bmp_pos150_id6_im18.bmp,['Im_RobertDowneyJr.png', 'Im_RobertPattinson.png', 'Im_JustinTimberlake.png', 'Im_LeonardoDiCaprio.png', 'Im_DanielRadcliffe.png', 'Im_DanielCraig.png', 'Im_GeorgeClooney.png', 'Im_ElijahWood.png', 'Im_RyanGosling.png', 'Im_BradPitt.png'],same,1,0.4166473999994196,15,88.0952380952381,
JENA1012,train,pos,60,pos60_id19_im4.bmp_pos60_id19_im27.bmp,['Im_RobertDowneyJr.png', 'Im_RobertPattinson.png', 'Im_JustinTimberlake.png', 'Im_LeonardoDiCaprio.png', 'Im_DanielRadcliffe.png', 'Im_DanielCraig.png', 'Im_GeorgeClooney.png', 'Im_ElijahWood.png', 'Im_RyanGosling.png', 'Im_BradPitt.png'],same,1,0.4167204000004858,16,88.0952380952381,
JENA1012,train,pos,150,pos150_id18_im18.bmp_pos150_id6_im18.bmp,['Im_RobertDowneyJr.png', 'Im_RobertPattinson.png', 'Im_JustinTimberlake.png', 'Im_LeonardoDiCaprio.png', 'Im_DanielRadcliffe.png', 'Im_DanielCraig.png', 'Im_GeorgeClooney.png', 'Im_ElijahWood.png', 'Im_RyanGosling.png', 'Im_BradPitt.png'],diff,1,0.42503000000033353,17,88.0952380952381,
JENA1012,train,pos,90,pos90_id3_im8.bmp_pos90_id3_im17.bmp,['Im_RobertDowneyJr.png', 'Im_RobertPattinson.png', 'Im_JustinTimberlake.png', 'Im_LeonardoDiCaprio.png', 'Im_DanielRadcliffe.png', 'Im_DanielCraig.png', 'Im_GeorgeClooney.png', 'Im_ElijahWood.png', 'Im_RyanGosling.png', 'Im_BradPitt.png'],same,1,0.40838350000012724,18,88.0952380952381,
JENA1012,train,pos,0,pos0_id19_im8.bmp_pos0_id19_im4.bmp,['Im_RobertDowneyJr.png', 'Im_RobertPattinson.png', 'Im_JustinTimberlake.png', 'Im_LeonardoDiCaprio.png', 'Im_DanielRadcliffe.png', 'Im_DanielCraig.png', 'Im_GeorgeClooney.png', 'Im_ElijahWood.png', 'Im_RyanGosling.png', 'Im_BradPitt.png'],same,1,0.4250487000008434,19,88.0952380952381,
JENA1012,train,pos,60,pos60_id4_im15.bmp_pos60_id4_im7.bmp,['Im_RobertDowneyJr.png', 'Im_RobertPattinson.png', 'Im_JustinTimberlake.png', 'Im_LeonardoDiCaprio.png', 'Im_DanielRadcliffe.png', 'Im_DanielCraig.png', 'Im_GeorgeClooney.png', 'Im_ElijahWood.png', 'Im_RyanGosling.png', 'Im_BradPitt.png'],same,1,0.4251225999996677,20,88.0952380952381,
JENA1012,train,pos,120,pos120_id6_im18.bmp_pos120_id6_im12.bmp,['Im_RobertDowneyJr.png', 'Im_RobertPattinson.png', 'Im_JustinTimberlake.png', 'Im_LeonardoDiCaprio.png', 'Im_DanielRadcliffe.png', 'Im_DanielCraig.png', 'Im_GeorgeClooney.png', 'Im_ElijahWood.png', 'Im_RyanGosling.png', 'Im_BradPitt.png'],same,1,0.408169899999848,21,88.0952380952381,
JENA1012,train,pos,30,pos30_id10_im17.bmp_pos30_id4_im20.bmp,['Im_RobertDowneyJr.png', 'Im_RobertPattinson.png', 'Im_JustinTimberlake.png', 'Im_LeonardoDiCaprio.png', 'Im_DanielRadcliffe.png', 'Im_DanielCraig.png', 'Im_GeorgeClooney.png', 'Im_ElijahWood.png', 'Im_RyanGosling.png', 'Im_BradPitt.png'],diff,1,0.42500049999944167,22,88.0952380952381,
JENA1012,train,pos,30,pos30_id20_im30.bmp_pos30_id18_im19.bmp,['Im_RobertDowneyJr.png', 'Im_RobertPattinson.png', 'Im_JustinTimberlake.png', 'Im_LeonardoDiCaprio.png', 'Im_DanielRadcliffe.png', 'Im_DanielCraig.png', 'Im_GeorgeClooney.png', 'Im_ElijahWood.png', 'Im_RyanGosling.png', 'Im_BradPitt.png'],diff,1,0.42506350000076054,23,88.0952380952381,
JENA1012,train,pos,120,pos120_id6_im18.bmp_pos120_id18_im18.bmp,['Im_RobertDowneyJr.png', 'Im_RobertPattinson.png', 'Im_JustinTimberlake.png', 'Im_LeonardoDiCaprio.png', 'Im_DanielRadcliffe.png', 'Im_DanielCraig.png', 'Im_GeorgeClooney.png', 'Im_ElijahWood.png', 'Im_RyanGosling.png', 'Im_BradPitt.png'],diff,1,0.4082479999997304,24,88.0952380952381,
JENA1012,train,neg,30,neg30_id6_im12.bmp_neg30_id6_im19.bmp,['Im_RobertDowneyJr.png', 'Im_RobertPattinson.png', 'Im_JustinTimberlake.png', 'Im_LeonardoDiCaprio.png', 'Im_DanielRadcliffe.png', 'Im_DanielCraig.png', 'Im_GeorgeClooney.png', 'Im_ElijahWood.png', 'Im_RyanGosling.png', 'Im_BradPitt.png'],same,1,0.7751461999996536,25,88.0952380952381,
JENA1012,train,neg,0,neg0_id20_im30.bmp_neg0_id20_im3.bmp,['Im_RobertDowneyJr.png', 'Im_RobertPattinson.png', 'Im_JustinTimberlake.png', 'Im_LeonardoDiCaprio.png', 'Im_DanielRadcliffe.png', 'Im_DanielCraig.png', 'Im_GeorgeClooney.png', 'Im_ElijahWood.png', 'Im_RyanGosling.png', 'Im_BradPitt.png'],same,1,0.4167282999987947,26,88.0952380952381,
JENA1012,train,neg,150,neg150_id20_im3.bmp_neg150_id20_im30.bmp,['Im_RobertDowneyJr.png', 'Im_RobertPattinson.png', 'Im_JustinTimberlake.png', 'Im_LeonardoDiCaprio.png', 'Im_DanielRadcliffe.png', 'Im_DanielCraig.png', 'Im_GeorgeClooney.png', 'Im_ElijahWood.png', 'Im_RyanGosling.png', 'Im_BradPitt.png'],same,1,0.4250235999988945,27,88.0952380952381,
JENA1012,train,neg,90,neg90_id18_im18.bmp_neg90_id18_im19.bmp,['Im_RobertDowneyJr.png', 'Im_RobertPattinson.png', 'Im_JustinTimberlake.png', 'Im_LeonardoDiCaprio.png', 'Im_DanielRadcliffe.png', 'Im_DanielCraig.png', 'Im_GeorgeClooney.png', 'Im_ElijahWood.png', 'Im_RyanGosling.png', 'Im_BradPitt.png'],same,1,0.4250652999999147,28,88.0952380952381,
JENA1012,train,neg,150,neg150_id20_im12.bmp_neg150_id20_im30.bmp,['Im_RobertDowneyJr.png', 'Im_RobertPattinson.png', 'Im_JustinTimberlake.png', 'Im_LeonardoDiCaprio.png', 'Im_DanielRadcliffe.png', 'Im_DanielCraig.png', 'Im_GeorgeClooney.png', 'Im_ElijahWood.png', 'Im_RyanGosling.png', 'Im_BradPitt.png'],same,1,0.40815049999946496,29,88.0952380952381,
JENA1012,train,neg,30,neg30_id20_im30.bmp_neg30_id18_im19.bmp,['Im_RobertDowneyJr.png', 'Im_RobertPattinson.png', 'Im_JustinTimberlake.png', 'Im_LeonardoDiCaprio.png', 'Im_DanielRadcliffe.png', 'Im_DanielCraig.png', 'Im_GeorgeClooney.png', 'Im_ElijahWood.png', 'Im_RyanGosling.png', 'Im_BradPitt.png'],same,0,0.4167311000001064,29,88.0952380952381,
JENA1012,train,neg,60,neg60_id19_im27.bmp_neg60_id13_im15.bmp,['Im_RobertDowneyJr.png', 'Im_RobertPattinson.png', 'Im_JustinTimberlake.png', 'Im_LeonardoDiCaprio.png', 'Im_DanielRadcliffe.png', 'Im_DanielCraig.png', 'Im_GeorgeClooney.png', 'Im_ElijahWood.png', 'Im_RyanGosling.png', 'Im_BradPitt.png'],diff,1,0.42506979999961914,30,88.0952380952381,
JENA1012,train,neg,120,neg120_id3_im6.bmp_neg120_id6_im18.bmp,['Im_RobertDowneyJr.png', 'Im_RobertPattinson.png', 'Im_JustinTimberlake.png', 'Im_LeonardoDiCaprio.png', 'Im_DanielRadcliffe.png', 'Im_DanielCraig.png', 'Im_GeorgeClooney.png', 'Im_ElijahWood.png', 'Im_RyanGosling.png', 'Im_BradPitt.png'],same,0,1.058454799998799,30,88.0952380952381,
JENA1012,train,neg,fs,negfs_id5_im1.bmp_negfs_id5_im20.bmp,['Im_RobertDowneyJr.png', 'Im_RobertPattinson.png', 'Im_JustinTimberlake.png', 'Im_LeonardoDiCaprio.png', 'Im_DanielRadcliffe.png', 'Im_DanielCraig.png', 'Im_GeorgeClooney.png', 'Im_ElijahWood.png', 'Im_RyanGosling.png', 'Im_BradPitt.png'],same,1,1.43356920000042,31,88.0952380952381,
JENA1012,train,neg,90,neg90_id6_im19.bmp_neg90_id6_im12.bmp,['Im_RobertDowneyJr.png', 'Im_RobertPattinson.png', 'Im_JustinTimberlake.png', 'Im_LeonardoDiCaprio.png', 'Im_DanielRadcliffe.png', 'Im_DanielCraig.png', 'Im_GeorgeClooney.png', 'Im_ElijahWood.png', 'Im_RyanGosling.png', 'Im_BradPitt.png'],same,1,0.5087268000006588,32,88.0952380952381,
JENA1012,train,neg,0,neg0_id19_im27.bmp_neg0_id19_im4.bmp,['Im_RobertDowneyJr.png', 'Im_RobertPattinson.png', 'Im_JustinTimberlake.png', 'Im_LeonardoDiCaprio.png', 'Im_DanielRadcliffe.png', 'Im_DanielCraig.png', 'Im_GeorgeClooney.png', 'Im_ElijahWood.png', 'Im_RyanGosling.png', 'Im_BradPitt.png'],same,1,0.691842700000052,33,88.0952380952381,
JENA1012,train,neg,fs,negfs_id20_im3.bmp_negfs_id7_im26.bmp,['Im_RobertDowneyJr.png', 'Im_RobertPattinson.png', 'Im_JustinTimberlake.png', 'Im_LeonardoDiCaprio.png', 'Im_DanielRadcliffe.png', 'Im_DanielCraig.png', 'Im_GeorgeClooney.png', 'Im_ElijahWood.png', 'Im_RyanGosling.png', 'Im_BradPitt.png'],diff,1,1.0998702000015328,34,88.0952380952381,
JENA1012,train,neg,60,neg60_id6_im18.bmp_neg60_id6_im19.bmp,['Im_RobertDowneyJr.png', 'Im_RobertPattinson.png', 'Im_JustinTimberlake.png', 'Im_LeonardoDiCaprio.png', 'Im_DanielRadcliffe.png', 'Im_DanielCraig.png', 'Im_GeorgeClooney.png', 'Im_ElijahWood.png', 'Im_RyanGosling.png', 'Im_BradPitt.png'],same,1,0.4249868000006245,35,88.0952380952381,
JENA1012,train,neg,120,neg120_id20_im30.bmp_neg120_id18_im19.bmp,['Im_RobertDowneyJr.png', 'Im_RobertPattinson.png', 'Im_JustinTimberlake.png', 'Im_LeonardoDiCaprio.png', 'Im_DanielRadcliffe.png', 'Im_DanielCraig.png', 'Im_GeorgeClooney.png', 'Im_ElijahWood.png', 'Im_RyanGosling.png', 'Im_BradPitt.png'],same,0,0.6417394999989483,35,88.0952380952381,
JENA1012,0,pos,30,pos30_id19_im8.bmp_pos30_id5_im20.bmp,['Im_RobertDowneyJr.png', 'Im_RobertPattinson.png', 'Im_JustinTimberlake.png', 'Im_LeonardoDiCaprio.png', 'Im_DanielRadcliffe.png', 'Im_DanielCraig.png', 'Im_GeorgeClooney.png', 'Im_ElijahWood.png', 'Im_RyanGosling.png', 'Im_BradPitt.png'],diff,1,0.7667948999987857,1,0,
JENA1012,0,pos,0,pos0_id5_im10.bmp_pos0_id5_im20.bmp,['Im_RobertDowneyJr.png', 'Im_RobertPattinson.png', 'Im_JustinTimberlake.png', 'Im_LeonardoDiCaprio.png', 'Im_DanielRadcliffe.png', 'Im_DanielCraig.png', 'Im_GeorgeClooney.png', 'Im_ElijahWood.png', 'Im_RyanGosling.png', 'Im_BradPitt.png'],same,1,0.4168417999990197,2,0,
JENA1012,0,pos,150,pos150_id19_im8.bmp_pos150_id19_im27.bmp,['Im_RobertDowneyJr.png', 'Im_RobertPattinson.png', 'Im_JustinTimberlake.png', 'Im_LeonardoDiCaprio.png', 'Im_DanielRadcliffe.png', 'Im_DanielCraig.png', 'Im_GeorgeClooney.png', 'Im_ElijahWood.png', 'Im_RyanGosling.png', 'Im_BradPitt.png'],same,1,0.42506669999966107,3,0,
JENA1012,0,pos,fs,posfs_id18_im19.bmp_posfs_id20_im30.bmp,['Im_RobertDowneyJr.png', 'Im_RobertPattinson.png', 'Im_JustinTimberlake.png', 'Im_LeonardoDiCaprio.png', 'Im_DanielRadcliffe.png', 'Im_DanielCraig.png', 'Im_GeorgeClooney.png', 'Im_ElijahWood.png', 'Im_RyanGosling.png', 'Im_BradPitt.png'],diff,1,0.42508360000101675,4,0,
JENA1012,0,pos,60,pos60_id13_im15.bmp_pos60_id13_im10.bmp,['Im_RobertDowneyJr.png', 'Im_RobertPattinson.png', 'Im_JustinTimberlake.png', 'Im_LeonardoDiCaprio.png', 'Im_DanielRadcliffe.png', 'Im_DanielCraig.png', 'Im_GeorgeClooney.png', 'Im_ElijahWood.png', 'Im_RyanGosling.png', 'Im_BradPitt.png'],same,1,0.4167515999997704,5,0,
JENA1012,0,pos,30,pos30_id13_im10.bmp_pos30_id13_im15.bmp,['Im_RobertDowneyJr.png', 'Im_RobertPattinson.png', 'Im_JustinTimberlake.png', 'Im_LeonardoDiCaprio.png', 'Im_DanielRadcliffe.png', 'Im_DanielCraig.png', 'Im_GeorgeClooney.png', 'Im_ElijahWood.png', 'Im_RyanGosling.png', 'Im_BradPitt.png'],same,1,0.4166918999999325,6,0,
JENA1012,0,pos,120,pos120_id10_im18.bmp_pos120_id3_im8.bmp,['Im_RobertDowneyJr.png', 'Im_RobertPattinson.png', 'Im_JustinTimberlake.png', 'Im_LeonardoDiCaprio.png', 'Im_DanielRadcliffe.png', 'Im_DanielCraig.png', 'Im_GeorgeClooney.png', 'Im_ElijahWood.png', 'Im_RyanGosling.png', 'Im_BradPitt.png'],diff,1,0.41672010000002047,7,0,
JENA1012,0,pos,0,pos0_id4_im20.bmp_pos0_id4_im15.bmp,['Im_RobertDowneyJr.png', 'Im_RobertPattinson.png', 'Im_JustinTimberlake.png', 'Im_LeonardoDiCaprio.png', 'Im_DanielRadcliffe.png', 'Im_DanielCraig.png', 'Im_GeorgeClooney.png', 'Im_ElijahWood.png', 'Im_RyanGosling.png', 'Im_BradPitt.png'],same,1,0.4166741999997612,8,0,
JENA1012,0,pos,60,pos60_id13_im15.bmp_pos60_id19_im27.bmp,['Im_RobertDowneyJr.png', 'Im_RobertPattinson.png', 'Im_JustinTimberlake.png', 'Im_LeonardoDiCaprio.png', 'Im_DanielRadcliffe.png', 'Im_DanielCraig.png', 'Im_GeorgeClooney.png', 'Im_ElijahWood.png', 'Im_RyanGosling.png', 'Im_BradPitt.png'],diff,1,0.42506849999881524,9,0,
JENA1012,0,pos,90,pos90_id6_im19.bmp_pos90_id6_im12.bmp,['Im_RobertDowneyJr.png', 'Im_RobertPattinson.png', 'Im_JustinTimberlake.png', 'Im_LeonardoDiCaprio.png', 'Im_DanielRadcliffe.png', 'Im_DanielCraig.png', 'Im_GeorgeClooney.png', 'Im_ElijahWood.png', 'Im_RyanGosling.png', 'Im_BradPitt.png'],same,1,0.4250848000010592,10,0,
JENA1012,0,pos,fs,posfs_id7_im14.bmp_posfs_id7_im15.bmp,['Im_RobertDowneyJr.png', 'Im_RobertPattinson.png', 'Im_JustinTimberlake.png', 'Im_LeonardoDiCaprio.png', 'Im_DanielRadcliffe.png', 'Im_DanielCraig.png', 'Im_GeorgeClooney.png', 'Im_ElijahWood.png', 'Im_RyanGosling.png', 'Im_BradPitt.png'],diff,0,2.1584671000000526,10,0,
JENA1012,0,pos,120,pos120_id19_im4.bmp_pos120_id10_im17.bmp,['Im_RobertDowneyJr.png', 'Im_RobertPattinson.png', 'Im_JustinTimberlake.png', 'Im_LeonardoDiCaprio.png', 'Im_DanielRadcliffe.png', 'Im_DanielCraig.png', 'Im_GeorgeClooney.png', 'Im_ElijahWood.png', 'Im_RyanGosling.png', 'Im_BradPitt.png'],diff,1,0.4167350000006991,11,0,
JENA1012,0,pos,90,pos90_id6_im12.bmp_pos90_id6_im18.bmp,['Im_RobertDowneyJr.png', 'Im_RobertPattinson.png', 'Im_JustinTimberlake.png', 'Im_LeonardoDiCaprio.png', 'Im_DanielRadcliffe.png', 'Im_DanielCraig.png', 'Im_GeorgeClooney.png', 'Im_ElijahWood.png', 'Im_RyanGosling.png', 'Im_BradPitt.png'],same,1,0.41655549999995856,12,0,
JENA1012,0,pos,150,pos150_id3_im17.bmp_pos150_id18_im11.bmp,['Im_RobertDowneyJr.png', 'Im_RobertPattinson.png', 'Im_JustinTimberlake.png', 'Im_LeonardoDiCaprio.png', 'Im_DanielRadcliffe.png', 'Im_DanielCraig.png', 'Im_GeorgeClooney.png', 'Im_ElijahWood.png', 'Im_RyanGosling.png', 'Im_BradPitt.png'],diff,1,0.41675729999951727,13,0,
JENA1012,1,neg,fs,negfs_id10_im1.bmp_negfs_id10_im18.bmp,['Im_RobertDowneyJr.png', 'Im_RobertPattinson.png', 'Im_JustinTimberlake.png', 'Im_LeonardoDiCaprio.png', 'Im_DanielRadcliffe.png', 'Im_DanielCraig.png', 'Im_GeorgeClooney.png', 'Im_ElijahWood.png', 'Im_RyanGosling.png', 'Im_BradPitt.png'],same,1,0.4168375000008382,14,0,
JENA1012,1,neg,120,neg120_id20_im30.bmp_neg120_id20_im12.bmp,['Im_RobertDowneyJr.png', 'Im_RobertPattinson.png', 'Im_JustinTimberlake.png', 'Im_LeonardoDiCaprio.png', 'Im_DanielRadcliffe.png', 'Im_DanielCraig.png', 'Im_GeorgeClooney.png', 'Im_ElijahWood.png', 'Im_RyanGosling.png', 'Im_BradPitt.png'],same,1,0.4166531999999279,15,0,
JENA1012,1,neg,150,neg150_id10_im1.bmp_neg150_id10_im17.bmp,['Im_RobertDowneyJr.png', 'Im_RobertPattinson.png', 'Im_JustinTimberlake.png', 'Im_LeonardoDiCaprio.png', 'Im_DanielRadcliffe.png', 'Im_DanielCraig.png', 'Im_GeorgeClooney.png', 'Im_ElijahWood.png', 'Im_RyanGosling.png', 'Im_BradPitt.png'],same,1,0.4167443000005733,16,0,
JENA1012,1,neg,120,neg120_id13_im29.bmp_neg120_id4_im15.bmp,['Im_RobertDowneyJr.png', 'Im_RobertPattinson.png', 'Im_JustinTimberlake.png', 'Im_LeonardoDiCaprio.png', 'Im_DanielRadcliffe.png', 'Im_DanielCraig.png', 'Im_GeorgeClooney.png', 'Im_ElijahWood.png', 'Im_RyanGosling.png', 'Im_BradPitt.png'],diff,1,0.4250726999998733,17,0,
JENA1012,1,neg,90,neg90_id10_im18.bmp_neg90_id10_im17.bmp,['Im_RobertDowneyJr.png', 'Im_RobertPattinson.png', 'Im_JustinTimberlake.png', 'Im_LeonardoDiCaprio.png', 'Im_DanielRadcliffe.png', 'Im_DanielCraig.png', 'Im_GeorgeClooney.png', 'Im_ElijahWood.png', 'Im_RyanGosling.png', 'Im_BradPitt.png'],same,1,0.824930900000254,18,0,
JENA1012,1,neg,30,neg30_id5_im1.bmp_neg30_id5_im10.bmp,['Im_RobertDowneyJr.png', 'Im_RobertPattinson.png', 'Im_JustinTimberlake.png', 'Im_LeonardoDiCaprio.png', 'Im_DanielRadcliffe.png', 'Im_DanielCraig.png', 'Im_GeorgeClooney.png', 'Im_ElijahWood.png', 'Im_RyanGosling.png', 'Im_BradPitt.png'],same,1,0.4167889999989711,19,0,
JENA1012,1,neg,fs,negfs_id6_im12.bmp_negfs_id6_im19.bmp,['Im_RobertDowneyJr.png', 'Im_RobertPattinson.png', 'Im_JustinTimberlake.png', 'Im_LeonardoDiCaprio.png', 'Im_DanielRadcliffe.png', 'Im_DanielCraig.png', 'Im_GeorgeClooney.png', 'Im_ElijahWood.png', 'Im_RyanGosling.png', 'Im_BradPitt.png'],diff,0,0.4835090999986278,19,0,
JENA1012,1,neg,90,neg90_id6_im18.bmp_neg90_id6_im19.bmp,['Im_RobertDowneyJr.png', 'Im_RobertPattinson.png', 'Im_JustinTimberlake.png', 'Im_LeonardoDiCaprio.png', 'Im_DanielRadcliffe.png', 'Im_DanielCraig.png', 'Im_GeorgeClooney.png', 'Im_ElijahWood.png', 'Im_RyanGosling.png', 'Im_BradPitt.png'],same,1,0.42520429999967746,20,0,
JENA1012,1,neg,30,neg30_id4_im15.bmp_neg30_id13_im29.bmp,['Im_RobertDowneyJr.png', 'Im_RobertPattinson.png', 'Im_JustinTimberlake.png', 'Im_LeonardoDiCaprio.png', 'Im_DanielRadcliffe.png', 'Im_DanielCraig.png', 'Im_GeorgeClooney.png', 'Im_ElijahWood.png', 'Im_RyanGosling.png', 'Im_BradPitt.png'],diff,1,0.4583954999998241,21,0,
JENA1012,1,neg,150,neg150_id13_im15.bmp_neg150_id19_im27.bmp,['Im_RobertDowneyJr.png', 'Im_RobertPattinson.png', 'Im_JustinTimberlake.png', 'Im_LeonardoDiCaprio.png', 'Im_DanielRadcliffe.png', 'Im_DanielCraig.png', 'Im_GeorgeClooney.png', 'Im_ElijahWood.png', 'Im_RyanGosling.png', 'Im_BradPitt.png'],diff,1,0.46693299999969895,22,0,
JENA1012,1,neg,60,neg60_id5_im20.bmp_neg60_id19_im4.bmp,['Im_RobertDowneyJr.png', 'Im_RobertPattinson.png', 'Im_JustinTimberlake.png', 'Im_LeonardoDiCaprio.png', 'Im_DanielRadcliffe.png', 'Im_DanielCraig.png', 'Im_GeorgeClooney.png', 'Im_ElijahWood.png', 'Im_RyanGosling.png', 'Im_BradPitt.png'],diff,1,0.40838609999991604,23,0,
JENA1012,1,neg,60,neg60_id13_im29.bmp_neg60_id13_im10.bmp,['Im_RobertDowneyJr.png', 'Im_RobertPattinson.png', 'Im_JustinTimberlake.png', 'Im_LeonardoDiCaprio.png', 'Im_DanielRadcliffe.png', 'Im_DanielCraig.png', 'Im_GeorgeClooney.png', 'Im_ElijahWood.png', 'Im_RyanGosling.png', 'Im_BradPitt.png'],same,1,1.900053500001377,24,0,
JENA1012,1,neg,0,neg0_id19_im4.bmp_neg0_id5_im20.bmp,['Im_RobertDowneyJr.png', 'Im_RobertPattinson.png', 'Im_JustinTimberlake.png', 'Im_LeonardoDiCaprio.png', 'Im_DanielRadcliffe.png', 'Im_DanielCraig.png', 'Im_GeorgeClooney.png', 'Im_ElijahWood.png', 'Im_RyanGosling.png', 'Im_BradPitt.png'],diff,1,0.41674369999964256,25,0,
JENA1012,1,neg,0,neg0_id7_im26.bmp_neg0_id7_im15.bmp,['Im_RobertDowneyJr.png', 'Im_RobertPattinson.png', 'Im_JustinTimberlake.png', 'Im_LeonardoDiCaprio.png', 'Im_DanielRadcliffe.png', 'Im_DanielCraig.png', 'Im_GeorgeClooney.png', 'Im_ElijahWood.png', 'Im_RyanGosling.png', 'Im_BradPitt.png'],diff,0,0.5084691000010935,25,0,
JENA1012,2,inv,120,pos120_id4_im7.bmp_pos120_id19_im27.bmp,['Im_RobertDowneyJr.png', 'Im_RobertPattinson.png', 'Im_JustinTimberlake.png', 'Im_LeonardoDiCaprio.png', 'Im_DanielRadcliffe.png', 'Im_DanielCraig.png', 'Im_GeorgeClooney.png', 'Im_ElijahWood.png', 'Im_RyanGosling.png', 'Im_BradPitt.png'],diff,1,0.8502924000003986,26,0,
JENA1012,2,inv,fs,posfs_id7_im26.bmp_posfs_id4_im7.bmp,['Im_RobertDowneyJr.png', 'Im_RobertPattinson.png', 'Im_JustinTimberlake.png', 'Im_LeonardoDiCaprio.png', 'Im_DanielRadcliffe.png', 'Im_DanielCraig.png', 'Im_GeorgeClooney.png', 'Im_ElijahWood.png', 'Im_RyanGosling.png', 'Im_BradPitt.png'],diff,1,0.4251842999983637,27,0,
JENA1012,2,inv,30,pos30_id7_im14.bmp_pos30_id5_im10.bmp,['Im_RobertDowneyJr.png', 'Im_RobertPattinson.png', 'Im_JustinTimberlake.png', 'Im_LeonardoDiCaprio.png', 'Im_DanielRadcliffe.png', 'Im_DanielCraig.png', 'Im_GeorgeClooney.png', 'Im_ElijahWood.png', 'Im_RyanGosling.png', 'Im_BradPitt.png'],diff,1,0.41667620000043826,28,0,
JENA1012,2,inv,0,pos0_id20_im3.bmp_pos0_id7_im26.bmp,['Im_RobertDowneyJr.png', 'Im_RobertPattinson.png', 'Im_JustinTimberlake.png', 'Im_LeonardoDiCaprio.png', 'Im_DanielRadcliffe.png', 'Im_DanielCraig.png', 'Im_GeorgeClooney.png', 'Im_ElijahWood.png', 'Im_RyanGosling.png', 'Im_BradPitt.png'],diff,1,0.45044140000027255,29,0,
JENA1012,2,inv,30,pos30_id6_im18.bmp_pos30_id6_im19.bmp,['Im_RobertDowneyJr.png', 'Im_RobertPattinson.png', 'Im_JustinTimberlake.png', 'Im_LeonardoDiCaprio.png', 'Im_DanielRadcliffe.png', 'Im_DanielCraig.png', 'Im_GeorgeClooney.png', 'Im_ElijahWood.png', 'Im_RyanGosling.png', 'Im_BradPitt.png'],same,1,0.42513750000034634,30,0,
JENA1012,2,inv,150,pos150_id4_im15.bmp_pos150_id13_im29.bmp,['Im_RobertDowneyJr.png', 'Im_RobertPattinson.png', 'Im_JustinTimberlake.png', 'Im_LeonardoDiCaprio.png', 'Im_DanielRadcliffe.png', 'Im_DanielCraig.png', 'Im_GeorgeClooney.png', 'Im_ElijahWood.png', 'Im_RyanGosling.png', 'Im_BradPitt.png'],diff,1,0.4167766999999003,31,0,
JENA1012,2,inv,90,pos90_id7_im15.bmp_pos90_id20_im3.bmp,['Im_RobertDowneyJr.png', 'Im_RobertPattinson.png', 'Im_JustinTimberlake.png', 'Im_LeonardoDiCaprio.png', 'Im_DanielRadcliffe.png', 'Im_DanielCraig.png', 'Im_GeorgeClooney.png', 'Im_ElijahWood.png', 'Im_RyanGosling.png', 'Im_BradPitt.png'],diff,1,1.6000694000013027,32,0,
JENA1012,2,inv,150,pos150_id6_im18.bmp_pos150_id6_im19.bmp,['Im_RobertDowneyJr.png', 'Im_RobertPattinson.png', 'Im_JustinTimberlake.png', 'Im_LeonardoDiCaprio.png', 'Im_DanielRadcliffe.png', 'Im_DanielCraig.png', 'Im_GeorgeClooney.png', 'Im_ElijahWood.png', 'Im_RyanGosling.png', 'Im_BradPitt.png'],same,1,0.41676019999977143,33,0,
JENA1012,2,inv,60,pos60_id19_im27.bmp_pos60_id19_im4.bmp,['Im_RobertDowneyJr.png', 'Im_RobertPattinson.png', 'Im_JustinTimberlake.png', 'Im_LeonardoDiCaprio.png', 'Im_DanielRadcliffe.png', 'Im_DanielCraig.png', 'Im_GeorgeClooney.png', 'Im_ElijahWood.png', 'Im_RyanGosling.png', 'Im_BradPitt.png'],diff,0,0.48358960000041407,33,0,
JENA1012,2,inv,60,pos60_id6_im18.bmp_pos60_id18_im18.bmp,['Im_RobertDowneyJr.png', 'Im_RobertPattinson.png', 'Im_JustinTimberlake.png', 'Im_LeonardoDiCaprio.png', 'Im_DanielRadcliffe.png', 'Im_DanielCraig.png', 'Im_GeorgeClooney.png', 'Im_ElijahWood.png', 'Im_RyanGosling.png', 'Im_BradPitt.png'],diff,1,0.433452600000237,34,0,
JENA1012,2,inv,120,pos120_id19_im8.bmp_pos120_id19_im27.bmp,['Im_RobertDowneyJr.png', 'Im_RobertPattinson.png', 'Im_JustinTimberlake.png', 'Im_LeonardoDiCaprio.png', 'Im_DanielRadcliffe.png', 'Im_DanielCraig.png', 'Im_GeorgeClooney.png', 'Im_ElijahWood.png', 'Im_RyanGosling.png', 'Im_BradPitt.png'],same,1,0.4167443000005733,35,0,
JENA1012,2,inv,90,pos90_id4_im7.bmp_pos90_id19_im27.bmp,['Im_RobertDowneyJr.png', 'Im_RobertPattinson.png', 'Im_JustinTimberlake.png', 'Im_LeonardoDiCaprio.png', 'Im_DanielRadcliffe.png', 'Im_DanielCraig.png', 'Im_GeorgeClooney.png', 'Im_ElijahWood.png', 'Im_RyanGosling.png', 'Im_BradPitt.png'],diff,1,0.44171239999923273,36,0,
JENA1012,2,inv,fs,posfs_id10_im18.bmp_posfs_id10_im1.bmp,['Im_RobertDowneyJr.png', 'Im_RobertPattinson.png', 'Im_JustinTimberlake.png', 'Im_LeonardoDiCaprio.png', 'Im_DanielRadcliffe.png', 'Im_DanielCraig.png', 'Im_GeorgeClooney.png', 'Im_ElijahWood.png', 'Im_RyanGosling.png', 'Im_BradPitt.png'],same,1,0.41654400000152236,37,0,
JENA1012,2,inv,0,pos0_id18_im19.bmp_pos0_id18_im18.bmp,['Im_RobertDowneyJr.png', 'Im_RobertPattinson.png', 'Im_JustinTimberlake.png', 'Im_LeonardoDiCaprio.png', 'Im_DanielRadcliffe.png', 'Im_DanielCraig.png', 'Im_GeorgeClooney.png', 'Im_ElijahWood.png', 'Im_RyanGosling.png', 'Im_BradPitt.png'],same,1,0.5585167000008369,38,0,
JENA1012,3,neg,90,neg90_id18_im19.bmp_neg90_id20_im30.bmp,['Im_RobertDowneyJr.png', 'Im_RobertPattinson.png', 'Im_JustinTimberlake.png', 'Im_LeonardoDiCaprio.png', 'Im_DanielRadcliffe.png', 'Im_DanielCraig.png', 'Im_GeorgeClooney.png', 'Im_ElijahWood.png', 'Im_RyanGosling.png', 'Im_BradPitt.png'],same,0,0.641863500000909,0,90.47619047619048,
JENA1012,3,neg,fs,negfs_id19_im8.bmp_negfs_id19_im27.bmp,['Im_RobertDowneyJr.png', 'Im_RobertPattinson.png', 'Im_JustinTimberlake.png', 'Im_LeonardoDiCaprio.png', 'Im_DanielRadcliffe.png', 'Im_DanielCraig.png', 'Im_GeorgeClooney.png', 'Im_ElijahWood.png', 'Im_RyanGosling.png', 'Im_BradPitt.png'],same,1,0.425090699998691,1,90.47619047619048,
JENA1012,3,neg,120,neg120_id20_im3.bmp_neg120_id7_im26.bmp,['Im_RobertDowneyJr.png', 'Im_RobertPattinson.png', 'Im_JustinTimberlake.png', 'Im_LeonardoDiCaprio.png', 'Im_DanielRadcliffe.png', 'Im_DanielCraig.png', 'Im_GeorgeClooney.png', 'Im_ElijahWood.png', 'Im_RyanGosling.png', 'Im_BradPitt.png'],diff,1,0.8582647000002908,2,90.47619047619048,
JENA1012,3,neg,90,neg90_id5_im20.bmp_neg90_id19_im8.bmp,['Im_RobertDowneyJr.png', 'Im_RobertPattinson.png', 'Im_JustinTimberlake.png', 'Im_LeonardoDiCaprio.png', 'Im_DanielRadcliffe.png', 'Im_DanielCraig.png', 'Im_GeorgeClooney.png', 'Im_ElijahWood.png', 'Im_RyanGosling.png', 'Im_BradPitt.png'],same,0,0.8834024999996473,2,90.47619047619048,
JENA1012,3,neg,60,neg60_id19_im27.bmp_neg60_id19_im8.bmp,['Im_RobertDowneyJr.png', 'Im_RobertPattinson.png', 'Im_JustinTimberlake.png', 'Im_LeonardoDiCaprio.png', 'Im_DanielRadcliffe.png', 'Im_DanielCraig.png', 'Im_GeorgeClooney.png', 'Im_ElijahWood.png', 'Im_RyanGosling.png', 'Im_BradPitt.png'],same,1,0.591705799999545,3,90.47619047619048,
JENA1012,3,neg,150,neg150_id4_im7.bmp_neg150_id19_im27.bmp,['Im_RobertDowneyJr.png', 'Im_RobertPattinson.png', 'Im_JustinTimberlake.png', 'Im_LeonardoDiCaprio.png', 'Im_DanielRadcliffe.png', 'Im_DanielCraig.png', 'Im_GeorgeClooney.png', 'Im_ElijahWood.png', 'Im_RyanGosling.png', 'Im_BradPitt.png'],diff,1,0.48339449999912176,4,90.47619047619048,
JENA1012,3,neg,60,neg60_id4_im20.bmp_neg60_id10_im17.bmp,['Im_RobertDowneyJr.png', 'Im_RobertPattinson.png', 'Im_JustinTimberlake.png', 'Im_LeonardoDiCaprio.png', 'Im_DanielRadcliffe.png', 'Im_DanielCraig.png', 'Im_GeorgeClooney.png', 'Im_ElijahWood.png', 'Im_RyanGosling.png', 'Im_BradPitt.png'],diff,1,0.4334017999990465,5,90.47619047619048,
JENA1012,3,neg,120,neg120_id6_im19.bmp_neg120_id6_im18.bmp,['Im_RobertDowneyJr.png', 'Im_RobertPattinson.png', 'Im_JustinTimberlake.png', 'Im_LeonardoDiCaprio.png', 'Im_DanielRadcliffe.png', 'Im_DanielCraig.png', 'Im_GeorgeClooney.png', 'Im_ElijahWood.png', 'Im_RyanGosling.png', 'Im_BradPitt.png'],same,1,0.4336302000010619,6,90.47619047619048,
JENA1012,3,neg,0,neg0_id3_im6.bmp_neg0_id6_im18.bmp,['Im_RobertDowneyJr.png', 'Im_RobertPattinson.png', 'Im_JustinTimberlake.png', 'Im_LeonardoDiCaprio.png', 'Im_DanielRadcliffe.png', 'Im_DanielCraig.png', 'Im_GeorgeClooney.png', 'Im_ElijahWood.png', 'Im_RyanGosling.png', 'Im_BradPitt.png'],diff,1,0.5834231999997428,7,90.47619047619048,
JENA1012,3,neg,150,neg150_id13_im10.bmp_neg150_id18_im18.bmp,['Im_RobertDowneyJr.png', 'Im_RobertPattinson.png', 'Im_JustinTimberlake.png', 'Im_LeonardoDiCaprio.png', 'Im_DanielRadcliffe.png', 'Im_DanielCraig.png', 'Im_GeorgeClooney.png', 'Im_ElijahWood.png', 'Im_RyanGosling.png', 'Im_BradPitt.png'],diff,1,1.3338624999996682,8,90.47619047619048,
JENA1012,3,neg,30,neg30_id3_im17.bmp_neg30_id3_im8.bmp,['Im_RobertDowneyJr.png', 'Im_RobertPattinson.png', 'Im_JustinTimberlake.png', 'Im_LeonardoDiCaprio.png', 'Im_DanielRadcliffe.png', 'Im_DanielCraig.png', 'Im_GeorgeClooney.png', 'Im_ElijahWood.png', 'Im_RyanGosling.png', 'Im_BradPitt.png'],same,1,0.42524199999934353,9,90.47619047619048,
JENA1012,3,neg,0,neg0_id5_im10.bmp_neg0_id5_im1.bmp,['Im_RobertDowneyJr.png', 'Im_RobertPattinson.png', 'Im_JustinTimberlake.png', 'Im_LeonardoDiCaprio.png', 'Im_DanielRadcliffe.png', 'Im_DanielCraig.png', 'Im_GeorgeClooney.png', 'Im_ElijahWood.png', 'Im_RyanGosling.png', 'Im_BradPitt.png'],same,1,0.4250871999993251,10,90.47619047619048,
JENA1012,3,neg,30,neg30_id4_im20.bmp_neg30_id4_im15.bmp,['Im_RobertDowneyJr.png', 'Im_RobertPattinson.png', 'Im_JustinTimberlake.png', 'Im_LeonardoDiCaprio.png', 'Im_DanielRadcliffe.png', 'Im_DanielCraig.png', 'Im_GeorgeClooney.png', 'Im_ElijahWood.png', 'Im_RyanGosling.png', 'Im_BradPitt.png'],same,1,0.4583887999997387,11,90.47619047619048,
JENA1012,3,neg,fs,negfs_id5_im1.bmp_negfs_id6_im12.bmp,['Im_RobertDowneyJr.png', 'Im_RobertPattinson.png', 'Im_JustinTimberlake.png', 'Im_LeonardoDiCaprio.png', 'Im_DanielRadcliffe.png', 'Im_DanielCraig.png', 'Im_GeorgeClooney.png', 'Im_ElijahWood.png', 'Im_RyanGosling.png', 'Im_BradPitt.png'],same,0,0.6419810999996116,11,90.47619047619048,
JENA1012,4,inv,fs,posfs_id13_im29.bmp_posfs_id10_im18.bmp,['Im_RobertDowneyJr.png', 'Im_RobertPattinson.png', 'Im_JustinTimberlake.png', 'Im_LeonardoDiCaprio.png', 'Im_DanielRadcliffe.png', 'Im_DanielCraig.png', 'Im_GeorgeClooney.png', 'Im_ElijahWood.png', 'Im_RyanGosling.png', 'Im_BradPitt.png'],diff,1,0.4167403999999806,12,90.47619047619048,
JENA1012,4,inv,30,pos30_id19_im27.bmp_pos30_id13_im15.bmp,['Im_RobertDowneyJr.png', 'Im_RobertPattinson.png', 'Im_JustinTimberlake.png', 'Im_LeonardoDiCaprio.png', 'Im_DanielRadcliffe.png', 'Im_DanielCraig.png', 'Im_GeorgeClooney.png', 'Im_ElijahWood.png', 'Im_RyanGosling.png', 'Im_BradPitt.png'],diff,1,0.9083516999999119,13,90.47619047619048,
JENA1012,4,inv,120,pos120_id4_im15.bmp_pos120_id4_im7.bmp,['Im_RobertDowneyJr.png', 'Im_RobertPattinson.png', 'Im_JustinTimberlake.png', 'Im_LeonardoDiCaprio.png', 'Im_DanielRadcliffe.png', 'Im_DanielCraig.png', 'Im_GeorgeClooney.png', 'Im_ElijahWood.png', 'Im_RyanGosling.png', 'Im_BradPitt.png'],same,1,0.42526039999938803,14,90.47619047619048,
JENA1012,4,inv,150,pos150_id7_im15.bmp_pos150_id3_im17.bmp,['Im_RobertDowneyJr.png', 'Im_RobertPattinson.png', 'Im_JustinTimberlake.png', 'Im_LeonardoDiCaprio.png', 'Im_DanielRadcliffe.png', 'Im_DanielCraig.png', 'Im_GeorgeClooney.png', 'Im_ElijahWood.png', 'Im_RyanGosling.png', 'Im_BradPitt.png'],diff,1,0.7167462999987038,15,90.47619047619048,
JENA1012,4,inv,90,pos90_id7_im14.bmp_pos90_id5_im10.bmp,['Im_RobertDowneyJr.png', 'Im_RobertPattinson.png', 'Im_JustinTimberlake.png', 'Im_LeonardoDiCaprio.png', 'Im_DanielRadcliffe.png', 'Im_DanielCraig.png', 'Im_GeorgeClooney.png', 'Im_ElijahWood.png', 'Im_RyanGosling.png', 'Im_BradPitt.png'],diff,1,0.43354250000083994,16,90.47619047619048,
JENA1012,4,inv,30,pos30_id20_im30.bmp_pos30_id20_im12.bmp,['Im_RobertDowneyJr.png', 'Im_RobertPattinson.png', 'Im_JustinTimberlake.png', 'Im_LeonardoDiCaprio.png', 'Im_DanielRadcliffe.png', 'Im_DanielCraig.png', 'Im_GeorgeClooney.png', 'Im_ElijahWood.png', 'Im_RyanGosling.png', 'Im_BradPitt.png'],same,1,0.45841699999982666,17,90.47619047619048,
JENA1012,4,inv,60,pos60_id6_im19.bmp_pos60_id18_im11.bmp,['Im_RobertDowneyJr.png', 'Im_RobertPattinson.png', 'Im_JustinTimberlake.png', 'Im_LeonardoDiCaprio.png', 'Im_DanielRadcliffe.png', 'Im_DanielCraig.png', 'Im_GeorgeClooney.png', 'Im_ElijahWood.png', 'Im_RyanGosling.png', 'Im_BradPitt.png'],diff,1,0.7497811000012007,18,90.47619047619048,
JENA1012,4,inv,60,pos60_id10_im18.bmp_pos60_id10_im1.bmp,['Im_RobertDowneyJr.png', 'Im_RobertPattinson.png', 'Im_JustinTimberlake.png', 'Im_LeonardoDiCaprio.png', 'Im_DanielRadcliffe.png', 'Im_DanielCraig.png', 'Im_GeorgeClooney.png', 'Im_ElijahWood.png', 'Im_RyanGosling.png', 'Im_BradPitt.png'],same,1,0.45847130000038305,19,90.47619047619048,
JENA1012,4,inv,150,pos150_id13_im15.bmp_pos150_id13_im29.bmp,['Im_RobertDowneyJr.png', 'Im_RobertPattinson.png', 'Im_JustinTimberlake.png', 'Im_LeonardoDiCaprio.png', 'Im_DanielRadcliffe.png', 'Im_DanielCraig.png', 'Im_GeorgeClooney.png', 'Im_ElijahWood.png', 'Im_RyanGosling.png', 'Im_BradPitt.png'],diff,0,0.41677420000087295,19,90.47619047619048,
JENA1012,4,inv,0,pos0_id7_im14.bmp_pos0_id5_im10.bmp,['Im_RobertDowneyJr.png', 'Im_RobertPattinson.png', 'Im_JustinTimberlake.png', 'Im_LeonardoDiCaprio.png', 'Im_DanielRadcliffe.png', 'Im_DanielCraig.png', 'Im_GeorgeClooney.png', 'Im_ElijahWood.png', 'Im_RyanGosling.png', 'Im_BradPitt.png'],diff,1,0.41672770000150194,20,90.47619047619048,
JENA1012,4,inv,120,pos120_id3_im17.bmp_pos120_id3_im8.bmp,['Im_RobertDowneyJr.png', 'Im_RobertPattinson.png', 'Im_JustinTimberlake.png', 'Im_LeonardoDiCaprio.png', 'Im_DanielRadcliffe.png', 'Im_DanielCraig.png', 'Im_GeorgeClooney.png', 'Im_ElijahWood.png', 'Im_RyanGosling.png', 'Im_BradPitt.png'],same,1,0.42508879999877536,21,90.47619047619048,
JENA1012,4,inv,0,pos0_id20_im12.bmp_pos0_id20_im30.bmp,['Im_RobertDowneyJr.png', 'Im_RobertPattinson.png', 'Im_JustinTimberlake.png', 'Im_LeonardoDiCaprio.png', 'Im_DanielRadcliffe.png', 'Im_DanielCraig.png', 'Im_GeorgeClooney.png', 'Im_ElijahWood.png', 'Im_RyanGosling.png', 'Im_BradPitt.png'],same,1,0.40829630000007455,22,90.47619047619048,
JENA1012,4,inv,fs,posfs_id7_im15.bmp_posfs_id20_im3.bmp,['Im_RobertDowneyJr.png', 'Im_RobertPattinson.png', 'Im_JustinTimberlake.png', 'Im_LeonardoDiCaprio.png', 'Im_DanielRadcliffe.png', 'Im_DanielCraig.png', 'Im_GeorgeClooney.png', 'Im_ElijahWood.png', 'Im_RyanGosling.png', 'Im_BradPitt.png'],diff,1,0.5499460999999428,23,90.47619047619048,
JENA1012,4,inv,90,pos90_id3_im6.bmp_pos90_id3_im17.bmp,['Im_RobertDowneyJr.png', 'Im_RobertPattinson.png', 'Im_JustinTimberlake.png', 'Im_LeonardoDiCaprio.png', 'Im_DanielRadcliffe.png', 'Im_DanielCraig.png', 'Im_GeorgeClooney.png', 'Im_ElijahWood.png', 'Im_RyanGosling.png', 'Im_BradPitt.png'],same,1,0.40853430000061053,24,90.47619047619048,
JENA1012,5,pos,30,pos30_id19_im4.bmp_pos30_id5_im20.bmp,['Im_RobertDowneyJr.png', 'Im_RobertPattinson.png', 'Im_JustinTimberlake.png', 'Im_LeonardoDiCaprio.png', 'Im_DanielRadcliffe.png', 'Im_DanielCraig.png', 'Im_GeorgeClooney.png', 'Im_ElijahWood.png', 'Im_RyanGosling.png', 'Im_BradPitt.png'],same,0,0.41670349999913014,24,90.47619047619048,
JENA1012,5,pos,fs,posfs_id10_im1.bmp_posfs_id6_im12.bmp,['Im_RobertDowneyJr.png', 'Im_RobertPattinson.png', 'Im_JustinTimberlake.png', 'Im_LeonardoDiCaprio.png', 'Im_DanielRadcliffe.png', 'Im_DanielCraig.png', 'Im_GeorgeClooney.png', 'Im_ElijahWood.png', 'Im_RyanGosling.png', 'Im_BradPitt.png'],diff,1,0.43343280000044615,25,90.47619047619048,
JENA1012,5,pos,150,pos150_id18_im19.bmp_pos150_id18_im18.bmp,['Im_RobertDowneyJr.png', 'Im_RobertPattinson.png', 'Im_JustinTimberlake.png', 'Im_LeonardoDiCaprio.png', 'Im_DanielRadcliffe.png', 'Im_DanielCraig.png', 'Im_GeorgeClooney.png', 'Im_ElijahWood.png', 'Im_RyanGosling.png', 'Im_BradPitt.png'],same,1,0.42513599999983853,26,90.47619047619048,
JENA1012,5,pos,120,pos120_id10_im17.bmp_pos120_id4_im20.bmp,['Im_RobertDowneyJr.png', 'Im_RobertPattinson.png', 'Im_JustinTimberlake.png', 'Im_LeonardoDiCaprio.png', 'Im_DanielRadcliffe.png', 'Im_DanielCraig.png', 'Im_GeorgeClooney.png', 'Im_ElijahWood.png', 'Im_RyanGosling.png', 'Im_BradPitt.png'],diff,1,0.40849549999984447,27,90.47619047619048,
JENA1012,5,pos,120,pos120_id4_im15.bmp_pos120_id4_im7.bmp,['Im_RobertDowneyJr.png', 'Im_RobertPattinson.png', 'Im_JustinTimberlake.png', 'Im_LeonardoDiCaprio.png', 'Im_DanielRadcliffe.png', 'Im_DanielCraig.png', 'Im_GeorgeClooney.png', 'Im_ElijahWood.png', 'Im_RyanGosling.png', 'Im_BradPitt.png'],same,1,0.4167699999998149,28,90.47619047619048,
JENA1012,5,pos,30,pos30_id10_im18.bmp_pos30_id13_im29.bmp,['Im_RobertDowneyJr.png', 'Im_RobertPattinson.png', 'Im_JustinTimberlake.png', 'Im_LeonardoDiCaprio.png', 'Im_DanielRadcliffe.png', 'Im_DanielCraig.png', 'Im_GeorgeClooney.png', 'Im_ElijahWood.png', 'Im_RyanGosling.png', 'Im_BradPitt.png'],diff,1,0.9167852999999013,29,90.47619047619048,
JENA1012,5,pos,90,pos90_id10_im1.bmp_pos90_id6_im12.bmp,['Im_RobertDowneyJr.png', 'Im_RobertPattinson.png', 'Im_JustinTimberlake.png', 'Im_LeonardoDiCaprio.png', 'Im_DanielRadcliffe.png', 'Im_DanielCraig.png', 'Im_GeorgeClooney.png', 'Im_ElijahWood.png', 'Im_RyanGosling.png', 'Im_BradPitt.png'],diff,1,0.4750114999988,30,90.47619047619048,
JENA1012,5,pos,90,pos90_id5_im1.bmp_pos90_id6_im12.bmp,['Im_RobertDowneyJr.png', 'Im_RobertPattinson.png', 'Im_JustinTimberlake.png', 'Im_LeonardoDiCaprio.png', 'Im_DanielRadcliffe.png', 'Im_DanielCraig.png', 'Im_GeorgeClooney.png', 'Im_ElijahWood.png', 'Im_RyanGosling.png', 'Im_BradPitt.png'],same,0,0.4167176999999356,30,90.47619047619048,
JENA1012,5,pos,60,pos60_id19_im8.bmp_pos60_id5_im20.bmp,['Im_RobertDowneyJr.png', 'Im_RobertPattinson.png', 'Im_JustinTimberlake.png', 'Im_LeonardoDiCaprio.png', 'Im_DanielRadcliffe.png', 'Im_DanielCraig.png', 'Im_GeorgeClooney.png', 'Im_ElijahWood.png', 'Im_RyanGosling.png', 'Im_BradPitt.png'],diff,1,0.40827730000091833,31,90.47619047619048,
JENA1012,5,pos,0,pos0_id6_im12.bmp_pos0_id10_im1.bmp,['Im_RobertDowneyJr.png', 'Im_RobertPattinson.png', 'Im_JustinTimberlake.png', 'Im_LeonardoDiCaprio.png', 'Im_DanielRadcliffe.png', 'Im_DanielCraig.png', 'Im_GeorgeClooney.png', 'Im_ElijahWood.png', 'Im_RyanGosling.png', 'Im_BradPitt.png'],diff,1,0.416734099999303,32,90.47619047619048,
JENA1012,5,pos,60,pos60_id4_im15.bmp_pos60_id13_im29.bmp,['Im_RobertDowneyJr.png', 'Im_RobertPattinson.png', 'Im_JustinTimberlake.png', 'Im_LeonardoDiCaprio.png', 'Im_DanielRadcliffe.png', 'Im_DanielCraig.png', 'Im_GeorgeClooney.png', 'Im_ElijahWood.png', 'Im_RyanGosling.png', 'Im_BradPitt.png'],same,0,0.7169048999985534,32,90.47619047619048,
JENA1012,5,pos,fs,posfs_id19_im8.bmp_posfs_id4_im20.bmp,['Im_RobertDowneyJr.png', 'Im_RobertPattinson.png', 'Im_JustinTimberlake.png', 'Im_LeonardoDiCaprio.png', 'Im_DanielRadcliffe.png', 'Im_DanielCraig.png', 'Im_GeorgeClooney.png', 'Im_ElijahWood.png', 'Im_RyanGosling.png', 'Im_BradPitt.png'],diff,1,0.41673529999934544,33,90.47619047619048,
JENA1012,5,pos,150,pos150_id19_im27.bmp_pos150_id4_im7.bmp,['Im_RobertDowneyJr.png', 'Im_RobertPattinson.png', 'Im_JustinTimberlake.png', 'Im_LeonardoDiCaprio.png', 'Im_DanielRadcliffe.png', 'Im_DanielCraig.png', 'Im_GeorgeClooney.png', 'Im_ElijahWood.png', 'Im_RyanGosling.png', 'Im_BradPitt.png'],diff,1,0.6083732999995846,34,90.47619047619048,
JENA1012,5,pos,0,pos0_id13_im15.bmp_pos0_id20_im12.bmp,['Im_RobertDowneyJr.png', 'Im_RobertPattinson.png', 'Im_JustinTimberlake.png', 'Im_LeonardoDiCaprio.png', 'Im_DanielRadcliffe.png', 'Im_DanielCraig.png', 'Im_GeorgeClooney.png', 'Im_ElijahWood.png', 'Im_RyanGosling.png', 'Im_BradPitt.png'],diff,1,0.5257169000014983,35,90.47619047619048,
JENA1012,6,inv,60,pos60_id4_im15.bmp_pos60_id10_im1.bmp,['Im_RobertDowneyJr.png', 'Im_RobertPattinson.png', 'Im_JustinTimberlake.png', 'Im_LeonardoDiCaprio.png', 'Im_DanielRadcliffe.png', 'Im_DanielCraig.png', 'Im_GeorgeClooney.png', 'Im_ElijahWood.png', 'Im_RyanGosling.png', 'Im_BradPitt.png'],diff,1,0.6168484999998327,1,83.33333333333333,
JENA1012,6,inv,90,pos90_id6_im18.bmp_pos90_id6_im19.bmp,['Im_RobertDowneyJr.png', 'Im_RobertPattinson.png', 'Im_JustinTimberlake.png', 'Im_LeonardoDiCaprio.png', 'Im_DanielRadcliffe.png', 'Im_DanielCraig.png', 'Im_GeorgeClooney.png', 'Im_ElijahWood.png', 'Im_RyanGosling.png', 'Im_BradPitt.png'],same,1,0.41672060000018973,2,83.33333333333333,
JENA1012,6,inv,0,pos0_id13_im10.bmp_pos0_id13_im29.bmp,['Im_RobertDowneyJr.png', 'Im_RobertPattinson.png', 'Im_JustinTimberlake.png', 'Im_LeonardoDiCaprio.png', 'Im_DanielRadcliffe.png', 'Im_DanielCraig.png', 'Im_GeorgeClooney.png', 'Im_ElijahWood.png', 'Im_RyanGosling.png', 'Im_BradPitt.png'],diff,0,0.6587026000015612,2,83.33333333333333,
JENA1012,6,inv,150,pos150_id6_im19.bmp_pos150_id6_im12.bmp,['Im_RobertDowneyJr.png', 'Im_RobertPattinson.png', 'Im_JustinTimberlake.png', 'Im_LeonardoDiCaprio.png', 'Im_DanielRadcliffe.png', 'Im_DanielCraig.png', 'Im_GeorgeClooney.png', 'Im_ElijahWood.png', 'Im_RyanGosling.png', 'Im_BradPitt.png'],same,1,0.4668000999990909,3,83.33333333333333,
JENA1012,6,inv,fs,posfs_id19_im27.bmp_posfs_id19_im8.bmp,['Im_RobertDowneyJr.png', 'Im_RobertPattinson.png', 'Im_JustinTimberlake.png', 'Im_LeonardoDiCaprio.png', 'Im_DanielRadcliffe.png', 'Im_DanielCraig.png', 'Im_GeorgeClooney.png', 'Im_ElijahWood.png', 'Im_RyanGosling.png', 'Im_BradPitt.png'],same,1,0.4250102000005427,4,83.33333333333333,
JENA1012,6,inv,90,pos90_id20_im30.bmp_pos90_id18_im19.bmp,['Im_RobertDowneyJr.png', 'Im_RobertPattinson.png', 'Im_JustinTimberlake.png', 'Im_LeonardoDiCaprio.png', 'Im_DanielRadcliffe.png', 'Im_DanielCraig.png', 'Im_GeorgeClooney.png', 'Im_ElijahWood.png', 'Im_RyanGosling.png', 'Im_BradPitt.png'],diff,1,0.41678549999960524,5,83.33333333333333,
JENA1012,6,inv,30,pos30_id13_im29.bmp_pos30_id4_im15.bmp,['Im_RobertDowneyJr.png', 'Im_RobertPattinson.png', 'Im_JustinTimberlake.png', 'Im_LeonardoDiCaprio.png', 'Im_DanielRadcliffe.png', 'Im_DanielCraig.png', 'Im_GeorgeClooney.png', 'Im_ElijahWood.png', 'Im_RyanGosling.png', 'Im_BradPitt.png'],diff,1,0.40843689999928756,6,83.33333333333333,
JENA1012,6,inv,30,pos30_id18_im18.bmp_pos30_id6_im18.bmp,['Im_RobertDowneyJr.png', 'Im_RobertPattinson.png', 'Im_JustinTimberlake.png', 'Im_LeonardoDiCaprio.png', 'Im_DanielRadcliffe.png', 'Im_DanielCraig.png', 'Im_GeorgeClooney.png', 'Im_ElijahWood.png', 'Im_RyanGosling.png', 'Im_BradPitt.png'],diff,1,0.6253577000006771,7,83.33333333333333,
JENA1012,6,inv,150,pos150_id13_im29.bmp_pos150_id10_im18.bmp,['Im_RobertDowneyJr.png', 'Im_RobertPattinson.png', 'Im_JustinTimberlake.png', 'Im_LeonardoDiCaprio.png', 'Im_DanielRadcliffe.png', 'Im_DanielCraig.png', 'Im_GeorgeClooney.png', 'Im_ElijahWood.png', 'Im_RyanGosling.png', 'Im_BradPitt.png'],diff,1,0.408417599999666,8,83.33333333333333,
JENA1012,6,inv,120,pos120_id18_im18.bmp_pos120_id18_im11.bmp,['Im_RobertDowneyJr.png', 'Im_RobertPattinson.png', 'Im_JustinTimberlake.png', 'Im_LeonardoDiCaprio.png', 'Im_DanielRadcliffe.png', 'Im_DanielCraig.png', 'Im_GeorgeClooney.png', 'Im_ElijahWood.png', 'Im_RyanGosling.png', 'Im_BradPitt.png'],same,1,0.7418572000005952,9,83.33333333333333,
JENA1012,6,inv,fs,posfs_id4_im7.bmp_posfs_id19_im27.bmp,['Im_RobertDowneyJr.png', 'Im_RobertPattinson.png', 'Im_JustinTimberlake.png', 'Im_LeonardoDiCaprio.png', 'Im_DanielRadcliffe.png', 'Im_DanielCraig.png', 'Im_GeorgeClooney.png', 'Im_ElijahWood.png', 'Im_RyanGosling.png', 'Im_BradPitt.png'],diff,1,0.4834142999989126,10,83.33333333333333,
JENA1012,6,inv,0,pos0_id18_im11.bmp_pos0_id6_im19.bmp,['Im_RobertDowneyJr.png', 'Im_RobertPattinson.png', 'Im_JustinTimberlake.png', 'Im_LeonardoDiCaprio.png', 'Im_DanielRadcliffe.png', 'Im_DanielCraig.png', 'Im_GeorgeClooney.png', 'Im_ElijahWood.png', 'Im_RyanGosling.png', 'Im_BradPitt.png'],diff,1,0.6003718000010849,11,83.33333333333333,
JENA1012,6,inv,120,pos120_id18_im19.bmp_pos120_id20_im30.bmp,['Im_RobertDowneyJr.png', 'Im_RobertPattinson.png', 'Im_JustinTimberlake.png', 'Im_LeonardoDiCaprio.png', 'Im_DanielRadcliffe.png', 'Im_DanielCraig.png', 'Im_GeorgeClooney.png', 'Im_ElijahWood.png', 'Im_RyanGosling.png', 'Im_BradPitt.png'],diff,1,0.433594299998731,12,83.33333333333333,
JENA1012,6,inv,60,pos60_id3_im17.bmp_pos60_id7_im15.bmp,['Im_RobertDowneyJr.png', 'Im_RobertPattinson.png', 'Im_JustinTimberlake.png', 'Im_LeonardoDiCaprio.png', 'Im_DanielRadcliffe.png', 'Im_DanielCraig.png', 'Im_GeorgeClooney.png', 'Im_ElijahWood.png', 'Im_RyanGosling.png', 'Im_BradPitt.png'],diff,1,0.4586667000003217,13,83.33333333333333,
JENA1012,7,pos,90,pos90_id10_im17.bmp_pos90_id10_im1.bmp,['Im_RobertDowneyJr.png', 'Im_RobertPattinson.png', 'Im_JustinTimberlake.png', 'Im_LeonardoDiCaprio.png', 'Im_DanielRadcliffe.png', 'Im_DanielCraig.png', 'Im_GeorgeClooney.png', 'Im_ElijahWood.png', 'Im_RyanGosling.png', 'Im_BradPitt.png'],same,1,0.42511910000030184,14,83.33333333333333,
JENA1012,7,pos,fs,posfs_id20_im3.bmp_posfs_id20_im12.bmp,['Im_RobertDowneyJr.png', 'Im_RobertPattinson.png', 'Im_JustinTimberlake.png', 'Im_LeonardoDiCaprio.png', 'Im_DanielRadcliffe.png', 'Im_DanielCraig.png', 'Im_GeorgeClooney.png', 'Im_ElijahWood.png', 'Im_RyanGosling.png', 'Im_BradPitt.png'],same,1,0.40850920000048063,15,83.33333333333333,
JENA1012,7,pos,0,pos0_id20_im30.bmp_pos0_id20_im12.bmp,['Im_RobertDowneyJr.png', 'Im_RobertPattinson.png', 'Im_JustinTimberlake.png', 'Im_LeonardoDiCaprio.png', 'Im_DanielRadcliffe.png', 'Im_DanielCraig.png', 'Im_GeorgeClooney.png', 'Im_ElijahWood.png', 'Im_RyanGosling.png', 'Im_BradPitt.png'],diff,0,0.7752164000012272,15,83.33333333333333,
JENA1012,7,pos,60,pos60_id18_im11.bmp_pos60_id6_im19.bmp,['Im_RobertDowneyJr.png', 'Im_RobertPattinson.png', 'Im_JustinTimberlake.png', 'Im_LeonardoDiCaprio.png', 'Im_DanielRadcliffe.png', 'Im_DanielCraig.png', 'Im_GeorgeClooney.png', 'Im_ElijahWood.png', 'Im_RyanGosling.png', 'Im_BradPitt.png'],diff,1,0.41659470000013243,16,83.33333333333333,
JENA1012,7,pos,0,pos0_id13_im15.bmp_pos0_id13_im29.bmp,['Im_RobertDowneyJr.png', 'Im_RobertPattinson.png', 'Im_JustinTimberlake.png', 'Im_LeonardoDiCaprio.png', 'Im_DanielRadcliffe.png', 'Im_DanielCraig.png', 'Im_GeorgeClooney.png', 'Im_ElijahWood.png', 'Im_RyanGosling.png', 'Im_BradPitt.png'],same,1,0.6084800000007817,17,83.33333333333333,
JENA1012,7,pos,150,pos150_id20_im30.bmp_pos150_id13_im10.bmp,['Im_RobertDowneyJr.png', 'Im_RobertPattinson.png', 'Im_JustinTimberlake.png', 'Im_LeonardoDiCaprio.png', 'Im_DanielRadcliffe.png', 'Im_DanielCraig.png', 'Im_GeorgeClooney.png', 'Im_ElijahWood.png', 'Im_RyanGosling.png', 'Im_BradPitt.png'],diff,1,0.41695590000017546,18,83.33333333333333,
JENA1012,7,pos,90,pos90_id7_im26.bmp_pos90_id20_im3.bmp,['Im_RobertDowneyJr.png', 'Im_RobertPattinson.png', 'Im_JustinTimberlake.png', 'Im_LeonardoDiCaprio.png', 'Im_DanielRadcliffe.png', 'Im_DanielCraig.png', 'Im_GeorgeClooney.png', 'Im_ElijahWood.png', 'Im_RyanGosling.png', 'Im_BradPitt.png'],diff,1,0.40823160000036296,19,83.33333333333333,
JENA1012,7,pos,fs,posfs_id18_im19.bmp_posfs_id18_im18.bmp,['Im_RobertDowneyJr.png', 'Im_RobertPattinson.png', 'Im_JustinTimberlake.png', 'Im_LeonardoDiCaprio.png', 'Im_DanielRadcliffe.png', 'Im_DanielCraig.png', 'Im_GeorgeClooney.png', 'Im_ElijahWood.png', 'Im_RyanGosling.png', 'Im_BradPitt.png'],same,1,0.41672250000010536,20,83.33333333333333,
JENA1012,7,pos,120,pos120_id5_im10.bmp_pos120_id3_im8.bmp,['Im_RobertDowneyJr.png', 'Im_RobertPattinson.png', 'Im_JustinTimberlake.png', 'Im_LeonardoDiCaprio.png', 'Im_DanielRadcliffe.png', 'Im_DanielCraig.png', 'Im_GeorgeClooney.png', 'Im_ElijahWood.png', 'Im_RyanGosling.png', 'Im_BradPitt.png'],diff,1,0.42520909999984724,21,83.33333333333333,
JENA1012,7,pos,30,pos30_id7_im14.bmp_pos30_id5_im10.bmp,['Im_RobertDowneyJr.png', 'Im_RobertPattinson.png', 'Im_JustinTimberlake.png', 'Im_LeonardoDiCaprio.png', 'Im_DanielRadcliffe.png', 'Im_DanielCraig.png', 'Im_GeorgeClooney.png', 'Im_ElijahWood.png', 'Im_RyanGosling.png', 'Im_BradPitt.png'],diff,1,0.4164965999989363,22,83.33333333333333,
JENA1012,7,pos,120,pos120_id19_im27.bmp_pos120_id19_im8.bmp,['Im_RobertDowneyJr.png', 'Im_RobertPattinson.png', 'Im_JustinTimberlake.png', 'Im_LeonardoDiCaprio.png', 'Im_DanielRadcliffe.png', 'Im_DanielCraig.png', 'Im_GeorgeClooney.png', 'Im_ElijahWood.png', 'Im_RyanGosling.png', 'Im_BradPitt.png'],same,1,0.4583866999983002,23,83.33333333333333,
JENA1012,7,pos,150,pos150_id6_im18.bmp_pos150_id3_im6.bmp,['Im_RobertDowneyJr.png', 'Im_RobertPattinson.png', 'Im_JustinTimberlake.png', 'Im_LeonardoDiCaprio.png', 'Im_DanielRadcliffe.png', 'Im_DanielCraig.png', 'Im_GeorgeClooney.png', 'Im_ElijahWood.png', 'Im_RyanGosling.png', 'Im_BradPitt.png'],diff,1,0.42504879999978584,24,83.33333333333333,
JENA1012,7,pos,30,pos30_id19_im27.bmp_pos30_id19_im8.bmp,['Im_RobertDowneyJr.png', 'Im_RobertPattinson.png', 'Im_JustinTimberlake.png', 'Im_LeonardoDiCaprio.png', 'Im_DanielRadcliffe.png', 'Im_DanielCraig.png', 'Im_GeorgeClooney.png', 'Im_ElijahWood.png', 'Im_RyanGosling.png', 'Im_BradPitt.png'],same,1,0.42502629999944475,25,83.33333333333333,
JENA1012,7,pos,60,pos60_id13_im15.bmp_pos60_id20_im12.bmp,['Im_RobertDowneyJr.png', 'Im_RobertPattinson.png', 'Im_JustinTimberlake.png', 'Im_LeonardoDiCaprio.png', 'Im_DanielRadcliffe.png', 'Im_DanielCraig.png', 'Im_GeorgeClooney.png', 'Im_ElijahWood.png', 'Im_RyanGosling.png', 'Im_BradPitt.png'],diff,1,0.41673679999985325,26,83.33333333333333,
JENA1012,8,neg,120,neg120_id19_im8.bmp_neg120_id19_im4.bmp,['Im_RobertDowneyJr.png', 'Im_RobertPattinson.png', 'Im_JustinTimberlake.png', 'Im_LeonardoDiCaprio.png', 'Im_DanielRadcliffe.png', 'Im_DanielCraig.png', 'Im_GeorgeClooney.png', 'Im_ElijahWood.png', 'Im_RyanGosling.png', 'Im_BradPitt.png'],diff,0,0.4919642000004387,26,83.33333333333333,
JENA1012,8,neg,30,neg30_id18_im11.bmp_neg30_id6_im19.bmp,['Im_RobertDowneyJr.png', 'Im_RobertPattinson.png', 'Im_JustinTimberlake.png', 'Im_LeonardoDiCaprio.png', 'Im_DanielRadcliffe.png', 'Im_DanielCraig.png', 'Im_GeorgeClooney.png', 'Im_ElijahWood.png', 'Im_RyanGosling.png', 'Im_BradPitt.png'],diff,1,1.149871900001017,27,83.33333333333333,
JENA1012,8,neg,fs,negfs_id3_im17.bmp_negfs_id7_im15.bmp,['Im_RobertDowneyJr.png', 'Im_RobertPattinson.png', 'Im_JustinTimberlake.png', 'Im_LeonardoDiCaprio.png', 'Im_DanielRadcliffe.png', 'Im_DanielCraig.png', 'Im_GeorgeClooney.png', 'Im_ElijahWood.png', 'Im_RyanGosling.png', 'Im_BradPitt.png'],same,0,0.6418689000001905,27,83.33333333333333,
JENA1012,8,neg,0,neg0_id3_im6.bmp_neg0_id3_im8.bmp,['Im_RobertDowneyJr.png', 'Im_RobertPattinson.png', 'Im_JustinTimberlake.png', 'Im_LeonardoDiCaprio.png', 'Im_DanielRadcliffe.png', 'Im_DanielCraig.png', 'Im_GeorgeClooney.png', 'Im_ElijahWood.png', 'Im_RyanGosling.png', 'Im_BradPitt.png'],same,1,0.4166092999985267,28,83.33333333333333,
JENA1012,8,neg,120,neg120_id5_im20.bmp_neg120_id19_im8.bmp,['Im_RobertDowneyJr.png', 'Im_RobertPattinson.png', 'Im_JustinTimberlake.png', 'Im_LeonardoDiCaprio.png', 'Im_DanielRadcliffe.png', 'Im_DanielCraig.png', 'Im_GeorgeClooney.png', 'Im_ElijahWood.png', 'Im_RyanGosling.png', 'Im_BradPitt.png'],same,0,0.48373650000030466,28,83.33333333333333,
JENA1012,8,neg,90,neg90_id13_im29.bmp_neg90_id10_im18.bmp,['Im_RobertDowneyJr.png', 'Im_RobertPattinson.png', 'Im_JustinTimberlake.png', 'Im_LeonardoDiCaprio.png', 'Im_DanielRadcliffe.png', 'Im_DanielCraig.png', 'Im_GeorgeClooney.png', 'Im_ElijahWood.png', 'Im_RyanGosling.png', 'Im_BradPitt.png'],same,0,0.8834078999989288,28,83.33333333333333,
JENA1012,8,neg,150,neg150_id4_im20.bmp_neg150_id10_im17.bmp,['Im_RobertDowneyJr.png', 'Im_RobertPattinson.png', 'Im_JustinTimberlake.png', 'Im_LeonardoDiCaprio.png', 'Im_DanielRadcliffe.png', 'Im_DanielCraig.png', 'Im_GeorgeClooney.png', 'Im_ElijahWood.png', 'Im_RyanGosling.png', 'Im_BradPitt.png'],same,0,0.5751541999998153,28,83.33333333333333,
JENA1012,8,neg,150,neg150_id7_im15.bmp_neg150_id3_im17.bmp,['Im_RobertDowneyJr.png', 'Im_RobertPattinson.png', 'Im_JustinTimberlake.png', 'Im_LeonardoDiCaprio.png', 'Im_DanielRadcliffe.png', 'Im_DanielCraig.png', 'Im_GeorgeClooney.png', 'Im_ElijahWood.png', 'Im_RyanGosling.png', 'Im_BradPitt.png'],diff,1,0.42506800000046496,29,83.33333333333333,
JENA1012,8,neg,60,neg60_id13_im15.bmp_neg60_id13_im29.bmp,['Im_RobertDowneyJr.png', 'Im_RobertPattinson.png', 'Im_JustinTimberlake.png', 'Im_LeonardoDiCaprio.png', 'Im_DanielRadcliffe.png', 'Im_DanielCraig.png', 'Im_GeorgeClooney.png', 'Im_ElijahWood.png', 'Im_RyanGosling.png', 'Im_BradPitt.png'],same,1,0.5167875000006461,30,83.33333333333333,
JENA1012,8,neg,0,neg0_id18_im18.bmp_neg0_id6_im18.bmp,['Im_RobertDowneyJr.png', 'Im_RobertPattinson.png', 'Im_JustinTimberlake.png', 'Im_LeonardoDiCaprio.png', 'Im_DanielRadcliffe.png', 'Im_DanielCraig.png', 'Im_GeorgeClooney.png', 'Im_ElijahWood.png', 'Im_RyanGosling.png', 'Im_BradPitt.png'],diff,1,0.42504269999881217,31,83.33333333333333,
JENA1012,8,neg,30,neg30_id13_im10.bmp_neg30_id18_im18.bmp,['Im_RobertDowneyJr.png', 'Im_RobertPattinson.png', 'Im_JustinTimberlake.png', 'Im_LeonardoDiCaprio.png', 'Im_DanielRadcliffe.png', 'Im_DanielCraig.png', 'Im_GeorgeClooney.png', 'Im_ElijahWood.png', 'Im_RyanGosling.png', 'Im_BradPitt.png'],diff,1,2.358601699999781,32,83.33333333333333,
JENA1012,8,neg,60,neg60_id4_im7.bmp_neg60_id4_im15.bmp,['Im_RobertDowneyJr.png', 'Im_RobertPattinson.png', 'Im_JustinTimberlake.png', 'Im_LeonardoDiCaprio.png', 'Im_DanielRadcliffe.png', 'Im_DanielCraig.png', 'Im_GeorgeClooney.png', 'Im_ElijahWood.png', 'Im_RyanGosling.png', 'Im_BradPitt.png'],same,1,0.8000539999993634,33,83.33333333333333,
JENA1012,8,neg,90,neg90_id3_im8.bmp_neg90_id10_im18.bmp,['Im_RobertDowneyJr.png', 'Im_RobertPattinson.png', 'Im_JustinTimberlake.png', 'Im_LeonardoDiCaprio.png', 'Im_DanielRadcliffe.png', 'Im_DanielCraig.png', 'Im_GeorgeClooney.png', 'Im_ElijahWood.png', 'Im_RyanGosling.png', 'Im_BradPitt.png'],same,0,0.425086300001567,33,83.33333333333333,
JENA1012,8,neg,fs,negfs_id19_im8.bmp_negfs_id4_im20.bmp,['Im_RobertDowneyJr.png', 'Im_RobertPattinson.png', 'Im_JustinTimberlake.png', 'Im_LeonardoDiCaprio.png', 'Im_DanielRadcliffe.png', 'Im_DanielCraig.png', 'Im_GeorgeClooney.png', 'Im_ElijahWood.png', 'Im_RyanGosling.png', 'Im_BradPitt.png'],diff,1,2.2503116999996564,34,83.33333333333333,
JENA1012,9,neg,0,neg0_id4_im20.bmp_neg0_id4_im15.bmp,['Im_RobertDowneyJr.png', 'Im_RobertPattinson.png', 'Im_JustinTimberlake.png', 'Im_LeonardoDiCaprio.png', 'Im_DanielRadcliffe.png', 'Im_DanielCraig.png', 'Im_GeorgeClooney.png', 'Im_ElijahWood.png', 'Im_RyanGosling.png', 'Im_BradPitt.png'],same,1,0.4250401999997848,1,80.95238095238095,
JENA1012,9,neg,60,neg60_id7_im26.bmp_neg60_id20_im3.bmp,['Im_RobertDowneyJr.png', 'Im_RobertPattinson.png', 'Im_JustinTimberlake.png', 'Im_LeonardoDiCaprio.png', 'Im_DanielRadcliffe.png', 'Im_DanielCraig.png', 'Im_GeorgeClooney.png', 'Im_ElijahWood.png', 'Im_RyanGosling.png', 'Im_BradPitt.png'],diff,1,1.6336578999998892,2,80.95238095238095,
JENA1012,9,neg,150,neg150_id7_im14.bmp_neg150_id18_im19.bmp,['Im_RobertDowneyJr.png', 'Im_RobertPattinson.png', 'Im_JustinTimberlake.png', 'Im_LeonardoDiCaprio.png', 'Im_DanielRadcliffe.png', 'Im_DanielCraig.png', 'Im_GeorgeClooney.png', 'Im_ElijahWood.png', 'Im_RyanGosling.png', 'Im_BradPitt.png'],diff,1,0.5584390999993047,3,80.95238095238095,
JENA1012,9,neg,fs,negfs_id7_im15.bmp_negfs_id7_im14.bmp,['Im_RobertDowneyJr.png', 'Im_RobertPattinson.png', 'Im_JustinTimberlake.png', 'Im_LeonardoDiCaprio.png', 'Im_DanielRadcliffe.png', 'Im_DanielCraig.png', 'Im_GeorgeClooney.png', 'Im_ElijahWood.png', 'Im_RyanGosling.png', 'Im_BradPitt.png'],diff,0,0.4335556000005454,3,80.95238095238095,
JENA1012,9,neg,30,neg30_id10_im17.bmp_neg30_id19_im4.bmp,['Im_RobertDowneyJr.png', 'Im_RobertPattinson.png', 'Im_JustinTimberlake.png', 'Im_LeonardoDiCaprio.png', 'Im_DanielRadcliffe.png', 'Im_DanielCraig.png', 'Im_GeorgeClooney.png', 'Im_ElijahWood.png', 'Im_RyanGosling.png', 'Im_BradPitt.png'],diff,1,0.6084504999998899,4,80.95238095238095,
JENA1012,9,neg,60,neg60_id5_im10.bmp_neg60_id5_im20.bmp,['Im_RobertDowneyJr.png', 'Im_RobertPattinson.png', 'Im_JustinTimberlake.png', 'Im_LeonardoDiCaprio.png', 'Im_DanielRadcliffe.png', 'Im_DanielCraig.png', 'Im_GeorgeClooney.png', 'Im_ElijahWood.png', 'Im_RyanGosling.png', 'Im_BradPitt.png'],same,1,0.42506950000097277,5,80.95238095238095,
JENA1012,9,neg,150,neg150_id20_im3.bmp_neg150_id7_im26.bmp,['Im_RobertDowneyJr.png', 'Im_RobertPattinson.png', 'Im_JustinTimberlake.png', 'Im_LeonardoDiCaprio.png', 'Im_DanielRadcliffe.png', 'Im_DanielCraig.png', 'Im_GeorgeClooney.png', 'Im_ElijahWood.png', 'Im_RyanGosling.png', 'Im_BradPitt.png'],diff,1,0.48348260000057053,6,80.95238095238095,
JENA1012,9,neg,90,neg90_id19_im27.bmp_neg90_id19_im8.bmp,['Im_RobertDowneyJr.png', 'Im_RobertPattinson.png', 'Im_JustinTimberlake.png', 'Im_LeonardoDiCaprio.png', 'Im_DanielRadcliffe.png', 'Im_DanielCraig.png', 'Im_GeorgeClooney.png', 'Im_ElijahWood.png', 'Im_RyanGosling.png', 'Im_BradPitt.png'],same,1,1.1334234999994806,7,80.95238095238095,
JENA1012,9,neg,120,neg120_id6_im12.bmp_neg120_id5_im1.bmp,['Im_RobertDowneyJr.png', 'Im_RobertPattinson.png', 'Im_JustinTimberlake.png', 'Im_LeonardoDiCaprio.png', 'Im_DanielRadcliffe.png', 'Im_DanielCraig.png', 'Im_GeorgeClooney.png', 'Im_ElijahWood.png', 'Im_RyanGosling.png', 'Im_BradPitt.png'],diff,1,0.9500850000003993,8,80.95238095238095,
