Sujet,Trial,Condition,Filter,Imname,Actor0,Actor1,Actor2,Actor3,Actor4,Actor5,Actor6,Actor7,Actor8,Actor9,Answer,Accu,RT,Score,Scoreperc, 
JENA1012,train,inv,90,pos90_id6_im19.bmp_pos90_id18_im11.bmp,['Im_RyanGosling.png', 'Im_RobertDowneyJr.png', 'Im_GeorgeClooney.png', 'Im_LeonardoDiCaprio.png', 'Im_ElijahWood.png', 'Im_DanielRadcliffe.png', 'Im_RobertPattinson.png', 'Im_DanielCraig.png', 'Im_BradPitt.png', 'Im_JustinTimberlake.png'],same,0,3.4751458000009734,0,0,
JENA1012,train,inv,150,pos150_id19_im27.bmp_pos150_id19_im4.bmp,['Im_RyanGosling.png', 'Im_RobertDowneyJr.png', 'Im_GeorgeClooney.png', 'Im_LeonardoDiCaprio.png', 'Im_ElijahWood.png', 'Im_DanielRadcliffe.png', 'Im_RobertPattinson.png', 'Im_DanielCraig.png', 'Im_BradPitt.png', 'Im_JustinTimberlake.png'],diff,0,1.8338232999994943,0,0,
JENA1012,train,inv,120,pos120_id6_im18.bmp_pos120_id6_im19.bmp,['Im_RyanGosling.png', 'Im_RobertDowneyJr.png', 'Im_GeorgeClooney.png', 'Im_LeonardoDiCaprio.png', 'Im_ElijahWood.png', 'Im_DanielRadcliffe.png', 'Im_RobertPattinson.png', 'Im_DanielCraig.png', 'Im_BradPitt.png', 'Im_JustinTimberlake.png'],diff,0,0.658379700000296,0,0,
JENA1012,train,inv,fs,posfs_id18_im19.bmp_posfs_id20_im30.bmp,['Im_RyanGosling.png', 'Im_RobertDowneyJr.png', 'Im_GeorgeClooney.png', 'Im_LeonardoDiCaprio.png', 'Im_ElijahWood.png', 'Im_DanielRadcliffe.png', 'Im_RobertPattinson.png', 'Im_DanielCraig.png', 'Im_BradPitt.png', 'Im_JustinTimberlake.png'],diff,1,0.5337777999993705,1,0,
JENA1012,train,inv,60,pos60_id19_im8.bmp_pos60_id19_im27.bmp,['Im_RyanGosling.png', 'Im_RobertDowneyJr.png', 'Im_GeorgeClooney.png', 'Im_LeonardoDiCaprio.png', 'Im_ElijahWood.png', 'Im_DanielRadcliffe.png', 'Im_RobertPattinson.png', 'Im_DanielCraig.png', 'Im_BradPitt.png', 'Im_JustinTimberlake.png'],same,1,0.9915830999998434,2,0,
JENA1012,train,inv,30,pos30_id4_im7.bmp_pos30_id4_im20.bmp,['Im_RyanGosling.png', 'Im_RobertDowneyJr.png', 'Im_GeorgeClooney.png', 'Im_LeonardoDiCaprio.png', 'Im_ElijahWood.png', 'Im_DanielRadcliffe.png', 'Im_RobertPattinson.png', 'Im_DanielCraig.png', 'Im_BradPitt.png', 'Im_JustinTimberlake.png'],same,1,0.6333286000008229,3,0,
JENA1012,train,inv,150,pos150_id13_im29.bmp_pos150_id13_im10.bmp,['Im_RyanGosling.png', 'Im_RobertDowneyJr.png', 'Im_GeorgeClooney.png', 'Im_LeonardoDiCaprio.png', 'Im_ElijahWood.png', 'Im_DanielRadcliffe.png', 'Im_RobertPattinson.png', 'Im_DanielCraig.png', 'Im_BradPitt.png', 'Im_JustinTimberlake.png'],diff,0,0.7170125000011467,3,0,
JENA1012,train,inv,fs,posfs_id18_im19.bmp_posfs_id18_im18.bmp,['Im_RyanGosling.png', 'Im_RobertDowneyJr.png', 'Im_GeorgeClooney.png', 'Im_LeonardoDiCaprio.png', 'Im_ElijahWood.png', 'Im_DanielRadcliffe.png', 'Im_RobertPattinson.png', 'Im_DanielCraig.png', 'Im_BradPitt.png', 'Im_JustinTimberlake.png'],same,1,0.4330774999998539,4,0,
JENA1012,train,inv,60,pos60_id6_im12.bmp_pos60_id6_im19.bmp,['Im_RyanGosling.png', 'Im_RobertDowneyJr.png', 'Im_GeorgeClooney.png', 'Im_LeonardoDiCaprio.png', 'Im_ElijahWood.png', 'Im_DanielRadcliffe.png', 'Im_RobertPattinson.png', 'Im_DanielCraig.png', 'Im_BradPitt.png', 'Im_JustinTimberlake.png'],diff,0,0.6666994000006525,4,0,
JENA1012,train,inv,30,pos30_id18_im11.bmp_pos30_id3_im17.bmp,['Im_RyanGosling.png', 'Im_RobertDowneyJr.png', 'Im_GeorgeClooney.png', 'Im_LeonardoDiCaprio.png', 'Im_ElijahWood.png', 'Im_DanielRadcliffe.png', 'Im_RobertPattinson.png', 'Im_DanielCraig.png', 'Im_BradPitt.png', 'Im_JustinTimberlake.png'],diff,1,0.9085162000010314,5,0,
JENA1012,train,inv,0,pos0_id3_im6.bmp_pos0_id3_im8.bmp,['Im_RyanGosling.png', 'Im_RobertDowneyJr.png', 'Im_GeorgeClooney.png', 'Im_LeonardoDiCaprio.png', 'Im_ElijahWood.png', 'Im_DanielRadcliffe.png', 'Im_RobertPattinson.png', 'Im_DanielCraig.png', 'Im_BradPitt.png', 'Im_JustinTimberlake.png'],same,1,0.40835949999927834,6,0,
JENA1012,train,inv,0,pos0_id3_im8.bmp_pos0_id5_im10.bmp,['Im_RyanGosling.png', 'Im_RobertDowneyJr.png', 'Im_GeorgeClooney.png', 'Im_LeonardoDiCaprio.png', 'Im_ElijahWood.png', 'Im_DanielRadcliffe.png', 'Im_RobertPattinson.png', 'Im_DanielCraig.png', 'Im_BradPitt.png', 'Im_JustinTimberlake.png'],diff,1,0.42499819999829924,7,0,
JENA1012,train,inv,120,pos120_id13_im15.bmp_pos120_id20_im12.bmp,['Im_RyanGosling.png', 'Im_RobertDowneyJr.png', 'Im_GeorgeClooney.png', 'Im_LeonardoDiCaprio.png', 'Im_ElijahWood.png', 'Im_DanielRadcliffe.png', 'Im_RobertPattinson.png', 'Im_DanielCraig.png', 'Im_BradPitt.png', 'Im_JustinTimberlake.png'],diff,1,0.4249590999988868,8,0,
JENA1012,train,inv,90,pos90_id4_im20.bmp_pos90_id19_im8.bmp,['Im_RyanGosling.png', 'Im_RobertDowneyJr.png', 'Im_GeorgeClooney.png', 'Im_LeonardoDiCaprio.png', 'Im_ElijahWood.png', 'Im_DanielRadcliffe.png', 'Im_RobertPattinson.png', 'Im_DanielCraig.png', 'Im_BradPitt.png', 'Im_JustinTimberlake.png'],diff,1,0.4165535000011005,9,0,
JENA1012,train,inv,30,pos30_id6_im18.bmp_pos30_id6_im12.bmp,['Im_RyanGosling.png', 'Im_RobertDowneyJr.png', 'Im_GeorgeClooney.png', 'Im_LeonardoDiCaprio.png', 'Im_ElijahWood.png', 'Im_DanielRadcliffe.png', 'Im_RobertPattinson.png', 'Im_DanielCraig.png', 'Im_BradPitt.png', 'Im_JustinTimberlake.png'],diff,0,0.43302460000086285,9,0,
JENA1012,train,inv,0,pos0_id13_im29.bmp_pos0_id4_im15.bmp,['Im_RyanGosling.png', 'Im_RobertDowneyJr.png', 'Im_GeorgeClooney.png', 'Im_LeonardoDiCaprio.png', 'Im_ElijahWood.png', 'Im_DanielRadcliffe.png', 'Im_RobertPattinson.png', 'Im_DanielCraig.png', 'Im_BradPitt.png', 'Im_JustinTimberlake.png'],diff,1,1.2585478000000876,10,0,
JENA1012,train,inv,90,pos90_id3_im6.bmp_pos90_id6_im19.bmp,['Im_RyanGosling.png', 'Im_RobertDowneyJr.png', 'Im_GeorgeClooney.png', 'Im_LeonardoDiCaprio.png', 'Im_ElijahWood.png', 'Im_DanielRadcliffe.png', 'Im_RobertPattinson.png', 'Im_DanielCraig.png', 'Im_BradPitt.png', 'Im_JustinTimberlake.png'],same,0,0.41663919999882637,10,0,
JENA1012,train,inv,120,pos120_id6_im18.bmp_pos120_id6_im12.bmp,['Im_RyanGosling.png', 'Im_RobertDowneyJr.png', 'Im_GeorgeClooney.png', 'Im_LeonardoDiCaprio.png', 'Im_ElijahWood.png', 'Im_DanielRadcliffe.png', 'Im_RobertPattinson.png', 'Im_DanielCraig.png', 'Im_BradPitt.png', 'Im_JustinTimberlake.png'],diff,0,0.625533300000825,10,0,
JENA1012,train,inv,fs,posfs_id5_im20.bmp_posfs_id19_im8.bmp,['Im_RyanGosling.png', 'Im_RobertDowneyJr.png', 'Im_GeorgeClooney.png', 'Im_LeonardoDiCaprio.png', 'Im_ElijahWood.png', 'Im_DanielRadcliffe.png', 'Im_RobertPattinson.png', 'Im_DanielCraig.png', 'Im_BradPitt.png', 'Im_JustinTimberlake.png'],diff,1,0.4250671000008879,11,0,
JENA1012,train,inv,0,pos0_id10_im1.bmp_pos0_id6_im12.bmp,['Im_RyanGosling.png', 'Im_RobertDowneyJr.png', 'Im_GeorgeClooney.png', 'Im_LeonardoDiCaprio.png', 'Im_ElijahWood.png', 'Im_DanielRadcliffe.png', 'Im_RobertPattinson.png', 'Im_DanielCraig.png', 'Im_BradPitt.png', 'Im_JustinTimberlake.png'],diff,1,1.075179899999057,12,0,
JENA1012,train,inv,150,pos150_id5_im10.bmp_pos150_id3_im8.bmp,['Im_RyanGosling.png', 'Im_RobertDowneyJr.png', 'Im_GeorgeClooney.png', 'Im_LeonardoDiCaprio.png', 'Im_ElijahWood.png', 'Im_DanielRadcliffe.png', 'Im_RobertPattinson.png', 'Im_DanielCraig.png', 'Im_BradPitt.png', 'Im_JustinTimberlake.png'],diff,1,0.5834555999990698,13,0,
JENA1012,train,inv,90,pos90_id10_im18.bmp_pos90_id13_im29.bmp,['Im_RyanGosling.png', 'Im_RobertDowneyJr.png', 'Im_GeorgeClooney.png', 'Im_LeonardoDiCaprio.png', 'Im_ElijahWood.png', 'Im_DanielRadcliffe.png', 'Im_RobertPattinson.png', 'Im_DanielCraig.png', 'Im_BradPitt.png', 'Im_JustinTimberlake.png'],same,0,0.8750220000001718,13,0,
JENA1012,train,inv,30,pos30_id6_im12.bmp_pos30_id5_im1.bmp,['Im_RyanGosling.png', 'Im_RobertDowneyJr.png', 'Im_GeorgeClooney.png', 'Im_LeonardoDiCaprio.png', 'Im_ElijahWood.png', 'Im_DanielRadcliffe.png', 'Im_RobertPattinson.png', 'Im_DanielCraig.png', 'Im_BradPitt.png', 'Im_JustinTimberlake.png'],diff,1,1.63340000000062,14,0,
JENA1012,train,inv,150,pos150_id7_im26.bmp_pos150_id4_im7.bmp,['Im_RyanGosling.png', 'Im_RobertDowneyJr.png', 'Im_GeorgeClooney.png', 'Im_LeonardoDiCaprio.png', 'Im_ElijahWood.png', 'Im_DanielRadcliffe.png', 'Im_RobertPattinson.png', 'Im_DanielCraig.png', 'Im_BradPitt.png', 'Im_JustinTimberlake.png'],diff,1,0.46697320000021136,15,0,
JENA1012,train,inv,fs,posfs_id7_im15.bmp_posfs_id7_im26.bmp,['Im_RyanGosling.png', 'Im_RobertDowneyJr.png', 'Im_GeorgeClooney.png', 'Im_LeonardoDiCaprio.png', 'Im_ElijahWood.png', 'Im_DanielRadcliffe.png', 'Im_RobertPattinson.png', 'Im_DanielCraig.png', 'Im_BradPitt.png', 'Im_JustinTimberlake.png'],same,1,2.1083562999992864,16,0,
JENA1012,train,inv,120,pos120_id10_im18.bmp_pos120_id13_im29.bmp,['Im_RyanGosling.png', 'Im_RobertDowneyJr.png', 'Im_GeorgeClooney.png', 'Im_LeonardoDiCaprio.png', 'Im_ElijahWood.png', 'Im_DanielRadcliffe.png', 'Im_RobertPattinson.png', 'Im_DanielCraig.png', 'Im_BradPitt.png', 'Im_JustinTimberlake.png'],diff,1,0.4249751000006654,17,0,
JENA1012,train,inv,60,pos60_id6_im12.bmp_pos60_id6_im18.bmp,['Im_RyanGosling.png', 'Im_RobertDowneyJr.png', 'Im_GeorgeClooney.png', 'Im_LeonardoDiCaprio.png', 'Im_ElijahWood.png', 'Im_DanielRadcliffe.png', 'Im_RobertPattinson.png', 'Im_DanielCraig.png', 'Im_BradPitt.png', 'Im_JustinTimberlake.png'],diff,0,0.42497219999859226,17,0,
JENA1012,train,inv,60,pos60_id13_im10.bmp_pos60_id13_im29.bmp,['Im_RyanGosling.png', 'Im_RobertDowneyJr.png', 'Im_GeorgeClooney.png', 'Im_LeonardoDiCaprio.png', 'Im_ElijahWood.png', 'Im_DanielRadcliffe.png', 'Im_RobertPattinson.png', 'Im_DanielCraig.png', 'Im_BradPitt.png', 'Im_JustinTimberlake.png'],same,1,0.41668140000001586,18,0,
JENA1012,train,neg,30,neg30_id7_im26.bmp_neg30_id20_im3.bmp,['Im_RyanGosling.png', 'Im_RobertDowneyJr.png', 'Im_GeorgeClooney.png', 'Im_LeonardoDiCaprio.png', 'Im_ElijahWood.png', 'Im_DanielRadcliffe.png', 'Im_RobertPattinson.png', 'Im_DanielCraig.png', 'Im_BradPitt.png', 'Im_JustinTimberlake.png'],same,0,0.649375200000577,18,0,
JENA1012,train,neg,30,neg30_id18_im18.bmp_neg30_id18_im11.bmp,['Im_RyanGosling.png', 'Im_RobertDowneyJr.png', 'Im_GeorgeClooney.png', 'Im_LeonardoDiCaprio.png', 'Im_ElijahWood.png', 'Im_DanielRadcliffe.png', 'Im_RobertPattinson.png', 'Im_DanielCraig.png', 'Im_BradPitt.png', 'Im_JustinTimberlake.png'],same,1,0.4247906000000512,19,0,
JENA1012,train,neg,150,neg150_id4_im7.bmp_neg150_id4_im20.bmp,['Im_RyanGosling.png', 'Im_RobertDowneyJr.png', 'Im_GeorgeClooney.png', 'Im_LeonardoDiCaprio.png', 'Im_ElijahWood.png', 'Im_DanielRadcliffe.png', 'Im_RobertPattinson.png', 'Im_DanielCraig.png', 'Im_BradPitt.png', 'Im_JustinTimberlake.png'],diff,0,0.44198470000083034,19,0,
JENA1012,train,neg,60,neg60_id3_im17.bmp_neg60_id3_im8.bmp,['Im_RyanGosling.png', 'Im_RobertDowneyJr.png', 'Im_GeorgeClooney.png', 'Im_LeonardoDiCaprio.png', 'Im_ElijahWood.png', 'Im_DanielRadcliffe.png', 'Im_RobertPattinson.png', 'Im_DanielCraig.png', 'Im_BradPitt.png', 'Im_JustinTimberlake.png'],same,1,0.6254095000003872,20,0,
JENA1012,train,neg,120,neg120_id20_im12.bmp_neg120_id5_im1.bmp,['Im_RyanGosling.png', 'Im_RobertDowneyJr.png', 'Im_GeorgeClooney.png', 'Im_LeonardoDiCaprio.png', 'Im_ElijahWood.png', 'Im_DanielRadcliffe.png', 'Im_RobertPattinson.png', 'Im_DanielCraig.png', 'Im_BradPitt.png', 'Im_JustinTimberlake.png'],diff,1,0.41686549999940326,21,0,
JENA1012,train,neg,150,neg150_id5_im1.bmp_neg150_id6_im12.bmp,['Im_RyanGosling.png', 'Im_RobertDowneyJr.png', 'Im_GeorgeClooney.png', 'Im_LeonardoDiCaprio.png', 'Im_ElijahWood.png', 'Im_DanielRadcliffe.png', 'Im_RobertPattinson.png', 'Im_DanielCraig.png', 'Im_BradPitt.png', 'Im_JustinTimberlake.png'],diff,1,0.42498930000147084,22,0,
JENA1012,train,neg,fs,negfs_id6_im12.bmp_negfs_id10_im1.bmp,['Im_RyanGosling.png', 'Im_RobertDowneyJr.png', 'Im_GeorgeClooney.png', 'Im_LeonardoDiCaprio.png', 'Im_ElijahWood.png', 'Im_DanielRadcliffe.png', 'Im_RobertPattinson.png', 'Im_DanielCraig.png', 'Im_BradPitt.png', 'Im_JustinTimberlake.png'],diff,1,0.408064999999624,23,0,
JENA1012,train,neg,fs,negfs_id6_im19.bmp_negfs_id6_im18.bmp,['Im_RyanGosling.png', 'Im_RobertDowneyJr.png', 'Im_GeorgeClooney.png', 'Im_LeonardoDiCaprio.png', 'Im_ElijahWood.png', 'Im_DanielRadcliffe.png', 'Im_RobertPattinson.png', 'Im_DanielCraig.png', 'Im_BradPitt.png', 'Im_JustinTimberlake.png'],diff,0,0.4250251000012213,23,0,
JENA1012,train,neg,0,neg0_id7_im15.bmp_neg0_id20_im3.bmp,['Im_RyanGosling.png', 'Im_RobertDowneyJr.png', 'Im_GeorgeClooney.png', 'Im_LeonardoDiCaprio.png', 'Im_ElijahWood.png', 'Im_DanielRadcliffe.png', 'Im_RobertPattinson.png', 'Im_DanielCraig.png', 'Im_BradPitt.png', 'Im_JustinTimberlake.png'],diff,1,0.5085171999999147,24,0,
JENA1012,train,neg,120,neg120_id5_im20.bmp_neg120_id5_im1.bmp,['Im_RyanGosling.png', 'Im_RobertDowneyJr.png', 'Im_GeorgeClooney.png', 'Im_LeonardoDiCaprio.png', 'Im_ElijahWood.png', 'Im_DanielRadcliffe.png', 'Im_RobertPattinson.png', 'Im_DanielCraig.png', 'Im_BradPitt.png', 'Im_JustinTimberlake.png'],diff,0,0.43336359999921115,24,0,
JENA1012,train,neg,0,neg0_id20_im12.bmp_neg0_id20_im30.bmp,['Im_RyanGosling.png', 'Im_RobertDowneyJr.png', 'Im_GeorgeClooney.png', 'Im_LeonardoDiCaprio.png', 'Im_ElijahWood.png', 'Im_DanielRadcliffe.png', 'Im_RobertPattinson.png', 'Im_DanielCraig.png', 'Im_BradPitt.png', 'Im_JustinTimberlake.png'],same,1,0.43274099999871396,25,0,
JENA1012,train,neg,90,neg90_id13_im15.bmp_neg90_id13_im29.bmp,['Im_RyanGosling.png', 'Im_RobertDowneyJr.png', 'Im_GeorgeClooney.png', 'Im_LeonardoDiCaprio.png', 'Im_ElijahWood.png', 'Im_DanielRadcliffe.png', 'Im_RobertPattinson.png', 'Im_DanielCraig.png', 'Im_BradPitt.png', 'Im_JustinTimberlake.png'],diff,0,0.42510610000135785,25,0,
JENA1012,train,neg,60,neg60_id6_im19.bmp_neg60_id18_im11.bmp,['Im_RyanGosling.png', 'Im_RobertDowneyJr.png', 'Im_GeorgeClooney.png', 'Im_LeonardoDiCaprio.png', 'Im_ElijahWood.png', 'Im_DanielRadcliffe.png', 'Im_RobertPattinson.png', 'Im_DanielCraig.png', 'Im_BradPitt.png', 'Im_JustinTimberlake.png'],diff,1,0.4250549000007595,26,0,
JENA1012,train,neg,90,neg90_id4_im7.bmp_neg90_id19_im27.bmp,['Im_RyanGosling.png', 'Im_RobertDowneyJr.png', 'Im_GeorgeClooney.png', 'Im_LeonardoDiCaprio.png', 'Im_ElijahWood.png', 'Im_DanielRadcliffe.png', 'Im_RobertPattinson.png', 'Im_DanielCraig.png', 'Im_BradPitt.png', 'Im_JustinTimberlake.png'],diff,1,0.5167605000006006,27,0,
JENA1012,train,pos,60,pos60_id6_im18.bmp_pos60_id6_im12.bmp,['Im_RyanGosling.png', 'Im_RobertDowneyJr.png', 'Im_GeorgeClooney.png', 'Im_LeonardoDiCaprio.png', 'Im_ElijahWood.png', 'Im_DanielRadcliffe.png', 'Im_RobertPattinson.png', 'Im_DanielCraig.png', 'Im_BradPitt.png', 'Im_JustinTimberlake.png'],same,1,0.9751646000004257,1,64.28571428571429,
JENA1012,train,pos,150,pos150_id7_im14.bmp_pos150_id5_im10.bmp,['Im_RyanGosling.png', 'Im_RobertDowneyJr.png', 'Im_GeorgeClooney.png', 'Im_LeonardoDiCaprio.png', 'Im_ElijahWood.png', 'Im_DanielRadcliffe.png', 'Im_RobertPattinson.png', 'Im_DanielCraig.png', 'Im_BradPitt.png', 'Im_JustinTimberlake.png'],diff,1,0.40831100000104925,2,64.28571428571429,
JENA1012,train,pos,30,pos30_id7_im26.bmp_pos30_id4_im7.bmp,['Im_RyanGosling.png', 'Im_RobertDowneyJr.png', 'Im_GeorgeClooney.png', 'Im_LeonardoDiCaprio.png', 'Im_ElijahWood.png', 'Im_DanielRadcliffe.png', 'Im_RobertPattinson.png', 'Im_DanielCraig.png', 'Im_BradPitt.png', 'Im_JustinTimberlake.png'],diff,1,0.408417599999666,3,64.28571428571429,
JENA1012,train,pos,120,pos120_id18_im11.bmp_pos120_id18_im18.bmp,['Im_RyanGosling.png', 'Im_RobertDowneyJr.png', 'Im_GeorgeClooney.png', 'Im_LeonardoDiCaprio.png', 'Im_ElijahWood.png', 'Im_DanielRadcliffe.png', 'Im_RobertPattinson.png', 'Im_DanielCraig.png', 'Im_BradPitt.png', 'Im_JustinTimberlake.png'],same,1,0.4250216999989789,4,64.28571428571429,
JENA1012,train,pos,fs,posfs_id13_im15.bmp_posfs_id13_im10.bmp,['Im_RyanGosling.png', 'Im_RobertDowneyJr.png', 'Im_GeorgeClooney.png', 'Im_LeonardoDiCaprio.png', 'Im_ElijahWood.png', 'Im_DanielRadcliffe.png', 'Im_RobertPattinson.png', 'Im_DanielCraig.png', 'Im_BradPitt.png', 'Im_JustinTimberlake.png'],same,1,0.41673919999993814,5,64.28571428571429,
JENA1012,train,pos,0,pos0_id6_im12.bmp_pos0_id5_im1.bmp,['Im_RyanGosling.png', 'Im_RobertDowneyJr.png', 'Im_GeorgeClooney.png', 'Im_LeonardoDiCaprio.png', 'Im_ElijahWood.png', 'Im_DanielRadcliffe.png', 'Im_RobertPattinson.png', 'Im_DanielCraig.png', 'Im_BradPitt.png', 'Im_JustinTimberlake.png'],diff,1,0.43320739999944635,6,64.28571428571429,
JENA1012,train,pos,90,pos90_id4_im15.bmp_pos90_id13_im29.bmp,['Im_RyanGosling.png', 'Im_RobertDowneyJr.png', 'Im_GeorgeClooney.png', 'Im_LeonardoDiCaprio.png', 'Im_ElijahWood.png', 'Im_DanielRadcliffe.png', 'Im_RobertPattinson.png', 'Im_DanielCraig.png', 'Im_BradPitt.png', 'Im_JustinTimberlake.png'],diff,1,2.066745500000252,7,64.28571428571429,
JENA1012,train,pos,fs,posfs_id5_im1.bmp_posfs_id20_im12.bmp,['Im_RyanGosling.png', 'Im_RobertDowneyJr.png', 'Im_GeorgeClooney.png', 'Im_LeonardoDiCaprio.png', 'Im_ElijahWood.png', 'Im_DanielRadcliffe.png', 'Im_RobertPattinson.png', 'Im_DanielCraig.png', 'Im_BradPitt.png', 'Im_JustinTimberlake.png'],diff,1,0.8831945999991149,8,64.28571428571429,
JENA1012,train,pos,0,pos0_id4_im7.bmp_pos0_id19_im27.bmp,['Im_RyanGosling.png', 'Im_RobertDowneyJr.png', 'Im_GeorgeClooney.png', 'Im_LeonardoDiCaprio.png', 'Im_ElijahWood.png', 'Im_DanielRadcliffe.png', 'Im_RobertPattinson.png', 'Im_DanielCraig.png', 'Im_BradPitt.png', 'Im_JustinTimberlake.png'],diff,1,0.4166500999999698,9,64.28571428571429,
JENA1012,train,pos,30,pos30_id3_im17.bmp_pos30_id18_im11.bmp,['Im_RyanGosling.png', 'Im_RobertDowneyJr.png', 'Im_GeorgeClooney.png', 'Im_LeonardoDiCaprio.png', 'Im_ElijahWood.png', 'Im_DanielRadcliffe.png', 'Im_RobertPattinson.png', 'Im_DanielCraig.png', 'Im_BradPitt.png', 'Im_JustinTimberlake.png'],diff,1,0.4249994000001607,10,64.28571428571429,
JENA1012,train,pos,150,pos150_id4_im20.bmp_pos150_id19_im8.bmp,['Im_RyanGosling.png', 'Im_RobertDowneyJr.png', 'Im_GeorgeClooney.png', 'Im_LeonardoDiCaprio.png', 'Im_ElijahWood.png', 'Im_DanielRadcliffe.png', 'Im_RobertPattinson.png', 'Im_DanielCraig.png', 'Im_BradPitt.png', 'Im_JustinTimberlake.png'],diff,1,0.40829219999977795,11,64.28571428571429,
JENA1012,train,pos,60,pos60_id10_im18.bmp_pos60_id3_im8.bmp,['Im_RyanGosling.png', 'Im_RobertDowneyJr.png', 'Im_GeorgeClooney.png', 'Im_LeonardoDiCaprio.png', 'Im_ElijahWood.png', 'Im_DanielRadcliffe.png', 'Im_RobertPattinson.png', 'Im_DanielCraig.png', 'Im_BradPitt.png', 'Im_JustinTimberlake.png'],diff,1,3.3083955999991304,12,64.28571428571429,
JENA1012,train,pos,90,pos90_id4_im20.bmp_pos90_id4_im15.bmp,['Im_RyanGosling.png', 'Im_RobertDowneyJr.png', 'Im_GeorgeClooney.png', 'Im_LeonardoDiCaprio.png', 'Im_ElijahWood.png', 'Im_DanielRadcliffe.png', 'Im_RobertPattinson.png', 'Im_DanielCraig.png', 'Im_BradPitt.png', 'Im_JustinTimberlake.png'],same,1,0.4166939000006096,13,64.28571428571429,
JENA1012,train,pos,120,pos120_id5_im1.bmp_pos120_id5_im10.bmp,['Im_RyanGosling.png', 'Im_RobertDowneyJr.png', 'Im_GeorgeClooney.png', 'Im_LeonardoDiCaprio.png', 'Im_ElijahWood.png', 'Im_DanielRadcliffe.png', 'Im_RobertPattinson.png', 'Im_DanielCraig.png', 'Im_BradPitt.png', 'Im_JustinTimberlake.png'],same,1,0.43343259999892325,14,64.28571428571429,
JENA1012,train,inv,0,pos0_id13_im29.bmp_pos0_id13_im15.bmp,['Im_RyanGosling.png', 'Im_RobertDowneyJr.png', 'Im_GeorgeClooney.png', 'Im_LeonardoDiCaprio.png', 'Im_ElijahWood.png', 'Im_DanielRadcliffe.png', 'Im_RobertPattinson.png', 'Im_DanielCraig.png', 'Im_BradPitt.png', 'Im_JustinTimberlake.png'],diff,0,0.6835955999995349,14,64.28571428571429,
JENA1012,train,inv,90,pos90_id3_im17.bmp_pos90_id3_im8.bmp,['Im_RyanGosling.png', 'Im_RobertDowneyJr.png', 'Im_GeorgeClooney.png', 'Im_LeonardoDiCaprio.png', 'Im_ElijahWood.png', 'Im_DanielRadcliffe.png', 'Im_RobertPattinson.png', 'Im_DanielCraig.png', 'Im_BradPitt.png', 'Im_JustinTimberlake.png'],same,1,0.4167155000013736,15,64.28571428571429,
JENA1012,train,inv,0,pos0_id3_im17.bmp_pos0_id3_im8.bmp,['Im_RyanGosling.png', 'Im_RobertDowneyJr.png', 'Im_GeorgeClooney.png', 'Im_LeonardoDiCaprio.png', 'Im_ElijahWood.png', 'Im_DanielRadcliffe.png', 'Im_RobertPattinson.png', 'Im_DanielCraig.png', 'Im_BradPitt.png', 'Im_JustinTimberlake.png'],same,1,0.4167304000002332,16,64.28571428571429,
JENA1012,train,inv,120,pos120_id13_im29.bmp_pos120_id13_im10.bmp,['Im_RyanGosling.png', 'Im_RobertDowneyJr.png', 'Im_GeorgeClooney.png', 'Im_LeonardoDiCaprio.png', 'Im_ElijahWood.png', 'Im_DanielRadcliffe.png', 'Im_RobertPattinson.png', 'Im_DanielCraig.png', 'Im_BradPitt.png', 'Im_JustinTimberlake.png'],same,1,2.2249185999990004,17,64.28571428571429,
JENA1012,train,inv,60,pos60_id18_im11.bmp_pos60_id18_im19.bmp,['Im_RyanGosling.png', 'Im_RobertDowneyJr.png', 'Im_GeorgeClooney.png', 'Im_LeonardoDiCaprio.png', 'Im_ElijahWood.png', 'Im_DanielRadcliffe.png', 'Im_RobertPattinson.png', 'Im_DanielCraig.png', 'Im_BradPitt.png', 'Im_JustinTimberlake.png'],same,1,0.8677967999992688,18,64.28571428571429,
JENA1012,train,inv,30,pos30_id7_im15.bmp_pos30_id7_im26.bmp,['Im_RyanGosling.png', 'Im_RobertDowneyJr.png', 'Im_GeorgeClooney.png', 'Im_LeonardoDiCaprio.png', 'Im_ElijahWood.png', 'Im_DanielRadcliffe.png', 'Im_RobertPattinson.png', 'Im_DanielCraig.png', 'Im_BradPitt.png', 'Im_JustinTimberlake.png'],diff,0,1.4332235000001674,18,64.28571428571429,
JENA1012,train,inv,150,pos150_id6_im18.bmp_pos150_id6_im12.bmp,['Im_RyanGosling.png', 'Im_RobertDowneyJr.png', 'Im_GeorgeClooney.png', 'Im_LeonardoDiCaprio.png', 'Im_ElijahWood.png', 'Im_DanielRadcliffe.png', 'Im_RobertPattinson.png', 'Im_DanielCraig.png', 'Im_BradPitt.png', 'Im_JustinTimberlake.png'],none,0,4.407876999999644,18,64.28571428571429,
JENA1012,train,inv,fs,posfs_id19_im4.bmp_posfs_id5_im20.bmp,['Im_RyanGosling.png', 'Im_RobertDowneyJr.png', 'Im_GeorgeClooney.png', 'Im_LeonardoDiCaprio.png', 'Im_ElijahWood.png', 'Im_DanielRadcliffe.png', 'Im_RobertPattinson.png', 'Im_DanielCraig.png', 'Im_BradPitt.png', 'Im_JustinTimberlake.png'],diff,1,1.4335785000002943,19,64.28571428571429,
JENA1012,train,inv,120,pos120_id6_im19.bmp_pos120_id6_im12.bmp,['Im_RyanGosling.png', 'Im_RobertDowneyJr.png', 'Im_GeorgeClooney.png', 'Im_LeonardoDiCaprio.png', 'Im_ElijahWood.png', 'Im_DanielRadcliffe.png', 'Im_RobertPattinson.png', 'Im_DanielCraig.png', 'Im_BradPitt.png', 'Im_JustinTimberlake.png'],same,1,1.83350369999971,20,64.28571428571429,
JENA1012,train,inv,90,pos90_id18_im19.bmp_pos90_id18_im18.bmp,['Im_RyanGosling.png', 'Im_RobertDowneyJr.png', 'Im_GeorgeClooney.png', 'Im_LeonardoDiCaprio.png', 'Im_ElijahWood.png', 'Im_DanielRadcliffe.png', 'Im_RobertPattinson.png', 'Im_DanielCraig.png', 'Im_BradPitt.png', 'Im_JustinTimberlake.png'],none,1,4.416648800000985,20,64.28571428571429,
JENA1012,train,inv,60,pos60_id18_im19.bmp_pos60_id18_im18.bmp,['Im_RyanGosling.png', 'Im_RobertDowneyJr.png', 'Im_GeorgeClooney.png', 'Im_LeonardoDiCaprio.png', 'Im_ElijahWood.png', 'Im_DanielRadcliffe.png', 'Im_RobertPattinson.png', 'Im_DanielCraig.png', 'Im_BradPitt.png', 'Im_JustinTimberlake.png'],diff,0,3.166691799999171,20,64.28571428571429,
JENA1012,train,inv,150,pos150_id5_im10.bmp_pos150_id7_im14.bmp,['Im_RyanGosling.png', 'Im_RobertDowneyJr.png', 'Im_GeorgeClooney.png', 'Im_LeonardoDiCaprio.png', 'Im_ElijahWood.png', 'Im_DanielRadcliffe.png', 'Im_RobertPattinson.png', 'Im_DanielCraig.png', 'Im_BradPitt.png', 'Im_JustinTimberlake.png'],diff,1,0.5419079000002966,21,64.28571428571429,
JENA1012,train,inv,30,pos30_id3_im8.bmp_pos30_id10_im18.bmp,['Im_RyanGosling.png', 'Im_RobertDowneyJr.png', 'Im_GeorgeClooney.png', 'Im_LeonardoDiCaprio.png', 'Im_ElijahWood.png', 'Im_DanielRadcliffe.png', 'Im_RobertPattinson.png', 'Im_DanielCraig.png', 'Im_BradPitt.png', 'Im_JustinTimberlake.png'],diff,1,0.4916111999991699,22,64.28571428571429,
JENA1012,train,inv,fs,posfs_id3_im17.bmp_posfs_id3_im8.bmp,['Im_RyanGosling.png', 'Im_RobertDowneyJr.png', 'Im_GeorgeClooney.png', 'Im_LeonardoDiCaprio.png', 'Im_ElijahWood.png', 'Im_DanielRadcliffe.png', 'Im_RobertPattinson.png', 'Im_DanielCraig.png', 'Im_BradPitt.png', 'Im_JustinTimberlake.png'],same,1,0.5585730000002513,23,64.28571428571429,
JENA1012,train,neg,60,neg60_id7_im26.bmp_neg60_id7_im15.bmp,['Im_RyanGosling.png', 'Im_RobertDowneyJr.png', 'Im_GeorgeClooney.png', 'Im_LeonardoDiCaprio.png', 'Im_ElijahWood.png', 'Im_DanielRadcliffe.png', 'Im_RobertPattinson.png', 'Im_DanielCraig.png', 'Im_BradPitt.png', 'Im_JustinTimberlake.png'],same,1,0.6751315999990766,24,64.28571428571429,
JENA1012,train,neg,0,neg0_id3_im8.bmp_neg0_id10_im18.bmp,['Im_RyanGosling.png', 'Im_RobertDowneyJr.png', 'Im_GeorgeClooney.png', 'Im_LeonardoDiCaprio.png', 'Im_ElijahWood.png', 'Im_DanielRadcliffe.png', 'Im_RobertPattinson.png', 'Im_DanielCraig.png', 'Im_BradPitt.png', 'Im_JustinTimberlake.png'],diff,1,3.0085290000006353,25,64.28571428571429,
JENA1012,train,neg,fs,negfs_id20_im12.bmp_negfs_id20_im30.bmp,['Im_RyanGosling.png', 'Im_RobertDowneyJr.png', 'Im_GeorgeClooney.png', 'Im_LeonardoDiCaprio.png', 'Im_ElijahWood.png', 'Im_DanielRadcliffe.png', 'Im_RobertPattinson.png', 'Im_DanielCraig.png', 'Im_BradPitt.png', 'Im_JustinTimberlake.png'],same,1,0.40848729999925126,26,64.28571428571429,
JENA1012,train,neg,60,neg60_id18_im19.bmp_neg60_id20_im30.bmp,['Im_RyanGosling.png', 'Im_RobertDowneyJr.png', 'Im_GeorgeClooney.png', 'Im_LeonardoDiCaprio.png', 'Im_ElijahWood.png', 'Im_DanielRadcliffe.png', 'Im_RobertPattinson.png', 'Im_DanielCraig.png', 'Im_BradPitt.png', 'Im_JustinTimberlake.png'],diff,1,0.42515459999958694,27,64.28571428571429,
JENA1012,train,neg,30,neg30_id20_im12.bmp_neg30_id13_im15.bmp,['Im_RyanGosling.png', 'Im_RobertDowneyJr.png', 'Im_GeorgeClooney.png', 'Im_LeonardoDiCaprio.png', 'Im_ElijahWood.png', 'Im_DanielRadcliffe.png', 'Im_RobertPattinson.png', 'Im_DanielCraig.png', 'Im_BradPitt.png', 'Im_JustinTimberlake.png'],diff,1,0.4083955000005517,28,64.28571428571429,
JENA1012,train,neg,90,neg90_id13_im10.bmp_neg90_id20_im30.bmp,['Im_RyanGosling.png', 'Im_RobertDowneyJr.png', 'Im_GeorgeClooney.png', 'Im_LeonardoDiCaprio.png', 'Im_ElijahWood.png', 'Im_DanielRadcliffe.png', 'Im_RobertPattinson.png', 'Im_DanielCraig.png', 'Im_BradPitt.png', 'Im_JustinTimberlake.png'],diff,1,0.4167739000004076,29,64.28571428571429,
JENA1012,train,neg,fs,negfs_id18_im18.bmp_negfs_id6_im18.bmp,['Im_RyanGosling.png', 'Im_RobertDowneyJr.png', 'Im_GeorgeClooney.png', 'Im_LeonardoDiCaprio.png', 'Im_ElijahWood.png', 'Im_DanielRadcliffe.png', 'Im_RobertPattinson.png', 'Im_DanielCraig.png', 'Im_BradPitt.png', 'Im_JustinTimberlake.png'],diff,1,0.4251306999994995,30,64.28571428571429,
JENA1012,train,neg,0,neg0_id18_im11.bmp_neg0_id3_im17.bmp,['Im_RyanGosling.png', 'Im_RobertDowneyJr.png', 'Im_GeorgeClooney.png', 'Im_LeonardoDiCaprio.png', 'Im_ElijahWood.png', 'Im_DanielRadcliffe.png', 'Im_RobertPattinson.png', 'Im_DanielCraig.png', 'Im_BradPitt.png', 'Im_JustinTimberlake.png'],diff,1,0.5000832000005175,31,64.28571428571429,
JENA1012,train,neg,90,neg90_id20_im3.bmp_neg90_id7_im15.bmp,['Im_RyanGosling.png', 'Im_RobertDowneyJr.png', 'Im_GeorgeClooney.png', 'Im_LeonardoDiCaprio.png', 'Im_ElijahWood.png', 'Im_DanielRadcliffe.png', 'Im_RobertPattinson.png', 'Im_DanielCraig.png', 'Im_BradPitt.png', 'Im_JustinTimberlake.png'],diff,1,0.41644610000003013,32,64.28571428571429,
JENA1012,train,neg,150,neg150_id19_im8.bmp_neg150_id4_im20.bmp,['Im_RyanGosling.png', 'Im_RobertDowneyJr.png', 'Im_GeorgeClooney.png', 'Im_LeonardoDiCaprio.png', 'Im_ElijahWood.png', 'Im_DanielRadcliffe.png', 'Im_RobertPattinson.png', 'Im_DanielCraig.png', 'Im_BradPitt.png', 'Im_JustinTimberlake.png'],diff,1,0.4327170999986265,33,64.28571428571429,
JENA1012,train,neg,30,neg30_id10_im1.bmp_neg30_id6_im12.bmp,['Im_RyanGosling.png', 'Im_RobertDowneyJr.png', 'Im_GeorgeClooney.png', 'Im_LeonardoDiCaprio.png', 'Im_ElijahWood.png', 'Im_DanielRadcliffe.png', 'Im_RobertPattinson.png', 'Im_DanielCraig.png', 'Im_BradPitt.png', 'Im_JustinTimberlake.png'],diff,1,0.4168229999995674,34,64.28571428571429,
JENA1012,train,neg,120,neg120_id19_im4.bmp_neg120_id10_im17.bmp,['Im_RyanGosling.png', 'Im_RobertDowneyJr.png', 'Im_GeorgeClooney.png', 'Im_LeonardoDiCaprio.png', 'Im_ElijahWood.png', 'Im_DanielRadcliffe.png', 'Im_RobertPattinson.png', 'Im_DanielCraig.png', 'Im_BradPitt.png', 'Im_JustinTimberlake.png'],diff,1,0.4166860999994242,35,64.28571428571429,
JENA1012,train,neg,150,neg150_id6_im19.bmp_neg150_id3_im6.bmp,['Im_RyanGosling.png', 'Im_RobertDowneyJr.png', 'Im_GeorgeClooney.png', 'Im_LeonardoDiCaprio.png', 'Im_ElijahWood.png', 'Im_DanielRadcliffe.png', 'Im_RobertPattinson.png', 'Im_DanielCraig.png', 'Im_BradPitt.png', 'Im_JustinTimberlake.png'],diff,1,0.4167156999992585,36,64.28571428571429,
JENA1012,train,neg,120,neg120_id18_im11.bmp_neg120_id6_im19.bmp,['Im_RyanGosling.png', 'Im_RobertDowneyJr.png', 'Im_GeorgeClooney.png', 'Im_LeonardoDiCaprio.png', 'Im_ElijahWood.png', 'Im_DanielRadcliffe.png', 'Im_RobertPattinson.png', 'Im_DanielCraig.png', 'Im_BradPitt.png', 'Im_JustinTimberlake.png'],diff,1,0.41680559999986144,37,64.28571428571429,
JENA1012,train,pos,30,pos30_id6_im18.bmp_pos30_id6_im12.bmp,['Im_RyanGosling.png', 'Im_RobertDowneyJr.png', 'Im_GeorgeClooney.png', 'Im_LeonardoDiCaprio.png', 'Im_ElijahWood.png', 'Im_DanielRadcliffe.png', 'Im_RobertPattinson.png', 'Im_DanielCraig.png', 'Im_BradPitt.png', 'Im_JustinTimberlake.png'],same,1,0.42482660000132455,1,88.0952380952381,
JENA1012,train,pos,90,pos90_id5_im20.bmp_pos90_id5_im10.bmp,['Im_RyanGosling.png', 'Im_RobertDowneyJr.png', 'Im_GeorgeClooney.png', 'Im_LeonardoDiCaprio.png', 'Im_ElijahWood.png', 'Im_DanielRadcliffe.png', 'Im_RobertPattinson.png', 'Im_DanielCraig.png', 'Im_BradPitt.png', 'Im_JustinTimberlake.png'],same,1,0.42509980000068026,2,88.0952380952381,
JENA1012,train,pos,0,pos0_id20_im30.bmp_pos0_id20_im3.bmp,['Im_RyanGosling.png', 'Im_RobertDowneyJr.png', 'Im_GeorgeClooney.png', 'Im_LeonardoDiCaprio.png', 'Im_ElijahWood.png', 'Im_DanielRadcliffe.png', 'Im_RobertPattinson.png', 'Im_DanielCraig.png', 'Im_BradPitt.png', 'Im_JustinTimberlake.png'],same,1,0.42509979999886127,3,88.0952380952381,
JENA1012,train,pos,60,pos60_id6_im18.bmp_pos60_id6_im19.bmp,['Im_RyanGosling.png', 'Im_RobertDowneyJr.png', 'Im_GeorgeClooney.png', 'Im_LeonardoDiCaprio.png', 'Im_ElijahWood.png', 'Im_DanielRadcliffe.png', 'Im_RobertPattinson.png', 'Im_DanielCraig.png', 'Im_BradPitt.png', 'Im_JustinTimberlake.png'],same,1,1.625155999998242,4,88.0952380952381,
JENA1012,train,pos,30,pos30_id3_im6.bmp_pos30_id6_im19.bmp,['Im_RyanGosling.png', 'Im_RobertDowneyJr.png', 'Im_GeorgeClooney.png', 'Im_LeonardoDiCaprio.png', 'Im_ElijahWood.png', 'Im_DanielRadcliffe.png', 'Im_RobertPattinson.png', 'Im_DanielCraig.png', 'Im_BradPitt.png', 'Im_JustinTimberlake.png'],diff,1,0.40832850000151666,5,88.0952380952381,
JENA1012,train,pos,150,pos150_id13_im29.bmp_pos150_id13_im15.bmp,['Im_RyanGosling.png', 'Im_RobertDowneyJr.png', 'Im_GeorgeClooney.png', 'Im_LeonardoDiCaprio.png', 'Im_ElijahWood.png', 'Im_DanielRadcliffe.png', 'Im_RobertPattinson.png', 'Im_DanielCraig.png', 'Im_BradPitt.png', 'Im_JustinTimberlake.png'],diff,0,0.40838480000093114,5,88.0952380952381,
JENA1012,train,pos,fs,posfs_id3_im6.bmp_posfs_id3_im8.bmp,['Im_RyanGosling.png', 'Im_RobertDowneyJr.png', 'Im_GeorgeClooney.png', 'Im_LeonardoDiCaprio.png', 'Im_ElijahWood.png', 'Im_DanielRadcliffe.png', 'Im_RobertPattinson.png', 'Im_DanielCraig.png', 'Im_BradPitt.png', 'Im_JustinTimberlake.png'],same,1,0.4250320000010106,6,88.0952380952381,
JENA1012,train,pos,60,pos60_id20_im3.bmp_pos60_id20_im12.bmp,['Im_RyanGosling.png', 'Im_RobertDowneyJr.png', 'Im_GeorgeClooney.png', 'Im_LeonardoDiCaprio.png', 'Im_ElijahWood.png', 'Im_DanielRadcliffe.png', 'Im_RobertPattinson.png', 'Im_DanielCraig.png', 'Im_BradPitt.png', 'Im_JustinTimberlake.png'],same,1,0.4167651999996451,7,88.0952380952381,
JENA1012,train,pos,120,pos120_id3_im6.bmp_pos120_id6_im18.bmp,['Im_RyanGosling.png', 'Im_RobertDowneyJr.png', 'Im_GeorgeClooney.png', 'Im_LeonardoDiCaprio.png', 'Im_ElijahWood.png', 'Im_DanielRadcliffe.png', 'Im_RobertPattinson.png', 'Im_DanielCraig.png', 'Im_BradPitt.png', 'Im_JustinTimberlake.png'],diff,1,0.4084266000008938,8,88.0952380952381,
JENA1012,train,pos,fs,posfs_id13_im29.bmp_posfs_id4_im15.bmp,['Im_RyanGosling.png', 'Im_RobertDowneyJr.png', 'Im_GeorgeClooney.png', 'Im_LeonardoDiCaprio.png', 'Im_ElijahWood.png', 'Im_DanielRadcliffe.png', 'Im_RobertPattinson.png', 'Im_DanielCraig.png', 'Im_BradPitt.png', 'Im_JustinTimberlake.png'],diff,1,0.4249491999999009,9,88.0952380952381,
JENA1012,train,pos,90,pos90_id18_im11.bmp_pos90_id6_im19.bmp,['Im_RyanGosling.png', 'Im_RobertDowneyJr.png', 'Im_GeorgeClooney.png', 'Im_LeonardoDiCaprio.png', 'Im_ElijahWood.png', 'Im_DanielRadcliffe.png', 'Im_RobertPattinson.png', 'Im_DanielCraig.png', 'Im_BradPitt.png', 'Im_JustinTimberlake.png'],diff,1,0.40832399999999325,10,88.0952380952381,
JENA1012,train,pos,150,pos150_id13_im10.bmp_pos150_id18_im18.bmp,['Im_RyanGosling.png', 'Im_RobertDowneyJr.png', 'Im_GeorgeClooney.png', 'Im_LeonardoDiCaprio.png', 'Im_ElijahWood.png', 'Im_DanielRadcliffe.png', 'Im_RobertPattinson.png', 'Im_DanielCraig.png', 'Im_BradPitt.png', 'Im_JustinTimberlake.png'],diff,1,2.350230600000941,11,88.0952380952381,
JENA1012,train,pos,120,pos120_id18_im18.bmp_pos120_id18_im19.bmp,['Im_RyanGosling.png', 'Im_RobertDowneyJr.png', 'Im_GeorgeClooney.png', 'Im_LeonardoDiCaprio.png', 'Im_ElijahWood.png', 'Im_DanielRadcliffe.png', 'Im_RobertPattinson.png', 'Im_DanielCraig.png', 'Im_BradPitt.png', 'Im_JustinTimberlake.png'],same,1,0.5084167999993952,12,88.0952380952381,
JENA1012,train,pos,0,pos0_id4_im20.bmp_pos0_id10_im17.bmp,['Im_RyanGosling.png', 'Im_RobertDowneyJr.png', 'Im_GeorgeClooney.png', 'Im_LeonardoDiCaprio.png', 'Im_ElijahWood.png', 'Im_DanielRadcliffe.png', 'Im_RobertPattinson.png', 'Im_DanielCraig.png', 'Im_BradPitt.png', 'Im_JustinTimberlake.png'],diff,1,0.5249822000005224,13,88.0952380952381,
JENA1012,train,pos,0,pos0_id10_im1.bmp_pos0_id10_im18.bmp,['Im_RyanGosling.png', 'Im_RobertDowneyJr.png', 'Im_GeorgeClooney.png', 'Im_LeonardoDiCaprio.png', 'Im_ElijahWood.png', 'Im_DanielRadcliffe.png', 'Im_RobertPattinson.png', 'Im_DanielCraig.png', 'Im_BradPitt.png', 'Im_JustinTimberlake.png'],same,1,0.4167712999987998,14,88.0952380952381,
JENA1012,train,pos,90,pos90_id18_im19.bmp_pos90_id20_im30.bmp,['Im_RyanGosling.png', 'Im_RobertDowneyJr.png', 'Im_GeorgeClooney.png', 'Im_LeonardoDiCaprio.png', 'Im_ElijahWood.png', 'Im_DanielRadcliffe.png', 'Im_RobertPattinson.png', 'Im_DanielCraig.png', 'Im_BradPitt.png', 'Im_JustinTimberlake.png'],diff,1,0.41695029999937105,15,88.0952380952381,
JENA1012,train,pos,150,pos150_id5_im20.bmp_pos150_id5_im10.bmp,['Im_RyanGosling.png', 'Im_RobertDowneyJr.png', 'Im_GeorgeClooney.png', 'Im_LeonardoDiCaprio.png', 'Im_ElijahWood.png', 'Im_DanielRadcliffe.png', 'Im_RobertPattinson.png', 'Im_DanielCraig.png', 'Im_BradPitt.png', 'Im_JustinTimberlake.png'],same,1,0.4249473999989277,16,88.0952380952381,
JENA1012,train,pos,150,pos150_id19_im4.bmp_pos150_id19_im8.bmp,['Im_RyanGosling.png', 'Im_RobertDowneyJr.png', 'Im_GeorgeClooney.png', 'Im_LeonardoDiCaprio.png', 'Im_ElijahWood.png', 'Im_DanielRadcliffe.png', 'Im_RobertPattinson.png', 'Im_DanielCraig.png', 'Im_BradPitt.png', 'Im_JustinTimberlake.png'],same,1,0.43342110000048706,17,88.0952380952381,
JENA1012,train,pos,fs,posfs_id5_im1.bmp_posfs_id5_im20.bmp,['Im_RyanGosling.png', 'Im_RobertDowneyJr.png', 'Im_GeorgeClooney.png', 'Im_LeonardoDiCaprio.png', 'Im_ElijahWood.png', 'Im_DanielRadcliffe.png', 'Im_RobertPattinson.png', 'Im_DanielCraig.png', 'Im_BradPitt.png', 'Im_JustinTimberlake.png'],same,1,0.4245549999996001,18,88.0952380952381,
JENA1012,train,pos,fs,posfs_id10_im1.bmp_posfs_id4_im15.bmp,['Im_RyanGosling.png', 'Im_RobertDowneyJr.png', 'Im_GeorgeClooney.png', 'Im_LeonardoDiCaprio.png', 'Im_ElijahWood.png', 'Im_DanielRadcliffe.png', 'Im_RobertPattinson.png', 'Im_DanielCraig.png', 'Im_BradPitt.png', 'Im_JustinTimberlake.png'],diff,1,0.40804019999995944,19,88.0952380952381,
JENA1012,train,pos,30,pos30_id19_im4.bmp_pos30_id19_im8.bmp,['Im_RyanGosling.png', 'Im_RobertDowneyJr.png', 'Im_GeorgeClooney.png', 'Im_LeonardoDiCaprio.png', 'Im_ElijahWood.png', 'Im_DanielRadcliffe.png', 'Im_RobertPattinson.png', 'Im_DanielCraig.png', 'Im_BradPitt.png', 'Im_JustinTimberlake.png'],same,1,0.42506020000109856,20,88.0952380952381,
JENA1012,train,pos,120,pos120_id20_im30.bmp_pos120_id20_im3.bmp,['Im_RyanGosling.png', 'Im_RobertDowneyJr.png', 'Im_GeorgeClooney.png', 'Im_LeonardoDiCaprio.png', 'Im_ElijahWood.png', 'Im_DanielRadcliffe.png', 'Im_RobertPattinson.png', 'Im_DanielCraig.png', 'Im_BradPitt.png', 'Im_JustinTimberlake.png'],same,1,0.4164418000000296,21,88.0952380952381,
JENA1012,train,pos,60,pos60_id3_im8.bmp_pos60_id5_im10.bmp,['Im_RyanGosling.png', 'Im_RobertDowneyJr.png', 'Im_GeorgeClooney.png', 'Im_LeonardoDiCaprio.png', 'Im_ElijahWood.png', 'Im_DanielRadcliffe.png', 'Im_RobertPattinson.png', 'Im_DanielCraig.png', 'Im_BradPitt.png', 'Im_JustinTimberlake.png'],diff,1,0.42475569999987783,22,88.0952380952381,
JENA1012,train,pos,0,pos0_id10_im1.bmp_pos0_id4_im15.bmp,['Im_RyanGosling.png', 'Im_RobertDowneyJr.png', 'Im_GeorgeClooney.png', 'Im_LeonardoDiCaprio.png', 'Im_ElijahWood.png', 'Im_DanielRadcliffe.png', 'Im_RobertPattinson.png', 'Im_DanielCraig.png', 'Im_BradPitt.png', 'Im_JustinTimberlake.png'],same,0,0.8000463000007585,22,88.0952380952381,
JENA1012,train,pos,30,pos30_id18_im19.bmp_pos30_id18_im18.bmp,['Im_RyanGosling.png', 'Im_RobertDowneyJr.png', 'Im_GeorgeClooney.png', 'Im_LeonardoDiCaprio.png', 'Im_ElijahWood.png', 'Im_DanielRadcliffe.png', 'Im_RobertPattinson.png', 'Im_DanielCraig.png', 'Im_BradPitt.png', 'Im_JustinTimberlake.png'],same,1,0.4250166000001627,23,88.0952380952381,
JENA1012,train,pos,90,pos90_id5_im20.bmp_pos90_id19_im4.bmp,['Im_RyanGosling.png', 'Im_RobertDowneyJr.png', 'Im_GeorgeClooney.png', 'Im_LeonardoDiCaprio.png', 'Im_ElijahWood.png', 'Im_DanielRadcliffe.png', 'Im_RobertPattinson.png', 'Im_DanielCraig.png', 'Im_BradPitt.png', 'Im_JustinTimberlake.png'],diff,1,0.40837160000046424,24,88.0952380952381,
JENA1012,train,pos,60,pos60_id3_im17.bmp_pos60_id3_im6.bmp,['Im_RyanGosling.png', 'Im_RobertDowneyJr.png', 'Im_GeorgeClooney.png', 'Im_LeonardoDiCaprio.png', 'Im_ElijahWood.png', 'Im_DanielRadcliffe.png', 'Im_RobertPattinson.png', 'Im_DanielCraig.png', 'Im_BradPitt.png', 'Im_JustinTimberlake.png'],same,1,0.4083958999999595,25,88.0952380952381,
JENA1012,train,pos,120,pos120_id10_im1.bmp_pos120_id6_im12.bmp,['Im_RyanGosling.png', 'Im_RobertDowneyJr.png', 'Im_GeorgeClooney.png', 'Im_LeonardoDiCaprio.png', 'Im_ElijahWood.png', 'Im_DanielRadcliffe.png', 'Im_RobertPattinson.png', 'Im_DanielCraig.png', 'Im_BradPitt.png', 'Im_JustinTimberlake.png'],diff,1,0.4084361000004719,26,88.0952380952381,
JENA1012,train,inv,120,pos120_id18_im18.bmp_pos120_id18_im19.bmp,['Im_RyanGosling.png', 'Im_RobertDowneyJr.png', 'Im_GeorgeClooney.png', 'Im_LeonardoDiCaprio.png', 'Im_ElijahWood.png', 'Im_DanielRadcliffe.png', 'Im_RobertPattinson.png', 'Im_DanielCraig.png', 'Im_BradPitt.png', 'Im_JustinTimberlake.png'],diff,0,0.6333534000004875,26,88.0952380952381,
JENA1012,train,inv,fs,posfs_id3_im8.bmp_posfs_id10_im18.bmp,['Im_RyanGosling.png', 'Im_RobertDowneyJr.png', 'Im_GeorgeClooney.png', 'Im_LeonardoDiCaprio.png', 'Im_ElijahWood.png', 'Im_DanielRadcliffe.png', 'Im_RobertPattinson.png', 'Im_DanielCraig.png', 'Im_BradPitt.png', 'Im_JustinTimberlake.png'],diff,1,0.42504639999970095,27,88.0952380952381,
JENA1012,train,inv,90,pos90_id4_im7.bmp_pos90_id4_im15.bmp,['Im_RyanGosling.png', 'Im_RobertDowneyJr.png', 'Im_GeorgeClooney.png', 'Im_LeonardoDiCaprio.png', 'Im_ElijahWood.png', 'Im_DanielRadcliffe.png', 'Im_RobertPattinson.png', 'Im_DanielCraig.png', 'Im_BradPitt.png', 'Im_JustinTimberlake.png'],same,1,0.42477140000119107,28,88.0952380952381,
JENA1012,train,inv,0,pos0_id5_im1.bmp_pos0_id5_im10.bmp,['Im_RyanGosling.png', 'Im_RobertDowneyJr.png', 'Im_GeorgeClooney.png', 'Im_LeonardoDiCaprio.png', 'Im_ElijahWood.png', 'Im_DanielRadcliffe.png', 'Im_RobertPattinson.png', 'Im_DanielCraig.png', 'Im_BradPitt.png', 'Im_JustinTimberlake.png'],same,1,0.40843390000009094,29,88.0952380952381,
JENA1012,train,inv,150,pos150_id6_im12.bmp_pos150_id10_im1.bmp,['Im_RyanGosling.png', 'Im_RobertDowneyJr.png', 'Im_GeorgeClooney.png', 'Im_LeonardoDiCaprio.png', 'Im_ElijahWood.png', 'Im_DanielRadcliffe.png', 'Im_RobertPattinson.png', 'Im_DanielCraig.png', 'Im_BradPitt.png', 'Im_JustinTimberlake.png'],diff,1,0.4248942000012903,30,88.0952380952381,
JENA1012,train,inv,150,pos150_id7_im15.bmp_pos150_id7_im14.bmp,['Im_RyanGosling.png', 'Im_RobertDowneyJr.png', 'Im_GeorgeClooney.png', 'Im_LeonardoDiCaprio.png', 'Im_ElijahWood.png', 'Im_DanielRadcliffe.png', 'Im_RobertPattinson.png', 'Im_DanielCraig.png', 'Im_BradPitt.png', 'Im_JustinTimberlake.png'],same,1,0.4412742000004073,31,88.0952380952381,
JENA1012,train,inv,0,pos0_id18_im19.bmp_pos0_id18_im11.bmp,['Im_RyanGosling.png', 'Im_RobertDowneyJr.png', 'Im_GeorgeClooney.png', 'Im_LeonardoDiCaprio.png', 'Im_ElijahWood.png', 'Im_DanielRadcliffe.png', 'Im_RobertPattinson.png', 'Im_DanielCraig.png', 'Im_BradPitt.png', 'Im_JustinTimberlake.png'],same,1,0.8080990000016754,32,88.0952380952381,
JENA1012,train,inv,60,pos60_id4_im20.bmp_pos60_id19_im8.bmp,['Im_RyanGosling.png', 'Im_RobertDowneyJr.png', 'Im_GeorgeClooney.png', 'Im_LeonardoDiCaprio.png', 'Im_ElijahWood.png', 'Im_DanielRadcliffe.png', 'Im_RobertPattinson.png', 'Im_DanielCraig.png', 'Im_BradPitt.png', 'Im_JustinTimberlake.png'],diff,1,0.4165978000000905,33,88.0952380952381,
JENA1012,train,inv,30,pos30_id13_im29.bmp_pos30_id10_im18.bmp,['Im_RyanGosling.png', 'Im_RobertDowneyJr.png', 'Im_GeorgeClooney.png', 'Im_LeonardoDiCaprio.png', 'Im_ElijahWood.png', 'Im_DanielRadcliffe.png', 'Im_RobertPattinson.png', 'Im_DanielCraig.png', 'Im_BradPitt.png', 'Im_JustinTimberlake.png'],diff,1,0.8416925999990781,34,88.0952380952381,
JENA1012,train,inv,120,pos120_id13_im10.bmp_pos120_id20_im30.bmp,['Im_RyanGosling.png', 'Im_RobertDowneyJr.png', 'Im_GeorgeClooney.png', 'Im_LeonardoDiCaprio.png', 'Im_ElijahWood.png', 'Im_DanielRadcliffe.png', 'Im_RobertPattinson.png', 'Im_DanielCraig.png', 'Im_BradPitt.png', 'Im_JustinTimberlake.png'],diff,1,0.6084045999996306,35,88.0952380952381,
JENA1012,train,inv,90,pos90_id19_im4.bmp_pos90_id10_im17.bmp,['Im_RyanGosling.png', 'Im_RobertDowneyJr.png', 'Im_GeorgeClooney.png', 'Im_LeonardoDiCaprio.png', 'Im_ElijahWood.png', 'Im_DanielRadcliffe.png', 'Im_RobertPattinson.png', 'Im_DanielCraig.png', 'Im_BradPitt.png', 'Im_JustinTimberlake.png'],diff,1,0.4251602999993338,36,88.0952380952381,
JENA1012,train,inv,fs,posfs_id13_im15.bmp_posfs_id20_im12.bmp,['Im_RyanGosling.png', 'Im_RobertDowneyJr.png', 'Im_GeorgeClooney.png', 'Im_LeonardoDiCaprio.png', 'Im_ElijahWood.png', 'Im_DanielRadcliffe.png', 'Im_RobertPattinson.png', 'Im_DanielCraig.png', 'Im_BradPitt.png', 'Im_JustinTimberlake.png'],diff,1,0.42507130000012694,37,88.0952380952381,
JENA1012,train,inv,30,pos30_id13_im10.bmp_pos30_id20_im30.bmp,['Im_RyanGosling.png', 'Im_RobertDowneyJr.png', 'Im_GeorgeClooney.png', 'Im_LeonardoDiCaprio.png', 'Im_ElijahWood.png', 'Im_DanielRadcliffe.png', 'Im_RobertPattinson.png', 'Im_DanielCraig.png', 'Im_BradPitt.png', 'Im_JustinTimberlake.png'],diff,1,2.5416395000011107,38,88.0952380952381,
JENA1012,train,inv,60,pos60_id13_im10.bmp_pos60_id20_im30.bmp,['Im_RyanGosling.png', 'Im_RobertDowneyJr.png', 'Im_GeorgeClooney.png', 'Im_LeonardoDiCaprio.png', 'Im_ElijahWood.png', 'Im_DanielRadcliffe.png', 'Im_RobertPattinson.png', 'Im_DanielCraig.png', 'Im_BradPitt.png', 'Im_JustinTimberlake.png'],diff,1,0.42500749999999243,39,88.0952380952381,
JENA1012,0,neg,30,neg30_id6_im19.bmp_neg30_id3_im6.bmp,['Im_RyanGosling.png', 'Im_RobertDowneyJr.png', 'Im_GeorgeClooney.png', 'Im_LeonardoDiCaprio.png', 'Im_ElijahWood.png', 'Im_DanielRadcliffe.png', 'Im_RobertPattinson.png', 'Im_DanielCraig.png', 'Im_BradPitt.png', 'Im_JustinTimberlake.png'],diff,1,0.5417498999995587,1,0,
JENA1012,0,neg,120,neg120_id3_im8.bmp_neg120_id3_im17.bmp,['Im_RyanGosling.png', 'Im_RobertDowneyJr.png', 'Im_GeorgeClooney.png', 'Im_LeonardoDiCaprio.png', 'Im_ElijahWood.png', 'Im_DanielRadcliffe.png', 'Im_RobertPattinson.png', 'Im_DanielCraig.png', 'Im_BradPitt.png', 'Im_JustinTimberlake.png'],diff,0,0.40847539999958826,1,0,
JENA1012,0,neg,150,neg150_id3_im17.bmp_neg150_id3_im8.bmp,['Im_RyanGosling.png', 'Im_RobertDowneyJr.png', 'Im_GeorgeClooney.png', 'Im_LeonardoDiCaprio.png', 'Im_ElijahWood.png', 'Im_DanielRadcliffe.png', 'Im_RobertPattinson.png', 'Im_DanielCraig.png', 'Im_BradPitt.png', 'Im_JustinTimberlake.png'],same,1,1.475279899999805,2,0,
JENA1012,0,neg,150,neg150_id3_im8.bmp_neg150_id10_im18.bmp,['Im_RyanGosling.png', 'Im_RobertDowneyJr.png', 'Im_GeorgeClooney.png', 'Im_LeonardoDiCaprio.png', 'Im_ElijahWood.png', 'Im_DanielRadcliffe.png', 'Im_RobertPattinson.png', 'Im_DanielCraig.png', 'Im_BradPitt.png', 'Im_JustinTimberlake.png'],diff,1,1.6833669000006921,3,0,
JENA1012,0,neg,60,neg60_id7_im26.bmp_neg60_id7_im14.bmp,['Im_RyanGosling.png', 'Im_RobertDowneyJr.png', 'Im_GeorgeClooney.png', 'Im_LeonardoDiCaprio.png', 'Im_ElijahWood.png', 'Im_DanielRadcliffe.png', 'Im_RobertPattinson.png', 'Im_DanielCraig.png', 'Im_BradPitt.png', 'Im_JustinTimberlake.png'],same,1,0.5252786999990349,4,0,
JENA1012,0,neg,30,neg30_id4_im7.bmp_neg30_id7_im26.bmp,['Im_RyanGosling.png', 'Im_RobertDowneyJr.png', 'Im_GeorgeClooney.png', 'Im_LeonardoDiCaprio.png', 'Im_ElijahWood.png', 'Im_DanielRadcliffe.png', 'Im_RobertPattinson.png', 'Im_DanielCraig.png', 'Im_BradPitt.png', 'Im_JustinTimberlake.png'],diff,1,2.3750509999990754,5,0,
JENA1012,0,neg,0,neg0_id19_im27.bmp_neg0_id19_im8.bmp,['Im_RyanGosling.png', 'Im_RobertDowneyJr.png', 'Im_GeorgeClooney.png', 'Im_LeonardoDiCaprio.png', 'Im_ElijahWood.png', 'Im_DanielRadcliffe.png', 'Im_RobertPattinson.png', 'Im_DanielCraig.png', 'Im_BradPitt.png', 'Im_JustinTimberlake.png'],same,1,0.6248391999997693,6,0,
JENA1012,0,neg,90,neg90_id4_im7.bmp_neg90_id4_im15.bmp,['Im_RyanGosling.png', 'Im_RobertDowneyJr.png', 'Im_GeorgeClooney.png', 'Im_LeonardoDiCaprio.png', 'Im_ElijahWood.png', 'Im_DanielRadcliffe.png', 'Im_RobertPattinson.png', 'Im_DanielCraig.png', 'Im_BradPitt.png', 'Im_JustinTimberlake.png'],same,1,0.791558900000382,7,0,
JENA1012,0,neg,fs,negfs_id18_im19.bmp_negfs_id18_im18.bmp,['Im_RyanGosling.png', 'Im_RobertDowneyJr.png', 'Im_GeorgeClooney.png', 'Im_LeonardoDiCaprio.png', 'Im_ElijahWood.png', 'Im_DanielRadcliffe.png', 'Im_RobertPattinson.png', 'Im_DanielCraig.png', 'Im_BradPitt.png', 'Im_JustinTimberlake.png'],same,1,0.4335836999998719,8,0,
JENA1012,0,neg,0,neg0_id10_im17.bmp_neg0_id10_im1.bmp,['Im_RyanGosling.png', 'Im_RobertDowneyJr.png', 'Im_GeorgeClooney.png', 'Im_LeonardoDiCaprio.png', 'Im_ElijahWood.png', 'Im_DanielRadcliffe.png', 'Im_RobertPattinson.png', 'Im_DanielCraig.png', 'Im_BradPitt.png', 'Im_JustinTimberlake.png'],same,1,0.4250676999999996,9,0,
JENA1012,0,neg,fs,negfs_id13_im15.bmp_negfs_id13_im29.bmp,['Im_RyanGosling.png', 'Im_RobertDowneyJr.png', 'Im_GeorgeClooney.png', 'Im_LeonardoDiCaprio.png', 'Im_ElijahWood.png', 'Im_DanielRadcliffe.png', 'Im_RobertPattinson.png', 'Im_DanielCraig.png', 'Im_BradPitt.png', 'Im_JustinTimberlake.png'],same,1,0.5837735999994038,10,0,
JENA1012,0,neg,60,neg60_id20_im3.bmp_neg60_id20_im30.bmp,['Im_RyanGosling.png', 'Im_RobertDowneyJr.png', 'Im_GeorgeClooney.png', 'Im_LeonardoDiCaprio.png', 'Im_ElijahWood.png', 'Im_DanielRadcliffe.png', 'Im_RobertPattinson.png', 'Im_DanielCraig.png', 'Im_BradPitt.png', 'Im_JustinTimberlake.png'],same,1,0.4334307999997691,11,0,
JENA1012,0,neg,120,neg120_id3_im6.bmp_neg120_id3_im17.bmp,['Im_RyanGosling.png', 'Im_RobertDowneyJr.png', 'Im_GeorgeClooney.png', 'Im_LeonardoDiCaprio.png', 'Im_ElijahWood.png', 'Im_DanielRadcliffe.png', 'Im_RobertPattinson.png', 'Im_DanielCraig.png', 'Im_BradPitt.png', 'Im_JustinTimberlake.png'],same,1,0.46718259999943257,12,0,
JENA1012,0,neg,90,neg90_id3_im17.bmp_neg90_id18_im11.bmp,['Im_RyanGosling.png', 'Im_RobertDowneyJr.png', 'Im_GeorgeClooney.png', 'Im_LeonardoDiCaprio.png', 'Im_ElijahWood.png', 'Im_DanielRadcliffe.png', 'Im_RobertPattinson.png', 'Im_DanielCraig.png', 'Im_BradPitt.png', 'Im_JustinTimberlake.png'],diff,1,0.4169598999997106,13,0,
JENA1012,1,neg,30,neg30_id6_im18.bmp_neg30_id6_im12.bmp,['Im_RyanGosling.png', 'Im_RobertDowneyJr.png', 'Im_GeorgeClooney.png', 'Im_LeonardoDiCaprio.png', 'Im_ElijahWood.png', 'Im_DanielRadcliffe.png', 'Im_RobertPattinson.png', 'Im_DanielCraig.png', 'Im_BradPitt.png', 'Im_JustinTimberlake.png'],same,1,0.7167898999996396,14,0,
JENA1012,1,neg,fs,negfs_id18_im19.bmp_negfs_id18_im11.bmp,['Im_RyanGosling.png', 'Im_RobertDowneyJr.png', 'Im_GeorgeClooney.png', 'Im_LeonardoDiCaprio.png', 'Im_ElijahWood.png', 'Im_DanielRadcliffe.png', 'Im_RobertPattinson.png', 'Im_DanielCraig.png', 'Im_BradPitt.png', 'Im_JustinTimberlake.png'],same,1,0.5669828999998572,15,0,
JENA1012,1,neg,150,neg150_id7_im14.bmp_neg150_id7_im15.bmp,['Im_RyanGosling.png', 'Im_RobertDowneyJr.png', 'Im_GeorgeClooney.png', 'Im_LeonardoDiCaprio.png', 'Im_ElijahWood.png', 'Im_DanielRadcliffe.png', 'Im_RobertPattinson.png', 'Im_DanielCraig.png', 'Im_BradPitt.png', 'Im_JustinTimberlake.png'],same,1,0.4167336999998952,16,0,
JENA1012,1,neg,90,neg90_id6_im18.bmp_neg90_id3_im6.bmp,['Im_RyanGosling.png', 'Im_RobertDowneyJr.png', 'Im_GeorgeClooney.png', 'Im_LeonardoDiCaprio.png', 'Im_ElijahWood.png', 'Im_DanielRadcliffe.png', 'Im_RobertPattinson.png', 'Im_DanielCraig.png', 'Im_BradPitt.png', 'Im_JustinTimberlake.png'],diff,1,0.4250709999996616,17,0,
JENA1012,1,neg,0,neg0_id3_im17.bmp_neg0_id3_im8.bmp,['Im_RyanGosling.png', 'Im_RobertDowneyJr.png', 'Im_GeorgeClooney.png', 'Im_LeonardoDiCaprio.png', 'Im_ElijahWood.png', 'Im_DanielRadcliffe.png', 'Im_RobertPattinson.png', 'Im_DanielCraig.png', 'Im_BradPitt.png', 'Im_JustinTimberlake.png'],same,1,0.6667660999992222,18,0,
JENA1012,1,neg,120,neg120_id7_im26.bmp_neg120_id4_im7.bmp,['Im_RyanGosling.png', 'Im_RobertDowneyJr.png', 'Im_GeorgeClooney.png', 'Im_LeonardoDiCaprio.png', 'Im_ElijahWood.png', 'Im_DanielRadcliffe.png', 'Im_RobertPattinson.png', 'Im_DanielCraig.png', 'Im_BradPitt.png', 'Im_JustinTimberlake.png'],diff,1,1.1500634999993053,19,0,
JENA1012,1,neg,90,neg90_id13_im10.bmp_neg90_id13_im29.bmp,['Im_RyanGosling.png', 'Im_RobertDowneyJr.png', 'Im_GeorgeClooney.png', 'Im_LeonardoDiCaprio.png', 'Im_ElijahWood.png', 'Im_DanielRadcliffe.png', 'Im_RobertPattinson.png', 'Im_DanielCraig.png', 'Im_BradPitt.png', 'Im_JustinTimberlake.png'],same,1,0.4334575000011682,20,0,
JENA1012,1,neg,0,neg0_id13_im29.bmp_neg0_id10_im18.bmp,['Im_RyanGosling.png', 'Im_RobertDowneyJr.png', 'Im_GeorgeClooney.png', 'Im_LeonardoDiCaprio.png', 'Im_ElijahWood.png', 'Im_DanielRadcliffe.png', 'Im_RobertPattinson.png', 'Im_DanielCraig.png', 'Im_BradPitt.png', 'Im_JustinTimberlake.png'],diff,1,0.4084069000000454,21,0,
JENA1012,1,neg,60,neg60_id7_im14.bmp_neg60_id18_im19.bmp,['Im_RyanGosling.png', 'Im_RobertDowneyJr.png', 'Im_GeorgeClooney.png', 'Im_LeonardoDiCaprio.png', 'Im_ElijahWood.png', 'Im_DanielRadcliffe.png', 'Im_RobertPattinson.png', 'Im_DanielCraig.png', 'Im_BradPitt.png', 'Im_JustinTimberlake.png'],same,0,0.4167075000004843,21,0,
JENA1012,1,neg,120,neg120_id19_im4.bmp_neg120_id5_im20.bmp,['Im_RyanGosling.png', 'Im_RobertDowneyJr.png', 'Im_GeorgeClooney.png', 'Im_LeonardoDiCaprio.png', 'Im_ElijahWood.png', 'Im_DanielRadcliffe.png', 'Im_RobertPattinson.png', 'Im_DanielCraig.png', 'Im_BradPitt.png', 'Im_JustinTimberlake.png'],diff,1,0.6332820000006905,22,0,
JENA1012,1,neg,30,neg30_id5_im20.bmp_neg30_id19_im4.bmp,['Im_RyanGosling.png', 'Im_RobertDowneyJr.png', 'Im_GeorgeClooney.png', 'Im_LeonardoDiCaprio.png', 'Im_ElijahWood.png', 'Im_DanielRadcliffe.png', 'Im_RobertPattinson.png', 'Im_DanielCraig.png', 'Im_BradPitt.png', 'Im_JustinTimberlake.png'],diff,1,0.4251124999991589,23,0,
JENA1012,1,neg,150,neg150_id20_im12.bmp_neg150_id13_im15.bmp,['Im_RyanGosling.png', 'Im_RobertDowneyJr.png', 'Im_GeorgeClooney.png', 'Im_LeonardoDiCaprio.png', 'Im_ElijahWood.png', 'Im_DanielRadcliffe.png', 'Im_RobertPattinson.png', 'Im_DanielCraig.png', 'Im_BradPitt.png', 'Im_JustinTimberlake.png'],diff,1,0.4167770999993081,24,0,
JENA1012,1,neg,60,neg60_id3_im6.bmp_neg60_id6_im18.bmp,['Im_RyanGosling.png', 'Im_RobertDowneyJr.png', 'Im_GeorgeClooney.png', 'Im_LeonardoDiCaprio.png', 'Im_ElijahWood.png', 'Im_DanielRadcliffe.png', 'Im_RobertPattinson.png', 'Im_DanielCraig.png', 'Im_BradPitt.png', 'Im_JustinTimberlake.png'],diff,1,0.5415390999987721,25,0,
JENA1012,1,neg,fs,negfs_id10_im17.bmp_negfs_id4_im20.bmp,['Im_RyanGosling.png', 'Im_RobertDowneyJr.png', 'Im_GeorgeClooney.png', 'Im_LeonardoDiCaprio.png', 'Im_ElijahWood.png', 'Im_DanielRadcliffe.png', 'Im_RobertPattinson.png', 'Im_DanielCraig.png', 'Im_BradPitt.png', 'Im_JustinTimberlake.png'],diff,1,0.4167499000013777,26,0,
JENA1012,2,inv,fs,posfs_id6_im19.bmp_posfs_id6_im12.bmp,['Im_RyanGosling.png', 'Im_RobertDowneyJr.png', 'Im_GeorgeClooney.png', 'Im_LeonardoDiCaprio.png', 'Im_ElijahWood.png', 'Im_DanielRadcliffe.png', 'Im_RobertPattinson.png', 'Im_DanielCraig.png', 'Im_BradPitt.png', 'Im_JustinTimberlake.png'],same,1,0.4169455999999627,27,0,
JENA1012,2,inv,120,pos120_id4_im20.bmp_pos120_id10_im17.bmp,['Im_RyanGosling.png', 'Im_RobertDowneyJr.png', 'Im_GeorgeClooney.png', 'Im_LeonardoDiCaprio.png', 'Im_ElijahWood.png', 'Im_DanielRadcliffe.png', 'Im_RobertPattinson.png', 'Im_DanielCraig.png', 'Im_BradPitt.png', 'Im_JustinTimberlake.png'],diff,1,0.4999991999993654,28,0,
JENA1012,2,inv,90,pos90_id19_im27.bmp_pos90_id13_im15.bmp,['Im_RyanGosling.png', 'Im_RobertDowneyJr.png', 'Im_GeorgeClooney.png', 'Im_LeonardoDiCaprio.png', 'Im_ElijahWood.png', 'Im_DanielRadcliffe.png', 'Im_RobertPattinson.png', 'Im_DanielCraig.png', 'Im_BradPitt.png', 'Im_JustinTimberlake.png'],diff,1,0.4501565999999002,29,0,
JENA1012,2,inv,90,pos90_id19_im4.bmp_pos90_id19_im27.bmp,['Im_RyanGosling.png', 'Im_RobertDowneyJr.png', 'Im_GeorgeClooney.png', 'Im_LeonardoDiCaprio.png', 'Im_ElijahWood.png', 'Im_DanielRadcliffe.png', 'Im_RobertPattinson.png', 'Im_DanielCraig.png', 'Im_BradPitt.png', 'Im_JustinTimberlake.png'],diff,0,0.48340250000001106,29,0,
JENA1012,2,inv,60,pos60_id3_im17.bmp_pos60_id3_im8.bmp,['Im_RyanGosling.png', 'Im_RobertDowneyJr.png', 'Im_GeorgeClooney.png', 'Im_LeonardoDiCaprio.png', 'Im_ElijahWood.png', 'Im_DanielRadcliffe.png', 'Im_RobertPattinson.png', 'Im_DanielCraig.png', 'Im_BradPitt.png', 'Im_JustinTimberlake.png'],same,1,0.42506349999894155,30,0,
JENA1012,2,inv,150,pos150_id10_im18.bmp_pos150_id10_im17.bmp,['Im_RyanGosling.png', 'Im_RobertDowneyJr.png', 'Im_GeorgeClooney.png', 'Im_LeonardoDiCaprio.png', 'Im_ElijahWood.png', 'Im_DanielRadcliffe.png', 'Im_RobertPattinson.png', 'Im_DanielCraig.png', 'Im_BradPitt.png', 'Im_JustinTimberlake.png'],diff,0,0.5500551999994059,30,0,
JENA1012,2,inv,30,pos30_id4_im20.bmp_pos30_id10_im17.bmp,['Im_RyanGosling.png', 'Im_RobertDowneyJr.png', 'Im_GeorgeClooney.png', 'Im_LeonardoDiCaprio.png', 'Im_ElijahWood.png', 'Im_DanielRadcliffe.png', 'Im_RobertPattinson.png', 'Im_DanielCraig.png', 'Im_BradPitt.png', 'Im_JustinTimberlake.png'],same,0,0.5417085000008228,30,0,
JENA1012,2,inv,0,pos0_id13_im15.bmp_pos0_id20_im12.bmp,['Im_RyanGosling.png', 'Im_RobertDowneyJr.png', 'Im_GeorgeClooney.png', 'Im_LeonardoDiCaprio.png', 'Im_ElijahWood.png', 'Im_DanielRadcliffe.png', 'Im_RobertPattinson.png', 'Im_DanielCraig.png', 'Im_BradPitt.png', 'Im_JustinTimberlake.png'],diff,1,0.4167502999989665,31,0,
JENA1012,2,inv,60,pos60_id13_im29.bmp_pos60_id4_im15.bmp,['Im_RyanGosling.png', 'Im_RobertDowneyJr.png', 'Im_GeorgeClooney.png', 'Im_LeonardoDiCaprio.png', 'Im_ElijahWood.png', 'Im_DanielRadcliffe.png', 'Im_RobertPattinson.png', 'Im_DanielCraig.png', 'Im_BradPitt.png', 'Im_JustinTimberlake.png'],diff,1,0.42501520000041637,32,0,
JENA1012,2,inv,150,pos150_id3_im6.bmp_pos150_id6_im19.bmp,['Im_RyanGosling.png', 'Im_RobertDowneyJr.png', 'Im_GeorgeClooney.png', 'Im_LeonardoDiCaprio.png', 'Im_ElijahWood.png', 'Im_DanielRadcliffe.png', 'Im_RobertPattinson.png', 'Im_DanielCraig.png', 'Im_BradPitt.png', 'Im_JustinTimberlake.png'],same,0,0.4167360000010376,32,0,
JENA1012,2,inv,fs,posfs_id7_im14.bmp_posfs_id5_im10.bmp,['Im_RyanGosling.png', 'Im_RobertDowneyJr.png', 'Im_GeorgeClooney.png', 'Im_LeonardoDiCaprio.png', 'Im_ElijahWood.png', 'Im_DanielRadcliffe.png', 'Im_RobertPattinson.png', 'Im_DanielCraig.png', 'Im_BradPitt.png', 'Im_JustinTimberlake.png'],diff,1,0.8583920000000944,33,0,
JENA1012,2,inv,120,pos120_id10_im17.bmp_pos120_id10_im18.bmp,['Im_RyanGosling.png', 'Im_RobertDowneyJr.png', 'Im_GeorgeClooney.png', 'Im_LeonardoDiCaprio.png', 'Im_ElijahWood.png', 'Im_DanielRadcliffe.png', 'Im_RobertPattinson.png', 'Im_DanielCraig.png', 'Im_BradPitt.png', 'Im_JustinTimberlake.png'],diff,0,1.1083391000011034,33,0,
JENA1012,2,inv,30,pos30_id6_im19.bmp_pos30_id3_im6.bmp,['Im_RyanGosling.png', 'Im_RobertDowneyJr.png', 'Im_GeorgeClooney.png', 'Im_LeonardoDiCaprio.png', 'Im_ElijahWood.png', 'Im_DanielRadcliffe.png', 'Im_RobertPattinson.png', 'Im_DanielCraig.png', 'Im_BradPitt.png', 'Im_JustinTimberlake.png'],diff,1,0.42484589999912714,34,0,
JENA1012,2,inv,0,pos0_id19_im4.bmp_pos0_id10_im17.bmp,['Im_RyanGosling.png', 'Im_RobertDowneyJr.png', 'Im_GeorgeClooney.png', 'Im_LeonardoDiCaprio.png', 'Im_ElijahWood.png', 'Im_DanielRadcliffe.png', 'Im_RobertPattinson.png', 'Im_DanielCraig.png', 'Im_BradPitt.png', 'Im_JustinTimberlake.png'],same,0,1.0666556999985914,34,0,
JENA1012,3,pos,120,pos120_id3_im6.bmp_pos120_id3_im17.bmp,['Im_RyanGosling.png', 'Im_RobertDowneyJr.png', 'Im_GeorgeClooney.png', 'Im_LeonardoDiCaprio.png', 'Im_ElijahWood.png', 'Im_DanielRadcliffe.png', 'Im_RobertPattinson.png', 'Im_DanielCraig.png', 'Im_BradPitt.png', 'Im_JustinTimberlake.png'],same,1,0.42517990000123973,1,80.95238095238095,
JENA1012,3,pos,150,pos150_id13_im10.bmp_pos150_id13_im29.bmp,['Im_RyanGosling.png', 'Im_RobertDowneyJr.png', 'Im_GeorgeClooney.png', 'Im_LeonardoDiCaprio.png', 'Im_ElijahWood.png', 'Im_DanielRadcliffe.png', 'Im_RobertPattinson.png', 'Im_DanielCraig.png', 'Im_BradPitt.png', 'Im_JustinTimberlake.png'],diff,0,0.4167525000011665,1,80.95238095238095,
JENA1012,3,pos,90,pos90_id3_im17.bmp_pos90_id3_im6.bmp,['Im_RyanGosling.png', 'Im_RobertDowneyJr.png', 'Im_GeorgeClooney.png', 'Im_LeonardoDiCaprio.png', 'Im_ElijahWood.png', 'Im_DanielRadcliffe.png', 'Im_RobertPattinson.png', 'Im_DanielCraig.png', 'Im_BradPitt.png', 'Im_JustinTimberlake.png'],same,1,0.41650160000062897,2,80.95238095238095,
JENA1012,3,pos,30,pos30_id7_im26.bmp_pos30_id7_im15.bmp,['Im_RyanGosling.png', 'Im_RobertDowneyJr.png', 'Im_GeorgeClooney.png', 'Im_LeonardoDiCaprio.png', 'Im_ElijahWood.png', 'Im_DanielRadcliffe.png', 'Im_RobertPattinson.png', 'Im_DanielCraig.png', 'Im_BradPitt.png', 'Im_JustinTimberlake.png'],diff,0,0.42509769999924174,2,80.95238095238095,
JENA1012,3,pos,fs,posfs_id6_im12.bmp_posfs_id6_im18.bmp,['Im_RyanGosling.png', 'Im_RobertDowneyJr.png', 'Im_GeorgeClooney.png', 'Im_LeonardoDiCaprio.png', 'Im_ElijahWood.png', 'Im_DanielRadcliffe.png', 'Im_RobertPattinson.png', 'Im_DanielCraig.png', 'Im_BradPitt.png', 'Im_JustinTimberlake.png'],same,1,0.42505569999957515,3,80.95238095238095,
JENA1012,3,pos,60,pos60_id13_im10.bmp_pos60_id13_im29.bmp,['Im_RyanGosling.png', 'Im_RobertDowneyJr.png', 'Im_GeorgeClooney.png', 'Im_LeonardoDiCaprio.png', 'Im_ElijahWood.png', 'Im_DanielRadcliffe.png', 'Im_RobertPattinson.png', 'Im_DanielCraig.png', 'Im_BradPitt.png', 'Im_JustinTimberlake.png'],same,1,0.425004099999569,4,80.95238095238095,
JENA1012,3,pos,0,pos0_id20_im30.bmp_pos0_id13_im10.bmp,['Im_RyanGosling.png', 'Im_RobertDowneyJr.png', 'Im_GeorgeClooney.png', 'Im_LeonardoDiCaprio.png', 'Im_ElijahWood.png', 'Im_DanielRadcliffe.png', 'Im_RobertPattinson.png', 'Im_DanielCraig.png', 'Im_BradPitt.png', 'Im_JustinTimberlake.png'],diff,1,0.4084569000006013,5,80.95238095238095,
JENA1012,3,pos,150,pos150_id20_im30.bmp_pos150_id18_im19.bmp,['Im_RyanGosling.png', 'Im_RobertDowneyJr.png', 'Im_GeorgeClooney.png', 'Im_LeonardoDiCaprio.png', 'Im_ElijahWood.png', 'Im_DanielRadcliffe.png', 'Im_RobertPattinson.png', 'Im_DanielCraig.png', 'Im_BradPitt.png', 'Im_JustinTimberlake.png'],diff,1,0.4166758999999729,6,80.95238095238095,
JENA1012,3,pos,90,pos90_id19_im27.bmp_pos90_id19_im4.bmp,['Im_RyanGosling.png', 'Im_RobertDowneyJr.png', 'Im_GeorgeClooney.png', 'Im_LeonardoDiCaprio.png', 'Im_ElijahWood.png', 'Im_DanielRadcliffe.png', 'Im_RobertPattinson.png', 'Im_DanielCraig.png', 'Im_BradPitt.png', 'Im_JustinTimberlake.png'],same,1,0.6915260999994643,7,80.95238095238095,
JENA1012,3,pos,30,pos30_id6_im12.bmp_pos30_id5_im1.bmp,['Im_RyanGosling.png', 'Im_RobertDowneyJr.png', 'Im_GeorgeClooney.png', 'Im_LeonardoDiCaprio.png', 'Im_ElijahWood.png', 'Im_DanielRadcliffe.png', 'Im_RobertPattinson.png', 'Im_DanielCraig.png', 'Im_BradPitt.png', 'Im_JustinTimberlake.png'],same,0,0.41675500000019383,7,80.95238095238095,
JENA1012,3,pos,120,pos120_id3_im8.bmp_pos120_id3_im6.bmp,['Im_RyanGosling.png', 'Im_RobertDowneyJr.png', 'Im_GeorgeClooney.png', 'Im_LeonardoDiCaprio.png', 'Im_ElijahWood.png', 'Im_DanielRadcliffe.png', 'Im_RobertPattinson.png', 'Im_DanielCraig.png', 'Im_BradPitt.png', 'Im_JustinTimberlake.png'],same,1,0.4167168000003585,8,80.95238095238095,
JENA1012,3,pos,0,pos0_id18_im19.bmp_pos0_id18_im18.bmp,['Im_RyanGosling.png', 'Im_RobertDowneyJr.png', 'Im_GeorgeClooney.png', 'Im_LeonardoDiCaprio.png', 'Im_ElijahWood.png', 'Im_DanielRadcliffe.png', 'Im_RobertPattinson.png', 'Im_DanielCraig.png', 'Im_BradPitt.png', 'Im_JustinTimberlake.png'],same,1,0.41681940000125905,9,80.95238095238095,
JENA1012,3,pos,60,pos60_id20_im30.bmp_pos60_id20_im3.bmp,['Im_RyanGosling.png', 'Im_RobertDowneyJr.png', 'Im_GeorgeClooney.png', 'Im_LeonardoDiCaprio.png', 'Im_ElijahWood.png', 'Im_DanielRadcliffe.png', 'Im_RobertPattinson.png', 'Im_DanielCraig.png', 'Im_BradPitt.png', 'Im_JustinTimberlake.png'],same,1,0.41671109999879263,10,80.95238095238095,
JENA1012,3,pos,fs,posfs_id7_im14.bmp_posfs_id18_im19.bmp,['Im_RyanGosling.png', 'Im_RobertDowneyJr.png', 'Im_GeorgeClooney.png', 'Im_LeonardoDiCaprio.png', 'Im_ElijahWood.png', 'Im_DanielRadcliffe.png', 'Im_RobertPattinson.png', 'Im_DanielCraig.png', 'Im_BradPitt.png', 'Im_JustinTimberlake.png'],diff,1,0.41683309999825724,11,80.95238095238095,
JENA1012,4,inv,0,pos0_id7_im15.bmp_pos0_id20_im3.bmp,['Im_RyanGosling.png', 'Im_RobertDowneyJr.png', 'Im_GeorgeClooney.png', 'Im_LeonardoDiCaprio.png', 'Im_ElijahWood.png', 'Im_DanielRadcliffe.png', 'Im_RobertPattinson.png', 'Im_DanielCraig.png', 'Im_BradPitt.png', 'Im_JustinTimberlake.png'],diff,1,1.0085925000003044,12,80.95238095238095,
JENA1012,4,inv,120,pos120_id10_im18.bmp_pos120_id10_im1.bmp,['Im_RyanGosling.png', 'Im_RobertDowneyJr.png', 'Im_GeorgeClooney.png', 'Im_LeonardoDiCaprio.png', 'Im_ElijahWood.png', 'Im_DanielRadcliffe.png', 'Im_RobertPattinson.png', 'Im_DanielCraig.png', 'Im_BradPitt.png', 'Im_JustinTimberlake.png'],diff,0,3.0267633000003116,12,80.95238095238095,
JENA1012,4,inv,150,pos150_id20_im30.bmp_pos150_id20_im3.bmp,['Im_RyanGosling.png', 'Im_RobertDowneyJr.png', 'Im_GeorgeClooney.png', 'Im_LeonardoDiCaprio.png', 'Im_ElijahWood.png', 'Im_DanielRadcliffe.png', 'Im_RobertPattinson.png', 'Im_DanielCraig.png', 'Im_BradPitt.png', 'Im_JustinTimberlake.png'],same,1,0.4334736000000703,13,80.95238095238095,
JENA1012,4,inv,120,pos120_id13_im15.bmp_pos120_id19_im27.bmp,['Im_RyanGosling.png', 'Im_RobertDowneyJr.png', 'Im_GeorgeClooney.png', 'Im_LeonardoDiCaprio.png', 'Im_ElijahWood.png', 'Im_DanielRadcliffe.png', 'Im_RobertPattinson.png', 'Im_DanielCraig.png', 'Im_BradPitt.png', 'Im_JustinTimberlake.png'],same,0,0.42525510000086797,13,80.95238095238095,
JENA1012,4,inv,fs,posfs_id20_im3.bmp_posfs_id7_im26.bmp,['Im_RyanGosling.png', 'Im_RobertDowneyJr.png', 'Im_GeorgeClooney.png', 'Im_LeonardoDiCaprio.png', 'Im_ElijahWood.png', 'Im_DanielRadcliffe.png', 'Im_RobertPattinson.png', 'Im_DanielCraig.png', 'Im_BradPitt.png', 'Im_JustinTimberlake.png'],none,0,4.408315200000288,13,80.95238095238095,
JENA1012,4,inv,60,pos60_id7_im26.bmp_pos60_id20_im3.bmp,['Im_RyanGosling.png', 'Im_RobertDowneyJr.png', 'Im_GeorgeClooney.png', 'Im_LeonardoDiCaprio.png', 'Im_ElijahWood.png', 'Im_DanielRadcliffe.png', 'Im_RobertPattinson.png', 'Im_DanielCraig.png', 'Im_BradPitt.png', 'Im_JustinTimberlake.png'],diff,1,0.4167271000005712,14,80.95238095238095,
JENA1012,4,inv,150,pos150_id5_im10.bmp_pos150_id5_im20.bmp,['Im_RyanGosling.png', 'Im_RobertDowneyJr.png', 'Im_GeorgeClooney.png', 'Im_LeonardoDiCaprio.png', 'Im_ElijahWood.png', 'Im_DanielRadcliffe.png', 'Im_RobertPattinson.png', 'Im_DanielCraig.png', 'Im_BradPitt.png', 'Im_JustinTimberlake.png'],diff,0,0.4333635000002687,14,80.95238095238095,
JENA1012,4,inv,90,pos90_id5_im20.bmp_pos90_id5_im1.bmp,['Im_RyanGosling.png', 'Im_RobertDowneyJr.png', 'Im_GeorgeClooney.png', 'Im_LeonardoDiCaprio.png', 'Im_ElijahWood.png', 'Im_DanielRadcliffe.png', 'Im_RobertPattinson.png', 'Im_DanielCraig.png', 'Im_BradPitt.png', 'Im_JustinTimberlake.png'],diff,0,0.45028800000000047,14,80.95238095238095,
JENA1012,4,inv,0,pos0_id19_im4.bmp_pos0_id19_im8.bmp,['Im_RyanGosling.png', 'Im_RobertDowneyJr.png', 'Im_GeorgeClooney.png', 'Im_LeonardoDiCaprio.png', 'Im_ElijahWood.png', 'Im_DanielRadcliffe.png', 'Im_RobertPattinson.png', 'Im_DanielCraig.png', 'Im_BradPitt.png', 'Im_JustinTimberlake.png'],same,1,0.42496419999952195,15,80.95238095238095,
JENA1012,4,inv,60,pos60_id10_im18.bmp_pos60_id13_im29.bmp,['Im_RyanGosling.png', 'Im_RobertDowneyJr.png', 'Im_GeorgeClooney.png', 'Im_LeonardoDiCaprio.png', 'Im_ElijahWood.png', 'Im_DanielRadcliffe.png', 'Im_RobertPattinson.png', 'Im_DanielCraig.png', 'Im_BradPitt.png', 'Im_JustinTimberlake.png'],diff,1,0.4669494999998278,16,80.95238095238095,
JENA1012,4,inv,90,pos90_id18_im19.bmp_pos90_id7_im14.bmp,['Im_RyanGosling.png', 'Im_RobertDowneyJr.png', 'Im_GeorgeClooney.png', 'Im_LeonardoDiCaprio.png', 'Im_ElijahWood.png', 'Im_DanielRadcliffe.png', 'Im_RobertPattinson.png', 'Im_DanielCraig.png', 'Im_BradPitt.png', 'Im_JustinTimberlake.png'],diff,1,0.4664523999999801,17,80.95238095238095,
JENA1012,4,inv,30,pos30_id5_im1.bmp_pos30_id20_im12.bmp,['Im_RyanGosling.png', 'Im_RobertDowneyJr.png', 'Im_GeorgeClooney.png', 'Im_LeonardoDiCaprio.png', 'Im_ElijahWood.png', 'Im_DanielRadcliffe.png', 'Im_RobertPattinson.png', 'Im_DanielCraig.png', 'Im_BradPitt.png', 'Im_JustinTimberlake.png'],diff,1,1.7336150999999518,18,80.95238095238095,
JENA1012,4,inv,30,pos30_id3_im17.bmp_pos30_id3_im8.bmp,['Im_RyanGosling.png', 'Im_RobertDowneyJr.png', 'Im_GeorgeClooney.png', 'Im_LeonardoDiCaprio.png', 'Im_ElijahWood.png', 'Im_DanielRadcliffe.png', 'Im_RobertPattinson.png', 'Im_DanielCraig.png', 'Im_BradPitt.png', 'Im_JustinTimberlake.png'],same,1,0.42514529999971273,19,80.95238095238095,
JENA1012,4,inv,fs,posfs_id20_im30.bmp_posfs_id13_im10.bmp,['Im_RyanGosling.png', 'Im_RobertDowneyJr.png', 'Im_GeorgeClooney.png', 'Im_LeonardoDiCaprio.png', 'Im_ElijahWood.png', 'Im_DanielRadcliffe.png', 'Im_RobertPattinson.png', 'Im_DanielCraig.png', 'Im_BradPitt.png', 'Im_JustinTimberlake.png'],diff,1,0.41649320000033185,20,80.95238095238095,
JENA1012,5,pos,fs,posfs_id10_im18.bmp_posfs_id13_im29.bmp,['Im_RyanGosling.png', 'Im_RobertDowneyJr.png', 'Im_GeorgeClooney.png', 'Im_LeonardoDiCaprio.png', 'Im_ElijahWood.png', 'Im_DanielRadcliffe.png', 'Im_RobertPattinson.png', 'Im_DanielCraig.png', 'Im_BradPitt.png', 'Im_JustinTimberlake.png'],diff,1,0.4335768000000826,21,80.95238095238095,
JENA1012,5,pos,fs,posfs_id4_im7.bmp_posfs_id19_im27.bmp,['Im_RyanGosling.png', 'Im_RobertDowneyJr.png', 'Im_GeorgeClooney.png', 'Im_LeonardoDiCaprio.png', 'Im_ElijahWood.png', 'Im_DanielRadcliffe.png', 'Im_RobertPattinson.png', 'Im_DanielCraig.png', 'Im_BradPitt.png', 'Im_JustinTimberlake.png'],diff,1,0.40840320000097563,22,80.95238095238095,
JENA1012,5,pos,120,pos120_id13_im15.bmp_pos120_id19_im27.bmp,['Im_RyanGosling.png', 'Im_RobertDowneyJr.png', 'Im_GeorgeClooney.png', 'Im_LeonardoDiCaprio.png', 'Im_ElijahWood.png', 'Im_DanielRadcliffe.png', 'Im_RobertPattinson.png', 'Im_DanielCraig.png', 'Im_BradPitt.png', 'Im_JustinTimberlake.png'],diff,1,0.4835605999996915,23,80.95238095238095,
JENA1012,5,pos,0,pos0_id6_im12.bmp_pos0_id6_im19.bmp,['Im_RyanGosling.png', 'Im_RobertDowneyJr.png', 'Im_GeorgeClooney.png', 'Im_LeonardoDiCaprio.png', 'Im_ElijahWood.png', 'Im_DanielRadcliffe.png', 'Im_RobertPattinson.png', 'Im_DanielCraig.png', 'Im_BradPitt.png', 'Im_JustinTimberlake.png'],same,1,0.4252080999995087,24,80.95238095238095,
JENA1012,5,pos,60,pos60_id20_im30.bmp_pos60_id18_im19.bmp,['Im_RyanGosling.png', 'Im_RobertDowneyJr.png', 'Im_GeorgeClooney.png', 'Im_LeonardoDiCaprio.png', 'Im_ElijahWood.png', 'Im_DanielRadcliffe.png', 'Im_RobertPattinson.png', 'Im_DanielCraig.png', 'Im_BradPitt.png', 'Im_JustinTimberlake.png'],diff,1,0.416721100000359,25,80.95238095238095,
JENA1012,5,pos,90,pos90_id19_im8.bmp_pos90_id4_im20.bmp,['Im_RyanGosling.png', 'Im_RobertDowneyJr.png', 'Im_GeorgeClooney.png', 'Im_LeonardoDiCaprio.png', 'Im_ElijahWood.png', 'Im_DanielRadcliffe.png', 'Im_RobertPattinson.png', 'Im_DanielCraig.png', 'Im_BradPitt.png', 'Im_JustinTimberlake.png'],diff,1,0.4168881000005058,26,80.95238095238095,
JENA1012,5,pos,120,pos120_id3_im17.bmp_pos120_id3_im8.bmp,['Im_RyanGosling.png', 'Im_RobertDowneyJr.png', 'Im_GeorgeClooney.png', 'Im_LeonardoDiCaprio.png', 'Im_ElijahWood.png', 'Im_DanielRadcliffe.png', 'Im_RobertPattinson.png', 'Im_DanielCraig.png', 'Im_BradPitt.png', 'Im_JustinTimberlake.png'],same,1,0.47506020000037097,27,80.95238095238095,
JENA1012,5,pos,60,pos60_id4_im20.bmp_pos60_id4_im15.bmp,['Im_RyanGosling.png', 'Im_RobertDowneyJr.png', 'Im_GeorgeClooney.png', 'Im_LeonardoDiCaprio.png', 'Im_ElijahWood.png', 'Im_DanielRadcliffe.png', 'Im_RobertPattinson.png', 'Im_DanielCraig.png', 'Im_BradPitt.png', 'Im_JustinTimberlake.png'],same,1,0.4084621000001789,28,80.95238095238095,
JENA1012,5,pos,90,pos90_id4_im20.bmp_pos90_id10_im17.bmp,['Im_RyanGosling.png', 'Im_RobertDowneyJr.png', 'Im_GeorgeClooney.png', 'Im_LeonardoDiCaprio.png', 'Im_ElijahWood.png', 'Im_DanielRadcliffe.png', 'Im_RobertPattinson.png', 'Im_DanielCraig.png', 'Im_BradPitt.png', 'Im_JustinTimberlake.png'],diff,1,0.4083303999996133,29,80.95238095238095,
JENA1012,5,pos,150,pos150_id13_im15.bmp_pos150_id19_im27.bmp,['Im_RyanGosling.png', 'Im_RobertDowneyJr.png', 'Im_GeorgeClooney.png', 'Im_LeonardoDiCaprio.png', 'Im_ElijahWood.png', 'Im_DanielRadcliffe.png', 'Im_RobertPattinson.png', 'Im_DanielCraig.png', 'Im_BradPitt.png', 'Im_JustinTimberlake.png'],diff,1,0.4345368000012968,30,80.95238095238095,
JENA1012,5,pos,30,pos30_id19_im8.bmp_pos30_id4_im20.bmp,['Im_RyanGosling.png', 'Im_RobertDowneyJr.png', 'Im_GeorgeClooney.png', 'Im_LeonardoDiCaprio.png', 'Im_ElijahWood.png', 'Im_DanielRadcliffe.png', 'Im_RobertPattinson.png', 'Im_DanielCraig.png', 'Im_BradPitt.png', 'Im_JustinTimberlake.png'],diff,1,0.40840399999979127,31,80.95238095238095,
JENA1012,5,pos,30,pos30_id19_im27.bmp_pos30_id4_im7.bmp,['Im_RyanGosling.png', 'Im_RobertDowneyJr.png', 'Im_GeorgeClooney.png', 'Im_LeonardoDiCaprio.png', 'Im_ElijahWood.png', 'Im_DanielRadcliffe.png', 'Im_RobertPattinson.png', 'Im_DanielCraig.png', 'Im_BradPitt.png', 'Im_JustinTimberlake.png'],diff,1,0.4167443000005733,32,80.95238095238095,
JENA1012,5,pos,150,pos150_id4_im15.bmp_pos150_id13_im29.bmp,['Im_RyanGosling.png', 'Im_RobertDowneyJr.png', 'Im_GeorgeClooney.png', 'Im_LeonardoDiCaprio.png', 'Im_ElijahWood.png', 'Im_DanielRadcliffe.png', 'Im_RobertPattinson.png', 'Im_DanielCraig.png', 'Im_BradPitt.png', 'Im_JustinTimberlake.png'],diff,1,0.4250935000000027,33,80.95238095238095,
JENA1012,5,pos,0,pos0_id3_im17.bmp_pos0_id18_im11.bmp,['Im_RyanGosling.png', 'Im_RobertDowneyJr.png', 'Im_GeorgeClooney.png', 'Im_LeonardoDiCaprio.png', 'Im_ElijahWood.png', 'Im_DanielRadcliffe.png', 'Im_RobertPattinson.png', 'Im_DanielCraig.png', 'Im_BradPitt.png', 'Im_JustinTimberlake.png'],diff,1,0.41676430000006803,34,80.95238095238095,
JENA1012,6,neg,150,neg150_id6_im18.bmp_neg150_id6_im12.bmp,['Im_RyanGosling.png', 'Im_RobertDowneyJr.png', 'Im_GeorgeClooney.png', 'Im_LeonardoDiCaprio.png', 'Im_ElijahWood.png', 'Im_DanielRadcliffe.png', 'Im_RobertPattinson.png', 'Im_DanielCraig.png', 'Im_BradPitt.png', 'Im_JustinTimberlake.png'],diff,0,0.6169258999998419,0,80.95238095238095,
JENA1012,6,neg,90,neg90_id7_im14.bmp_neg90_id5_im10.bmp,['Im_RyanGosling.png', 'Im_RobertDowneyJr.png', 'Im_GeorgeClooney.png', 'Im_LeonardoDiCaprio.png', 'Im_ElijahWood.png', 'Im_DanielRadcliffe.png', 'Im_RobertPattinson.png', 'Im_DanielCraig.png', 'Im_BradPitt.png', 'Im_JustinTimberlake.png'],diff,1,0.4251863000008598,1,80.95238095238095,
JENA1012,6,neg,120,neg120_id13_im10.bmp_neg120_id13_im15.bmp,['Im_RyanGosling.png', 'Im_RobertDowneyJr.png', 'Im_GeorgeClooney.png', 'Im_LeonardoDiCaprio.png', 'Im_ElijahWood.png', 'Im_DanielRadcliffe.png', 'Im_RobertPattinson.png', 'Im_DanielCraig.png', 'Im_BradPitt.png', 'Im_JustinTimberlake.png'],same,1,0.41659400000025926,2,80.95238095238095,
JENA1012,6,neg,150,neg150_id20_im3.bmp_neg150_id7_im15.bmp,['Im_RyanGosling.png', 'Im_RobertDowneyJr.png', 'Im_GeorgeClooney.png', 'Im_LeonardoDiCaprio.png', 'Im_ElijahWood.png', 'Im_DanielRadcliffe.png', 'Im_RobertPattinson.png', 'Im_DanielCraig.png', 'Im_BradPitt.png', 'Im_JustinTimberlake.png'],diff,1,0.42485710000073595,3,80.95238095238095,
JENA1012,6,neg,120,neg120_id7_im15.bmp_neg120_id20_im3.bmp,['Im_RyanGosling.png', 'Im_RobertDowneyJr.png', 'Im_GeorgeClooney.png', 'Im_LeonardoDiCaprio.png', 'Im_ElijahWood.png', 'Im_DanielRadcliffe.png', 'Im_RobertPattinson.png', 'Im_DanielCraig.png', 'Im_BradPitt.png', 'Im_JustinTimberlake.png'],diff,1,0.6584313000003021,4,80.95238095238095,
JENA1012,6,neg,0,neg0_id18_im18.bmp_neg0_id13_im10.bmp,['Im_RyanGosling.png', 'Im_RobertDowneyJr.png', 'Im_GeorgeClooney.png', 'Im_LeonardoDiCaprio.png', 'Im_ElijahWood.png', 'Im_DanielRadcliffe.png', 'Im_RobertPattinson.png', 'Im_DanielCraig.png', 'Im_BradPitt.png', 'Im_JustinTimberlake.png'],diff,1,0.4167613000008714,5,80.95238095238095,
JENA1012,6,neg,30,neg30_id3_im17.bmp_neg30_id3_im6.bmp,['Im_RyanGosling.png', 'Im_RobertDowneyJr.png', 'Im_GeorgeClooney.png', 'Im_LeonardoDiCaprio.png', 'Im_ElijahWood.png', 'Im_DanielRadcliffe.png', 'Im_RobertPattinson.png', 'Im_DanielCraig.png', 'Im_BradPitt.png', 'Im_JustinTimberlake.png'],same,1,0.41660439999941445,6,80.95238095238095,
JENA1012,6,neg,60,neg60_id10_im17.bmp_neg60_id10_im1.bmp,['Im_RyanGosling.png', 'Im_RobertDowneyJr.png', 'Im_GeorgeClooney.png', 'Im_LeonardoDiCaprio.png', 'Im_ElijahWood.png', 'Im_DanielRadcliffe.png', 'Im_RobertPattinson.png', 'Im_DanielCraig.png', 'Im_BradPitt.png', 'Im_JustinTimberlake.png'],same,1,0.4337515000006533,7,80.95238095238095,
JENA1012,6,neg,30,neg30_id7_im26.bmp_neg30_id7_im14.bmp,['Im_RyanGosling.png', 'Im_RobertDowneyJr.png', 'Im_GeorgeClooney.png', 'Im_LeonardoDiCaprio.png', 'Im_ElijahWood.png', 'Im_DanielRadcliffe.png', 'Im_RobertPattinson.png', 'Im_DanielCraig.png', 'Im_BradPitt.png', 'Im_JustinTimberlake.png'],diff,0,1.6167757999992318,7,80.95238095238095,
JENA1012,6,neg,fs,negfs_id13_im29.bmp_negfs_id4_im15.bmp,['Im_RyanGosling.png', 'Im_RobertDowneyJr.png', 'Im_GeorgeClooney.png', 'Im_LeonardoDiCaprio.png', 'Im_ElijahWood.png', 'Im_DanielRadcliffe.png', 'Im_RobertPattinson.png', 'Im_DanielCraig.png', 'Im_BradPitt.png', 'Im_JustinTimberlake.png'],diff,1,0.42518099999870174,8,80.95238095238095,
JENA1012,6,neg,90,neg90_id7_im15.bmp_neg90_id3_im17.bmp,['Im_RyanGosling.png', 'Im_RobertDowneyJr.png', 'Im_GeorgeClooney.png', 'Im_LeonardoDiCaprio.png', 'Im_ElijahWood.png', 'Im_DanielRadcliffe.png', 'Im_RobertPattinson.png', 'Im_DanielCraig.png', 'Im_BradPitt.png', 'Im_JustinTimberlake.png'],diff,1,1.0343353999996907,9,80.95238095238095,
JENA1012,6,neg,60,neg60_id10_im18.bmp_neg60_id10_im17.bmp,['Im_RyanGosling.png', 'Im_RobertDowneyJr.png', 'Im_GeorgeClooney.png', 'Im_LeonardoDiCaprio.png', 'Im_ElijahWood.png', 'Im_DanielRadcliffe.png', 'Im_RobertPattinson.png', 'Im_DanielCraig.png', 'Im_BradPitt.png', 'Im_JustinTimberlake.png'],diff,0,2.083923499998491,9,80.95238095238095,
JENA1012,6,neg,0,neg0_id3_im6.bmp_neg0_id3_im17.bmp,['Im_RyanGosling.png', 'Im_RobertDowneyJr.png', 'Im_GeorgeClooney.png', 'Im_LeonardoDiCaprio.png', 'Im_ElijahWood.png', 'Im_DanielRadcliffe.png', 'Im_RobertPattinson.png', 'Im_DanielCraig.png', 'Im_BradPitt.png', 'Im_JustinTimberlake.png'],same,1,0.6165861999998015,10,80.95238095238095,
JENA1012,6,neg,fs,negfs_id5_im10.bmp_negfs_id5_im1.bmp,['Im_RyanGosling.png', 'Im_RobertDowneyJr.png', 'Im_GeorgeClooney.png', 'Im_LeonardoDiCaprio.png', 'Im_ElijahWood.png', 'Im_DanielRadcliffe.png', 'Im_RobertPattinson.png', 'Im_DanielCraig.png', 'Im_BradPitt.png', 'Im_JustinTimberlake.png'],diff,0,0.9500556999992114,10,80.95238095238095,
JENA1012,7,inv,30,pos30_id19_im27.bmp_pos30_id19_im8.bmp,['Im_RyanGosling.png', 'Im_RobertDowneyJr.png', 'Im_GeorgeClooney.png', 'Im_LeonardoDiCaprio.png', 'Im_ElijahWood.png', 'Im_DanielRadcliffe.png', 'Im_RobertPattinson.png', 'Im_DanielCraig.png', 'Im_BradPitt.png', 'Im_JustinTimberlake.png'],same,1,2.6916893999987224,11,80.95238095238095,
JENA1012,7,inv,90,pos90_id13_im10.bmp_pos90_id13_im29.bmp,['Im_RyanGosling.png', 'Im_RobertDowneyJr.png', 'Im_GeorgeClooney.png', 'Im_LeonardoDiCaprio.png', 'Im_ElijahWood.png', 'Im_DanielRadcliffe.png', 'Im_RobertPattinson.png', 'Im_DanielCraig.png', 'Im_BradPitt.png', 'Im_JustinTimberlake.png'],same,1,0.4250246999999945,12,80.95238095238095,
JENA1012,7,inv,120,pos120_id10_im17.bmp_pos120_id19_im4.bmp,['Im_RyanGosling.png', 'Im_RobertDowneyJr.png', 'Im_GeorgeClooney.png', 'Im_LeonardoDiCaprio.png', 'Im_ElijahWood.png', 'Im_DanielRadcliffe.png', 'Im_RobertPattinson.png', 'Im_DanielCraig.png', 'Im_BradPitt.png', 'Im_JustinTimberlake.png'],diff,1,0.4165560000001278,13,80.95238095238095,
JENA1012,7,inv,fs,posfs_id4_im15.bmp_posfs_id4_im7.bmp,['Im_RyanGosling.png', 'Im_RobertDowneyJr.png', 'Im_GeorgeClooney.png', 'Im_LeonardoDiCaprio.png', 'Im_ElijahWood.png', 'Im_DanielRadcliffe.png', 'Im_RobertPattinson.png', 'Im_DanielCraig.png', 'Im_BradPitt.png', 'Im_JustinTimberlake.png'],same,1,0.42520909999984724,14,80.95238095238095,
JENA1012,7,inv,0,pos0_id20_im3.bmp_pos0_id20_im12.bmp,['Im_RyanGosling.png', 'Im_RobertDowneyJr.png', 'Im_GeorgeClooney.png', 'Im_LeonardoDiCaprio.png', 'Im_ElijahWood.png', 'Im_DanielRadcliffe.png', 'Im_RobertPattinson.png', 'Im_DanielCraig.png', 'Im_BradPitt.png', 'Im_JustinTimberlake.png'],same,1,2.250712499999281,15,80.95238095238095,
JENA1012,7,inv,150,pos150_id4_im20.bmp_pos150_id10_im17.bmp,['Im_RyanGosling.png', 'Im_RobertDowneyJr.png', 'Im_GeorgeClooney.png', 'Im_LeonardoDiCaprio.png', 'Im_ElijahWood.png', 'Im_DanielRadcliffe.png', 'Im_RobertPattinson.png', 'Im_DanielCraig.png', 'Im_BradPitt.png', 'Im_JustinTimberlake.png'],diff,1,0.4250243999995291,16,80.95238095238095,
JENA1012,7,inv,90,pos90_id6_im12.bmp_pos90_id6_im19.bmp,['Im_RyanGosling.png', 'Im_RobertDowneyJr.png', 'Im_GeorgeClooney.png', 'Im_LeonardoDiCaprio.png', 'Im_ElijahWood.png', 'Im_DanielRadcliffe.png', 'Im_RobertPattinson.png', 'Im_DanielCraig.png', 'Im_BradPitt.png', 'Im_JustinTimberlake.png'],diff,0,0.41676759999973,16,80.95238095238095,
JENA1012,7,inv,60,pos60_id4_im7.bmp_pos60_id19_im27.bmp,['Im_RyanGosling.png', 'Im_RobertDowneyJr.png', 'Im_GeorgeClooney.png', 'Im_LeonardoDiCaprio.png', 'Im_ElijahWood.png', 'Im_DanielRadcliffe.png', 'Im_RobertPattinson.png', 'Im_DanielCraig.png', 'Im_BradPitt.png', 'Im_JustinTimberlake.png'],diff,1,0.42595259999870905,17,80.95238095238095,
JENA1012,7,inv,fs,posfs_id13_im10.bmp_posfs_id13_im15.bmp,['Im_RyanGosling.png', 'Im_RobertDowneyJr.png', 'Im_GeorgeClooney.png', 'Im_LeonardoDiCaprio.png', 'Im_ElijahWood.png', 'Im_DanielRadcliffe.png', 'Im_RobertPattinson.png', 'Im_DanielCraig.png', 'Im_BradPitt.png', 'Im_JustinTimberlake.png'],diff,0,1.0836128999999346,17,80.95238095238095,
JENA1012,7,inv,30,pos30_id7_im26.bmp_pos30_id4_im7.bmp,['Im_RyanGosling.png', 'Im_RobertDowneyJr.png', 'Im_GeorgeClooney.png', 'Im_LeonardoDiCaprio.png', 'Im_ElijahWood.png', 'Im_DanielRadcliffe.png', 'Im_RobertPattinson.png', 'Im_DanielCraig.png', 'Im_BradPitt.png', 'Im_JustinTimberlake.png'],diff,1,1.0511790000000474,18,80.95238095238095,
JENA1012,7,inv,0,pos0_id7_im26.bmp_pos0_id4_im7.bmp,['Im_RyanGosling.png', 'Im_RobertDowneyJr.png', 'Im_GeorgeClooney.png', 'Im_LeonardoDiCaprio.png', 'Im_ElijahWood.png', 'Im_DanielRadcliffe.png', 'Im_RobertPattinson.png', 'Im_DanielCraig.png', 'Im_BradPitt.png', 'Im_JustinTimberlake.png'],diff,1,0.4250577000002522,19,80.95238095238095,
JENA1012,7,inv,120,pos120_id10_im18.bmp_pos120_id3_im8.bmp,['Im_RyanGosling.png', 'Im_RobertDowneyJr.png', 'Im_GeorgeClooney.png', 'Im_LeonardoDiCaprio.png', 'Im_ElijahWood.png', 'Im_DanielRadcliffe.png', 'Im_RobertPattinson.png', 'Im_DanielCraig.png', 'Im_BradPitt.png', 'Im_JustinTimberlake.png'],diff,1,0.43339600000035716,20,80.95238095238095,
JENA1012,7,inv,150,pos150_id18_im11.bmp_pos150_id6_im19.bmp,['Im_RyanGosling.png', 'Im_RobertDowneyJr.png', 'Im_GeorgeClooney.png', 'Im_LeonardoDiCaprio.png', 'Im_ElijahWood.png', 'Im_DanielRadcliffe.png', 'Im_RobertPattinson.png', 'Im_DanielCraig.png', 'Im_BradPitt.png', 'Im_JustinTimberlake.png'],diff,1,0.5169036000006599,21,80.95238095238095,
JENA1012,7,inv,60,pos60_id19_im4.bmp_pos60_id10_im17.bmp,['Im_RyanGosling.png', 'Im_RobertDowneyJr.png', 'Im_GeorgeClooney.png', 'Im_LeonardoDiCaprio.png', 'Im_ElijahWood.png', 'Im_DanielRadcliffe.png', 'Im_RobertPattinson.png', 'Im_DanielCraig.png', 'Im_BradPitt.png', 'Im_JustinTimberlake.png'],diff,1,0.8834636000010505,22,80.95238095238095,
JENA1012,8,neg,0,neg0_id6_im12.bmp_neg0_id10_im1.bmp,['Im_RyanGosling.png', 'Im_RobertDowneyJr.png', 'Im_GeorgeClooney.png', 'Im_LeonardoDiCaprio.png', 'Im_ElijahWood.png', 'Im_DanielRadcliffe.png', 'Im_RobertPattinson.png', 'Im_DanielCraig.png', 'Im_BradPitt.png', 'Im_JustinTimberlake.png'],none,1,4.416733899999599,22,80.95238095238095,
JENA1012,8,neg,60,neg60_id19_im8.bmp_neg60_id4_im20.bmp,['Im_RyanGosling.png', 'Im_RobertDowneyJr.png', 'Im_GeorgeClooney.png', 'Im_LeonardoDiCaprio.png', 'Im_ElijahWood.png', 'Im_DanielRadcliffe.png', 'Im_RobertPattinson.png', 'Im_DanielCraig.png', 'Im_BradPitt.png', 'Im_JustinTimberlake.png'],none,1,4.416682699999001,22,80.95238095238095,
JENA1012,8,neg,30,neg30_id20_im30.bmp_neg30_id20_im12.bmp,['Im_RyanGosling.png', 'Im_RobertDowneyJr.png', 'Im_GeorgeClooney.png', 'Im_LeonardoDiCaprio.png', 'Im_ElijahWood.png', 'Im_DanielRadcliffe.png', 'Im_RobertPattinson.png', 'Im_DanielCraig.png', 'Im_BradPitt.png', 'Im_JustinTimberlake.png'],diff,0,1.0916416999989451,22,80.95238095238095,
JENA1012,8,neg,90,neg90_id6_im18.bmp_neg90_id6_im12.bmp,['Im_RyanGosling.png', 'Im_RobertDowneyJr.png', 'Im_GeorgeClooney.png', 'Im_LeonardoDiCaprio.png', 'Im_ElijahWood.png', 'Im_DanielRadcliffe.png', 'Im_RobertPattinson.png', 'Im_DanielCraig.png', 'Im_BradPitt.png', 'Im_JustinTimberlake.png'],same,1,0.41678069999943546,23,80.95238095238095,
JENA1012,8,neg,120,neg120_id10_im18.bmp_neg120_id13_im29.bmp,['Im_RyanGosling.png', 'Im_RobertDowneyJr.png', 'Im_GeorgeClooney.png', 'Im_LeonardoDiCaprio.png', 'Im_ElijahWood.png', 'Im_DanielRadcliffe.png', 'Im_RobertPattinson.png', 'Im_DanielCraig.png', 'Im_BradPitt.png', 'Im_JustinTimberlake.png'],diff,1,3.9336153000003833,24,80.95238095238095,
JENA1012,8,neg,0,neg0_id20_im30.bmp_neg0_id13_im10.bmp,['Im_RyanGosling.png', 'Im_RobertDowneyJr.png', 'Im_GeorgeClooney.png', 'Im_LeonardoDiCaprio.png', 'Im_ElijahWood.png', 'Im_DanielRadcliffe.png', 'Im_RobertPattinson.png', 'Im_DanielCraig.png', 'Im_BradPitt.png', 'Im_JustinTimberlake.png'],diff,1,2.766680800001268,25,80.95238095238095,
JENA1012,8,neg,150,neg150_id3_im17.bmp_neg150_id18_im11.bmp,['Im_RyanGosling.png', 'Im_RobertDowneyJr.png', 'Im_GeorgeClooney.png', 'Im_LeonardoDiCaprio.png', 'Im_ElijahWood.png', 'Im_DanielRadcliffe.png', 'Im_RobertPattinson.png', 'Im_DanielCraig.png', 'Im_BradPitt.png', 'Im_JustinTimberlake.png'],diff,1,0.5998796000003495,26,80.95238095238095,
JENA1012,8,neg,fs,negfs_id6_im18.bmp_negfs_id3_im6.bmp,['Im_RyanGosling.png', 'Im_RobertDowneyJr.png', 'Im_GeorgeClooney.png', 'Im_LeonardoDiCaprio.png', 'Im_ElijahWood.png', 'Im_DanielRadcliffe.png', 'Im_RobertPattinson.png', 'Im_DanielCraig.png', 'Im_BradPitt.png', 'Im_JustinTimberlake.png'],same,0,2.1001140999997006,26,80.95238095238095,
JENA1012,8,neg,30,neg30_id19_im8.bmp_neg30_id4_im20.bmp,['Im_RyanGosling.png', 'Im_RobertDowneyJr.png', 'Im_GeorgeClooney.png', 'Im_LeonardoDiCaprio.png', 'Im_ElijahWood.png', 'Im_DanielRadcliffe.png', 'Im_RobertPattinson.png', 'Im_DanielCraig.png', 'Im_BradPitt.png', 'Im_JustinTimberlake.png'],diff,1,3.8583718000008957,27,80.95238095238095,
JENA1012,8,neg,60,neg60_id19_im4.bmp_neg60_id19_im8.bmp,['Im_RyanGosling.png', 'Im_RobertDowneyJr.png', 'Im_GeorgeClooney.png', 'Im_LeonardoDiCaprio.png', 'Im_ElijahWood.png', 'Im_DanielRadcliffe.png', 'Im_RobertPattinson.png', 'Im_DanielCraig.png', 'Im_BradPitt.png', 'Im_JustinTimberlake.png'],diff,0,2.5335639999993873,27,80.95238095238095,
JENA1012,8,neg,90,neg90_id10_im17.bmp_neg90_id4_im20.bmp,['Im_RyanGosling.png', 'Im_RobertDowneyJr.png', 'Im_GeorgeClooney.png', 'Im_LeonardoDiCaprio.png', 'Im_ElijahWood.png', 'Im_DanielRadcliffe.png', 'Im_RobertPattinson.png', 'Im_DanielCraig.png', 'Im_BradPitt.png', 'Im_JustinTimberlake.png'],same,0,3.1583265000008396,27,80.95238095238095,
JENA1012,8,neg,120,neg120_id18_im18.bmp_neg120_id18_im19.bmp,['Im_RyanGosling.png', 'Im_RobertDowneyJr.png', 'Im_GeorgeClooney.png', 'Im_LeonardoDiCaprio.png', 'Im_ElijahWood.png', 'Im_DanielRadcliffe.png', 'Im_RobertPattinson.png', 'Im_DanielCraig.png', 'Im_BradPitt.png', 'Im_JustinTimberlake.png'],diff,0,1.2749256000006426,27,80.95238095238095,
JENA1012,8,neg,fs,negfs_id3_im17.bmp_negfs_id3_im6.bmp,['Im_RyanGosling.png', 'Im_RobertDowneyJr.png', 'Im_GeorgeClooney.png', 'Im_LeonardoDiCaprio.png', 'Im_ElijahWood.png', 'Im_DanielRadcliffe.png', 'Im_RobertPattinson.png', 'Im_DanielCraig.png', 'Im_BradPitt.png', 'Im_JustinTimberlake.png'],same,1,1.3251911999996082,28,80.95238095238095,
JENA1012,8,neg,150,neg150_id7_im26.bmp_neg150_id4_im7.bmp,['Im_RyanGosling.png', 'Im_RobertDowneyJr.png', 'Im_GeorgeClooney.png', 'Im_LeonardoDiCaprio.png', 'Im_ElijahWood.png', 'Im_DanielRadcliffe.png', 'Im_RobertPattinson.png', 'Im_DanielCraig.png', 'Im_BradPitt.png', 'Im_JustinTimberlake.png'],diff,1,2.2586521000012,29,80.95238095238095,
JENA1012,9,pos,fs,posfs_id20_im3.bmp_posfs_id20_im30.bmp,['Im_RyanGosling.png', 'Im_RobertDowneyJr.png', 'Im_GeorgeClooney.png', 'Im_LeonardoDiCaprio.png', 'Im_ElijahWood.png', 'Im_DanielRadcliffe.png', 'Im_RobertPattinson.png', 'Im_DanielCraig.png', 'Im_BradPitt.png', 'Im_JustinTimberlake.png'],same,1,1.9252575999998953,1,69.04761904761905,
JENA1012,9,pos,0,pos0_id18_im18.bmp_pos0_id6_im18.bmp,['Im_RyanGosling.png', 'Im_RobertDowneyJr.png', 'Im_GeorgeClooney.png', 'Im_LeonardoDiCaprio.png', 'Im_ElijahWood.png', 'Im_DanielRadcliffe.png', 'Im_RobertPattinson.png', 'Im_DanielCraig.png', 'Im_BradPitt.png', 'Im_JustinTimberlake.png'],diff,1,0.8169619999989663,2,69.04761904761905,
JENA1012,9,pos,fs,posfs_id6_im19.bmp_posfs_id3_im6.bmp,['Im_RyanGosling.png', 'Im_RobertDowneyJr.png', 'Im_GeorgeClooney.png', 'Im_LeonardoDiCaprio.png', 'Im_ElijahWood.png', 'Im_DanielRadcliffe.png', 'Im_RobertPattinson.png', 'Im_DanielCraig.png', 'Im_BradPitt.png', 'Im_JustinTimberlake.png'],diff,1,1.217447799999718,3,69.04761904761905,
JENA1012,9,pos,30,pos30_id20_im3.bmp_pos30_id20_im30.bmp,['Im_RyanGosling.png', 'Im_RobertDowneyJr.png', 'Im_GeorgeClooney.png', 'Im_LeonardoDiCaprio.png', 'Im_ElijahWood.png', 'Im_DanielRadcliffe.png', 'Im_RobertPattinson.png', 'Im_DanielCraig.png', 'Im_BradPitt.png', 'Im_JustinTimberlake.png'],same,1,1.1667279000012059,4,69.04761904761905,
JENA1012,9,pos,120,pos120_id5_im1.bmp_pos120_id20_im12.bmp,['Im_RyanGosling.png', 'Im_RobertDowneyJr.png', 'Im_GeorgeClooney.png', 'Im_LeonardoDiCaprio.png', 'Im_ElijahWood.png', 'Im_DanielRadcliffe.png', 'Im_RobertPattinson.png', 'Im_DanielCraig.png', 'Im_BradPitt.png', 'Im_JustinTimberlake.png'],diff,1,1.0750492000006489,5,69.04761904761905,
JENA1012,9,pos,90,pos90_id13_im15.bmp_pos90_id13_im29.bmp,['Im_RyanGosling.png', 'Im_RobertDowneyJr.png', 'Im_GeorgeClooney.png', 'Im_LeonardoDiCaprio.png', 'Im_ElijahWood.png', 'Im_DanielRadcliffe.png', 'Im_RobertPattinson.png', 'Im_DanielCraig.png', 'Im_BradPitt.png', 'Im_JustinTimberlake.png'],same,1,0.4167355999998108,6,69.04761904761905,
JENA1012,9,pos,30,pos30_id7_im26.bmp_pos30_id7_im14.bmp,['Im_RyanGosling.png', 'Im_RobertDowneyJr.png', 'Im_GeorgeClooney.png', 'Im_LeonardoDiCaprio.png', 'Im_ElijahWood.png', 'Im_DanielRadcliffe.png', 'Im_RobertPattinson.png', 'Im_DanielCraig.png', 'Im_BradPitt.png', 'Im_JustinTimberlake.png'],diff,0,0.566786300001695,6,69.04761904761905,
JENA1012,9,pos,150,pos150_id20_im3.bmp_pos150_id20_im30.bmp,['Im_RyanGosling.png', 'Im_RobertDowneyJr.png', 'Im_GeorgeClooney.png', 'Im_LeonardoDiCaprio.png', 'Im_ElijahWood.png', 'Im_DanielRadcliffe.png', 'Im_RobertPattinson.png', 'Im_DanielCraig.png', 'Im_BradPitt.png', 'Im_JustinTimberlake.png'],diff,0,0.8750518999986525,6,69.04761904761905,
JENA1012,9,pos,0,pos0_id5_im10.bmp_pos0_id5_im1.bmp,['Im_RyanGosling.png', 'Im_RobertDowneyJr.png', 'Im_GeorgeClooney.png', 'Im_LeonardoDiCaprio.png', 'Im_ElijahWood.png', 'Im_DanielRadcliffe.png', 'Im_RobertPattinson.png', 'Im_DanielCraig.png', 'Im_BradPitt.png', 'Im_JustinTimberlake.png'],diff,0,0.6917339000010543,6,69.04761904761905,
JENA1012,9,pos,120,pos120_id19_im4.bmp_pos120_id19_im8.bmp,['Im_RyanGosling.png', 'Im_RobertDowneyJr.png', 'Im_GeorgeClooney.png', 'Im_LeonardoDiCaprio.png', 'Im_ElijahWood.png', 'Im_DanielRadcliffe.png', 'Im_RobertPattinson.png', 'Im_DanielCraig.png', 'Im_BradPitt.png', 'Im_JustinTimberlake.png'],same,1,0.4167378000001918,7,69.04761904761905,
JENA1012,9,pos,150,pos150_id7_im26.bmp_pos150_id4_im7.bmp,['Im_RyanGosling.png', 'Im_RobertDowneyJr.png', 'Im_GeorgeClooney.png', 'Im_LeonardoDiCaprio.png', 'Im_ElijahWood.png', 'Im_DanielRadcliffe.png', 'Im_RobertPattinson.png', 'Im_DanielCraig.png', 'Im_BradPitt.png', 'Im_JustinTimberlake.png'],same,0,0.9584119000010105,7,69.04761904761905,
JENA1012,9,pos,90,pos90_id13_im15.bmp_pos90_id20_im12.bmp,['Im_RyanGosling.png', 'Im_RobertDowneyJr.png', 'Im_GeorgeClooney.png', 'Im_LeonardoDiCaprio.png', 'Im_ElijahWood.png', 'Im_DanielRadcliffe.png', 'Im_RobertPattinson.png', 'Im_DanielCraig.png', 'Im_BradPitt.png', 'Im_JustinTimberlake.png'],diff,1,0.4835114999987127,8,69.04761904761905,
JENA1012,9,pos,60,pos60_id18_im11.bmp_pos60_id3_im17.bmp,['Im_RyanGosling.png', 'Im_RobertDowneyJr.png', 'Im_GeorgeClooney.png', 'Im_LeonardoDiCaprio.png', 'Im_ElijahWood.png', 'Im_DanielRadcliffe.png', 'Im_RobertPattinson.png', 'Im_DanielCraig.png', 'Im_BradPitt.png', 'Im_JustinTimberlake.png'],diff,1,0.4672166999989713,9,69.04761904761905,
JENA1012,9,pos,60,pos60_id7_im26.bmp_pos60_id4_im7.bmp,['Im_RyanGosling.png', 'Im_RobertDowneyJr.png', 'Im_GeorgeClooney.png', 'Im_LeonardoDiCaprio.png', 'Im_ElijahWood.png', 'Im_DanielRadcliffe.png', 'Im_RobertPattinson.png', 'Im_DanielCraig.png', 'Im_BradPitt.png', 'Im_JustinTimberlake.png'],diff,1,1.6835621000009269,10,69.04761904761905,
JENA1012,10,pos,60,pos60_id6_im12.bmp_pos60_id10_im1.bmp,['Im_RyanGosling.png', 'Im_RobertDowneyJr.png', 'Im_GeorgeClooney.png', 'Im_LeonardoDiCaprio.png', 'Im_ElijahWood.png', 'Im_DanielRadcliffe.png', 'Im_RobertPattinson.png', 'Im_DanielCraig.png', 'Im_BradPitt.png', 'Im_JustinTimberlake.png'],same,0,0.7837055999989389,10,69.04761904761905,
JENA1012,10,pos,120,pos120_id7_im26.bmp_pos120_id20_im3.bmp,['Im_RyanGosling.png', 'Im_RobertDowneyJr.png', 'Im_GeorgeClooney.png', 'Im_LeonardoDiCaprio.png', 'Im_ElijahWood.png', 'Im_DanielRadcliffe.png', 'Im_RobertPattinson.png', 'Im_DanielCraig.png', 'Im_BradPitt.png', 'Im_JustinTimberlake.png'],diff,1,0.41673719999926107,11,69.04761904761905,
JENA1012,10,pos,0,pos0_id20_im3.bmp_pos0_id7_im26.bmp,['Im_RyanGosling.png', 'Im_RobertDowneyJr.png', 'Im_GeorgeClooney.png', 'Im_LeonardoDiCaprio.png', 'Im_ElijahWood.png', 'Im_DanielRadcliffe.png', 'Im_RobertPattinson.png', 'Im_DanielCraig.png', 'Im_BradPitt.png', 'Im_JustinTimberlake.png'],same,0,0.42485859999942477,11,69.04761904761905,
JENA1012,10,pos,30,pos30_id18_im19.bmp_pos30_id7_im14.bmp,['Im_RyanGosling.png', 'Im_RobertDowneyJr.png', 'Im_GeorgeClooney.png', 'Im_LeonardoDiCaprio.png', 'Im_ElijahWood.png', 'Im_DanielRadcliffe.png', 'Im_RobertPattinson.png', 'Im_DanielCraig.png', 'Im_BradPitt.png', 'Im_JustinTimberlake.png'],none,0,4.416835200001515,11,69.04761904761905,
JENA1012,10,pos,0,pos0_id18_im11.bmp_pos0_id18_im19.bmp,['Im_RyanGosling.png', 'Im_RobertDowneyJr.png', 'Im_GeorgeClooney.png', 'Im_LeonardoDiCaprio.png', 'Im_ElijahWood.png', 'Im_DanielRadcliffe.png', 'Im_RobertPattinson.png', 'Im_DanielCraig.png', 'Im_BradPitt.png', 'Im_JustinTimberlake.png'],same,1,1.816984600000069,12,69.04761904761905,
JENA1012,10,pos,90,pos90_id4_im15.bmp_pos90_id4_im7.bmp,['Im_RyanGosling.png', 'Im_RobertDowneyJr.png', 'Im_GeorgeClooney.png', 'Im_LeonardoDiCaprio.png', 'Im_ElijahWood.png', 'Im_DanielRadcliffe.png', 'Im_RobertPattinson.png', 'Im_DanielCraig.png', 'Im_BradPitt.png', 'Im_JustinTimberlake.png'],same,1,1.8419426000000385,13,69.04761904761905,
JENA1012,10,pos,150,pos150_id10_im1.bmp_pos150_id10_im17.bmp,['Im_RyanGosling.png', 'Im_RobertDowneyJr.png', 'Im_GeorgeClooney.png', 'Im_LeonardoDiCaprio.png', 'Im_ElijahWood.png', 'Im_DanielRadcliffe.png', 'Im_RobertPattinson.png', 'Im_DanielCraig.png', 'Im_BradPitt.png', 'Im_JustinTimberlake.png'],same,1,0.4167889999989711,14,69.04761904761905,
JENA1012,10,pos,60,pos60_id13_im10.bmp_pos60_id20_im30.bmp,['Im_RyanGosling.png', 'Im_RobertDowneyJr.png', 'Im_GeorgeClooney.png', 'Im_LeonardoDiCaprio.png', 'Im_ElijahWood.png', 'Im_DanielRadcliffe.png', 'Im_RobertPattinson.png', 'Im_DanielCraig.png', 'Im_BradPitt.png', 'Im_JustinTimberlake.png'],same,0,1.5186051000000589,14,69.04761904761905,
JENA1012,10,pos,90,pos90_id7_im15.bmp_pos90_id3_im17.bmp,['Im_RyanGosling.png', 'Im_RobertDowneyJr.png', 'Im_GeorgeClooney.png', 'Im_LeonardoDiCaprio.png', 'Im_ElijahWood.png', 'Im_DanielRadcliffe.png', 'Im_RobertPattinson.png', 'Im_DanielCraig.png', 'Im_BradPitt.png', 'Im_JustinTimberlake.png'],diff,1,0.42501030000130413,15,69.04761904761905,
JENA1012,10,pos,150,pos150_id3_im6.bmp_pos150_id3_im17.bmp,['Im_RyanGosling.png', 'Im_RobertDowneyJr.png', 'Im_GeorgeClooney.png', 'Im_LeonardoDiCaprio.png', 'Im_ElijahWood.png', 'Im_DanielRadcliffe.png', 'Im_RobertPattinson.png', 'Im_DanielCraig.png', 'Im_BradPitt.png', 'Im_JustinTimberlake.png'],same,1,0.4168425000007119,16,69.04761904761905,
JENA1012,10,pos,120,pos120_id4_im15.bmp_pos120_id10_im1.bmp,['Im_RyanGosling.png', 'Im_RobertDowneyJr.png', 'Im_GeorgeClooney.png', 'Im_LeonardoDiCaprio.png', 'Im_ElijahWood.png', 'Im_DanielRadcliffe.png', 'Im_RobertPattinson.png', 'Im_DanielCraig.png', 'Im_BradPitt.png', 'Im_JustinTimberlake.png'],diff,1,0.41663900000094145,17,69.04761904761905,
JENA1012,10,pos,30,pos30_id3_im8.bmp_pos30_id10_im18.bmp,['Im_RyanGosling.png', 'Im_RobertDowneyJr.png', 'Im_GeorgeClooney.png', 'Im_LeonardoDiCaprio.png', 'Im_ElijahWood.png', 'Im_DanielRadcliffe.png', 'Im_RobertPattinson.png', 'Im_DanielCraig.png', 'Im_BradPitt.png', 'Im_JustinTimberlake.png'],none,1,4.416728199999852,17,69.04761904761905,
JENA1012,10,pos,fs,posfs_id5_im10.bmp_posfs_id5_im20.bmp,['Im_RyanGosling.png', 'Im_RobertDowneyJr.png', 'Im_GeorgeClooney.png', 'Im_LeonardoDiCaprio.png', 'Im_ElijahWood.png', 'Im_DanielRadcliffe.png', 'Im_RobertPattinson.png', 'Im_DanielCraig.png', 'Im_BradPitt.png', 'Im_JustinTimberlake.png'],same,1,0.43334540000068955,18,69.04761904761905,
JENA1012,10,pos,fs,posfs_id3_im17.bmp_posfs_id3_im8.bmp,['Im_RyanGosling.png', 'Im_RobertDowneyJr.png', 'Im_GeorgeClooney.png', 'Im_LeonardoDiCaprio.png', 'Im_ElijahWood.png', 'Im_DanielRadcliffe.png', 'Im_RobertPattinson.png', 'Im_DanielCraig.png', 'Im_BradPitt.png', 'Im_JustinTimberlake.png'],same,1,0.42499250000037136,19,69.04761904761905,
JENA1012,11,inv,90,pos90_id5_im20.bmp_pos90_id19_im4.bmp,['Im_RyanGosling.png', 'Im_RobertDowneyJr.png', 'Im_GeorgeClooney.png', 'Im_LeonardoDiCaprio.png', 'Im_ElijahWood.png', 'Im_DanielRadcliffe.png', 'Im_RobertPattinson.png', 'Im_DanielCraig.png', 'Im_BradPitt.png', 'Im_JustinTimberlake.png'],same,0,0.4333973999982845,19,69.04761904761905,
JENA1012,11,inv,0,pos0_id6_im18.bmp_pos0_id6_im19.bmp,['Im_RyanGosling.png', 'Im_RobertDowneyJr.png', 'Im_GeorgeClooney.png', 'Im_LeonardoDiCaprio.png', 'Im_ElijahWood.png', 'Im_DanielRadcliffe.png', 'Im_RobertPattinson.png', 'Im_DanielCraig.png', 'Im_BradPitt.png', 'Im_JustinTimberlake.png'],same,1,0.4250750999999582,20,69.04761904761905,
JENA1012,11,inv,30,pos30_id6_im19.bmp_pos30_id18_im11.bmp,['Im_RyanGosling.png', 'Im_RobertDowneyJr.png', 'Im_GeorgeClooney.png', 'Im_LeonardoDiCaprio.png', 'Im_ElijahWood.png', 'Im_DanielRadcliffe.png', 'Im_RobertPattinson.png', 'Im_DanielCraig.png', 'Im_BradPitt.png', 'Im_JustinTimberlake.png'],diff,1,2.7333613999999216,21,69.04761904761905,
JENA1012,11,inv,150,pos150_id7_im26.bmp_pos150_id7_im15.bmp,['Im_RyanGosling.png', 'Im_RobertDowneyJr.png', 'Im_GeorgeClooney.png', 'Im_LeonardoDiCaprio.png', 'Im_ElijahWood.png', 'Im_DanielRadcliffe.png', 'Im_RobertPattinson.png', 'Im_DanielCraig.png', 'Im_BradPitt.png', 'Im_JustinTimberlake.png'],same,1,1.2833740999994916,22,69.04761904761905,
JENA1012,11,inv,30,pos30_id4_im7.bmp_pos30_id19_im27.bmp,['Im_RyanGosling.png', 'Im_RobertDowneyJr.png', 'Im_GeorgeClooney.png', 'Im_LeonardoDiCaprio.png', 'Im_ElijahWood.png', 'Im_DanielRadcliffe.png', 'Im_RobertPattinson.png', 'Im_DanielCraig.png', 'Im_BradPitt.png', 'Im_JustinTimberlake.png'],diff,1,0.41694230000030075,23,69.04761904761905,
JENA1012,11,inv,fs,posfs_id3_im17.bmp_posfs_id3_im6.bmp,['Im_RyanGosling.png', 'Im_RobertDowneyJr.png', 'Im_GeorgeClooney.png', 'Im_LeonardoDiCaprio.png', 'Im_ElijahWood.png', 'Im_DanielRadcliffe.png', 'Im_RobertPattinson.png', 'Im_DanielCraig.png', 'Im_BradPitt.png', 'Im_JustinTimberlake.png'],same,1,0.42500440000003437,24,69.04761904761905,
JENA1012,11,inv,90,pos90_id6_im12.bmp_pos90_id5_im1.bmp,['Im_RyanGosling.png', 'Im_RobertDowneyJr.png', 'Im_GeorgeClooney.png', 'Im_LeonardoDiCaprio.png', 'Im_ElijahWood.png', 'Im_DanielRadcliffe.png', 'Im_RobertPattinson.png', 'Im_DanielCraig.png', 'Im_BradPitt.png', 'Im_JustinTimberlake.png'],same,0,0.416711399999258,24,69.04761904761905,
JENA1012,11,inv,fs,posfs_id18_im11.bmp_posfs_id18_im18.bmp,['Im_RyanGosling.png', 'Im_RobertDowneyJr.png', 'Im_GeorgeClooney.png', 'Im_LeonardoDiCaprio.png', 'Im_ElijahWood.png', 'Im_DanielRadcliffe.png', 'Im_RobertPattinson.png', 'Im_DanielCraig.png', 'Im_BradPitt.png', 'Im_JustinTimberlake.png'],same,1,0.6587026000015612,25,69.04761904761905,
JENA1012,11,inv,120,pos120_id3_im17.bmp_pos120_id7_im15.bmp,['Im_RyanGosling.png', 'Im_RobertDowneyJr.png', 'Im_GeorgeClooney.png', 'Im_LeonardoDiCaprio.png', 'Im_ElijahWood.png', 'Im_DanielRadcliffe.png', 'Im_RobertPattinson.png', 'Im_DanielCraig.png', 'Im_BradPitt.png', 'Im_JustinTimberlake.png'],diff,1,0.6919231000010768,26,69.04761904761905,
JENA1012,11,inv,0,pos0_id13_im10.bmp_pos0_id20_im30.bmp,['Im_RyanGosling.png', 'Im_RobertDowneyJr.png', 'Im_GeorgeClooney.png', 'Im_LeonardoDiCaprio.png', 'Im_ElijahWood.png', 'Im_DanielRadcliffe.png', 'Im_RobertPattinson.png', 'Im_DanielCraig.png', 'Im_BradPitt.png', 'Im_JustinTimberlake.png'],diff,1,0.5837543999987247,27,69.04761904761905,
JENA1012,11,inv,60,pos60_id18_im19.bmp_pos60_id7_im14.bmp,['Im_RyanGosling.png', 'Im_RobertDowneyJr.png', 'Im_GeorgeClooney.png', 'Im_LeonardoDiCaprio.png', 'Im_ElijahWood.png', 'Im_DanielRadcliffe.png', 'Im_RobertPattinson.png', 'Im_DanielCraig.png', 'Im_BradPitt.png', 'Im_JustinTimberlake.png'],diff,1,0.43335599999954866,28,69.04761904761905,
