Sujet,Trial,Condition,Filter,Imname,Actor0,Actor1,Actor2,Actor3,Actor4,Actor5,Actor6,Actor7,Actor8,Actor9,Answer,Accu,RT,Score,Scoreperc, 
JEYV1811,train,pos,150,pos150_id7_im26.bmp_pos150_id7_im14.bmp,['Im_GeorgeClooney.png', 'Im_PatrickDempsey.png', 'Im_LeonardoDiCaprio.png', 'Im_KeanuReeves.png', 'Im_HughJackman.png', 'Im_DanielRadcliffe.png', 'Im_JustinTimberlake.png', 'Im_RobertPattinson.png', 'Im_RyanGosling.png', 'Im_RyanReynolds.png'],same,1,1.8338455999999042,1,0,
JEYV1811,train,pos,30,pos30_id21_im17.bmp_pos30_id17_im9.bmp,['Im_GeorgeClooney.png', 'Im_PatrickDempsey.png', 'Im_LeonardoDiCaprio.png', 'Im_KeanuReeves.png', 'Im_HughJackman.png', 'Im_DanielRadcliffe.png', 'Im_JustinTimberlake.png', 'Im_RobertPattinson.png', 'Im_RyanGosling.png', 'Im_RyanReynolds.png'],diff,1,1.533504399999856,2,0,
JEYV1811,train,pos,60,pos60_id10_im1.bmp_pos60_id7_im14.bmp,['Im_GeorgeClooney.png', 'Im_PatrickDempsey.png', 'Im_LeonardoDiCaprio.png', 'Im_KeanuReeves.png', 'Im_HughJackman.png', 'Im_DanielRadcliffe.png', 'Im_JustinTimberlake.png', 'Im_RobertPattinson.png', 'Im_RyanGosling.png', 'Im_RyanReynolds.png'],diff,1,0.4751675999998497,3,0,
JEYV1811,train,pos,120,pos120_id21_im16.bmp_pos120_id10_im1.bmp,['Im_GeorgeClooney.png', 'Im_PatrickDempsey.png', 'Im_LeonardoDiCaprio.png', 'Im_KeanuReeves.png', 'Im_HughJackman.png', 'Im_DanielRadcliffe.png', 'Im_JustinTimberlake.png', 'Im_RobertPattinson.png', 'Im_RyanGosling.png', 'Im_RyanReynolds.png'],diff,1,0.5666300000000319,4,0,
JEYV1811,train,pos,120,pos120_id10_im1.bmp_pos120_id7_im14.bmp,['Im_GeorgeClooney.png', 'Im_PatrickDempsey.png', 'Im_LeonardoDiCaprio.png', 'Im_KeanuReeves.png', 'Im_HughJackman.png', 'Im_DanielRadcliffe.png', 'Im_JustinTimberlake.png', 'Im_RobertPattinson.png', 'Im_RyanGosling.png', 'Im_RyanReynolds.png'],diff,1,0.6919542000000547,5,0,
JEYV1811,train,pos,60,pos60_id8_im20.bmp_pos60_id8_im13.bmp,['Im_GeorgeClooney.png', 'Im_PatrickDempsey.png', 'Im_LeonardoDiCaprio.png', 'Im_KeanuReeves.png', 'Im_HughJackman.png', 'Im_DanielRadcliffe.png', 'Im_JustinTimberlake.png', 'Im_RobertPattinson.png', 'Im_RyanGosling.png', 'Im_RyanReynolds.png'],same,1,0.9836577000000943,6,0,
JEYV1811,train,pos,30,pos30_id5_im20.bmp_pos30_id17_im9.bmp,['Im_GeorgeClooney.png', 'Im_PatrickDempsey.png', 'Im_LeonardoDiCaprio.png', 'Im_KeanuReeves.png', 'Im_HughJackman.png', 'Im_DanielRadcliffe.png', 'Im_JustinTimberlake.png', 'Im_RobertPattinson.png', 'Im_RyanGosling.png', 'Im_RyanReynolds.png'],diff,1,0.6918198000000757,7,0,
JEYV1811,train,pos,fs,posfs_id10_im17.bmp_posfs_id10_im18.bmp,['Im_GeorgeClooney.png', 'Im_PatrickDempsey.png', 'Im_LeonardoDiCaprio.png', 'Im_KeanuReeves.png', 'Im_HughJackman.png', 'Im_DanielRadcliffe.png', 'Im_JustinTimberlake.png', 'Im_RobertPattinson.png', 'Im_RyanGosling.png', 'Im_RyanReynolds.png'],same,1,0.8331444000000374,8,0,
JEYV1811,train,pos,0,pos0_id13_im10.bmp_pos0_id13_im29.bmp,['Im_GeorgeClooney.png', 'Im_PatrickDempsey.png', 'Im_LeonardoDiCaprio.png', 'Im_KeanuReeves.png', 'Im_HughJackman.png', 'Im_DanielRadcliffe.png', 'Im_JustinTimberlake.png', 'Im_RobertPattinson.png', 'Im_RyanGosling.png', 'Im_RyanReynolds.png'],same,1,0.8083894999999757,9,0,
JEYV1811,train,pos,fs,posfs_id20_im3.bmp_posfs_id20_im12.bmp,['Im_GeorgeClooney.png', 'Im_PatrickDempsey.png', 'Im_LeonardoDiCaprio.png', 'Im_KeanuReeves.png', 'Im_HughJackman.png', 'Im_DanielRadcliffe.png', 'Im_JustinTimberlake.png', 'Im_RobertPattinson.png', 'Im_RyanGosling.png', 'Im_RyanReynolds.png'],same,1,0.7666788000001361,10,0,
JEYV1811,train,pos,90,pos90_id17_im8.bmp_pos90_id10_im17.bmp,['Im_GeorgeClooney.png', 'Im_PatrickDempsey.png', 'Im_LeonardoDiCaprio.png', 'Im_KeanuReeves.png', 'Im_HughJackman.png', 'Im_DanielRadcliffe.png', 'Im_JustinTimberlake.png', 'Im_RobertPattinson.png', 'Im_RyanGosling.png', 'Im_RyanReynolds.png'],diff,1,0.6335324000001492,11,0,
JEYV1811,train,pos,90,pos90_id21_im17.bmp_pos90_id17_im9.bmp,['Im_GeorgeClooney.png', 'Im_PatrickDempsey.png', 'Im_LeonardoDiCaprio.png', 'Im_KeanuReeves.png', 'Im_HughJackman.png', 'Im_DanielRadcliffe.png', 'Im_JustinTimberlake.png', 'Im_RobertPattinson.png', 'Im_RyanGosling.png', 'Im_RyanReynolds.png'],diff,1,0.7254270999997061,12,0,
JEYV1811,train,pos,0,pos0_id21_im17.bmp_pos0_id10_im17.bmp,['Im_GeorgeClooney.png', 'Im_PatrickDempsey.png', 'Im_LeonardoDiCaprio.png', 'Im_KeanuReeves.png', 'Im_HughJackman.png', 'Im_DanielRadcliffe.png', 'Im_JustinTimberlake.png', 'Im_RobertPattinson.png', 'Im_RyanGosling.png', 'Im_RyanReynolds.png'],diff,1,0.7917986000002202,13,0,
JEYV1811,train,pos,150,pos150_id19_im4.bmp_pos150_id8_im21.bmp,['Im_GeorgeClooney.png', 'Im_PatrickDempsey.png', 'Im_LeonardoDiCaprio.png', 'Im_KeanuReeves.png', 'Im_HughJackman.png', 'Im_DanielRadcliffe.png', 'Im_JustinTimberlake.png', 'Im_RobertPattinson.png', 'Im_RyanGosling.png', 'Im_RyanReynolds.png'],diff,1,0.6752458999999362,14,0,
JEYV1811,train,neg,120,neg120_id19_im8.bmp_neg120_id13_im29.bmp,['Im_GeorgeClooney.png', 'Im_PatrickDempsey.png', 'Im_LeonardoDiCaprio.png', 'Im_KeanuReeves.png', 'Im_HughJackman.png', 'Im_DanielRadcliffe.png', 'Im_JustinTimberlake.png', 'Im_RobertPattinson.png', 'Im_RyanGosling.png', 'Im_RyanReynolds.png'],diff,1,1.233689200000299,15,0,
JEYV1811,train,neg,30,neg30_id13_im29.bmp_neg30_id13_im15.bmp,['Im_GeorgeClooney.png', 'Im_PatrickDempsey.png', 'Im_LeonardoDiCaprio.png', 'Im_KeanuReeves.png', 'Im_HughJackman.png', 'Im_DanielRadcliffe.png', 'Im_JustinTimberlake.png', 'Im_RobertPattinson.png', 'Im_RyanGosling.png', 'Im_RyanReynolds.png'],same,1,0.991810500000156,16,0,
JEYV1811,train,neg,0,neg0_id13_im15.bmp_neg0_id13_im29.bmp,['Im_GeorgeClooney.png', 'Im_PatrickDempsey.png', 'Im_LeonardoDiCaprio.png', 'Im_KeanuReeves.png', 'Im_HughJackman.png', 'Im_DanielRadcliffe.png', 'Im_JustinTimberlake.png', 'Im_RobertPattinson.png', 'Im_RyanGosling.png', 'Im_RyanReynolds.png'],same,1,0.9331898999998884,17,0,
JEYV1811,train,neg,90,neg90_id5_im20.bmp_neg90_id17_im8.bmp,['Im_GeorgeClooney.png', 'Im_PatrickDempsey.png', 'Im_LeonardoDiCaprio.png', 'Im_KeanuReeves.png', 'Im_HughJackman.png', 'Im_DanielRadcliffe.png', 'Im_JustinTimberlake.png', 'Im_RobertPattinson.png', 'Im_RyanGosling.png', 'Im_RyanReynolds.png'],diff,1,2.1417747000000418,18,0,
JEYV1811,train,neg,150,neg150_id7_im15.bmp_neg150_id13_im15.bmp,['Im_GeorgeClooney.png', 'Im_PatrickDempsey.png', 'Im_LeonardoDiCaprio.png', 'Im_KeanuReeves.png', 'Im_HughJackman.png', 'Im_DanielRadcliffe.png', 'Im_JustinTimberlake.png', 'Im_RobertPattinson.png', 'Im_RyanGosling.png', 'Im_RyanReynolds.png'],diff,1,1.3335692000000563,19,0,
JEYV1811,train,neg,60,neg60_id8_im21.bmp_neg60_id21_im22.bmp,['Im_GeorgeClooney.png', 'Im_PatrickDempsey.png', 'Im_LeonardoDiCaprio.png', 'Im_KeanuReeves.png', 'Im_HughJackman.png', 'Im_DanielRadcliffe.png', 'Im_JustinTimberlake.png', 'Im_RobertPattinson.png', 'Im_RyanGosling.png', 'Im_RyanReynolds.png'],diff,1,2.008242099999734,20,0,
JEYV1811,train,neg,30,neg30_id19_im8.bmp_neg30_id11_im1.bmp,['Im_GeorgeClooney.png', 'Im_PatrickDempsey.png', 'Im_LeonardoDiCaprio.png', 'Im_KeanuReeves.png', 'Im_HughJackman.png', 'Im_DanielRadcliffe.png', 'Im_JustinTimberlake.png', 'Im_RobertPattinson.png', 'Im_RyanGosling.png', 'Im_RyanReynolds.png'],diff,1,2.4668673999999555,21,0,
JEYV1811,train,neg,fs,negfs_id11_im10.bmp_negfs_id17_im14.bmp,['Im_GeorgeClooney.png', 'Im_PatrickDempsey.png', 'Im_LeonardoDiCaprio.png', 'Im_KeanuReeves.png', 'Im_HughJackman.png', 'Im_DanielRadcliffe.png', 'Im_JustinTimberlake.png', 'Im_RobertPattinson.png', 'Im_RyanGosling.png', 'Im_RyanReynolds.png'],diff,1,2.1749328000000787,22,0,
JEYV1811,train,neg,fs,negfs_id10_im17.bmp_negfs_id21_im17.bmp,['Im_GeorgeClooney.png', 'Im_PatrickDempsey.png', 'Im_LeonardoDiCaprio.png', 'Im_KeanuReeves.png', 'Im_HughJackman.png', 'Im_DanielRadcliffe.png', 'Im_JustinTimberlake.png', 'Im_RobertPattinson.png', 'Im_RyanGosling.png', 'Im_RyanReynolds.png'],diff,1,1.049999200000002,23,0,
JEYV1811,train,neg,0,neg0_id21_im22.bmp_neg0_id21_im17.bmp,['Im_GeorgeClooney.png', 'Im_PatrickDempsey.png', 'Im_LeonardoDiCaprio.png', 'Im_KeanuReeves.png', 'Im_HughJackman.png', 'Im_DanielRadcliffe.png', 'Im_JustinTimberlake.png', 'Im_RobertPattinson.png', 'Im_RyanGosling.png', 'Im_RyanReynolds.png'],same,1,0.7667481999997108,24,0,
JEYV1811,train,neg,150,neg150_id10_im18.bmp_neg150_id10_im17.bmp,['Im_GeorgeClooney.png', 'Im_PatrickDempsey.png', 'Im_LeonardoDiCaprio.png', 'Im_KeanuReeves.png', 'Im_HughJackman.png', 'Im_DanielRadcliffe.png', 'Im_JustinTimberlake.png', 'Im_RobertPattinson.png', 'Im_RyanGosling.png', 'Im_RyanReynolds.png'],same,1,0.7834104000003208,25,0,
JEYV1811,train,neg,120,neg120_id5_im1.bmp_neg120_id19_im27.bmp,['Im_GeorgeClooney.png', 'Im_PatrickDempsey.png', 'Im_LeonardoDiCaprio.png', 'Im_KeanuReeves.png', 'Im_HughJackman.png', 'Im_DanielRadcliffe.png', 'Im_JustinTimberlake.png', 'Im_RobertPattinson.png', 'Im_RyanGosling.png', 'Im_RyanReynolds.png'],diff,1,1.9498224000003574,26,0,
JEYV1811,train,neg,90,neg90_id20_im3.bmp_neg90_id7_im15.bmp,['Im_GeorgeClooney.png', 'Im_PatrickDempsey.png', 'Im_LeonardoDiCaprio.png', 'Im_KeanuReeves.png', 'Im_HughJackman.png', 'Im_DanielRadcliffe.png', 'Im_JustinTimberlake.png', 'Im_RobertPattinson.png', 'Im_RyanGosling.png', 'Im_RyanReynolds.png'],diff,1,1.1167765000000145,27,0,
JEYV1811,train,neg,60,neg60_id8_im20.bmp_neg60_id8_im21.bmp,['Im_GeorgeClooney.png', 'Im_PatrickDempsey.png', 'Im_LeonardoDiCaprio.png', 'Im_KeanuReeves.png', 'Im_HughJackman.png', 'Im_DanielRadcliffe.png', 'Im_JustinTimberlake.png', 'Im_RobertPattinson.png', 'Im_RyanGosling.png', 'Im_RyanReynolds.png'],same,1,1.2999731999998403,28,0,
JEYV1811,train,inv,fs,posfs_id7_im15.bmp_posfs_id13_im15.bmp,['Im_GeorgeClooney.png', 'Im_PatrickDempsey.png', 'Im_LeonardoDiCaprio.png', 'Im_KeanuReeves.png', 'Im_HughJackman.png', 'Im_DanielRadcliffe.png', 'Im_JustinTimberlake.png', 'Im_RobertPattinson.png', 'Im_RyanGosling.png', 'Im_RyanReynolds.png'],diff,1,1.1668869999998606,29,0,
JEYV1811,train,inv,90,pos90_id21_im16.bmp_pos90_id21_im22.bmp,['Im_GeorgeClooney.png', 'Im_PatrickDempsey.png', 'Im_LeonardoDiCaprio.png', 'Im_KeanuReeves.png', 'Im_HughJackman.png', 'Im_DanielRadcliffe.png', 'Im_JustinTimberlake.png', 'Im_RobertPattinson.png', 'Im_RyanGosling.png', 'Im_RyanReynolds.png'],same,1,1.4581811999996717,30,0,
JEYV1811,train,inv,150,pos150_id21_im16.bmp_pos150_id21_im17.bmp,['Im_GeorgeClooney.png', 'Im_PatrickDempsey.png', 'Im_LeonardoDiCaprio.png', 'Im_KeanuReeves.png', 'Im_HughJackman.png', 'Im_DanielRadcliffe.png', 'Im_JustinTimberlake.png', 'Im_RobertPattinson.png', 'Im_RyanGosling.png', 'Im_RyanReynolds.png'],same,1,0.9750312000001031,31,0,
JEYV1811,train,inv,60,pos60_id7_im15.bmp_pos60_id7_im26.bmp,['Im_GeorgeClooney.png', 'Im_PatrickDempsey.png', 'Im_LeonardoDiCaprio.png', 'Im_KeanuReeves.png', 'Im_HughJackman.png', 'Im_DanielRadcliffe.png', 'Im_JustinTimberlake.png', 'Im_RobertPattinson.png', 'Im_RyanGosling.png', 'Im_RyanReynolds.png'],same,1,1.1003215000000637,32,0,
JEYV1811,train,inv,60,pos60_id10_im18.bmp_pos60_id20_im30.bmp,['Im_GeorgeClooney.png', 'Im_PatrickDempsey.png', 'Im_LeonardoDiCaprio.png', 'Im_KeanuReeves.png', 'Im_HughJackman.png', 'Im_DanielRadcliffe.png', 'Im_JustinTimberlake.png', 'Im_RobertPattinson.png', 'Im_RyanGosling.png', 'Im_RyanReynolds.png'],diff,1,1.0334482000002936,33,0,
JEYV1811,train,inv,fs,posfs_id8_im21.bmp_posfs_id8_im20.bmp,['Im_GeorgeClooney.png', 'Im_PatrickDempsey.png', 'Im_LeonardoDiCaprio.png', 'Im_KeanuReeves.png', 'Im_HughJackman.png', 'Im_DanielRadcliffe.png', 'Im_JustinTimberlake.png', 'Im_RobertPattinson.png', 'Im_RyanGosling.png', 'Im_RyanReynolds.png'],same,1,0.9168124999996508,34,0,
JEYV1811,train,inv,150,pos150_id19_im27.bmp_pos150_id11_im10.bmp,['Im_GeorgeClooney.png', 'Im_PatrickDempsey.png', 'Im_LeonardoDiCaprio.png', 'Im_KeanuReeves.png', 'Im_HughJackman.png', 'Im_DanielRadcliffe.png', 'Im_JustinTimberlake.png', 'Im_RobertPattinson.png', 'Im_RyanGosling.png', 'Im_RyanReynolds.png'],diff,1,0.9836451000001034,35,0,
JEYV1811,train,inv,0,pos0_id10_im18.bmp_pos0_id10_im17.bmp,['Im_GeorgeClooney.png', 'Im_PatrickDempsey.png', 'Im_LeonardoDiCaprio.png', 'Im_KeanuReeves.png', 'Im_HughJackman.png', 'Im_DanielRadcliffe.png', 'Im_JustinTimberlake.png', 'Im_RobertPattinson.png', 'Im_RyanGosling.png', 'Im_RyanReynolds.png'],same,1,1.0000921000000744,36,0,
JEYV1811,train,inv,0,pos0_id20_im30.bmp_pos0_id10_im18.bmp,['Im_GeorgeClooney.png', 'Im_PatrickDempsey.png', 'Im_LeonardoDiCaprio.png', 'Im_KeanuReeves.png', 'Im_HughJackman.png', 'Im_DanielRadcliffe.png', 'Im_JustinTimberlake.png', 'Im_RobertPattinson.png', 'Im_RyanGosling.png', 'Im_RyanReynolds.png'],diff,1,1.0834320999997544,37,0,
JEYV1811,train,inv,30,pos30_id13_im10.bmp_pos30_id20_im12.bmp,['Im_GeorgeClooney.png', 'Im_PatrickDempsey.png', 'Im_LeonardoDiCaprio.png', 'Im_KeanuReeves.png', 'Im_HughJackman.png', 'Im_DanielRadcliffe.png', 'Im_JustinTimberlake.png', 'Im_RobertPattinson.png', 'Im_RyanGosling.png', 'Im_RyanReynolds.png'],diff,1,1.1835353000001305,38,0,
JEYV1811,train,inv,120,pos120_id20_im12.bmp_pos120_id8_im20.bmp,['Im_GeorgeClooney.png', 'Im_PatrickDempsey.png', 'Im_LeonardoDiCaprio.png', 'Im_KeanuReeves.png', 'Im_HughJackman.png', 'Im_DanielRadcliffe.png', 'Im_JustinTimberlake.png', 'Im_RobertPattinson.png', 'Im_RyanGosling.png', 'Im_RyanReynolds.png'],diff,1,1.5917701999997007,39,0,
JEYV1811,train,inv,30,pos30_id8_im20.bmp_pos30_id8_im13.bmp,['Im_GeorgeClooney.png', 'Im_PatrickDempsey.png', 'Im_LeonardoDiCaprio.png', 'Im_KeanuReeves.png', 'Im_HughJackman.png', 'Im_DanielRadcliffe.png', 'Im_JustinTimberlake.png', 'Im_RobertPattinson.png', 'Im_RyanGosling.png', 'Im_RyanReynolds.png'],same,1,0.9087341999997989,40,0,
JEYV1811,train,inv,90,pos90_id19_im27.bmp_pos90_id5_im1.bmp,['Im_GeorgeClooney.png', 'Im_PatrickDempsey.png', 'Im_LeonardoDiCaprio.png', 'Im_KeanuReeves.png', 'Im_HughJackman.png', 'Im_DanielRadcliffe.png', 'Im_JustinTimberlake.png', 'Im_RobertPattinson.png', 'Im_RyanGosling.png', 'Im_RyanReynolds.png'],diff,1,0.8920102000001862,41,0,
JEYV1811,train,inv,120,pos120_id20_im30.bmp_pos120_id10_im18.bmp,['Im_GeorgeClooney.png', 'Im_PatrickDempsey.png', 'Im_LeonardoDiCaprio.png', 'Im_KeanuReeves.png', 'Im_HughJackman.png', 'Im_DanielRadcliffe.png', 'Im_JustinTimberlake.png', 'Im_RobertPattinson.png', 'Im_RyanGosling.png', 'Im_RyanReynolds.png'],diff,1,0.6082369000000654,42,0,
JEYV1811,train,pos,fs,posfs_id8_im20.bmp_posfs_id20_im12.bmp,['Im_GeorgeClooney.png', 'Im_PatrickDempsey.png', 'Im_LeonardoDiCaprio.png', 'Im_KeanuReeves.png', 'Im_HughJackman.png', 'Im_DanielRadcliffe.png', 'Im_JustinTimberlake.png', 'Im_RobertPattinson.png', 'Im_RyanGosling.png', 'Im_RyanReynolds.png'],diff,1,1.1995662999997876,1,100.0,
JEYV1811,train,pos,120,pos120_id17_im14.bmp_pos120_id21_im22.bmp,['Im_GeorgeClooney.png', 'Im_PatrickDempsey.png', 'Im_LeonardoDiCaprio.png', 'Im_KeanuReeves.png', 'Im_HughJackman.png', 'Im_DanielRadcliffe.png', 'Im_JustinTimberlake.png', 'Im_RobertPattinson.png', 'Im_RyanGosling.png', 'Im_RyanReynolds.png'],diff,1,0.7002277999999933,2,100.0,
JEYV1811,train,pos,120,pos120_id20_im30.bmp_pos120_id10_im18.bmp,['Im_GeorgeClooney.png', 'Im_PatrickDempsey.png', 'Im_LeonardoDiCaprio.png', 'Im_KeanuReeves.png', 'Im_HughJackman.png', 'Im_DanielRadcliffe.png', 'Im_JustinTimberlake.png', 'Im_RobertPattinson.png', 'Im_RyanGosling.png', 'Im_RyanReynolds.png'],diff,1,0.7668220000000474,3,100.0,
JEYV1811,train,pos,fs,posfs_id7_im15.bmp_posfs_id7_im14.bmp,['Im_GeorgeClooney.png', 'Im_PatrickDempsey.png', 'Im_LeonardoDiCaprio.png', 'Im_KeanuReeves.png', 'Im_HughJackman.png', 'Im_DanielRadcliffe.png', 'Im_JustinTimberlake.png', 'Im_RobertPattinson.png', 'Im_RyanGosling.png', 'Im_RyanReynolds.png'],same,1,0.6330699999998615,4,100.0,
JEYV1811,train,pos,150,pos150_id20_im3.bmp_pos150_id20_im30.bmp,['Im_GeorgeClooney.png', 'Im_PatrickDempsey.png', 'Im_LeonardoDiCaprio.png', 'Im_KeanuReeves.png', 'Im_HughJackman.png', 'Im_DanielRadcliffe.png', 'Im_JustinTimberlake.png', 'Im_RobertPattinson.png', 'Im_RyanGosling.png', 'Im_RyanReynolds.png'],same,1,1.1500378000000637,5,100.0,
JEYV1811,train,pos,60,pos60_id21_im16.bmp_pos60_id21_im22.bmp,['Im_GeorgeClooney.png', 'Im_PatrickDempsey.png', 'Im_LeonardoDiCaprio.png', 'Im_KeanuReeves.png', 'Im_HughJackman.png', 'Im_DanielRadcliffe.png', 'Im_JustinTimberlake.png', 'Im_RobertPattinson.png', 'Im_RyanGosling.png', 'Im_RyanReynolds.png'],same,1,0.9669602999997551,6,100.0,
JEYV1811,train,pos,30,pos30_id19_im27.bmp_pos30_id11_im10.bmp,['Im_GeorgeClooney.png', 'Im_PatrickDempsey.png', 'Im_LeonardoDiCaprio.png', 'Im_KeanuReeves.png', 'Im_HughJackman.png', 'Im_DanielRadcliffe.png', 'Im_JustinTimberlake.png', 'Im_RobertPattinson.png', 'Im_RyanGosling.png', 'Im_RyanReynolds.png'],diff,1,0.8999690999999075,7,100.0,
JEYV1811,train,pos,90,pos90_id20_im3.bmp_pos90_id20_im12.bmp,['Im_GeorgeClooney.png', 'Im_PatrickDempsey.png', 'Im_LeonardoDiCaprio.png', 'Im_KeanuReeves.png', 'Im_HughJackman.png', 'Im_DanielRadcliffe.png', 'Im_JustinTimberlake.png', 'Im_RobertPattinson.png', 'Im_RyanGosling.png', 'Im_RyanReynolds.png'],same,1,0.9500770999998167,8,100.0,
JEYV1811,train,pos,90,pos90_id5_im20.bmp_pos90_id17_im8.bmp,['Im_GeorgeClooney.png', 'Im_PatrickDempsey.png', 'Im_LeonardoDiCaprio.png', 'Im_KeanuReeves.png', 'Im_HughJackman.png', 'Im_DanielRadcliffe.png', 'Im_JustinTimberlake.png', 'Im_RobertPattinson.png', 'Im_RyanGosling.png', 'Im_RyanReynolds.png'],diff,1,0.8500186000001122,9,100.0,
JEYV1811,train,pos,0,pos0_id20_im30.bmp_pos0_id20_im3.bmp,['Im_GeorgeClooney.png', 'Im_PatrickDempsey.png', 'Im_LeonardoDiCaprio.png', 'Im_KeanuReeves.png', 'Im_HughJackman.png', 'Im_DanielRadcliffe.png', 'Im_JustinTimberlake.png', 'Im_RobertPattinson.png', 'Im_RyanGosling.png', 'Im_RyanReynolds.png'],same,1,1.541559000000234,10,100.0,
JEYV1811,train,pos,60,pos60_id7_im26.bmp_pos60_id20_im3.bmp,['Im_GeorgeClooney.png', 'Im_PatrickDempsey.png', 'Im_LeonardoDiCaprio.png', 'Im_KeanuReeves.png', 'Im_HughJackman.png', 'Im_DanielRadcliffe.png', 'Im_JustinTimberlake.png', 'Im_RobertPattinson.png', 'Im_RyanGosling.png', 'Im_RyanReynolds.png'],diff,1,0.9333131999997022,11,100.0,
JEYV1811,train,pos,150,pos150_id8_im13.bmp_pos150_id5_im10.bmp,['Im_GeorgeClooney.png', 'Im_PatrickDempsey.png', 'Im_LeonardoDiCaprio.png', 'Im_KeanuReeves.png', 'Im_HughJackman.png', 'Im_DanielRadcliffe.png', 'Im_JustinTimberlake.png', 'Im_RobertPattinson.png', 'Im_RyanGosling.png', 'Im_RyanReynolds.png'],diff,1,0.8504488999997193,12,100.0,
JEYV1811,train,pos,30,pos30_id19_im8.bmp_pos30_id13_im29.bmp,['Im_GeorgeClooney.png', 'Im_PatrickDempsey.png', 'Im_LeonardoDiCaprio.png', 'Im_KeanuReeves.png', 'Im_HughJackman.png', 'Im_DanielRadcliffe.png', 'Im_JustinTimberlake.png', 'Im_RobertPattinson.png', 'Im_RyanGosling.png', 'Im_RyanReynolds.png'],diff,1,0.9247964000001048,13,100.0,
JEYV1811,train,pos,0,pos0_id13_im15.bmp_pos0_id7_im15.bmp,['Im_GeorgeClooney.png', 'Im_PatrickDempsey.png', 'Im_LeonardoDiCaprio.png', 'Im_KeanuReeves.png', 'Im_HughJackman.png', 'Im_DanielRadcliffe.png', 'Im_JustinTimberlake.png', 'Im_RobertPattinson.png', 'Im_RyanGosling.png', 'Im_RyanReynolds.png'],diff,1,0.9334588000001531,14,100.0,
JEYV1811,train,neg,0,neg0_id8_im21.bmp_neg0_id8_im20.bmp,['Im_GeorgeClooney.png', 'Im_PatrickDempsey.png', 'Im_LeonardoDiCaprio.png', 'Im_KeanuReeves.png', 'Im_HughJackman.png', 'Im_DanielRadcliffe.png', 'Im_JustinTimberlake.png', 'Im_RobertPattinson.png', 'Im_RyanGosling.png', 'Im_RyanReynolds.png'],same,1,0.8251236000000972,15,100.0,
JEYV1811,train,neg,150,neg150_id8_im20.bmp_neg150_id8_im13.bmp,['Im_GeorgeClooney.png', 'Im_PatrickDempsey.png', 'Im_LeonardoDiCaprio.png', 'Im_KeanuReeves.png', 'Im_HughJackman.png', 'Im_DanielRadcliffe.png', 'Im_JustinTimberlake.png', 'Im_RobertPattinson.png', 'Im_RyanGosling.png', 'Im_RyanReynolds.png'],diff,0,0.9497569999998632,15,100.0,
JEYV1811,train,neg,fs,negfs_id19_im4.bmp_negfs_id19_im8.bmp,['Im_GeorgeClooney.png', 'Im_PatrickDempsey.png', 'Im_LeonardoDiCaprio.png', 'Im_KeanuReeves.png', 'Im_HughJackman.png', 'Im_DanielRadcliffe.png', 'Im_JustinTimberlake.png', 'Im_RobertPattinson.png', 'Im_RyanGosling.png', 'Im_RyanReynolds.png'],diff,0,0.9168896000001041,15,100.0,
JEYV1811,train,neg,120,neg120_id19_im8.bmp_neg120_id19_im4.bmp,['Im_GeorgeClooney.png', 'Im_PatrickDempsey.png', 'Im_LeonardoDiCaprio.png', 'Im_KeanuReeves.png', 'Im_HughJackman.png', 'Im_DanielRadcliffe.png', 'Im_JustinTimberlake.png', 'Im_RobertPattinson.png', 'Im_RyanGosling.png', 'Im_RyanReynolds.png'],diff,0,0.8084171000000424,15,100.0,
JEYV1811,train,neg,fs,negfs_id10_im18.bmp_negfs_id11_im2.bmp,['Im_GeorgeClooney.png', 'Im_PatrickDempsey.png', 'Im_LeonardoDiCaprio.png', 'Im_KeanuReeves.png', 'Im_HughJackman.png', 'Im_DanielRadcliffe.png', 'Im_JustinTimberlake.png', 'Im_RobertPattinson.png', 'Im_RyanGosling.png', 'Im_RyanReynolds.png'],diff,1,0.9499018999999862,16,100.0,
JEYV1811,train,neg,60,neg60_id8_im13.bmp_neg60_id8_im20.bmp,['Im_GeorgeClooney.png', 'Im_PatrickDempsey.png', 'Im_LeonardoDiCaprio.png', 'Im_KeanuReeves.png', 'Im_HughJackman.png', 'Im_DanielRadcliffe.png', 'Im_JustinTimberlake.png', 'Im_RobertPattinson.png', 'Im_RyanGosling.png', 'Im_RyanReynolds.png'],same,1,0.949939699999959,17,100.0,
JEYV1811,train,neg,60,neg60_id10_im17.bmp_neg60_id10_im18.bmp,['Im_GeorgeClooney.png', 'Im_PatrickDempsey.png', 'Im_LeonardoDiCaprio.png', 'Im_KeanuReeves.png', 'Im_HughJackman.png', 'Im_DanielRadcliffe.png', 'Im_JustinTimberlake.png', 'Im_RobertPattinson.png', 'Im_RyanGosling.png', 'Im_RyanReynolds.png'],same,1,0.9337468999997327,18,100.0,
JEYV1811,train,neg,0,neg0_id13_im15.bmp_neg0_id7_im15.bmp,['Im_GeorgeClooney.png', 'Im_PatrickDempsey.png', 'Im_LeonardoDiCaprio.png', 'Im_KeanuReeves.png', 'Im_HughJackman.png', 'Im_DanielRadcliffe.png', 'Im_JustinTimberlake.png', 'Im_RobertPattinson.png', 'Im_RyanGosling.png', 'Im_RyanReynolds.png'],diff,1,0.8084444000000985,19,100.0,
JEYV1811,train,neg,90,neg90_id21_im22.bmp_neg90_id21_im16.bmp,['Im_GeorgeClooney.png', 'Im_PatrickDempsey.png', 'Im_LeonardoDiCaprio.png', 'Im_KeanuReeves.png', 'Im_HughJackman.png', 'Im_DanielRadcliffe.png', 'Im_JustinTimberlake.png', 'Im_RobertPattinson.png', 'Im_RyanGosling.png', 'Im_RyanReynolds.png'],same,1,0.8752701000003071,20,100.0,
JEYV1811,train,neg,90,neg90_id19_im8.bmp_neg90_id19_im4.bmp,['Im_GeorgeClooney.png', 'Im_PatrickDempsey.png', 'Im_LeonardoDiCaprio.png', 'Im_KeanuReeves.png', 'Im_HughJackman.png', 'Im_DanielRadcliffe.png', 'Im_JustinTimberlake.png', 'Im_RobertPattinson.png', 'Im_RyanGosling.png', 'Im_RyanReynolds.png'],same,1,0.9335575999998582,21,100.0,
JEYV1811,train,neg,120,neg120_id19_im8.bmp_neg120_id19_im27.bmp,['Im_GeorgeClooney.png', 'Im_PatrickDempsey.png', 'Im_LeonardoDiCaprio.png', 'Im_KeanuReeves.png', 'Im_HughJackman.png', 'Im_DanielRadcliffe.png', 'Im_JustinTimberlake.png', 'Im_RobertPattinson.png', 'Im_RyanGosling.png', 'Im_RyanReynolds.png'],same,1,0.8752208000000792,22,100.0,
JEYV1811,train,neg,150,neg150_id21_im17.bmp_neg150_id10_im17.bmp,['Im_GeorgeClooney.png', 'Im_PatrickDempsey.png', 'Im_LeonardoDiCaprio.png', 'Im_KeanuReeves.png', 'Im_HughJackman.png', 'Im_DanielRadcliffe.png', 'Im_JustinTimberlake.png', 'Im_RobertPattinson.png', 'Im_RyanGosling.png', 'Im_RyanReynolds.png'],diff,1,0.9501030000001265,23,100.0,
JEYV1811,train,neg,30,neg30_id11_im1.bmp_neg30_id11_im10.bmp,['Im_GeorgeClooney.png', 'Im_PatrickDempsey.png', 'Im_LeonardoDiCaprio.png', 'Im_KeanuReeves.png', 'Im_HughJackman.png', 'Im_DanielRadcliffe.png', 'Im_JustinTimberlake.png', 'Im_RobertPattinson.png', 'Im_RyanGosling.png', 'Im_RyanReynolds.png'],diff,0,0.9501838999999563,23,100.0,
JEYV1811,train,neg,30,neg30_id10_im1.bmp_neg30_id21_im16.bmp,['Im_GeorgeClooney.png', 'Im_PatrickDempsey.png', 'Im_LeonardoDiCaprio.png', 'Im_KeanuReeves.png', 'Im_HughJackman.png', 'Im_DanielRadcliffe.png', 'Im_JustinTimberlake.png', 'Im_RobertPattinson.png', 'Im_RyanGosling.png', 'Im_RyanReynolds.png'],diff,1,0.8499541000001045,24,100.0,
JEYV1811,train,inv,90,pos90_id21_im22.bmp_pos90_id21_im17.bmp,['Im_GeorgeClooney.png', 'Im_PatrickDempsey.png', 'Im_LeonardoDiCaprio.png', 'Im_KeanuReeves.png', 'Im_HughJackman.png', 'Im_DanielRadcliffe.png', 'Im_JustinTimberlake.png', 'Im_RobertPattinson.png', 'Im_RyanGosling.png', 'Im_RyanReynolds.png'],same,1,0.9417355000000498,25,100.0,
JEYV1811,train,inv,0,pos0_id21_im16.bmp_pos0_id11_im2.bmp,['Im_GeorgeClooney.png', 'Im_PatrickDempsey.png', 'Im_LeonardoDiCaprio.png', 'Im_KeanuReeves.png', 'Im_HughJackman.png', 'Im_DanielRadcliffe.png', 'Im_JustinTimberlake.png', 'Im_RobertPattinson.png', 'Im_RyanGosling.png', 'Im_RyanReynolds.png'],diff,1,1.033642399999735,26,100.0,
JEYV1811,train,inv,120,pos120_id17_im8.bmp_pos120_id17_im14.bmp,['Im_GeorgeClooney.png', 'Im_PatrickDempsey.png', 'Im_LeonardoDiCaprio.png', 'Im_KeanuReeves.png', 'Im_HughJackman.png', 'Im_DanielRadcliffe.png', 'Im_JustinTimberlake.png', 'Im_RobertPattinson.png', 'Im_RyanGosling.png', 'Im_RyanReynolds.png'],diff,0,0.9584736000001612,26,100.0,
JEYV1811,train,inv,0,pos0_id21_im22.bmp_pos0_id21_im17.bmp,['Im_GeorgeClooney.png', 'Im_PatrickDempsey.png', 'Im_LeonardoDiCaprio.png', 'Im_KeanuReeves.png', 'Im_HughJackman.png', 'Im_DanielRadcliffe.png', 'Im_JustinTimberlake.png', 'Im_RobertPattinson.png', 'Im_RyanGosling.png', 'Im_RyanReynolds.png'],same,1,0.9749919999999292,27,100.0,
JEYV1811,train,inv,90,pos90_id8_im20.bmp_pos90_id8_im13.bmp,['Im_GeorgeClooney.png', 'Im_PatrickDempsey.png', 'Im_LeonardoDiCaprio.png', 'Im_KeanuReeves.png', 'Im_HughJackman.png', 'Im_DanielRadcliffe.png', 'Im_JustinTimberlake.png', 'Im_RobertPattinson.png', 'Im_RyanGosling.png', 'Im_RyanReynolds.png'],diff,0,0.9750305999996272,27,100.0,
JEYV1811,train,inv,30,pos30_id21_im22.bmp_pos30_id8_im21.bmp,['Im_GeorgeClooney.png', 'Im_PatrickDempsey.png', 'Im_LeonardoDiCaprio.png', 'Im_KeanuReeves.png', 'Im_HughJackman.png', 'Im_DanielRadcliffe.png', 'Im_JustinTimberlake.png', 'Im_RobertPattinson.png', 'Im_RyanGosling.png', 'Im_RyanReynolds.png'],diff,1,0.9168257000001176,28,100.0,
JEYV1811,train,inv,150,pos150_id8_im20.bmp_pos150_id20_im12.bmp,['Im_GeorgeClooney.png', 'Im_PatrickDempsey.png', 'Im_LeonardoDiCaprio.png', 'Im_KeanuReeves.png', 'Im_HughJackman.png', 'Im_DanielRadcliffe.png', 'Im_JustinTimberlake.png', 'Im_RobertPattinson.png', 'Im_RyanGosling.png', 'Im_RyanReynolds.png'],diff,1,0.8165466999998898,29,100.0,
JEYV1811,train,inv,60,pos60_id17_im14.bmp_pos60_id17_im8.bmp,['Im_GeorgeClooney.png', 'Im_PatrickDempsey.png', 'Im_LeonardoDiCaprio.png', 'Im_KeanuReeves.png', 'Im_HughJackman.png', 'Im_DanielRadcliffe.png', 'Im_JustinTimberlake.png', 'Im_RobertPattinson.png', 'Im_RyanGosling.png', 'Im_RyanReynolds.png'],same,1,0.8501240000000507,30,100.0,
JEYV1811,train,inv,120,pos120_id20_im3.bmp_pos120_id20_im30.bmp,['Im_GeorgeClooney.png', 'Im_PatrickDempsey.png', 'Im_LeonardoDiCaprio.png', 'Im_KeanuReeves.png', 'Im_HughJackman.png', 'Im_DanielRadcliffe.png', 'Im_JustinTimberlake.png', 'Im_RobertPattinson.png', 'Im_RyanGosling.png', 'Im_RyanReynolds.png'],diff,0,0.9000346000002537,30,100.0,
JEYV1811,train,inv,150,pos150_id10_im17.bmp_pos150_id21_im17.bmp,['Im_GeorgeClooney.png', 'Im_PatrickDempsey.png', 'Im_LeonardoDiCaprio.png', 'Im_KeanuReeves.png', 'Im_HughJackman.png', 'Im_DanielRadcliffe.png', 'Im_JustinTimberlake.png', 'Im_RobertPattinson.png', 'Im_RyanGosling.png', 'Im_RyanReynolds.png'],diff,1,0.8587271000001238,31,100.0,
JEYV1811,train,inv,60,pos60_id10_im17.bmp_pos60_id17_im8.bmp,['Im_GeorgeClooney.png', 'Im_PatrickDempsey.png', 'Im_LeonardoDiCaprio.png', 'Im_KeanuReeves.png', 'Im_HughJackman.png', 'Im_DanielRadcliffe.png', 'Im_JustinTimberlake.png', 'Im_RobertPattinson.png', 'Im_RyanGosling.png', 'Im_RyanReynolds.png'],diff,1,0.9167256999999154,32,100.0,
JEYV1811,train,inv,fs,posfs_id7_im26.bmp_posfs_id20_im3.bmp,['Im_GeorgeClooney.png', 'Im_PatrickDempsey.png', 'Im_LeonardoDiCaprio.png', 'Im_KeanuReeves.png', 'Im_HughJackman.png', 'Im_DanielRadcliffe.png', 'Im_JustinTimberlake.png', 'Im_RobertPattinson.png', 'Im_RyanGosling.png', 'Im_RyanReynolds.png'],diff,1,0.9084459999999126,33,100.0,
JEYV1811,train,inv,30,pos30_id17_im8.bmp_pos30_id17_im14.bmp,['Im_GeorgeClooney.png', 'Im_PatrickDempsey.png', 'Im_LeonardoDiCaprio.png', 'Im_KeanuReeves.png', 'Im_HughJackman.png', 'Im_DanielRadcliffe.png', 'Im_JustinTimberlake.png', 'Im_RobertPattinson.png', 'Im_RyanGosling.png', 'Im_RyanReynolds.png'],same,1,0.8334233999999014,34,100.0,
JEYV1811,train,inv,fs,posfs_id11_im1.bmp_posfs_id13_im15.bmp,['Im_GeorgeClooney.png', 'Im_PatrickDempsey.png', 'Im_LeonardoDiCaprio.png', 'Im_KeanuReeves.png', 'Im_HughJackman.png', 'Im_DanielRadcliffe.png', 'Im_JustinTimberlake.png', 'Im_RobertPattinson.png', 'Im_RyanGosling.png', 'Im_RyanReynolds.png'],diff,1,0.8833905999999843,35,100.0,
JEYV1811,0,inv,150,pos150_id8_im21.bmp_pos150_id21_im22.bmp,['Im_GeorgeClooney.png', 'Im_PatrickDempsey.png', 'Im_LeonardoDiCaprio.png', 'Im_KeanuReeves.png', 'Im_HughJackman.png', 'Im_DanielRadcliffe.png', 'Im_JustinTimberlake.png', 'Im_RobertPattinson.png', 'Im_RyanGosling.png', 'Im_RyanReynolds.png'],diff,1,1.4501132999998845,1,0,
JEYV1811,0,inv,150,pos150_id7_im14.bmp_pos150_id7_im15.bmp,['Im_GeorgeClooney.png', 'Im_PatrickDempsey.png', 'Im_LeonardoDiCaprio.png', 'Im_KeanuReeves.png', 'Im_HughJackman.png', 'Im_DanielRadcliffe.png', 'Im_JustinTimberlake.png', 'Im_RobertPattinson.png', 'Im_RyanGosling.png', 'Im_RyanReynolds.png'],same,1,0.7085166000001664,2,0,
JEYV1811,0,inv,fs,posfs_id20_im3.bmp_posfs_id20_im12.bmp,['Im_GeorgeClooney.png', 'Im_PatrickDempsey.png', 'Im_LeonardoDiCaprio.png', 'Im_KeanuReeves.png', 'Im_HughJackman.png', 'Im_DanielRadcliffe.png', 'Im_JustinTimberlake.png', 'Im_RobertPattinson.png', 'Im_RyanGosling.png', 'Im_RyanReynolds.png'],same,1,0.908566200000223,3,0,
JEYV1811,0,inv,30,pos30_id17_im8.bmp_pos30_id5_im20.bmp,['Im_GeorgeClooney.png', 'Im_PatrickDempsey.png', 'Im_LeonardoDiCaprio.png', 'Im_KeanuReeves.png', 'Im_HughJackman.png', 'Im_DanielRadcliffe.png', 'Im_JustinTimberlake.png', 'Im_RobertPattinson.png', 'Im_RyanGosling.png', 'Im_RyanReynolds.png'],diff,1,1.158688699999857,4,0,
JEYV1811,0,inv,30,pos30_id17_im9.bmp_pos30_id5_im20.bmp,['Im_GeorgeClooney.png', 'Im_PatrickDempsey.png', 'Im_LeonardoDiCaprio.png', 'Im_KeanuReeves.png', 'Im_HughJackman.png', 'Im_DanielRadcliffe.png', 'Im_JustinTimberlake.png', 'Im_RobertPattinson.png', 'Im_RyanGosling.png', 'Im_RyanReynolds.png'],diff,1,0.8584990999997899,5,0,
JEYV1811,0,inv,120,pos120_id19_im8.bmp_pos120_id11_im1.bmp,['Im_GeorgeClooney.png', 'Im_PatrickDempsey.png', 'Im_LeonardoDiCaprio.png', 'Im_KeanuReeves.png', 'Im_HughJackman.png', 'Im_DanielRadcliffe.png', 'Im_JustinTimberlake.png', 'Im_RobertPattinson.png', 'Im_RyanGosling.png', 'Im_RyanReynolds.png'],diff,1,1.24153460000025,6,0,
JEYV1811,0,inv,120,pos120_id21_im17.bmp_pos120_id21_im16.bmp,['Im_GeorgeClooney.png', 'Im_PatrickDempsey.png', 'Im_LeonardoDiCaprio.png', 'Im_KeanuReeves.png', 'Im_HughJackman.png', 'Im_DanielRadcliffe.png', 'Im_JustinTimberlake.png', 'Im_RobertPattinson.png', 'Im_RyanGosling.png', 'Im_RyanReynolds.png'],diff,0,1.7916992000000391,6,0,
JEYV1811,0,inv,60,pos60_id19_im8.bmp_pos60_id19_im27.bmp,['Im_GeorgeClooney.png', 'Im_PatrickDempsey.png', 'Im_LeonardoDiCaprio.png', 'Im_KeanuReeves.png', 'Im_HughJackman.png', 'Im_DanielRadcliffe.png', 'Im_JustinTimberlake.png', 'Im_RobertPattinson.png', 'Im_RyanGosling.png', 'Im_RyanReynolds.png'],same,1,0.5917309000001296,7,0,
JEYV1811,0,inv,90,pos90_id19_im27.bmp_pos90_id19_im4.bmp,['Im_GeorgeClooney.png', 'Im_PatrickDempsey.png', 'Im_LeonardoDiCaprio.png', 'Im_KeanuReeves.png', 'Im_HughJackman.png', 'Im_DanielRadcliffe.png', 'Im_JustinTimberlake.png', 'Im_RobertPattinson.png', 'Im_RyanGosling.png', 'Im_RyanReynolds.png'],diff,0,0.8251621999997951,7,0,
JEYV1811,0,inv,90,pos90_id11_im10.bmp_pos90_id11_im1.bmp,['Im_GeorgeClooney.png', 'Im_PatrickDempsey.png', 'Im_LeonardoDiCaprio.png', 'Im_KeanuReeves.png', 'Im_HughJackman.png', 'Im_DanielRadcliffe.png', 'Im_JustinTimberlake.png', 'Im_RobertPattinson.png', 'Im_RyanGosling.png', 'Im_RyanReynolds.png'],diff,0,0.8336853000000701,7,0,
JEYV1811,0,inv,fs,posfs_id11_im10.bmp_posfs_id11_im1.bmp,['Im_GeorgeClooney.png', 'Im_PatrickDempsey.png', 'Im_LeonardoDiCaprio.png', 'Im_KeanuReeves.png', 'Im_HughJackman.png', 'Im_DanielRadcliffe.png', 'Im_JustinTimberlake.png', 'Im_RobertPattinson.png', 'Im_RyanGosling.png', 'Im_RyanReynolds.png'],same,1,0.9001988999998503,8,0,
JEYV1811,0,inv,0,pos0_id19_im27.bmp_pos0_id5_im1.bmp,['Im_GeorgeClooney.png', 'Im_PatrickDempsey.png', 'Im_LeonardoDiCaprio.png', 'Im_KeanuReeves.png', 'Im_HughJackman.png', 'Im_DanielRadcliffe.png', 'Im_JustinTimberlake.png', 'Im_RobertPattinson.png', 'Im_RyanGosling.png', 'Im_RyanReynolds.png'],same,0,0.7420310000002246,8,0,
JEYV1811,0,inv,0,pos0_id13_im15.bmp_pos0_id7_im15.bmp,['Im_GeorgeClooney.png', 'Im_PatrickDempsey.png', 'Im_LeonardoDiCaprio.png', 'Im_KeanuReeves.png', 'Im_HughJackman.png', 'Im_DanielRadcliffe.png', 'Im_JustinTimberlake.png', 'Im_RobertPattinson.png', 'Im_RyanGosling.png', 'Im_RyanReynolds.png'],diff,1,0.9667656000001443,9,0,
JEYV1811,0,inv,60,pos60_id5_im10.bmp_pos60_id20_im30.bmp,['Im_GeorgeClooney.png', 'Im_PatrickDempsey.png', 'Im_LeonardoDiCaprio.png', 'Im_KeanuReeves.png', 'Im_HughJackman.png', 'Im_DanielRadcliffe.png', 'Im_JustinTimberlake.png', 'Im_RobertPattinson.png', 'Im_RyanGosling.png', 'Im_RyanReynolds.png'],diff,1,0.8500871999999617,10,0,
JEYV1811,1,neg,150,neg150_id21_im22.bmp_neg150_id21_im16.bmp,['Im_GeorgeClooney.png', 'Im_PatrickDempsey.png', 'Im_LeonardoDiCaprio.png', 'Im_KeanuReeves.png', 'Im_HughJackman.png', 'Im_DanielRadcliffe.png', 'Im_JustinTimberlake.png', 'Im_RobertPattinson.png', 'Im_RyanGosling.png', 'Im_RyanReynolds.png'],same,1,0.783386099999916,11,0,
JEYV1811,1,neg,120,neg120_id13_im10.bmp_neg120_id13_im29.bmp,['Im_GeorgeClooney.png', 'Im_PatrickDempsey.png', 'Im_LeonardoDiCaprio.png', 'Im_KeanuReeves.png', 'Im_HughJackman.png', 'Im_DanielRadcliffe.png', 'Im_JustinTimberlake.png', 'Im_RobertPattinson.png', 'Im_RyanGosling.png', 'Im_RyanReynolds.png'],same,1,1.0002785000001495,12,0,
JEYV1811,1,neg,90,neg90_id10_im18.bmp_neg90_id11_im2.bmp,['Im_GeorgeClooney.png', 'Im_PatrickDempsey.png', 'Im_LeonardoDiCaprio.png', 'Im_KeanuReeves.png', 'Im_HughJackman.png', 'Im_DanielRadcliffe.png', 'Im_JustinTimberlake.png', 'Im_RobertPattinson.png', 'Im_RyanGosling.png', 'Im_RyanReynolds.png'],diff,1,0.7999936999999591,13,0,
JEYV1811,1,neg,60,neg60_id21_im22.bmp_neg60_id17_im14.bmp,['Im_GeorgeClooney.png', 'Im_PatrickDempsey.png', 'Im_LeonardoDiCaprio.png', 'Im_KeanuReeves.png', 'Im_HughJackman.png', 'Im_DanielRadcliffe.png', 'Im_JustinTimberlake.png', 'Im_RobertPattinson.png', 'Im_RyanGosling.png', 'Im_RyanReynolds.png'],diff,1,0.9000043000000915,14,0,
JEYV1811,1,neg,0,neg0_id5_im1.bmp_neg0_id7_im14.bmp,['Im_GeorgeClooney.png', 'Im_PatrickDempsey.png', 'Im_LeonardoDiCaprio.png', 'Im_KeanuReeves.png', 'Im_HughJackman.png', 'Im_DanielRadcliffe.png', 'Im_JustinTimberlake.png', 'Im_RobertPattinson.png', 'Im_RyanGosling.png', 'Im_RyanReynolds.png'],diff,1,0.9752587000002677,15,0,
JEYV1811,1,neg,90,neg90_id10_im1.bmp_neg90_id10_im18.bmp,['Im_GeorgeClooney.png', 'Im_PatrickDempsey.png', 'Im_LeonardoDiCaprio.png', 'Im_KeanuReeves.png', 'Im_HughJackman.png', 'Im_DanielRadcliffe.png', 'Im_JustinTimberlake.png', 'Im_RobertPattinson.png', 'Im_RyanGosling.png', 'Im_RyanReynolds.png'],same,1,1.1335504000003311,16,0,
JEYV1811,1,neg,150,neg150_id7_im15.bmp_neg150_id20_im3.bmp,['Im_GeorgeClooney.png', 'Im_PatrickDempsey.png', 'Im_LeonardoDiCaprio.png', 'Im_KeanuReeves.png', 'Im_HughJackman.png', 'Im_DanielRadcliffe.png', 'Im_JustinTimberlake.png', 'Im_RobertPattinson.png', 'Im_RyanGosling.png', 'Im_RyanReynolds.png'],diff,1,0.9085217000001649,17,0,
JEYV1811,1,neg,30,neg30_id7_im15.bmp_neg30_id7_im14.bmp,['Im_GeorgeClooney.png', 'Im_PatrickDempsey.png', 'Im_LeonardoDiCaprio.png', 'Im_KeanuReeves.png', 'Im_HughJackman.png', 'Im_DanielRadcliffe.png', 'Im_JustinTimberlake.png', 'Im_RobertPattinson.png', 'Im_RyanGosling.png', 'Im_RyanReynolds.png'],diff,0,1.0167598999996699,17,0,
JEYV1811,1,neg,60,neg60_id10_im1.bmp_neg60_id21_im16.bmp,['Im_GeorgeClooney.png', 'Im_PatrickDempsey.png', 'Im_LeonardoDiCaprio.png', 'Im_KeanuReeves.png', 'Im_HughJackman.png', 'Im_DanielRadcliffe.png', 'Im_JustinTimberlake.png', 'Im_RobertPattinson.png', 'Im_RyanGosling.png', 'Im_RyanReynolds.png'],diff,1,1.5417632999997295,18,0,
JEYV1811,1,neg,fs,negfs_id19_im27.bmp_negfs_id11_im10.bmp,['Im_GeorgeClooney.png', 'Im_PatrickDempsey.png', 'Im_LeonardoDiCaprio.png', 'Im_KeanuReeves.png', 'Im_HughJackman.png', 'Im_DanielRadcliffe.png', 'Im_JustinTimberlake.png', 'Im_RobertPattinson.png', 'Im_RyanGosling.png', 'Im_RyanReynolds.png'],diff,1,1.23339390000001,19,0,
JEYV1811,1,neg,0,neg0_id8_im21.bmp_neg0_id8_im13.bmp,['Im_GeorgeClooney.png', 'Im_PatrickDempsey.png', 'Im_LeonardoDiCaprio.png', 'Im_KeanuReeves.png', 'Im_HughJackman.png', 'Im_DanielRadcliffe.png', 'Im_JustinTimberlake.png', 'Im_RobertPattinson.png', 'Im_RyanGosling.png', 'Im_RyanReynolds.png'],same,1,1.0001125000003412,20,0,
JEYV1811,1,neg,120,neg120_id5_im10.bmp_neg120_id5_im1.bmp,['Im_GeorgeClooney.png', 'Im_PatrickDempsey.png', 'Im_LeonardoDiCaprio.png', 'Im_KeanuReeves.png', 'Im_HughJackman.png', 'Im_DanielRadcliffe.png', 'Im_JustinTimberlake.png', 'Im_RobertPattinson.png', 'Im_RyanGosling.png', 'Im_RyanReynolds.png'],same,1,0.8584820999999465,21,0,
JEYV1811,1,neg,fs,negfs_id10_im1.bmp_negfs_id10_im18.bmp,['Im_GeorgeClooney.png', 'Im_PatrickDempsey.png', 'Im_LeonardoDiCaprio.png', 'Im_KeanuReeves.png', 'Im_HughJackman.png', 'Im_DanielRadcliffe.png', 'Im_JustinTimberlake.png', 'Im_RobertPattinson.png', 'Im_RyanGosling.png', 'Im_RyanReynolds.png'],same,1,0.9082431000001634,22,0,
JEYV1811,1,neg,30,neg30_id5_im10.bmp_neg30_id5_im1.bmp,['Im_GeorgeClooney.png', 'Im_PatrickDempsey.png', 'Im_LeonardoDiCaprio.png', 'Im_KeanuReeves.png', 'Im_HughJackman.png', 'Im_DanielRadcliffe.png', 'Im_JustinTimberlake.png', 'Im_RobertPattinson.png', 'Im_RyanGosling.png', 'Im_RyanReynolds.png'],same,1,1.0167258000001311,23,0,
JEYV1811,2,pos,120,pos120_id7_im14.bmp_pos120_id7_im26.bmp,['Im_GeorgeClooney.png', 'Im_PatrickDempsey.png', 'Im_LeonardoDiCaprio.png', 'Im_KeanuReeves.png', 'Im_HughJackman.png', 'Im_DanielRadcliffe.png', 'Im_JustinTimberlake.png', 'Im_RobertPattinson.png', 'Im_RyanGosling.png', 'Im_RyanReynolds.png'],same,1,0.7583878000000368,24,0,
JEYV1811,2,pos,90,pos90_id21_im17.bmp_pos90_id21_im22.bmp,['Im_GeorgeClooney.png', 'Im_PatrickDempsey.png', 'Im_LeonardoDiCaprio.png', 'Im_KeanuReeves.png', 'Im_HughJackman.png', 'Im_DanielRadcliffe.png', 'Im_JustinTimberlake.png', 'Im_RobertPattinson.png', 'Im_RyanGosling.png', 'Im_RyanReynolds.png'],same,1,1.0084483000000546,25,0,
JEYV1811,2,pos,150,pos150_id5_im1.bmp_pos150_id5_im20.bmp,['Im_GeorgeClooney.png', 'Im_PatrickDempsey.png', 'Im_LeonardoDiCaprio.png', 'Im_KeanuReeves.png', 'Im_HughJackman.png', 'Im_DanielRadcliffe.png', 'Im_JustinTimberlake.png', 'Im_RobertPattinson.png', 'Im_RyanGosling.png', 'Im_RyanReynolds.png'],same,1,0.9250590000001466,26,0,
JEYV1811,2,pos,fs,posfs_id5_im20.bmp_posfs_id5_im1.bmp,['Im_GeorgeClooney.png', 'Im_PatrickDempsey.png', 'Im_LeonardoDiCaprio.png', 'Im_KeanuReeves.png', 'Im_HughJackman.png', 'Im_DanielRadcliffe.png', 'Im_JustinTimberlake.png', 'Im_RobertPattinson.png', 'Im_RyanGosling.png', 'Im_RyanReynolds.png'],same,1,0.9750155000001541,27,0,
JEYV1811,2,pos,150,pos150_id17_im9.bmp_pos150_id17_im8.bmp,['Im_GeorgeClooney.png', 'Im_PatrickDempsey.png', 'Im_LeonardoDiCaprio.png', 'Im_KeanuReeves.png', 'Im_HughJackman.png', 'Im_DanielRadcliffe.png', 'Im_JustinTimberlake.png', 'Im_RobertPattinson.png', 'Im_RyanGosling.png', 'Im_RyanReynolds.png'],same,1,0.9752266999998938,28,0,
JEYV1811,2,pos,30,pos30_id5_im1.bmp_pos30_id19_im27.bmp,['Im_GeorgeClooney.png', 'Im_PatrickDempsey.png', 'Im_LeonardoDiCaprio.png', 'Im_KeanuReeves.png', 'Im_HughJackman.png', 'Im_DanielRadcliffe.png', 'Im_JustinTimberlake.png', 'Im_RobertPattinson.png', 'Im_RyanGosling.png', 'Im_RyanReynolds.png'],diff,1,0.8335894000001645,29,0,
JEYV1811,2,pos,30,pos30_id19_im8.bmp_pos30_id11_im1.bmp,['Im_GeorgeClooney.png', 'Im_PatrickDempsey.png', 'Im_LeonardoDiCaprio.png', 'Im_KeanuReeves.png', 'Im_HughJackman.png', 'Im_DanielRadcliffe.png', 'Im_JustinTimberlake.png', 'Im_RobertPattinson.png', 'Im_RyanGosling.png', 'Im_RyanReynolds.png'],diff,1,0.858605500000067,30,0,
JEYV1811,2,pos,fs,posfs_id20_im12.bmp_posfs_id13_im10.bmp,['Im_GeorgeClooney.png', 'Im_PatrickDempsey.png', 'Im_LeonardoDiCaprio.png', 'Im_KeanuReeves.png', 'Im_HughJackman.png', 'Im_DanielRadcliffe.png', 'Im_JustinTimberlake.png', 'Im_RobertPattinson.png', 'Im_RyanGosling.png', 'Im_RyanReynolds.png'],diff,1,0.758597699999882,31,0,
JEYV1811,2,pos,60,pos60_id5_im20.bmp_pos60_id17_im8.bmp,['Im_GeorgeClooney.png', 'Im_PatrickDempsey.png', 'Im_LeonardoDiCaprio.png', 'Im_KeanuReeves.png', 'Im_HughJackman.png', 'Im_DanielRadcliffe.png', 'Im_JustinTimberlake.png', 'Im_RobertPattinson.png', 'Im_RyanGosling.png', 'Im_RyanReynolds.png'],diff,1,0.7917213000000629,32,0,
JEYV1811,2,pos,90,pos90_id19_im4.bmp_pos90_id8_im21.bmp,['Im_GeorgeClooney.png', 'Im_PatrickDempsey.png', 'Im_LeonardoDiCaprio.png', 'Im_KeanuReeves.png', 'Im_HughJackman.png', 'Im_DanielRadcliffe.png', 'Im_JustinTimberlake.png', 'Im_RobertPattinson.png', 'Im_RyanGosling.png', 'Im_RyanReynolds.png'],diff,1,0.6166610000000219,33,0,
JEYV1811,2,pos,0,pos0_id19_im4.bmp_pos0_id19_im8.bmp,['Im_GeorgeClooney.png', 'Im_PatrickDempsey.png', 'Im_LeonardoDiCaprio.png', 'Im_KeanuReeves.png', 'Im_HughJackman.png', 'Im_DanielRadcliffe.png', 'Im_JustinTimberlake.png', 'Im_RobertPattinson.png', 'Im_RyanGosling.png', 'Im_RyanReynolds.png'],same,1,2.5753255999998146,34,0,
JEYV1811,2,pos,60,pos60_id13_im10.bmp_pos60_id20_im12.bmp,['Im_GeorgeClooney.png', 'Im_PatrickDempsey.png', 'Im_LeonardoDiCaprio.png', 'Im_KeanuReeves.png', 'Im_HughJackman.png', 'Im_DanielRadcliffe.png', 'Im_JustinTimberlake.png', 'Im_RobertPattinson.png', 'Im_RyanGosling.png', 'Im_RyanReynolds.png'],diff,1,0.7589676000002328,35,0,
JEYV1811,2,pos,0,pos0_id11_im10.bmp_pos0_id19_im27.bmp,['Im_GeorgeClooney.png', 'Im_PatrickDempsey.png', 'Im_LeonardoDiCaprio.png', 'Im_KeanuReeves.png', 'Im_HughJackman.png', 'Im_DanielRadcliffe.png', 'Im_JustinTimberlake.png', 'Im_RobertPattinson.png', 'Im_RyanGosling.png', 'Im_RyanReynolds.png'],diff,1,0.7336057000002256,36,0,
JEYV1811,2,pos,120,pos120_id8_im20.bmp_pos120_id20_im12.bmp,['Im_GeorgeClooney.png', 'Im_PatrickDempsey.png', 'Im_LeonardoDiCaprio.png', 'Im_KeanuReeves.png', 'Im_HughJackman.png', 'Im_DanielRadcliffe.png', 'Im_JustinTimberlake.png', 'Im_RobertPattinson.png', 'Im_RyanGosling.png', 'Im_RyanReynolds.png'],diff,1,0.47498019999966345,37,0,
JEYV1811,3,neg,150,neg150_id11_im2.bmp_neg150_id10_im18.bmp,['Im_GeorgeClooney.png', 'Im_PatrickDempsey.png', 'Im_LeonardoDiCaprio.png', 'Im_KeanuReeves.png', 'Im_HughJackman.png', 'Im_DanielRadcliffe.png', 'Im_JustinTimberlake.png', 'Im_RobertPattinson.png', 'Im_RyanGosling.png', 'Im_RyanReynolds.png'],diff,1,0.9502849000000424,1,88.0952380952381,
JEYV1811,3,neg,150,neg150_id7_im26.bmp_neg150_id7_im15.bmp,['Im_GeorgeClooney.png', 'Im_PatrickDempsey.png', 'Im_LeonardoDiCaprio.png', 'Im_KeanuReeves.png', 'Im_HughJackman.png', 'Im_DanielRadcliffe.png', 'Im_JustinTimberlake.png', 'Im_RobertPattinson.png', 'Im_RyanGosling.png', 'Im_RyanReynolds.png'],same,1,1.2167542000001959,2,88.0952380952381,
JEYV1811,3,neg,60,neg60_id13_im15.bmp_neg60_id13_im29.bmp,['Im_GeorgeClooney.png', 'Im_PatrickDempsey.png', 'Im_LeonardoDiCaprio.png', 'Im_KeanuReeves.png', 'Im_HughJackman.png', 'Im_DanielRadcliffe.png', 'Im_JustinTimberlake.png', 'Im_RobertPattinson.png', 'Im_RyanGosling.png', 'Im_RyanReynolds.png'],same,1,1.150083099999847,3,88.0952380952381,
JEYV1811,3,neg,0,neg0_id17_im9.bmp_neg0_id5_im20.bmp,['Im_GeorgeClooney.png', 'Im_PatrickDempsey.png', 'Im_LeonardoDiCaprio.png', 'Im_KeanuReeves.png', 'Im_HughJackman.png', 'Im_DanielRadcliffe.png', 'Im_JustinTimberlake.png', 'Im_RobertPattinson.png', 'Im_RyanGosling.png', 'Im_RyanReynolds.png'],same,0,0.7002380000003541,3,88.0952380952381,
JEYV1811,3,neg,90,neg90_id10_im17.bmp_neg90_id10_im1.bmp,['Im_GeorgeClooney.png', 'Im_PatrickDempsey.png', 'Im_LeonardoDiCaprio.png', 'Im_KeanuReeves.png', 'Im_HughJackman.png', 'Im_DanielRadcliffe.png', 'Im_JustinTimberlake.png', 'Im_RobertPattinson.png', 'Im_RyanGosling.png', 'Im_RyanReynolds.png'],same,1,0.575269500000104,4,88.0952380952381,
JEYV1811,3,neg,120,neg120_id21_im22.bmp_neg120_id21_im17.bmp,['Im_GeorgeClooney.png', 'Im_PatrickDempsey.png', 'Im_LeonardoDiCaprio.png', 'Im_KeanuReeves.png', 'Im_HughJackman.png', 'Im_DanielRadcliffe.png', 'Im_JustinTimberlake.png', 'Im_RobertPattinson.png', 'Im_RyanGosling.png', 'Im_RyanReynolds.png'],same,1,0.6835794999997233,5,88.0952380952381,
JEYV1811,3,neg,120,neg120_id11_im2.bmp_neg120_id11_im1.bmp,['Im_GeorgeClooney.png', 'Im_PatrickDempsey.png', 'Im_LeonardoDiCaprio.png', 'Im_KeanuReeves.png', 'Im_HughJackman.png', 'Im_DanielRadcliffe.png', 'Im_JustinTimberlake.png', 'Im_RobertPattinson.png', 'Im_RyanGosling.png', 'Im_RyanReynolds.png'],same,1,0.6170453999998244,6,88.0952380952381,
JEYV1811,3,neg,30,neg30_id13_im29.bmp_neg30_id8_im13.bmp,['Im_GeorgeClooney.png', 'Im_PatrickDempsey.png', 'Im_LeonardoDiCaprio.png', 'Im_KeanuReeves.png', 'Im_HughJackman.png', 'Im_DanielRadcliffe.png', 'Im_JustinTimberlake.png', 'Im_RobertPattinson.png', 'Im_RyanGosling.png', 'Im_RyanReynolds.png'],diff,1,0.9003930999997465,7,88.0952380952381,
JEYV1811,3,neg,30,neg30_id5_im20.bmp_neg30_id5_im10.bmp,['Im_GeorgeClooney.png', 'Im_PatrickDempsey.png', 'Im_LeonardoDiCaprio.png', 'Im_KeanuReeves.png', 'Im_HughJackman.png', 'Im_DanielRadcliffe.png', 'Im_JustinTimberlake.png', 'Im_RobertPattinson.png', 'Im_RyanGosling.png', 'Im_RyanReynolds.png'],diff,0,1.0583966999997756,7,88.0952380952381,
JEYV1811,3,neg,fs,negfs_id8_im21.bmp_negfs_id8_im20.bmp,['Im_GeorgeClooney.png', 'Im_PatrickDempsey.png', 'Im_LeonardoDiCaprio.png', 'Im_KeanuReeves.png', 'Im_HughJackman.png', 'Im_DanielRadcliffe.png', 'Im_JustinTimberlake.png', 'Im_RobertPattinson.png', 'Im_RyanGosling.png', 'Im_RyanReynolds.png'],same,1,0.8586003999998866,8,88.0952380952381,
JEYV1811,3,neg,90,neg90_id8_im13.bmp_neg90_id8_im20.bmp,['Im_GeorgeClooney.png', 'Im_PatrickDempsey.png', 'Im_LeonardoDiCaprio.png', 'Im_KeanuReeves.png', 'Im_HughJackman.png', 'Im_DanielRadcliffe.png', 'Im_JustinTimberlake.png', 'Im_RobertPattinson.png', 'Im_RyanGosling.png', 'Im_RyanReynolds.png'],same,1,0.7250207999995837,9,88.0952380952381,
JEYV1811,3,neg,fs,negfs_id21_im17.bmp_negfs_id17_im9.bmp,['Im_GeorgeClooney.png', 'Im_PatrickDempsey.png', 'Im_LeonardoDiCaprio.png', 'Im_KeanuReeves.png', 'Im_HughJackman.png', 'Im_DanielRadcliffe.png', 'Im_JustinTimberlake.png', 'Im_RobertPattinson.png', 'Im_RyanGosling.png', 'Im_RyanReynolds.png'],diff,1,0.8417069000001902,10,88.0952380952381,
JEYV1811,3,neg,60,neg60_id7_im14.bmp_neg60_id5_im1.bmp,['Im_GeorgeClooney.png', 'Im_PatrickDempsey.png', 'Im_LeonardoDiCaprio.png', 'Im_KeanuReeves.png', 'Im_HughJackman.png', 'Im_DanielRadcliffe.png', 'Im_JustinTimberlake.png', 'Im_RobertPattinson.png', 'Im_RyanGosling.png', 'Im_RyanReynolds.png'],diff,1,1.058589899999788,11,88.0952380952381,
JEYV1811,3,neg,0,neg0_id13_im29.bmp_neg0_id13_im10.bmp,['Im_GeorgeClooney.png', 'Im_PatrickDempsey.png', 'Im_LeonardoDiCaprio.png', 'Im_KeanuReeves.png', 'Im_HughJackman.png', 'Im_DanielRadcliffe.png', 'Im_JustinTimberlake.png', 'Im_RobertPattinson.png', 'Im_RyanGosling.png', 'Im_RyanReynolds.png'],same,1,1.1917264000003343,12,88.0952380952381,
JEYV1811,4,pos,fs,posfs_id7_im26.bmp_posfs_id7_im15.bmp,['Im_GeorgeClooney.png', 'Im_PatrickDempsey.png', 'Im_LeonardoDiCaprio.png', 'Im_KeanuReeves.png', 'Im_HughJackman.png', 'Im_DanielRadcliffe.png', 'Im_JustinTimberlake.png', 'Im_RobertPattinson.png', 'Im_RyanGosling.png', 'Im_RyanReynolds.png'],same,1,0.8417371000000458,13,88.0952380952381,
JEYV1811,4,pos,90,pos90_id11_im1.bmp_pos90_id11_im10.bmp,['Im_GeorgeClooney.png', 'Im_PatrickDempsey.png', 'Im_LeonardoDiCaprio.png', 'Im_KeanuReeves.png', 'Im_HughJackman.png', 'Im_DanielRadcliffe.png', 'Im_JustinTimberlake.png', 'Im_RobertPattinson.png', 'Im_RyanGosling.png', 'Im_RyanReynolds.png'],same,1,0.9664826999996876,14,88.0952380952381,
JEYV1811,4,pos,150,pos150_id11_im10.bmp_pos150_id17_im14.bmp,['Im_GeorgeClooney.png', 'Im_PatrickDempsey.png', 'Im_LeonardoDiCaprio.png', 'Im_KeanuReeves.png', 'Im_HughJackman.png', 'Im_DanielRadcliffe.png', 'Im_JustinTimberlake.png', 'Im_RobertPattinson.png', 'Im_RyanGosling.png', 'Im_RyanReynolds.png'],diff,1,0.8914758000000802,15,88.0952380952381,
JEYV1811,4,pos,30,pos30_id10_im18.bmp_pos30_id20_im30.bmp,['Im_GeorgeClooney.png', 'Im_PatrickDempsey.png', 'Im_LeonardoDiCaprio.png', 'Im_KeanuReeves.png', 'Im_HughJackman.png', 'Im_DanielRadcliffe.png', 'Im_JustinTimberlake.png', 'Im_RobertPattinson.png', 'Im_RyanGosling.png', 'Im_RyanReynolds.png'],diff,1,0.7835055999998985,16,88.0952380952381,
JEYV1811,4,pos,120,pos120_id11_im2.bmp_pos120_id21_im16.bmp,['Im_GeorgeClooney.png', 'Im_PatrickDempsey.png', 'Im_LeonardoDiCaprio.png', 'Im_KeanuReeves.png', 'Im_HughJackman.png', 'Im_DanielRadcliffe.png', 'Im_JustinTimberlake.png', 'Im_RobertPattinson.png', 'Im_RyanGosling.png', 'Im_RyanReynolds.png'],diff,1,1.0002832000000126,17,88.0952380952381,
JEYV1811,4,pos,fs,posfs_id19_im8.bmp_posfs_id13_im29.bmp,['Im_GeorgeClooney.png', 'Im_PatrickDempsey.png', 'Im_LeonardoDiCaprio.png', 'Im_KeanuReeves.png', 'Im_HughJackman.png', 'Im_DanielRadcliffe.png', 'Im_JustinTimberlake.png', 'Im_RobertPattinson.png', 'Im_RyanGosling.png', 'Im_RyanReynolds.png'],diff,1,1.0169480999998086,18,88.0952380952381,
JEYV1811,4,pos,150,pos150_id20_im30.bmp_pos150_id5_im10.bmp,['Im_GeorgeClooney.png', 'Im_PatrickDempsey.png', 'Im_LeonardoDiCaprio.png', 'Im_KeanuReeves.png', 'Im_HughJackman.png', 'Im_DanielRadcliffe.png', 'Im_JustinTimberlake.png', 'Im_RobertPattinson.png', 'Im_RyanGosling.png', 'Im_RyanReynolds.png'],diff,1,0.7333708000001025,19,88.0952380952381,
JEYV1811,4,pos,0,pos0_id10_im17.bmp_pos0_id10_im1.bmp,['Im_GeorgeClooney.png', 'Im_PatrickDempsey.png', 'Im_LeonardoDiCaprio.png', 'Im_KeanuReeves.png', 'Im_HughJackman.png', 'Im_DanielRadcliffe.png', 'Im_JustinTimberlake.png', 'Im_RobertPattinson.png', 'Im_RyanGosling.png', 'Im_RyanReynolds.png'],same,1,0.5583584999999402,20,88.0952380952381,
JEYV1811,4,pos,120,pos120_id8_im21.bmp_pos120_id8_im13.bmp,['Im_GeorgeClooney.png', 'Im_PatrickDempsey.png', 'Im_LeonardoDiCaprio.png', 'Im_KeanuReeves.png', 'Im_HughJackman.png', 'Im_DanielRadcliffe.png', 'Im_JustinTimberlake.png', 'Im_RobertPattinson.png', 'Im_RyanGosling.png', 'Im_RyanReynolds.png'],same,1,1.0169068999998672,21,88.0952380952381,
JEYV1811,4,pos,30,pos30_id5_im20.bmp_pos30_id17_im8.bmp,['Im_GeorgeClooney.png', 'Im_PatrickDempsey.png', 'Im_LeonardoDiCaprio.png', 'Im_KeanuReeves.png', 'Im_HughJackman.png', 'Im_DanielRadcliffe.png', 'Im_JustinTimberlake.png', 'Im_RobertPattinson.png', 'Im_RyanGosling.png', 'Im_RyanReynolds.png'],diff,1,0.7168173999998544,22,88.0952380952381,
JEYV1811,4,pos,60,pos60_id13_im10.bmp_pos60_id7_im26.bmp,['Im_GeorgeClooney.png', 'Im_PatrickDempsey.png', 'Im_LeonardoDiCaprio.png', 'Im_KeanuReeves.png', 'Im_HughJackman.png', 'Im_DanielRadcliffe.png', 'Im_JustinTimberlake.png', 'Im_RobertPattinson.png', 'Im_RyanGosling.png', 'Im_RyanReynolds.png'],diff,1,0.5000546000001123,23,88.0952380952381,
JEYV1811,4,pos,60,pos60_id13_im10.bmp_pos60_id13_im15.bmp,['Im_GeorgeClooney.png', 'Im_PatrickDempsey.png', 'Im_LeonardoDiCaprio.png', 'Im_KeanuReeves.png', 'Im_HughJackman.png', 'Im_DanielRadcliffe.png', 'Im_JustinTimberlake.png', 'Im_RobertPattinson.png', 'Im_RyanGosling.png', 'Im_RyanReynolds.png'],same,1,0.7169569000002411,24,88.0952380952381,
JEYV1811,4,pos,90,pos90_id7_im26.bmp_pos90_id7_im14.bmp,['Im_GeorgeClooney.png', 'Im_PatrickDempsey.png', 'Im_LeonardoDiCaprio.png', 'Im_KeanuReeves.png', 'Im_HughJackman.png', 'Im_DanielRadcliffe.png', 'Im_JustinTimberlake.png', 'Im_RobertPattinson.png', 'Im_RyanGosling.png', 'Im_RyanReynolds.png'],diff,0,2.4335602000001018,24,88.0952380952381,
JEYV1811,4,pos,0,pos0_id20_im30.bmp_pos0_id20_im12.bmp,['Im_GeorgeClooney.png', 'Im_PatrickDempsey.png', 'Im_LeonardoDiCaprio.png', 'Im_KeanuReeves.png', 'Im_HughJackman.png', 'Im_DanielRadcliffe.png', 'Im_JustinTimberlake.png', 'Im_RobertPattinson.png', 'Im_RyanGosling.png', 'Im_RyanReynolds.png'],same,1,0.41697919999978694,25,88.0952380952381,
JEYV1811,5,inv,150,pos150_id19_im27.bmp_pos150_id19_im8.bmp,['Im_GeorgeClooney.png', 'Im_PatrickDempsey.png', 'Im_LeonardoDiCaprio.png', 'Im_KeanuReeves.png', 'Im_HughJackman.png', 'Im_DanielRadcliffe.png', 'Im_JustinTimberlake.png', 'Im_RobertPattinson.png', 'Im_RyanGosling.png', 'Im_RyanReynolds.png'],same,1,0.5251206999996612,26,88.0952380952381,
JEYV1811,5,inv,150,pos150_id20_im3.bmp_pos150_id20_im30.bmp,['Im_GeorgeClooney.png', 'Im_PatrickDempsey.png', 'Im_LeonardoDiCaprio.png', 'Im_KeanuReeves.png', 'Im_HughJackman.png', 'Im_DanielRadcliffe.png', 'Im_JustinTimberlake.png', 'Im_RobertPattinson.png', 'Im_RyanGosling.png', 'Im_RyanReynolds.png'],same,1,0.849888799999917,27,88.0952380952381,
JEYV1811,5,inv,120,pos120_id8_im13.bmp_pos120_id8_im20.bmp,['Im_GeorgeClooney.png', 'Im_PatrickDempsey.png', 'Im_LeonardoDiCaprio.png', 'Im_KeanuReeves.png', 'Im_HughJackman.png', 'Im_DanielRadcliffe.png', 'Im_JustinTimberlake.png', 'Im_RobertPattinson.png', 'Im_RyanGosling.png', 'Im_RyanReynolds.png'],same,1,0.5165800999998282,28,88.0952380952381,
JEYV1811,5,inv,fs,posfs_id13_im15.bmp_posfs_id13_im29.bmp,['Im_GeorgeClooney.png', 'Im_PatrickDempsey.png', 'Im_LeonardoDiCaprio.png', 'Im_KeanuReeves.png', 'Im_HughJackman.png', 'Im_DanielRadcliffe.png', 'Im_JustinTimberlake.png', 'Im_RobertPattinson.png', 'Im_RyanGosling.png', 'Im_RyanReynolds.png'],same,1,0.4166223000001992,29,88.0952380952381,
JEYV1811,5,inv,60,pos60_id19_im4.bmp_pos60_id19_im27.bmp,['Im_GeorgeClooney.png', 'Im_PatrickDempsey.png', 'Im_LeonardoDiCaprio.png', 'Im_KeanuReeves.png', 'Im_HughJackman.png', 'Im_DanielRadcliffe.png', 'Im_JustinTimberlake.png', 'Im_RobertPattinson.png', 'Im_RyanGosling.png', 'Im_RyanReynolds.png'],same,1,0.4164884000001621,30,88.0952380952381,
JEYV1811,5,inv,90,pos90_id5_im1.bmp_pos90_id5_im10.bmp,['Im_GeorgeClooney.png', 'Im_PatrickDempsey.png', 'Im_LeonardoDiCaprio.png', 'Im_KeanuReeves.png', 'Im_HughJackman.png', 'Im_DanielRadcliffe.png', 'Im_JustinTimberlake.png', 'Im_RobertPattinson.png', 'Im_RyanGosling.png', 'Im_RyanReynolds.png'],same,1,0.41671569999971325,31,88.0952380952381,
JEYV1811,5,inv,30,pos30_id17_im9.bmp_pos30_id21_im17.bmp,['Im_GeorgeClooney.png', 'Im_PatrickDempsey.png', 'Im_LeonardoDiCaprio.png', 'Im_KeanuReeves.png', 'Im_HughJackman.png', 'Im_DanielRadcliffe.png', 'Im_JustinTimberlake.png', 'Im_RobertPattinson.png', 'Im_RyanGosling.png', 'Im_RyanReynolds.png'],diff,1,0.4250816999997369,32,88.0952380952381,
JEYV1811,5,inv,0,pos0_id20_im3.bmp_pos0_id7_im15.bmp,['Im_GeorgeClooney.png', 'Im_PatrickDempsey.png', 'Im_LeonardoDiCaprio.png', 'Im_KeanuReeves.png', 'Im_HughJackman.png', 'Im_DanielRadcliffe.png', 'Im_JustinTimberlake.png', 'Im_RobertPattinson.png', 'Im_RyanGosling.png', 'Im_RyanReynolds.png'],diff,1,0.425108999999793,33,88.0952380952381,
JEYV1811,5,inv,30,pos30_id20_im12.bmp_pos30_id20_im30.bmp,['Im_GeorgeClooney.png', 'Im_PatrickDempsey.png', 'Im_LeonardoDiCaprio.png', 'Im_KeanuReeves.png', 'Im_HughJackman.png', 'Im_DanielRadcliffe.png', 'Im_JustinTimberlake.png', 'Im_RobertPattinson.png', 'Im_RyanGosling.png', 'Im_RyanReynolds.png'],same,1,0.4084278999998787,34,88.0952380952381,
JEYV1811,5,inv,0,pos0_id13_im29.bmp_pos0_id13_im15.bmp,['Im_GeorgeClooney.png', 'Im_PatrickDempsey.png', 'Im_LeonardoDiCaprio.png', 'Im_KeanuReeves.png', 'Im_HughJackman.png', 'Im_DanielRadcliffe.png', 'Im_JustinTimberlake.png', 'Im_RobertPattinson.png', 'Im_RyanGosling.png', 'Im_RyanReynolds.png'],same,1,0.4167536999998447,35,88.0952380952381,
JEYV1811,5,inv,60,pos60_id10_im17.bmp_pos60_id21_im17.bmp,['Im_GeorgeClooney.png', 'Im_PatrickDempsey.png', 'Im_LeonardoDiCaprio.png', 'Im_KeanuReeves.png', 'Im_HughJackman.png', 'Im_DanielRadcliffe.png', 'Im_JustinTimberlake.png', 'Im_RobertPattinson.png', 'Im_RyanGosling.png', 'Im_RyanReynolds.png'],diff,1,0.433448799999951,36,88.0952380952381,
JEYV1811,5,inv,90,pos90_id10_im17.bmp_pos90_id17_im8.bmp,['Im_GeorgeClooney.png', 'Im_PatrickDempsey.png', 'Im_LeonardoDiCaprio.png', 'Im_KeanuReeves.png', 'Im_HughJackman.png', 'Im_DanielRadcliffe.png', 'Im_JustinTimberlake.png', 'Im_RobertPattinson.png', 'Im_RyanGosling.png', 'Im_RyanReynolds.png'],same,0,0.8335037000001648,36,88.0952380952381,
JEYV1811,5,inv,120,pos120_id5_im20.bmp_pos120_id5_im10.bmp,['Im_GeorgeClooney.png', 'Im_PatrickDempsey.png', 'Im_LeonardoDiCaprio.png', 'Im_KeanuReeves.png', 'Im_HughJackman.png', 'Im_DanielRadcliffe.png', 'Im_JustinTimberlake.png', 'Im_RobertPattinson.png', 'Im_RyanGosling.png', 'Im_RyanReynolds.png'],diff,0,0.4168230999998741,36,88.0952380952381,
JEYV1811,5,inv,fs,posfs_id5_im10.bmp_posfs_id8_im13.bmp,['Im_GeorgeClooney.png', 'Im_PatrickDempsey.png', 'Im_LeonardoDiCaprio.png', 'Im_KeanuReeves.png', 'Im_HughJackman.png', 'Im_DanielRadcliffe.png', 'Im_JustinTimberlake.png', 'Im_RobertPattinson.png', 'Im_RyanGosling.png', 'Im_RyanReynolds.png'],diff,1,0.4167582999998558,37,88.0952380952381,
JEYV1811,6,inv,90,pos90_id17_im14.bmp_pos90_id17_im9.bmp,['Im_GeorgeClooney.png', 'Im_PatrickDempsey.png', 'Im_LeonardoDiCaprio.png', 'Im_KeanuReeves.png', 'Im_HughJackman.png', 'Im_DanielRadcliffe.png', 'Im_JustinTimberlake.png', 'Im_RobertPattinson.png', 'Im_RyanGosling.png', 'Im_RyanReynolds.png'],same,1,1.6338002999996206,1,88.0952380952381,
JEYV1811,6,inv,90,pos90_id10_im18.bmp_pos90_id10_im17.bmp,['Im_GeorgeClooney.png', 'Im_PatrickDempsey.png', 'Im_LeonardoDiCaprio.png', 'Im_KeanuReeves.png', 'Im_HughJackman.png', 'Im_DanielRadcliffe.png', 'Im_JustinTimberlake.png', 'Im_RobertPattinson.png', 'Im_RyanGosling.png', 'Im_RyanReynolds.png'],diff,0,0.849897300000066,1,88.0952380952381,
JEYV1811,6,inv,0,pos0_id19_im27.bmp_pos0_id19_im4.bmp,['Im_GeorgeClooney.png', 'Im_PatrickDempsey.png', 'Im_LeonardoDiCaprio.png', 'Im_KeanuReeves.png', 'Im_HughJackman.png', 'Im_DanielRadcliffe.png', 'Im_JustinTimberlake.png', 'Im_RobertPattinson.png', 'Im_RyanGosling.png', 'Im_RyanReynolds.png'],same,1,0.691888199999994,2,88.0952380952381,
JEYV1811,6,inv,30,pos30_id20_im3.bmp_pos30_id7_im26.bmp,['Im_GeorgeClooney.png', 'Im_PatrickDempsey.png', 'Im_LeonardoDiCaprio.png', 'Im_KeanuReeves.png', 'Im_HughJackman.png', 'Im_DanielRadcliffe.png', 'Im_JustinTimberlake.png', 'Im_RobertPattinson.png', 'Im_RyanGosling.png', 'Im_RyanReynolds.png'],diff,1,0.441756699999587,3,88.0952380952381,
JEYV1811,6,inv,30,pos30_id11_im2.bmp_pos30_id11_im1.bmp,['Im_GeorgeClooney.png', 'Im_PatrickDempsey.png', 'Im_LeonardoDiCaprio.png', 'Im_KeanuReeves.png', 'Im_HughJackman.png', 'Im_DanielRadcliffe.png', 'Im_JustinTimberlake.png', 'Im_RobertPattinson.png', 'Im_RyanGosling.png', 'Im_RyanReynolds.png'],same,1,0.900153500000215,4,88.0952380952381,
JEYV1811,6,inv,120,pos120_id13_im15.bmp_pos120_id11_im1.bmp,['Im_GeorgeClooney.png', 'Im_PatrickDempsey.png', 'Im_LeonardoDiCaprio.png', 'Im_KeanuReeves.png', 'Im_HughJackman.png', 'Im_DanielRadcliffe.png', 'Im_JustinTimberlake.png', 'Im_RobertPattinson.png', 'Im_RyanGosling.png', 'Im_RyanReynolds.png'],same,0,0.6333285000000615,4,88.0952380952381,
JEYV1811,6,inv,60,pos60_id7_im14.bmp_pos60_id7_im15.bmp,['Im_GeorgeClooney.png', 'Im_PatrickDempsey.png', 'Im_LeonardoDiCaprio.png', 'Im_KeanuReeves.png', 'Im_HughJackman.png', 'Im_DanielRadcliffe.png', 'Im_JustinTimberlake.png', 'Im_RobertPattinson.png', 'Im_RyanGosling.png', 'Im_RyanReynolds.png'],same,1,0.6749264000000039,5,88.0952380952381,
JEYV1811,6,inv,150,pos150_id19_im8.bmp_pos150_id13_im29.bmp,['Im_GeorgeClooney.png', 'Im_PatrickDempsey.png', 'Im_LeonardoDiCaprio.png', 'Im_KeanuReeves.png', 'Im_HughJackman.png', 'Im_DanielRadcliffe.png', 'Im_JustinTimberlake.png', 'Im_RobertPattinson.png', 'Im_RyanGosling.png', 'Im_RyanReynolds.png'],same,0,0.4249955999998747,5,88.0952380952381,
JEYV1811,6,inv,150,pos150_id8_im21.bmp_pos150_id19_im4.bmp,['Im_GeorgeClooney.png', 'Im_PatrickDempsey.png', 'Im_LeonardoDiCaprio.png', 'Im_KeanuReeves.png', 'Im_HughJackman.png', 'Im_DanielRadcliffe.png', 'Im_JustinTimberlake.png', 'Im_RobertPattinson.png', 'Im_RyanGosling.png', 'Im_RyanReynolds.png'],diff,1,0.608280299999933,6,88.0952380952381,
JEYV1811,6,inv,fs,posfs_id13_im29.bmp_posfs_id8_im13.bmp,['Im_GeorgeClooney.png', 'Im_PatrickDempsey.png', 'Im_LeonardoDiCaprio.png', 'Im_KeanuReeves.png', 'Im_HughJackman.png', 'Im_DanielRadcliffe.png', 'Im_JustinTimberlake.png', 'Im_RobertPattinson.png', 'Im_RyanGosling.png', 'Im_RyanReynolds.png'],diff,1,0.42507419999992635,7,88.0952380952381,
JEYV1811,6,inv,0,pos0_id10_im1.bmp_pos0_id7_im14.bmp,['Im_GeorgeClooney.png', 'Im_PatrickDempsey.png', 'Im_LeonardoDiCaprio.png', 'Im_KeanuReeves.png', 'Im_HughJackman.png', 'Im_DanielRadcliffe.png', 'Im_JustinTimberlake.png', 'Im_RobertPattinson.png', 'Im_RyanGosling.png', 'Im_RyanReynolds.png'],diff,1,0.7167134999999689,8,88.0952380952381,
JEYV1811,6,inv,60,pos60_id20_im30.bmp_pos60_id20_im12.bmp,['Im_GeorgeClooney.png', 'Im_PatrickDempsey.png', 'Im_LeonardoDiCaprio.png', 'Im_KeanuReeves.png', 'Im_HughJackman.png', 'Im_DanielRadcliffe.png', 'Im_JustinTimberlake.png', 'Im_RobertPattinson.png', 'Im_RyanGosling.png', 'Im_RyanReynolds.png'],same,1,0.533391699999811,9,88.0952380952381,
JEYV1811,6,inv,fs,posfs_id19_im8.bmp_posfs_id19_im27.bmp,['Im_GeorgeClooney.png', 'Im_PatrickDempsey.png', 'Im_LeonardoDiCaprio.png', 'Im_KeanuReeves.png', 'Im_HughJackman.png', 'Im_DanielRadcliffe.png', 'Im_JustinTimberlake.png', 'Im_RobertPattinson.png', 'Im_RyanGosling.png', 'Im_RyanReynolds.png'],same,1,0.4334269000000859,10,88.0952380952381,
JEYV1811,6,inv,120,pos120_id7_im14.bmp_pos120_id10_im1.bmp,['Im_GeorgeClooney.png', 'Im_PatrickDempsey.png', 'Im_LeonardoDiCaprio.png', 'Im_KeanuReeves.png', 'Im_HughJackman.png', 'Im_DanielRadcliffe.png', 'Im_JustinTimberlake.png', 'Im_RobertPattinson.png', 'Im_RyanGosling.png', 'Im_RyanReynolds.png'],diff,1,1.2842924000001403,11,88.0952380952381,
JEYV1811,7,pos,90,pos90_id5_im10.bmp_pos90_id5_im20.bmp,['Im_GeorgeClooney.png', 'Im_PatrickDempsey.png', 'Im_LeonardoDiCaprio.png', 'Im_KeanuReeves.png', 'Im_HughJackman.png', 'Im_DanielRadcliffe.png', 'Im_JustinTimberlake.png', 'Im_RobertPattinson.png', 'Im_RyanGosling.png', 'Im_RyanReynolds.png'],same,1,0.44197989999975107,12,88.0952380952381,
JEYV1811,7,pos,0,pos0_id10_im1.bmp_pos0_id10_im18.bmp,['Im_GeorgeClooney.png', 'Im_PatrickDempsey.png', 'Im_LeonardoDiCaprio.png', 'Im_KeanuReeves.png', 'Im_HughJackman.png', 'Im_DanielRadcliffe.png', 'Im_JustinTimberlake.png', 'Im_RobertPattinson.png', 'Im_RyanGosling.png', 'Im_RyanReynolds.png'],same,1,0.6419286999998803,13,88.0952380952381,
JEYV1811,7,pos,30,pos30_id19_im4.bmp_pos30_id8_im20.bmp,['Im_GeorgeClooney.png', 'Im_PatrickDempsey.png', 'Im_LeonardoDiCaprio.png', 'Im_KeanuReeves.png', 'Im_HughJackman.png', 'Im_DanielRadcliffe.png', 'Im_JustinTimberlake.png', 'Im_RobertPattinson.png', 'Im_RyanGosling.png', 'Im_RyanReynolds.png'],diff,1,0.5835784999999305,14,88.0952380952381,
JEYV1811,7,pos,60,pos60_id13_im29.bmp_pos60_id19_im8.bmp,['Im_GeorgeClooney.png', 'Im_PatrickDempsey.png', 'Im_LeonardoDiCaprio.png', 'Im_KeanuReeves.png', 'Im_HughJackman.png', 'Im_DanielRadcliffe.png', 'Im_JustinTimberlake.png', 'Im_RobertPattinson.png', 'Im_RyanGosling.png', 'Im_RyanReynolds.png'],diff,1,0.9253038000001652,15,88.0952380952381,
JEYV1811,7,pos,120,pos120_id10_im18.bmp_pos120_id10_im1.bmp,['Im_GeorgeClooney.png', 'Im_PatrickDempsey.png', 'Im_LeonardoDiCaprio.png', 'Im_KeanuReeves.png', 'Im_HughJackman.png', 'Im_DanielRadcliffe.png', 'Im_JustinTimberlake.png', 'Im_RobertPattinson.png', 'Im_RyanGosling.png', 'Im_RyanReynolds.png'],same,1,0.6331718000001274,16,88.0952380952381,
JEYV1811,7,pos,0,pos0_id19_im27.bmp_pos0_id19_im4.bmp,['Im_GeorgeClooney.png', 'Im_PatrickDempsey.png', 'Im_LeonardoDiCaprio.png', 'Im_KeanuReeves.png', 'Im_HughJackman.png', 'Im_DanielRadcliffe.png', 'Im_JustinTimberlake.png', 'Im_RobertPattinson.png', 'Im_RyanGosling.png', 'Im_RyanReynolds.png'],same,1,0.8002667999999176,17,88.0952380952381,
JEYV1811,7,pos,150,pos150_id11_im2.bmp_pos150_id11_im1.bmp,['Im_GeorgeClooney.png', 'Im_PatrickDempsey.png', 'Im_LeonardoDiCaprio.png', 'Im_KeanuReeves.png', 'Im_HughJackman.png', 'Im_DanielRadcliffe.png', 'Im_JustinTimberlake.png', 'Im_RobertPattinson.png', 'Im_RyanGosling.png', 'Im_RyanReynolds.png'],same,1,0.49164180000025226,18,88.0952380952381,
JEYV1811,7,pos,90,pos90_id11_im2.bmp_pos90_id11_im1.bmp,['Im_GeorgeClooney.png', 'Im_PatrickDempsey.png', 'Im_LeonardoDiCaprio.png', 'Im_KeanuReeves.png', 'Im_HughJackman.png', 'Im_DanielRadcliffe.png', 'Im_JustinTimberlake.png', 'Im_RobertPattinson.png', 'Im_RyanGosling.png', 'Im_RyanReynolds.png'],same,1,0.5752843999998731,19,88.0952380952381,
JEYV1811,7,pos,150,pos150_id10_im1.bmp_pos150_id7_im14.bmp,['Im_GeorgeClooney.png', 'Im_PatrickDempsey.png', 'Im_LeonardoDiCaprio.png', 'Im_KeanuReeves.png', 'Im_HughJackman.png', 'Im_DanielRadcliffe.png', 'Im_JustinTimberlake.png', 'Im_RobertPattinson.png', 'Im_RyanGosling.png', 'Im_RyanReynolds.png'],diff,1,0.7668099000002258,20,88.0952380952381,
JEYV1811,7,pos,30,pos30_id7_im14.bmp_pos30_id7_im26.bmp,['Im_GeorgeClooney.png', 'Im_PatrickDempsey.png', 'Im_LeonardoDiCaprio.png', 'Im_KeanuReeves.png', 'Im_HughJackman.png', 'Im_DanielRadcliffe.png', 'Im_JustinTimberlake.png', 'Im_RobertPattinson.png', 'Im_RyanGosling.png', 'Im_RyanReynolds.png'],same,1,0.9917238999996698,21,88.0952380952381,
JEYV1811,7,pos,120,pos120_id5_im20.bmp_pos120_id17_im9.bmp,['Im_GeorgeClooney.png', 'Im_PatrickDempsey.png', 'Im_LeonardoDiCaprio.png', 'Im_KeanuReeves.png', 'Im_HughJackman.png', 'Im_DanielRadcliffe.png', 'Im_JustinTimberlake.png', 'Im_RobertPattinson.png', 'Im_RyanGosling.png', 'Im_RyanReynolds.png'],diff,1,0.683243300000413,22,88.0952380952381,
JEYV1811,7,pos,fs,posfs_id5_im1.bmp_posfs_id19_im27.bmp,['Im_GeorgeClooney.png', 'Im_PatrickDempsey.png', 'Im_LeonardoDiCaprio.png', 'Im_KeanuReeves.png', 'Im_HughJackman.png', 'Im_DanielRadcliffe.png', 'Im_JustinTimberlake.png', 'Im_RobertPattinson.png', 'Im_RyanGosling.png', 'Im_RyanReynolds.png'],diff,1,0.66700179999998,23,88.0952380952381,
JEYV1811,7,pos,fs,posfs_id13_im15.bmp_posfs_id7_im15.bmp,['Im_GeorgeClooney.png', 'Im_PatrickDempsey.png', 'Im_LeonardoDiCaprio.png', 'Im_KeanuReeves.png', 'Im_HughJackman.png', 'Im_DanielRadcliffe.png', 'Im_JustinTimberlake.png', 'Im_RobertPattinson.png', 'Im_RyanGosling.png', 'Im_RyanReynolds.png'],diff,1,0.5003940999999941,24,88.0952380952381,
JEYV1811,7,pos,60,pos60_id20_im3.bmp_pos60_id20_im12.bmp,['Im_GeorgeClooney.png', 'Im_PatrickDempsey.png', 'Im_LeonardoDiCaprio.png', 'Im_KeanuReeves.png', 'Im_HughJackman.png', 'Im_DanielRadcliffe.png', 'Im_JustinTimberlake.png', 'Im_RobertPattinson.png', 'Im_RyanGosling.png', 'Im_RyanReynolds.png'],same,1,0.46691669999972873,25,88.0952380952381,
JEYV1811,8,neg,60,neg60_id7_im26.bmp_neg60_id20_im3.bmp,['Im_GeorgeClooney.png', 'Im_PatrickDempsey.png', 'Im_LeonardoDiCaprio.png', 'Im_KeanuReeves.png', 'Im_HughJackman.png', 'Im_DanielRadcliffe.png', 'Im_JustinTimberlake.png', 'Im_RobertPattinson.png', 'Im_RyanGosling.png', 'Im_RyanReynolds.png'],diff,1,0.6503603000001021,26,88.0952380952381,
JEYV1811,8,neg,90,neg90_id21_im17.bmp_neg90_id10_im17.bmp,['Im_GeorgeClooney.png', 'Im_PatrickDempsey.png', 'Im_LeonardoDiCaprio.png', 'Im_KeanuReeves.png', 'Im_HughJackman.png', 'Im_DanielRadcliffe.png', 'Im_JustinTimberlake.png', 'Im_RobertPattinson.png', 'Im_RyanGosling.png', 'Im_RyanReynolds.png'],diff,1,1.5417320000001382,27,88.0952380952381,
JEYV1811,8,neg,60,neg60_id10_im1.bmp_neg60_id7_im14.bmp,['Im_GeorgeClooney.png', 'Im_PatrickDempsey.png', 'Im_LeonardoDiCaprio.png', 'Im_KeanuReeves.png', 'Im_HughJackman.png', 'Im_DanielRadcliffe.png', 'Im_JustinTimberlake.png', 'Im_RobertPattinson.png', 'Im_RyanGosling.png', 'Im_RyanReynolds.png'],diff,1,0.8834724999996979,28,88.0952380952381,
JEYV1811,8,neg,150,neg150_id20_im12.bmp_neg150_id8_im20.bmp,['Im_GeorgeClooney.png', 'Im_PatrickDempsey.png', 'Im_LeonardoDiCaprio.png', 'Im_KeanuReeves.png', 'Im_HughJackman.png', 'Im_DanielRadcliffe.png', 'Im_JustinTimberlake.png', 'Im_RobertPattinson.png', 'Im_RyanGosling.png', 'Im_RyanReynolds.png'],diff,1,0.5417765999995936,29,88.0952380952381,
JEYV1811,8,neg,30,neg30_id13_im10.bmp_neg30_id13_im15.bmp,['Im_GeorgeClooney.png', 'Im_PatrickDempsey.png', 'Im_LeonardoDiCaprio.png', 'Im_KeanuReeves.png', 'Im_HughJackman.png', 'Im_DanielRadcliffe.png', 'Im_JustinTimberlake.png', 'Im_RobertPattinson.png', 'Im_RyanGosling.png', 'Im_RyanReynolds.png'],same,1,0.8338149999999587,30,88.0952380952381,
JEYV1811,8,neg,150,neg150_id8_im13.bmp_neg150_id5_im10.bmp,['Im_GeorgeClooney.png', 'Im_PatrickDempsey.png', 'Im_LeonardoDiCaprio.png', 'Im_KeanuReeves.png', 'Im_HughJackman.png', 'Im_DanielRadcliffe.png', 'Im_JustinTimberlake.png', 'Im_RobertPattinson.png', 'Im_RyanGosling.png', 'Im_RyanReynolds.png'],diff,1,0.6582803999999669,31,88.0952380952381,
JEYV1811,8,neg,0,neg0_id21_im22.bmp_neg0_id21_im16.bmp,['Im_GeorgeClooney.png', 'Im_PatrickDempsey.png', 'Im_LeonardoDiCaprio.png', 'Im_KeanuReeves.png', 'Im_HughJackman.png', 'Im_DanielRadcliffe.png', 'Im_JustinTimberlake.png', 'Im_RobertPattinson.png', 'Im_RyanGosling.png', 'Im_RyanReynolds.png'],same,1,0.642045600000074,32,88.0952380952381,
JEYV1811,8,neg,120,neg120_id13_im29.bmp_neg120_id13_im15.bmp,['Im_GeorgeClooney.png', 'Im_PatrickDempsey.png', 'Im_LeonardoDiCaprio.png', 'Im_KeanuReeves.png', 'Im_HughJackman.png', 'Im_DanielRadcliffe.png', 'Im_JustinTimberlake.png', 'Im_RobertPattinson.png', 'Im_RyanGosling.png', 'Im_RyanReynolds.png'],same,1,0.4251109000001634,33,88.0952380952381,
JEYV1811,8,neg,0,neg0_id7_im26.bmp_neg0_id13_im10.bmp,['Im_GeorgeClooney.png', 'Im_PatrickDempsey.png', 'Im_LeonardoDiCaprio.png', 'Im_KeanuReeves.png', 'Im_HughJackman.png', 'Im_DanielRadcliffe.png', 'Im_JustinTimberlake.png', 'Im_RobertPattinson.png', 'Im_RyanGosling.png', 'Im_RyanReynolds.png'],same,0,0.583261499999935,33,88.0952380952381,
JEYV1811,8,neg,90,neg90_id13_im10.bmp_neg90_id13_im29.bmp,['Im_GeorgeClooney.png', 'Im_PatrickDempsey.png', 'Im_LeonardoDiCaprio.png', 'Im_KeanuReeves.png', 'Im_HughJackman.png', 'Im_DanielRadcliffe.png', 'Im_JustinTimberlake.png', 'Im_RobertPattinson.png', 'Im_RyanGosling.png', 'Im_RyanReynolds.png'],same,1,1.2583786000000146,34,88.0952380952381,
JEYV1811,8,neg,30,neg30_id21_im22.bmp_neg30_id21_im16.bmp,['Im_GeorgeClooney.png', 'Im_PatrickDempsey.png', 'Im_LeonardoDiCaprio.png', 'Im_KeanuReeves.png', 'Im_HughJackman.png', 'Im_DanielRadcliffe.png', 'Im_JustinTimberlake.png', 'Im_RobertPattinson.png', 'Im_RyanGosling.png', 'Im_RyanReynolds.png'],same,1,0.9167088999997759,35,88.0952380952381,
JEYV1811,8,neg,fs,negfs_id7_im26.bmp_negfs_id7_im14.bmp,['Im_GeorgeClooney.png', 'Im_PatrickDempsey.png', 'Im_LeonardoDiCaprio.png', 'Im_KeanuReeves.png', 'Im_HughJackman.png', 'Im_DanielRadcliffe.png', 'Im_JustinTimberlake.png', 'Im_RobertPattinson.png', 'Im_RyanGosling.png', 'Im_RyanReynolds.png'],same,1,0.7167384999997921,36,88.0952380952381,
JEYV1811,8,neg,fs,negfs_id19_im27.bmp_negfs_id5_im1.bmp,['Im_GeorgeClooney.png', 'Im_PatrickDempsey.png', 'Im_LeonardoDiCaprio.png', 'Im_KeanuReeves.png', 'Im_HughJackman.png', 'Im_DanielRadcliffe.png', 'Im_JustinTimberlake.png', 'Im_RobertPattinson.png', 'Im_RyanGosling.png', 'Im_RyanReynolds.png'],diff,1,0.46703660000002856,37,88.0952380952381,
JEYV1811,8,neg,120,neg120_id20_im3.bmp_neg120_id7_im15.bmp,['Im_GeorgeClooney.png', 'Im_PatrickDempsey.png', 'Im_LeonardoDiCaprio.png', 'Im_KeanuReeves.png', 'Im_HughJackman.png', 'Im_DanielRadcliffe.png', 'Im_JustinTimberlake.png', 'Im_RobertPattinson.png', 'Im_RyanGosling.png', 'Im_RyanReynolds.png'],diff,1,0.5250009999999747,38,88.0952380952381,
JEYV1811,9,neg,30,neg30_id5_im1.bmp_neg30_id19_im27.bmp,['Im_GeorgeClooney.png', 'Im_PatrickDempsey.png', 'Im_LeonardoDiCaprio.png', 'Im_KeanuReeves.png', 'Im_HughJackman.png', 'Im_DanielRadcliffe.png', 'Im_JustinTimberlake.png', 'Im_RobertPattinson.png', 'Im_RyanGosling.png', 'Im_RyanReynolds.png'],diff,1,1.6167242999999871,1,90.47619047619048,
JEYV1811,9,neg,90,neg90_id17_im8.bmp_neg90_id17_im9.bmp,['Im_GeorgeClooney.png', 'Im_PatrickDempsey.png', 'Im_LeonardoDiCaprio.png', 'Im_KeanuReeves.png', 'Im_HughJackman.png', 'Im_DanielRadcliffe.png', 'Im_JustinTimberlake.png', 'Im_RobertPattinson.png', 'Im_RyanGosling.png', 'Im_RyanReynolds.png'],same,1,0.9831932000001871,2,90.47619047619048,
JEYV1811,9,neg,fs,negfs_id5_im1.bmp_negfs_id7_im14.bmp,['Im_GeorgeClooney.png', 'Im_PatrickDempsey.png', 'Im_LeonardoDiCaprio.png', 'Im_KeanuReeves.png', 'Im_HughJackman.png', 'Im_DanielRadcliffe.png', 'Im_JustinTimberlake.png', 'Im_RobertPattinson.png', 'Im_RyanGosling.png', 'Im_RyanReynolds.png'],diff,1,0.4167600999999195,3,90.47619047619048,
JEYV1811,9,neg,fs,negfs_id11_im1.bmp_negfs_id11_im10.bmp,['Im_GeorgeClooney.png', 'Im_PatrickDempsey.png', 'Im_LeonardoDiCaprio.png', 'Im_KeanuReeves.png', 'Im_HughJackman.png', 'Im_DanielRadcliffe.png', 'Im_JustinTimberlake.png', 'Im_RobertPattinson.png', 'Im_RyanGosling.png', 'Im_RyanReynolds.png'],same,1,0.42512059999990015,4,90.47619047619048,
JEYV1811,9,neg,60,neg60_id5_im10.bmp_neg60_id20_im30.bmp,['Im_GeorgeClooney.png', 'Im_PatrickDempsey.png', 'Im_LeonardoDiCaprio.png', 'Im_KeanuReeves.png', 'Im_HughJackman.png', 'Im_DanielRadcliffe.png', 'Im_JustinTimberlake.png', 'Im_RobertPattinson.png', 'Im_RyanGosling.png', 'Im_RyanReynolds.png'],diff,1,0.4167542999998659,5,90.47619047619048,
JEYV1811,9,neg,0,neg0_id21_im17.bmp_neg0_id10_im17.bmp,['Im_GeorgeClooney.png', 'Im_PatrickDempsey.png', 'Im_LeonardoDiCaprio.png', 'Im_KeanuReeves.png', 'Im_HughJackman.png', 'Im_DanielRadcliffe.png', 'Im_JustinTimberlake.png', 'Im_RobertPattinson.png', 'Im_RyanGosling.png', 'Im_RyanReynolds.png'],diff,1,0.8169516999996631,6,90.47619047619048,
JEYV1811,9,neg,120,neg120_id17_im9.bmp_neg120_id5_im20.bmp,['Im_GeorgeClooney.png', 'Im_PatrickDempsey.png', 'Im_LeonardoDiCaprio.png', 'Im_KeanuReeves.png', 'Im_HughJackman.png', 'Im_DanielRadcliffe.png', 'Im_JustinTimberlake.png', 'Im_RobertPattinson.png', 'Im_RyanGosling.png', 'Im_RyanReynolds.png'],diff,1,0.7672594999999092,7,90.47619047619048,
JEYV1811,9,neg,0,neg0_id10_im1.bmp_neg0_id10_im18.bmp,['Im_GeorgeClooney.png', 'Im_PatrickDempsey.png', 'Im_LeonardoDiCaprio.png', 'Im_KeanuReeves.png', 'Im_HughJackman.png', 'Im_DanielRadcliffe.png', 'Im_JustinTimberlake.png', 'Im_RobertPattinson.png', 'Im_RyanGosling.png', 'Im_RyanReynolds.png'],same,1,0.48312529999975595,8,90.47619047619048,
JEYV1811,9,neg,120,neg120_id17_im14.bmp_neg120_id17_im9.bmp,['Im_GeorgeClooney.png', 'Im_PatrickDempsey.png', 'Im_LeonardoDiCaprio.png', 'Im_KeanuReeves.png', 'Im_HughJackman.png', 'Im_DanielRadcliffe.png', 'Im_JustinTimberlake.png', 'Im_RobertPattinson.png', 'Im_RyanGosling.png', 'Im_RyanReynolds.png'],same,1,0.5004688999997597,9,90.47619047619048,
JEYV1811,9,neg,60,neg60_id11_im10.bmp_neg60_id11_im2.bmp,['Im_GeorgeClooney.png', 'Im_PatrickDempsey.png', 'Im_LeonardoDiCaprio.png', 'Im_KeanuReeves.png', 'Im_HughJackman.png', 'Im_DanielRadcliffe.png', 'Im_JustinTimberlake.png', 'Im_RobertPattinson.png', 'Im_RyanGosling.png', 'Im_RyanReynolds.png'],same,1,0.4584367000002203,10,90.47619047619048,
JEYV1811,9,neg,150,neg150_id7_im14.bmp_neg150_id5_im1.bmp,['Im_GeorgeClooney.png', 'Im_PatrickDempsey.png', 'Im_LeonardoDiCaprio.png', 'Im_KeanuReeves.png', 'Im_HughJackman.png', 'Im_DanielRadcliffe.png', 'Im_JustinTimberlake.png', 'Im_RobertPattinson.png', 'Im_RyanGosling.png', 'Im_RyanReynolds.png'],diff,1,0.5500792000002548,11,90.47619047619048,
JEYV1811,9,neg,90,neg90_id20_im3.bmp_neg90_id20_im30.bmp,['Im_GeorgeClooney.png', 'Im_PatrickDempsey.png', 'Im_LeonardoDiCaprio.png', 'Im_KeanuReeves.png', 'Im_HughJackman.png', 'Im_DanielRadcliffe.png', 'Im_JustinTimberlake.png', 'Im_RobertPattinson.png', 'Im_RyanGosling.png', 'Im_RyanReynolds.png'],same,1,0.6333478000001378,12,90.47619047619048,
JEYV1811,9,neg,30,neg30_id10_im1.bmp_neg30_id10_im18.bmp,['Im_GeorgeClooney.png', 'Im_PatrickDempsey.png', 'Im_LeonardoDiCaprio.png', 'Im_KeanuReeves.png', 'Im_HughJackman.png', 'Im_DanielRadcliffe.png', 'Im_JustinTimberlake.png', 'Im_RobertPattinson.png', 'Im_RyanGosling.png', 'Im_RyanReynolds.png'],same,1,0.475208300000304,13,90.47619047619048,
JEYV1811,9,neg,150,neg150_id8_im21.bmp_neg150_id21_im22.bmp,['Im_GeorgeClooney.png', 'Im_PatrickDempsey.png', 'Im_LeonardoDiCaprio.png', 'Im_KeanuReeves.png', 'Im_HughJackman.png', 'Im_DanielRadcliffe.png', 'Im_JustinTimberlake.png', 'Im_RobertPattinson.png', 'Im_RyanGosling.png', 'Im_RyanReynolds.png'],diff,1,0.8581967000000077,14,90.47619047619048,
JEYV1811,10,pos,0,pos0_id10_im17.bmp_pos0_id17_im8.bmp,['Im_GeorgeClooney.png', 'Im_PatrickDempsey.png', 'Im_LeonardoDiCaprio.png', 'Im_KeanuReeves.png', 'Im_HughJackman.png', 'Im_DanielRadcliffe.png', 'Im_JustinTimberlake.png', 'Im_RobertPattinson.png', 'Im_RyanGosling.png', 'Im_RyanReynolds.png'],diff,1,0.42496600000004037,15,90.47619047619048,
JEYV1811,10,pos,120,pos120_id5_im1.bmp_pos120_id5_im10.bmp,['Im_GeorgeClooney.png', 'Im_PatrickDempsey.png', 'Im_LeonardoDiCaprio.png', 'Im_KeanuReeves.png', 'Im_HughJackman.png', 'Im_DanielRadcliffe.png', 'Im_JustinTimberlake.png', 'Im_RobertPattinson.png', 'Im_RyanGosling.png', 'Im_RyanReynolds.png'],same,1,0.9920558999997411,16,90.47619047619048,
JEYV1811,10,pos,90,pos90_id17_im9.bmp_pos90_id17_im8.bmp,['Im_GeorgeClooney.png', 'Im_PatrickDempsey.png', 'Im_LeonardoDiCaprio.png', 'Im_KeanuReeves.png', 'Im_HughJackman.png', 'Im_DanielRadcliffe.png', 'Im_JustinTimberlake.png', 'Im_RobertPattinson.png', 'Im_RyanGosling.png', 'Im_RyanReynolds.png'],same,1,0.5086068000000523,17,90.47619047619048,
JEYV1811,10,pos,60,pos60_id11_im10.bmp_pos60_id11_im1.bmp,['Im_GeorgeClooney.png', 'Im_PatrickDempsey.png', 'Im_LeonardoDiCaprio.png', 'Im_KeanuReeves.png', 'Im_HughJackman.png', 'Im_DanielRadcliffe.png', 'Im_JustinTimberlake.png', 'Im_RobertPattinson.png', 'Im_RyanGosling.png', 'Im_RyanReynolds.png'],same,1,0.5002478000001247,18,90.47619047619048,
JEYV1811,10,pos,120,pos120_id7_im15.bmp_pos120_id7_im14.bmp,['Im_GeorgeClooney.png', 'Im_PatrickDempsey.png', 'Im_LeonardoDiCaprio.png', 'Im_KeanuReeves.png', 'Im_HughJackman.png', 'Im_DanielRadcliffe.png', 'Im_JustinTimberlake.png', 'Im_RobertPattinson.png', 'Im_RyanGosling.png', 'Im_RyanReynolds.png'],same,1,0.5502817999999934,19,90.47619047619048,
JEYV1811,10,pos,0,pos0_id13_im15.bmp_pos0_id13_im29.bmp,['Im_GeorgeClooney.png', 'Im_PatrickDempsey.png', 'Im_LeonardoDiCaprio.png', 'Im_KeanuReeves.png', 'Im_HughJackman.png', 'Im_DanielRadcliffe.png', 'Im_JustinTimberlake.png', 'Im_RobertPattinson.png', 'Im_RyanGosling.png', 'Im_RyanReynolds.png'],same,1,1.1085899999998219,20,90.47619047619048,
JEYV1811,10,pos,150,pos150_id7_im15.bmp_pos150_id20_im3.bmp,['Im_GeorgeClooney.png', 'Im_PatrickDempsey.png', 'Im_LeonardoDiCaprio.png', 'Im_KeanuReeves.png', 'Im_HughJackman.png', 'Im_DanielRadcliffe.png', 'Im_JustinTimberlake.png', 'Im_RobertPattinson.png', 'Im_RyanGosling.png', 'Im_RyanReynolds.png'],diff,1,0.6169119999999566,21,90.47619047619048,
JEYV1811,10,pos,90,pos90_id5_im10.bmp_pos90_id8_im13.bmp,['Im_GeorgeClooney.png', 'Im_PatrickDempsey.png', 'Im_LeonardoDiCaprio.png', 'Im_KeanuReeves.png', 'Im_HughJackman.png', 'Im_DanielRadcliffe.png', 'Im_JustinTimberlake.png', 'Im_RobertPattinson.png', 'Im_RyanGosling.png', 'Im_RyanReynolds.png'],diff,1,0.6915939000000435,22,90.47619047619048,
JEYV1811,10,pos,30,pos30_id7_im15.bmp_pos30_id20_im3.bmp,['Im_GeorgeClooney.png', 'Im_PatrickDempsey.png', 'Im_LeonardoDiCaprio.png', 'Im_KeanuReeves.png', 'Im_HughJackman.png', 'Im_DanielRadcliffe.png', 'Im_JustinTimberlake.png', 'Im_RobertPattinson.png', 'Im_RyanGosling.png', 'Im_RyanReynolds.png'],diff,1,0.7420794999998179,23,90.47619047619048,
JEYV1811,10,pos,fs,posfs_id11_im2.bmp_posfs_id11_im10.bmp,['Im_GeorgeClooney.png', 'Im_PatrickDempsey.png', 'Im_LeonardoDiCaprio.png', 'Im_KeanuReeves.png', 'Im_HughJackman.png', 'Im_DanielRadcliffe.png', 'Im_JustinTimberlake.png', 'Im_RobertPattinson.png', 'Im_RyanGosling.png', 'Im_RyanReynolds.png'],same,1,0.41674830000010843,24,90.47619047619048,
JEYV1811,10,pos,fs,posfs_id21_im17.bmp_posfs_id17_im9.bmp,['Im_GeorgeClooney.png', 'Im_PatrickDempsey.png', 'Im_LeonardoDiCaprio.png', 'Im_KeanuReeves.png', 'Im_HughJackman.png', 'Im_DanielRadcliffe.png', 'Im_JustinTimberlake.png', 'Im_RobertPattinson.png', 'Im_RyanGosling.png', 'Im_RyanReynolds.png'],diff,1,0.4166322000000946,25,90.47619047619048,
JEYV1811,10,pos,30,pos30_id8_im20.bmp_pos30_id20_im12.bmp,['Im_GeorgeClooney.png', 'Im_PatrickDempsey.png', 'Im_LeonardoDiCaprio.png', 'Im_KeanuReeves.png', 'Im_HughJackman.png', 'Im_DanielRadcliffe.png', 'Im_JustinTimberlake.png', 'Im_RobertPattinson.png', 'Im_RyanGosling.png', 'Im_RyanReynolds.png'],diff,1,0.41676390000020547,26,90.47619047619048,
JEYV1811,10,pos,150,pos150_id10_im18.bmp_pos150_id20_im30.bmp,['Im_GeorgeClooney.png', 'Im_PatrickDempsey.png', 'Im_LeonardoDiCaprio.png', 'Im_KeanuReeves.png', 'Im_HughJackman.png', 'Im_DanielRadcliffe.png', 'Im_JustinTimberlake.png', 'Im_RobertPattinson.png', 'Im_RyanGosling.png', 'Im_RyanReynolds.png'],diff,1,0.5584586999998464,27,90.47619047619048,
JEYV1811,10,pos,60,pos60_id8_im20.bmp_pos60_id20_im12.bmp,['Im_GeorgeClooney.png', 'Im_PatrickDempsey.png', 'Im_LeonardoDiCaprio.png', 'Im_KeanuReeves.png', 'Im_HughJackman.png', 'Im_DanielRadcliffe.png', 'Im_JustinTimberlake.png', 'Im_RobertPattinson.png', 'Im_RyanGosling.png', 'Im_RyanReynolds.png'],diff,1,0.4502674999998817,28,90.47619047619048,
JEYV1811,11,inv,0,pos0_id17_im9.bmp_pos0_id17_im8.bmp,['Im_GeorgeClooney.png', 'Im_PatrickDempsey.png', 'Im_LeonardoDiCaprio.png', 'Im_KeanuReeves.png', 'Im_HughJackman.png', 'Im_DanielRadcliffe.png', 'Im_JustinTimberlake.png', 'Im_RobertPattinson.png', 'Im_RyanGosling.png', 'Im_RyanReynolds.png'],diff,0,0.8751063999998223,28,90.47619047619048,
JEYV1811,11,inv,30,pos30_id19_im27.bmp_pos30_id11_im10.bmp,['Im_GeorgeClooney.png', 'Im_PatrickDempsey.png', 'Im_LeonardoDiCaprio.png', 'Im_KeanuReeves.png', 'Im_HughJackman.png', 'Im_DanielRadcliffe.png', 'Im_JustinTimberlake.png', 'Im_RobertPattinson.png', 'Im_RyanGosling.png', 'Im_RyanReynolds.png'],diff,1,0.5335119000001214,29,90.47619047619048,
JEYV1811,11,inv,150,pos150_id10_im1.bmp_pos150_id7_im14.bmp,['Im_GeorgeClooney.png', 'Im_PatrickDempsey.png', 'Im_LeonardoDiCaprio.png', 'Im_KeanuReeves.png', 'Im_HughJackman.png', 'Im_DanielRadcliffe.png', 'Im_JustinTimberlake.png', 'Im_RobertPattinson.png', 'Im_RyanGosling.png', 'Im_RyanReynolds.png'],diff,1,0.6082605000001422,30,90.47619047619048,
JEYV1811,11,inv,fs,posfs_id8_im20.bmp_posfs_id19_im4.bmp,['Im_GeorgeClooney.png', 'Im_PatrickDempsey.png', 'Im_LeonardoDiCaprio.png', 'Im_KeanuReeves.png', 'Im_HughJackman.png', 'Im_DanielRadcliffe.png', 'Im_JustinTimberlake.png', 'Im_RobertPattinson.png', 'Im_RyanGosling.png', 'Im_RyanReynolds.png'],diff,1,0.5250525999999809,31,90.47619047619048,
JEYV1811,11,inv,90,pos90_id20_im30.bmp_pos90_id20_im12.bmp,['Im_GeorgeClooney.png', 'Im_PatrickDempsey.png', 'Im_LeonardoDiCaprio.png', 'Im_KeanuReeves.png', 'Im_HughJackman.png', 'Im_DanielRadcliffe.png', 'Im_JustinTimberlake.png', 'Im_RobertPattinson.png', 'Im_RyanGosling.png', 'Im_RyanReynolds.png'],same,1,0.9421563999999307,32,90.47619047619048,
JEYV1811,11,inv,60,pos60_id8_im21.bmp_pos60_id8_im13.bmp,['Im_GeorgeClooney.png', 'Im_PatrickDempsey.png', 'Im_LeonardoDiCaprio.png', 'Im_KeanuReeves.png', 'Im_HughJackman.png', 'Im_DanielRadcliffe.png', 'Im_JustinTimberlake.png', 'Im_RobertPattinson.png', 'Im_RyanGosling.png', 'Im_RyanReynolds.png'],diff,0,0.8502806000001328,32,90.47619047619048,
JEYV1811,11,inv,120,pos120_id5_im1.bmp_pos120_id19_im27.bmp,['Im_GeorgeClooney.png', 'Im_PatrickDempsey.png', 'Im_LeonardoDiCaprio.png', 'Im_KeanuReeves.png', 'Im_HughJackman.png', 'Im_DanielRadcliffe.png', 'Im_JustinTimberlake.png', 'Im_RobertPattinson.png', 'Im_RyanGosling.png', 'Im_RyanReynolds.png'],diff,1,0.5835950000000594,33,90.47619047619048,
JEYV1811,11,inv,150,pos150_id5_im10.bmp_pos150_id5_im20.bmp,['Im_GeorgeClooney.png', 'Im_PatrickDempsey.png', 'Im_LeonardoDiCaprio.png', 'Im_KeanuReeves.png', 'Im_HughJackman.png', 'Im_DanielRadcliffe.png', 'Im_JustinTimberlake.png', 'Im_RobertPattinson.png', 'Im_RyanGosling.png', 'Im_RyanReynolds.png'],same,1,1.0833423000003677,34,90.47619047619048,
JEYV1811,11,inv,120,pos120_id7_im15.bmp_pos120_id7_im14.bmp,['Im_GeorgeClooney.png', 'Im_PatrickDempsey.png', 'Im_LeonardoDiCaprio.png', 'Im_KeanuReeves.png', 'Im_HughJackman.png', 'Im_DanielRadcliffe.png', 'Im_JustinTimberlake.png', 'Im_RobertPattinson.png', 'Im_RyanGosling.png', 'Im_RyanReynolds.png'],same,1,0.8834948999997323,35,90.47619047619048,
JEYV1811,11,inv,0,pos0_id13_im29.bmp_pos0_id19_im8.bmp,['Im_GeorgeClooney.png', 'Im_PatrickDempsey.png', 'Im_LeonardoDiCaprio.png', 'Im_KeanuReeves.png', 'Im_HughJackman.png', 'Im_DanielRadcliffe.png', 'Im_JustinTimberlake.png', 'Im_RobertPattinson.png', 'Im_RyanGosling.png', 'Im_RyanReynolds.png'],same,0,1.1169285999999374,35,90.47619047619048,
JEYV1811,11,inv,90,pos90_id20_im30.bmp_pos90_id5_im10.bmp,['Im_GeorgeClooney.png', 'Im_PatrickDempsey.png', 'Im_LeonardoDiCaprio.png', 'Im_KeanuReeves.png', 'Im_HughJackman.png', 'Im_DanielRadcliffe.png', 'Im_JustinTimberlake.png', 'Im_RobertPattinson.png', 'Im_RyanGosling.png', 'Im_RyanReynolds.png'],diff,1,0.5252464000000145,36,90.47619047619048,
JEYV1811,11,inv,30,pos30_id20_im12.bmp_pos30_id20_im3.bmp,['Im_GeorgeClooney.png', 'Im_PatrickDempsey.png', 'Im_LeonardoDiCaprio.png', 'Im_KeanuReeves.png', 'Im_HughJackman.png', 'Im_DanielRadcliffe.png', 'Im_JustinTimberlake.png', 'Im_RobertPattinson.png', 'Im_RyanGosling.png', 'Im_RyanReynolds.png'],same,1,1.1169491000000562,37,90.47619047619048,
JEYV1811,11,inv,fs,posfs_id7_im15.bmp_posfs_id7_im26.bmp,['Im_GeorgeClooney.png', 'Im_PatrickDempsey.png', 'Im_LeonardoDiCaprio.png', 'Im_KeanuReeves.png', 'Im_HughJackman.png', 'Im_DanielRadcliffe.png', 'Im_JustinTimberlake.png', 'Im_RobertPattinson.png', 'Im_RyanGosling.png', 'Im_RyanReynolds.png'],same,1,1.1753544999996848,38,90.47619047619048,
JEYV1811,11,inv,60,pos60_id13_im15.bmp_pos60_id13_im10.bmp,['Im_GeorgeClooney.png', 'Im_PatrickDempsey.png', 'Im_LeonardoDiCaprio.png', 'Im_KeanuReeves.png', 'Im_HughJackman.png', 'Im_DanielRadcliffe.png', 'Im_JustinTimberlake.png', 'Im_RobertPattinson.png', 'Im_RyanGosling.png', 'Im_RyanReynolds.png'],same,1,0.7753424000002269,39,90.47619047619048,
JEYV1811,12,neg,fs,negfs_id21_im16.bmp_negfs_id10_im1.bmp,['Im_GeorgeClooney.png', 'Im_PatrickDempsey.png', 'Im_LeonardoDiCaprio.png', 'Im_KeanuReeves.png', 'Im_HughJackman.png', 'Im_DanielRadcliffe.png', 'Im_JustinTimberlake.png', 'Im_RobertPattinson.png', 'Im_RyanGosling.png', 'Im_RyanReynolds.png'],diff,1,0.4249463000001015,1,92.85714285714286,
JEYV1811,12,neg,30,neg30_id5_im1.bmp_neg30_id5_im20.bmp,['Im_GeorgeClooney.png', 'Im_PatrickDempsey.png', 'Im_LeonardoDiCaprio.png', 'Im_KeanuReeves.png', 'Im_HughJackman.png', 'Im_DanielRadcliffe.png', 'Im_JustinTimberlake.png', 'Im_RobertPattinson.png', 'Im_RyanGosling.png', 'Im_RyanReynolds.png'],same,1,0.4166964999999436,2,92.85714285714286,
JEYV1811,12,neg,90,neg90_id8_im21.bmp_neg90_id8_im13.bmp,['Im_GeorgeClooney.png', 'Im_PatrickDempsey.png', 'Im_LeonardoDiCaprio.png', 'Im_KeanuReeves.png', 'Im_HughJackman.png', 'Im_DanielRadcliffe.png', 'Im_JustinTimberlake.png', 'Im_RobertPattinson.png', 'Im_RyanGosling.png', 'Im_RyanReynolds.png'],same,1,0.4417302000001655,3,92.85714285714286,
JEYV1811,12,neg,150,neg150_id20_im30.bmp_neg150_id20_im12.bmp,['Im_GeorgeClooney.png', 'Im_PatrickDempsey.png', 'Im_LeonardoDiCaprio.png', 'Im_KeanuReeves.png', 'Im_HughJackman.png', 'Im_DanielRadcliffe.png', 'Im_JustinTimberlake.png', 'Im_RobertPattinson.png', 'Im_RyanGosling.png', 'Im_RyanReynolds.png'],same,1,0.450171699999828,4,92.85714285714286,
JEYV1811,12,neg,60,neg60_id21_im17.bmp_neg60_id10_im17.bmp,['Im_GeorgeClooney.png', 'Im_PatrickDempsey.png', 'Im_LeonardoDiCaprio.png', 'Im_KeanuReeves.png', 'Im_HughJackman.png', 'Im_DanielRadcliffe.png', 'Im_JustinTimberlake.png', 'Im_RobertPattinson.png', 'Im_RyanGosling.png', 'Im_RyanReynolds.png'],diff,1,0.4255063999999038,5,92.85714285714286,
JEYV1811,12,neg,0,neg0_id11_im2.bmp_neg0_id10_im18.bmp,['Im_GeorgeClooney.png', 'Im_PatrickDempsey.png', 'Im_LeonardoDiCaprio.png', 'Im_KeanuReeves.png', 'Im_HughJackman.png', 'Im_DanielRadcliffe.png', 'Im_JustinTimberlake.png', 'Im_RobertPattinson.png', 'Im_RyanGosling.png', 'Im_RyanReynolds.png'],diff,1,0.41671460000043226,6,92.85714285714286,
JEYV1811,12,neg,0,neg0_id7_im15.bmp_neg0_id7_im26.bmp,['Im_GeorgeClooney.png', 'Im_PatrickDempsey.png', 'Im_LeonardoDiCaprio.png', 'Im_KeanuReeves.png', 'Im_HughJackman.png', 'Im_DanielRadcliffe.png', 'Im_JustinTimberlake.png', 'Im_RobertPattinson.png', 'Im_RyanGosling.png', 'Im_RyanReynolds.png'],same,1,1.191975100000036,7,92.85714285714286,
JEYV1811,12,neg,120,neg120_id17_im9.bmp_neg120_id17_im8.bmp,['Im_GeorgeClooney.png', 'Im_PatrickDempsey.png', 'Im_LeonardoDiCaprio.png', 'Im_KeanuReeves.png', 'Im_HughJackman.png', 'Im_DanielRadcliffe.png', 'Im_JustinTimberlake.png', 'Im_RobertPattinson.png', 'Im_RyanGosling.png', 'Im_RyanReynolds.png'],same,1,0.5833952000002682,8,92.85714285714286,
JEYV1811,12,neg,120,neg120_id11_im2.bmp_neg120_id21_im16.bmp,['Im_GeorgeClooney.png', 'Im_PatrickDempsey.png', 'Im_LeonardoDiCaprio.png', 'Im_KeanuReeves.png', 'Im_HughJackman.png', 'Im_DanielRadcliffe.png', 'Im_JustinTimberlake.png', 'Im_RobertPattinson.png', 'Im_RyanGosling.png', 'Im_RyanReynolds.png'],same,0,0.4167101000002731,8,92.85714285714286,
JEYV1811,12,neg,30,neg30_id5_im10.bmp_neg30_id20_im30.bmp,['Im_GeorgeClooney.png', 'Im_PatrickDempsey.png', 'Im_LeonardoDiCaprio.png', 'Im_KeanuReeves.png', 'Im_HughJackman.png', 'Im_DanielRadcliffe.png', 'Im_JustinTimberlake.png', 'Im_RobertPattinson.png', 'Im_RyanGosling.png', 'Im_RyanReynolds.png'],diff,1,1.134062300000096,9,92.85714285714286,
JEYV1811,12,neg,150,neg150_id5_im10.bmp_neg150_id20_im30.bmp,['Im_GeorgeClooney.png', 'Im_PatrickDempsey.png', 'Im_LeonardoDiCaprio.png', 'Im_KeanuReeves.png', 'Im_HughJackman.png', 'Im_DanielRadcliffe.png', 'Im_JustinTimberlake.png', 'Im_RobertPattinson.png', 'Im_RyanGosling.png', 'Im_RyanReynolds.png'],same,0,1.0085893000000397,9,92.85714285714286,
JEYV1811,12,neg,60,neg60_id10_im17.bmp_neg60_id10_im1.bmp,['Im_GeorgeClooney.png', 'Im_PatrickDempsey.png', 'Im_LeonardoDiCaprio.png', 'Im_KeanuReeves.png', 'Im_HughJackman.png', 'Im_DanielRadcliffe.png', 'Im_JustinTimberlake.png', 'Im_RobertPattinson.png', 'Im_RyanGosling.png', 'Im_RyanReynolds.png'],same,1,0.9670755000001918,10,92.85714285714286,
JEYV1811,12,neg,90,neg90_id13_im29.bmp_neg90_id19_im8.bmp,['Im_GeorgeClooney.png', 'Im_PatrickDempsey.png', 'Im_LeonardoDiCaprio.png', 'Im_KeanuReeves.png', 'Im_HughJackman.png', 'Im_DanielRadcliffe.png', 'Im_JustinTimberlake.png', 'Im_RobertPattinson.png', 'Im_RyanGosling.png', 'Im_RyanReynolds.png'],diff,1,0.9335562000001119,11,92.85714285714286,
JEYV1811,12,neg,fs,negfs_id7_im14.bmp_negfs_id10_im1.bmp,['Im_GeorgeClooney.png', 'Im_PatrickDempsey.png', 'Im_LeonardoDiCaprio.png', 'Im_KeanuReeves.png', 'Im_HughJackman.png', 'Im_DanielRadcliffe.png', 'Im_JustinTimberlake.png', 'Im_RobertPattinson.png', 'Im_RyanGosling.png', 'Im_RyanReynolds.png'],diff,1,0.5749587000000247,12,92.85714285714286,
JEYV1811,13,pos,60,pos60_id8_im21.bmp_pos60_id19_im4.bmp,['Im_GeorgeClooney.png', 'Im_PatrickDempsey.png', 'Im_LeonardoDiCaprio.png', 'Im_KeanuReeves.png', 'Im_HughJackman.png', 'Im_DanielRadcliffe.png', 'Im_JustinTimberlake.png', 'Im_RobertPattinson.png', 'Im_RyanGosling.png', 'Im_RyanReynolds.png'],diff,1,0.7334849999997459,13,92.85714285714286,
JEYV1811,13,pos,150,pos150_id19_im27.bmp_pos150_id5_im1.bmp,['Im_GeorgeClooney.png', 'Im_PatrickDempsey.png', 'Im_LeonardoDiCaprio.png', 'Im_KeanuReeves.png', 'Im_HughJackman.png', 'Im_DanielRadcliffe.png', 'Im_JustinTimberlake.png', 'Im_RobertPattinson.png', 'Im_RyanGosling.png', 'Im_RyanReynolds.png'],diff,1,1.2254655000001549,14,92.85714285714286,
JEYV1811,13,pos,30,pos30_id8_im13.bmp_pos30_id8_im21.bmp,['Im_GeorgeClooney.png', 'Im_PatrickDempsey.png', 'Im_LeonardoDiCaprio.png', 'Im_KeanuReeves.png', 'Im_HughJackman.png', 'Im_DanielRadcliffe.png', 'Im_JustinTimberlake.png', 'Im_RobertPattinson.png', 'Im_RyanGosling.png', 'Im_RyanReynolds.png'],same,1,0.5999268999999003,15,92.85714285714286,
JEYV1811,13,pos,90,pos90_id8_im20.bmp_pos90_id20_im12.bmp,['Im_GeorgeClooney.png', 'Im_PatrickDempsey.png', 'Im_LeonardoDiCaprio.png', 'Im_KeanuReeves.png', 'Im_HughJackman.png', 'Im_DanielRadcliffe.png', 'Im_JustinTimberlake.png', 'Im_RobertPattinson.png', 'Im_RyanGosling.png', 'Im_RyanReynolds.png'],diff,1,0.5419564000003447,16,92.85714285714286,
JEYV1811,13,pos,fs,posfs_id10_im1.bmp_posfs_id10_im17.bmp,['Im_GeorgeClooney.png', 'Im_PatrickDempsey.png', 'Im_LeonardoDiCaprio.png', 'Im_KeanuReeves.png', 'Im_HughJackman.png', 'Im_DanielRadcliffe.png', 'Im_JustinTimberlake.png', 'Im_RobertPattinson.png', 'Im_RyanGosling.png', 'Im_RyanReynolds.png'],same,1,0.4085024999999405,17,92.85714285714286,
JEYV1811,13,pos,0,pos0_id8_im21.bmp_pos0_id19_im4.bmp,['Im_GeorgeClooney.png', 'Im_PatrickDempsey.png', 'Im_LeonardoDiCaprio.png', 'Im_KeanuReeves.png', 'Im_HughJackman.png', 'Im_DanielRadcliffe.png', 'Im_JustinTimberlake.png', 'Im_RobertPattinson.png', 'Im_RyanGosling.png', 'Im_RyanReynolds.png'],diff,1,0.691606999999749,18,92.85714285714286,
JEYV1811,13,pos,fs,posfs_id8_im21.bmp_posfs_id19_im4.bmp,['Im_GeorgeClooney.png', 'Im_PatrickDempsey.png', 'Im_LeonardoDiCaprio.png', 'Im_KeanuReeves.png', 'Im_HughJackman.png', 'Im_DanielRadcliffe.png', 'Im_JustinTimberlake.png', 'Im_RobertPattinson.png', 'Im_RyanGosling.png', 'Im_RyanReynolds.png'],diff,1,0.4169638999997005,19,92.85714285714286,
JEYV1811,13,pos,0,pos0_id7_im15.bmp_pos0_id7_im26.bmp,['Im_GeorgeClooney.png', 'Im_PatrickDempsey.png', 'Im_LeonardoDiCaprio.png', 'Im_KeanuReeves.png', 'Im_HughJackman.png', 'Im_DanielRadcliffe.png', 'Im_JustinTimberlake.png', 'Im_RobertPattinson.png', 'Im_RyanGosling.png', 'Im_RyanReynolds.png'],same,1,0.4250566999999137,20,92.85714285714286,
JEYV1811,13,pos,90,pos90_id5_im10.bmp_pos90_id20_im30.bmp,['Im_GeorgeClooney.png', 'Im_PatrickDempsey.png', 'Im_LeonardoDiCaprio.png', 'Im_KeanuReeves.png', 'Im_HughJackman.png', 'Im_DanielRadcliffe.png', 'Im_JustinTimberlake.png', 'Im_RobertPattinson.png', 'Im_RyanGosling.png', 'Im_RyanReynolds.png'],diff,1,0.4084204000000682,21,92.85714285714286,
JEYV1811,13,pos,60,pos60_id7_im14.bmp_pos60_id7_im26.bmp,['Im_GeorgeClooney.png', 'Im_PatrickDempsey.png', 'Im_LeonardoDiCaprio.png', 'Im_KeanuReeves.png', 'Im_HughJackman.png', 'Im_DanielRadcliffe.png', 'Im_JustinTimberlake.png', 'Im_RobertPattinson.png', 'Im_RyanGosling.png', 'Im_RyanReynolds.png'],same,1,0.5167866000001595,22,92.85714285714286,
JEYV1811,13,pos,120,pos120_id20_im3.bmp_pos120_id20_im30.bmp,['Im_GeorgeClooney.png', 'Im_PatrickDempsey.png', 'Im_LeonardoDiCaprio.png', 'Im_KeanuReeves.png', 'Im_HughJackman.png', 'Im_DanielRadcliffe.png', 'Im_JustinTimberlake.png', 'Im_RobertPattinson.png', 'Im_RyanGosling.png', 'Im_RyanReynolds.png'],same,1,0.5585688000001028,23,92.85714285714286,
JEYV1811,13,pos,30,pos30_id7_im14.bmp_pos30_id10_im1.bmp,['Im_GeorgeClooney.png', 'Im_PatrickDempsey.png', 'Im_LeonardoDiCaprio.png', 'Im_KeanuReeves.png', 'Im_HughJackman.png', 'Im_DanielRadcliffe.png', 'Im_JustinTimberlake.png', 'Im_RobertPattinson.png', 'Im_RyanGosling.png', 'Im_RyanReynolds.png'],diff,1,0.5584423000000243,24,92.85714285714286,
JEYV1811,13,pos,120,pos120_id5_im20.bmp_pos120_id5_im1.bmp,['Im_GeorgeClooney.png', 'Im_PatrickDempsey.png', 'Im_LeonardoDiCaprio.png', 'Im_KeanuReeves.png', 'Im_HughJackman.png', 'Im_DanielRadcliffe.png', 'Im_JustinTimberlake.png', 'Im_RobertPattinson.png', 'Im_RyanGosling.png', 'Im_RyanReynolds.png'],same,1,0.4083458000000064,25,92.85714285714286,
JEYV1811,13,pos,150,pos150_id13_im29.bmp_pos150_id13_im15.bmp,['Im_GeorgeClooney.png', 'Im_PatrickDempsey.png', 'Im_LeonardoDiCaprio.png', 'Im_KeanuReeves.png', 'Im_HughJackman.png', 'Im_DanielRadcliffe.png', 'Im_JustinTimberlake.png', 'Im_RobertPattinson.png', 'Im_RyanGosling.png', 'Im_RyanReynolds.png'],diff,0,0.4167705999998361,25,92.85714285714286,
JEYV1811,14,inv,90,pos90_id20_im3.bmp_pos90_id20_im12.bmp,['Im_GeorgeClooney.png', 'Im_PatrickDempsey.png', 'Im_LeonardoDiCaprio.png', 'Im_KeanuReeves.png', 'Im_HughJackman.png', 'Im_DanielRadcliffe.png', 'Im_JustinTimberlake.png', 'Im_RobertPattinson.png', 'Im_RyanGosling.png', 'Im_RyanReynolds.png'],same,1,0.4167733999997836,26,92.85714285714286,
JEYV1811,14,inv,150,pos150_id20_im12.bmp_pos150_id20_im3.bmp,['Im_GeorgeClooney.png', 'Im_PatrickDempsey.png', 'Im_LeonardoDiCaprio.png', 'Im_KeanuReeves.png', 'Im_HughJackman.png', 'Im_DanielRadcliffe.png', 'Im_JustinTimberlake.png', 'Im_RobertPattinson.png', 'Im_RyanGosling.png', 'Im_RyanReynolds.png'],diff,0,0.6751079999999092,26,92.85714285714286,
JEYV1811,14,inv,60,pos60_id5_im20.bmp_pos60_id17_im8.bmp,['Im_GeorgeClooney.png', 'Im_PatrickDempsey.png', 'Im_LeonardoDiCaprio.png', 'Im_KeanuReeves.png', 'Im_HughJackman.png', 'Im_DanielRadcliffe.png', 'Im_JustinTimberlake.png', 'Im_RobertPattinson.png', 'Im_RyanGosling.png', 'Im_RyanReynolds.png'],diff,1,0.7752564000002167,27,92.85714285714286,
JEYV1811,14,inv,90,pos90_id5_im20.bmp_pos90_id5_im10.bmp,['Im_GeorgeClooney.png', 'Im_PatrickDempsey.png', 'Im_LeonardoDiCaprio.png', 'Im_KeanuReeves.png', 'Im_HughJackman.png', 'Im_DanielRadcliffe.png', 'Im_JustinTimberlake.png', 'Im_RobertPattinson.png', 'Im_RyanGosling.png', 'Im_RyanReynolds.png'],diff,0,0.42524539999976696,27,92.85714285714286,
JEYV1811,14,inv,30,pos30_id11_im10.bmp_pos30_id11_im1.bmp,['Im_GeorgeClooney.png', 'Im_PatrickDempsey.png', 'Im_LeonardoDiCaprio.png', 'Im_KeanuReeves.png', 'Im_HughJackman.png', 'Im_DanielRadcliffe.png', 'Im_JustinTimberlake.png', 'Im_RobertPattinson.png', 'Im_RyanGosling.png', 'Im_RyanReynolds.png'],same,1,0.41680029999997714,28,92.85714285714286,
JEYV1811,14,inv,60,pos60_id13_im15.bmp_pos60_id7_im15.bmp,['Im_GeorgeClooney.png', 'Im_PatrickDempsey.png', 'Im_LeonardoDiCaprio.png', 'Im_KeanuReeves.png', 'Im_HughJackman.png', 'Im_DanielRadcliffe.png', 'Im_JustinTimberlake.png', 'Im_RobertPattinson.png', 'Im_RyanGosling.png', 'Im_RyanReynolds.png'],diff,1,0.6918514999997569,29,92.85714285714286,
JEYV1811,14,inv,30,pos30_id8_im13.bmp_pos30_id5_im10.bmp,['Im_GeorgeClooney.png', 'Im_PatrickDempsey.png', 'Im_LeonardoDiCaprio.png', 'Im_KeanuReeves.png', 'Im_HughJackman.png', 'Im_DanielRadcliffe.png', 'Im_JustinTimberlake.png', 'Im_RobertPattinson.png', 'Im_RyanGosling.png', 'Im_RyanReynolds.png'],diff,1,0.942022199999883,30,92.85714285714286,
JEYV1811,14,inv,120,pos120_id5_im10.bmp_pos120_id5_im1.bmp,['Im_GeorgeClooney.png', 'Im_PatrickDempsey.png', 'Im_LeonardoDiCaprio.png', 'Im_KeanuReeves.png', 'Im_HughJackman.png', 'Im_DanielRadcliffe.png', 'Im_JustinTimberlake.png', 'Im_RobertPattinson.png', 'Im_RyanGosling.png', 'Im_RyanReynolds.png'],same,1,0.42497110000022076,31,92.85714285714286,
