Sujet,Trial,Condition,Filter,Imname,Actor0,Actor1,Actor2,Actor3,Actor4,Actor5,Actor6,Actor7,Actor8,Actor9,Answer,Accu,RT,Score,Scoreperc, 
LASY1606,_,posfs_DanielCraig_im8.bmp,DanielCraig,RobertPattinson,RobertPattinson,BenAffleck,BenStiller,LeonardoDiCaprio,,,,,posfs_DanielCraig_im8.bmp,4.551059099999975,
LASY1606,_,posfs_DanielRadcliffe_im8.bmp,DanielRadcliffe,MattDamon,MattDamon,PatrickDempsey,RyanReynolds,RobertDowneyJr,,,,,posfs_DanielRadcliffe_im8.bmp,3.181957099999977,
LASY1606,_,posfs_KeanuReeves_im10.bmp,KeanuReeves,MattDamon,MattDamon,OrlandoBloom,PatrickDempsey,LeonardoDiCaprio,,,,,posfs_KeanuReeves_im10.bmp,1.5787023999999974,
LASY1606,_,posfs_RobertDowneyJr_im19.bmp,RobertDowneyJr,DanielRadcliffe,DanielRadcliffe,DanielCraig,PatrickDempsey,BenStiller,,,,,posfs_RobertDowneyJr_im19.bmp,2.4408968000000186,
LASY1606,_,posfs_RyanReynolds_im16.bmp,RyanReynolds,OrlandoBloom,OrlandoBloom,RobertPattinson,RyanGosling,LeonardoDiCaprio,,,,,posfs_RyanReynolds_im16.bmp,3.9881070000000136,
LASY1606,_,posfs_RyanGosling_im30.bmp,RyanGosling,RyanReynolds,RyanReynolds,DanielCraig,PatrickDempsey,RobertPattinson,,,,,posfs_RyanGosling_im30.bmp,2.9227809000000207,
LASY1606,_,posfs_LeonardoDiCaprio_im10.bmp,LeonardoDiCaprio,BenStiller,BenStiller,RyanGosling,PatrickDempsey,RobertPattinson,,,,,posfs_LeonardoDiCaprio_im10.bmp,1.2038616000000957,
LASY1606,_,posfs_HughJackman_im13.bmp,HughJackman,BradPitt,BradPitt,PatrickDempsey,MattDamon,RobertPattinson,,,,,posfs_HughJackman_im13.bmp,1.4484082000000171,
LASY1606,_,posfs_JustinTimberlake_im1.bmp,JustinTimberlake,BenAffleck,BenAffleck,ElijahWood,PatrickDempsey,HughJackman,,,,,posfs_JustinTimberlake_im1.bmp,12.701178700000014,
LASY1606,_,posfs_RobertPattinson_im27.bmp,RobertPattinson,RyanReynolds,RyanReynolds,OrlandoBloom,MattDamon,KeanuReeves,,,,,posfs_RobertPattinson_im27.bmp,0.9488076000000092,
LASY1606,_,posfs_OrlandoBloom_im3.bmp,OrlandoBloom,RobertPattinson,RobertPattinson,RyanReynolds,RyanGosling,RobertDowneyJr,,,,,posfs_OrlandoBloom_im3.bmp,1.6280146999999943,
LASY1606,_,posfs_OrlandoBloom_im30.bmp,OrlandoBloom,JustinTimberlake,JustinTimberlake,BradPitt,KeanuReeves,RyanGosling,,,,,posfs_OrlandoBloom_im30.bmp,3.0486465000001317,
LASY1606,_,posfs_KeanuReeves_im8.bmp,KeanuReeves,BenAffleck,BenAffleck,LeonardoDiCaprio,RyanGosling,GeorgeClooney,,,,,posfs_KeanuReeves_im8.bmp,2.3559379999999237,
LASY1606,_,posfs_ElijahWood_im12.bmp,ElijahWood,DanielRadcliffe,DanielRadcliffe,RobertDowneyJr,GeorgeClooney,BenStiller,,,,,posfs_ElijahWood_im12.bmp,1.4913525000001755,
LASY1606,_,posfs_BenStiller_im7.bmp,BenStiller,LeonardoDiCaprio,LeonardoDiCaprio,RyanGosling,DanielCraig,PatrickDempsey,,,,,3,4.709087399999817,
LASY1606,_,posfs_KeanuReeves_im1.bmp,KeanuReeves,LeonardoDiCaprio,LeonardoDiCaprio,BradPitt,JustinTimberlake,RobertPattinson,,,,,posfs_KeanuReeves_im1.bmp,1.260139499999923,
LASY1606,_,posfs_GeorgeClooney_im15.bmp,GeorgeClooney,JustinTimberlake,JustinTimberlake,DanielRadcliffe,DanielCraig,BenAffleck,,,,,posfs_GeorgeClooney_im15.bmp,1.5051203000000442,
LASY1606,_,posfs_BradPitt_im17.bmp,BradPitt,PatrickDempsey,PatrickDempsey,LeonardoDiCaprio,JustinTimberlake,HughJackman,,,,,posfs_BradPitt_im17.bmp,1.5696155999999064,
LASY1606,_,posfs_HughJackman_im18.bmp,HughJackman,LeonardoDiCaprio,LeonardoDiCaprio,BradPitt,RyanGosling,DanielRadcliffe,,,,,posfs_HughJackman_im18.bmp,1.4242819000000964,
LASY1606,_,posfs_BenAffleck_im21.bmp,BenAffleck,RyanGosling,RyanGosling,GeorgeClooney,ElijahWood,BradPitt,,,,,posfs_BenAffleck_im21.bmp,2.724495799999886,
LASY1606,_,posfs_BenStiller_im3.bmp,BenStiller,ElijahWood,ElijahWood,JustinTimberlake,BradPitt,RobertDowneyJr,,,,,4,14.8374002999999,
LASY1606,_,posfs_LeonardoDiCaprio_im15.bmp,LeonardoDiCaprio,RobertPattinson,RobertPattinson,DanielCraig,BradPitt,DanielRadcliffe,,,,,posfs_LeonardoDiCaprio_im15.bmp,1.8569239999999354,
LASY1606,_,posfs_RobertDowneyJr_im11.bmp,RobertDowneyJr,HughJackman,HughJackman,RyanGosling,JustinTimberlake,BenStiller,,,,,posfs_RobertDowneyJr_im11.bmp,1.5881884999998874,
LASY1606,_,posfs_RyanGosling_im3.bmp,RyanGosling,RobertPattinson,RobertPattinson,PatrickDempsey,DanielCraig,JustinTimberlake,,,,,posfs_RyanGosling_im3.bmp,1.1217951000000994,
LASY1606,_,posfs_RyanReynolds_im17.bmp,RyanReynolds,PatrickDempsey,PatrickDempsey,ElijahWood,BenStiller,BradPitt,,,,,posfs_RyanReynolds_im17.bmp,1.2979937999998583,
LASY1606,_,posfs_RobertPattinson_im4.bmp,RobertPattinson,DanielRadcliffe,DanielRadcliffe,RyanGosling,MattDamon,ElijahWood,,,,,posfs_RobertPattinson_im4.bmp,3.9414470999997775,
LASY1606,_,posfs_RobertPattinson_im8.bmp,RobertPattinson,DanielRadcliffe,DanielRadcliffe,OrlandoBloom,MattDamon,RyanGosling,,,,,posfs_RobertPattinson_im8.bmp,1.8519177000000582,
LASY1606,_,posfs_ElijahWood_im18.bmp,ElijahWood,PatrickDempsey,PatrickDempsey,JustinTimberlake,RobertPattinson,RobertDowneyJr,,,,,posfs_ElijahWood_im18.bmp,1.4719648999998753,
LASY1606,_,posfs_KeanuReeves_im2.bmp,KeanuReeves,HughJackman,HughJackman,GeorgeClooney,RobertPattinson,BenStiller,,,,,posfs_KeanuReeves_im2.bmp,2.346413800000164,
LASY1606,_,posfs_MattDamon_im18.bmp,MattDamon,DanielCraig,DanielCraig,PatrickDempsey,DanielRadcliffe,ElijahWood,,,,,posfs_MattDamon_im18.bmp,1.9063743000001523,
LASY1606,_,posfs_BradPitt_im14.bmp,BradPitt,MattDamon,MattDamon,DanielCraig,OrlandoBloom,LeonardoDiCaprio,,,,,posfs_BradPitt_im14.bmp,1.2113515999999436,
LASY1606,_,posfs_MattDamon_im24.bmp,MattDamon,RobertDowneyJr,RobertDowneyJr,BradPitt,HughJackman,RobertPattinson,,,,,posfs_MattDamon_im24.bmp,1.9440675999999257,
LASY1606,_,posfs_BradPitt_im6.bmp,BradPitt,RyanGosling,RyanGosling,RobertDowneyJr,OrlandoBloom,HughJackman,,,,,posfs_BradPitt_im6.bmp,1.0159702999999354,
LASY1606,_,posfs_HughJackman_im21.bmp,HughJackman,OrlandoBloom,OrlandoBloom,GeorgeClooney,RyanGosling,BradPitt,,,,,posfs_HughJackman_im21.bmp,1.2361100000000533,
LASY1606,_,posfs_RobertPattinson_im30.bmp,RobertPattinson,DanielRadcliffe,DanielRadcliffe,DanielCraig,BenAffleck,JustinTimberlake,,,,,posfs_RobertPattinson_im30.bmp,0.8228015999998206,
LASY1606,_,posfs_OrlandoBloom_im2.bmp,OrlandoBloom,BenAffleck,BenAffleck,RyanGosling,MattDamon,RobertDowneyJr,,,,,posfs_OrlandoBloom_im2.bmp,2.700470799999948,
LASY1606,_,posfs_LeonardoDiCaprio_im29.bmp,LeonardoDiCaprio,RobertDowneyJr,RobertDowneyJr,PatrickDempsey,OrlandoBloom,DanielCraig,,,,,posfs_LeonardoDiCaprio_im29.bmp,3.1897504000000936,
LASY1606,_,posfs_PatrickDempsey_im14.bmp,PatrickDempsey,KeanuReeves,KeanuReeves,RobertDowneyJr,HughJackman,RyanReynolds,,,,,4,5.325465000000122,
LASY1606,_,posfs_BenAffleck_im4.bmp,BenAffleck,BenStiller,BenStiller,KeanuReeves,ElijahWood,PatrickDempsey,,,,,posfs_BenAffleck_im4.bmp,3.1258384000000206,
LASY1606,_,posfs_JustinTimberlake_im17.bmp,JustinTimberlake,MattDamon,MattDamon,LeonardoDiCaprio,ElijahWood,GeorgeClooney,,,,,posfs_JustinTimberlake_im17.bmp,1.5240578000000369,
LASY1606,_,posfs_ElijahWood_im23.bmp,ElijahWood,BenAffleck,BenAffleck,RyanGosling,BenStiller,RobertDowneyJr,,,,,posfs_ElijahWood_im23.bmp,1.9253561000000445,
LASY1606,_,posfs_BradPitt_im8.bmp,BradPitt,BenStiller,BenStiller,BenAffleck,OrlandoBloom,RobertPattinson,,,,,posfs_BradPitt_im8.bmp,1.493419299999914,
LASY1606,_,posfs_RobertDowneyJr_im18.bmp,RobertDowneyJr,MattDamon,MattDamon,BradPitt,GeorgeClooney,JustinTimberlake,,,,,posfs_RobertDowneyJr_im18.bmp,1.4715071000000535,
LASY1606,_,posfs_GeorgeClooney_im23.bmp,GeorgeClooney,BenAffleck,BenAffleck,MattDamon,OrlandoBloom,KeanuReeves,,,,,posfs_GeorgeClooney_im23.bmp,2.506117500000073,
LASY1606,_,posfs_BenAffleck_im8.bmp,BenAffleck,OrlandoBloom,OrlandoBloom,RobertPattinson,RyanReynolds,MattDamon,,,,,posfs_BenAffleck_im8.bmp,1.5798975000000155,
LASY1606,_,posfs_BenAffleck_im24.bmp,BenAffleck,OrlandoBloom,OrlandoBloom,DanielRadcliffe,MattDamon,GeorgeClooney,,,,,posfs_BenAffleck_im24.bmp,1.794200499999988,
LASY1606,_,posfs_RyanReynolds_im22.bmp,RyanReynolds,JustinTimberlake,JustinTimberlake,BradPitt,KeanuReeves,LeonardoDiCaprio,,,,,posfs_RyanReynolds_im22.bmp,2.5817040000001725,
LASY1606,_,posfs_PatrickDempsey_im8.bmp,PatrickDempsey,BenStiller,BenStiller,MattDamon,BradPitt,RyanGosling,,,,,4,4.149404999999888,
LASY1606,_,posfs_RobertDowneyJr_im4.bmp,RobertDowneyJr,RyanGosling,RyanGosling,BradPitt,HughJackman,ElijahWood,,,,,posfs_RobertDowneyJr_im4.bmp,3.7878776000000016,
LASY1606,_,posfs_DanielCraig_im20.bmp,DanielCraig,BenStiller,BenStiller,BradPitt,LeonardoDiCaprio,OrlandoBloom,,,,,posfs_DanielCraig_im20.bmp,1.7227594000000863,
LASY1606,_,posfs_LeonardoDiCaprio_im24.bmp,LeonardoDiCaprio,DanielCraig,DanielCraig,BradPitt,PatrickDempsey,RyanGosling,,,,,posfs_LeonardoDiCaprio_im24.bmp,2.27613939999992,
LASY1606,_,posfs_DanielCraig_im15.bmp,DanielCraig,BenAffleck,BenAffleck,MattDamon,BenStiller,HughJackman,,,,,posfs_DanielCraig_im15.bmp,1.3109128999999484,
LASY1606,_,posfs_JustinTimberlake_im4.bmp,JustinTimberlake,BenStiller,BenStiller,RobertDowneyJr,OrlandoBloom,PatrickDempsey,,,,,posfs_JustinTimberlake_im4.bmp,1.4634799000000385,
LASY1606,_,posfs_OrlandoBloom_im19.bmp,OrlandoBloom,ElijahWood,ElijahWood,DanielCraig,PatrickDempsey,LeonardoDiCaprio,,,,,posfs_OrlandoBloom_im19.bmp,3.3151464000000033,
LASY1606,_,posfs_HughJackman_im20.bmp,HughJackman,JustinTimberlake,JustinTimberlake,RyanReynolds,DanielCraig,OrlandoBloom,,,,,posfs_HughJackman_im20.bmp,1.4843078000001242,
LASY1606,_,posfs_RyanReynolds_im3.bmp,RyanReynolds,BenAffleck,BenAffleck,DanielCraig,MattDamon,OrlandoBloom,,,,,posfs_RyanReynolds_im3.bmp,1.9103920999998536,
LASY1606,_,posfs_MattDamon_im9.bmp,MattDamon,BradPitt,BradPitt,HughJackman,DanielCraig,LeonardoDiCaprio,,,,,posfs_MattDamon_im9.bmp,2.2960017000000335,
LASY1606,_,posfs_ElijahWood_im19.bmp,ElijahWood,PatrickDempsey,PatrickDempsey,RyanReynolds,BenAffleck,OrlandoBloom,,,,,posfs_ElijahWood_im19.bmp,1.441650299999992,
LASY1606,_,posfs_MattDamon_im16.bmp,MattDamon,LeonardoDiCaprio,LeonardoDiCaprio,RyanGosling,KeanuReeves,BenStiller,,,,,posfs_MattDamon_im16.bmp,2.3439911999998913,
LASY1606,_,posfs_PatrickDempsey_im9.bmp,PatrickDempsey,HughJackman,HughJackman,RobertDowneyJr,KeanuReeves,BenAffleck,,,,,4,23.368639900000062,
LASY1606,_,posfs_PatrickDempsey_im16.bmp,PatrickDempsey,BradPitt,BradPitt,DanielCraig,DanielRadcliffe,LeonardoDiCaprio,,,,,4,1.3337384999999813,
LASY1606,_,posfs_DanielRadcliffe_im20.bmp,DanielRadcliffe,GeorgeClooney,GeorgeClooney,ElijahWood,RobertPattinson,KeanuReeves,,,,,posfs_DanielRadcliffe_im20.bmp,1.7356282000000647,
LASY1606,_,posfs_JustinTimberlake_im18.bmp,JustinTimberlake,ElijahWood,ElijahWood,RyanGosling,DanielRadcliffe,LeonardoDiCaprio,,,,,posfs_JustinTimberlake_im18.bmp,1.1358815999999479,
LASY1606,_,posfs_RyanGosling_im25.bmp,RyanGosling,DanielCraig,DanielCraig,KeanuReeves,BradPitt,MattDamon,,,,,posfs_RyanGosling_im25.bmp,2.4560159000000112,
LASY1606,_,posfs_BenStiller_im16.bmp,BenStiller,KeanuReeves,KeanuReeves,MattDamon,JustinTimberlake,BenAffleck,,,,,posfs_BenStiller_im16.bmp,10.08438729999989,
LASY1606,_,posfs_RyanGosling_im12.bmp,RyanGosling,PatrickDempsey,PatrickDempsey,RyanReynolds,BradPitt,DanielCraig,,,,,posfs_RyanGosling_im12.bmp,2.1668505999998615,
LASY1606,_,posfs_DanielCraig_im7.bmp,DanielCraig,BenAffleck,BenAffleck,KeanuReeves,PatrickDempsey,DanielRadcliffe,,,,,posfs_DanielCraig_im7.bmp,1.541532400000051,
LASY1606,_,posfs_GeorgeClooney_im14.bmp,GeorgeClooney,KeanuReeves,KeanuReeves,LeonardoDiCaprio,PatrickDempsey,RobertPattinson,,,,,posfs_GeorgeClooney_im14.bmp,5.485773999999992,
LASY1606,_,posfs_GeorgeClooney_im26.bmp,GeorgeClooney,LeonardoDiCaprio,LeonardoDiCaprio,RobertPattinson,BenAffleck,ElijahWood,,,,,posfs_GeorgeClooney_im26.bmp,0.9913444000001164,
LASY1606,_,posfs_BenStiller_im2.bmp,BenStiller,RobertDowneyJr,RobertDowneyJr,GeorgeClooney,DanielCraig,RyanReynolds,,,,,posfs_BenStiller_im2.bmp,1.3741998999998941,
LASY1606,_,posfs_DanielRadcliffe_im10.bmp,DanielRadcliffe,LeonardoDiCaprio,LeonardoDiCaprio,KeanuReeves,ElijahWood,MattDamon,,,,,posfs_DanielRadcliffe_im10.bmp,6.100763599999937,
LASY1606,_,posfs_DanielRadcliffe_im1.bmp,DanielRadcliffe,BradPitt,BradPitt,LeonardoDiCaprio,BenStiller,RobertPattinson,,,,,posfs_DanielRadcliffe_im1.bmp,1.6385960000000068,
LASY1606,train,pos,fs,posfs_id7_im26.bmp_posfs_id19_im4.bmp,['Im_RobertDowneyJr.png', 'Im_BenAffleck.png', 'Im_JustinTimberlake.png', 'Im_RobertPattinson.png', 'Im_KeanuReeves.png', 'Im_RyanGosling.png', 'Im_RyanReynolds.png', 'Im_GeorgeClooney.png', 'Im_OrlandoBloom.png', 'Im_BradPitt.png'],diff,1,3.5748524000000543,1,0,
LASY1606,train,pos,fs,posfs_id1_im21.bmp_posfs_id1_im24.bmp,['Im_RobertDowneyJr.png', 'Im_BenAffleck.png', 'Im_JustinTimberlake.png', 'Im_RobertPattinson.png', 'Im_KeanuReeves.png', 'Im_RyanGosling.png', 'Im_RyanReynolds.png', 'Im_GeorgeClooney.png', 'Im_OrlandoBloom.png', 'Im_BradPitt.png'],same,1,1.4666341000001921,2,0,
LASY1606,train,pos,fs,posfs_id16_im2.bmp_posfs_id11_im1.bmp,['Im_RobertDowneyJr.png', 'Im_BenAffleck.png', 'Im_JustinTimberlake.png', 'Im_RobertPattinson.png', 'Im_KeanuReeves.png', 'Im_RyanGosling.png', 'Im_RyanReynolds.png', 'Im_GeorgeClooney.png', 'Im_OrlandoBloom.png', 'Im_BradPitt.png'],diff,1,1.350236300000006,3,0,
LASY1606,train,pos,fs,posfs_id20_im12.bmp_posfs_id11_im2.bmp,['Im_RobertDowneyJr.png', 'Im_BenAffleck.png', 'Im_JustinTimberlake.png', 'Im_RobertPattinson.png', 'Im_KeanuReeves.png', 'Im_RyanGosling.png', 'Im_RyanReynolds.png', 'Im_GeorgeClooney.png', 'Im_OrlandoBloom.png', 'Im_BradPitt.png'],diff,1,1.0750751000000491,4,0,
LASY1606,train,pos,fs,posfs_id16_im19.bmp_posfs_id3_im8.bmp,['Im_RobertDowneyJr.png', 'Im_BenAffleck.png', 'Im_JustinTimberlake.png', 'Im_RobertPattinson.png', 'Im_KeanuReeves.png', 'Im_RyanGosling.png', 'Im_RyanReynolds.png', 'Im_GeorgeClooney.png', 'Im_OrlandoBloom.png', 'Im_BradPitt.png'],diff,1,0.9502793999999994,5,0,
LASY1606,train,pos,fs,posfs_id18_im11.bmp_posfs_id11_im10.bmp,['Im_RobertDowneyJr.png', 'Im_BenAffleck.png', 'Im_JustinTimberlake.png', 'Im_RobertPattinson.png', 'Im_KeanuReeves.png', 'Im_RyanGosling.png', 'Im_RyanReynolds.png', 'Im_GeorgeClooney.png', 'Im_OrlandoBloom.png', 'Im_BradPitt.png'],diff,1,0.9250282000000425,6,0,
LASY1606,train,pos,fs,posfs_id10_im1.bmp_posfs_id3_im17.bmp,['Im_RobertDowneyJr.png', 'Im_BenAffleck.png', 'Im_JustinTimberlake.png', 'Im_RobertPattinson.png', 'Im_KeanuReeves.png', 'Im_RyanGosling.png', 'Im_RyanReynolds.png', 'Im_GeorgeClooney.png', 'Im_OrlandoBloom.png', 'Im_BradPitt.png'],diff,1,0.8329992999999831,7,0,
LASY1606,train,pos,fs,posfs_id20_im30.bmp_posfs_id20_im3.bmp,['Im_RobertDowneyJr.png', 'Im_BenAffleck.png', 'Im_JustinTimberlake.png', 'Im_RobertPattinson.png', 'Im_KeanuReeves.png', 'Im_RyanGosling.png', 'Im_RyanReynolds.png', 'Im_GeorgeClooney.png', 'Im_OrlandoBloom.png', 'Im_BradPitt.png'],same,1,0.800353399999949,8,0,
LASY1606,train,pos,fs,posfs_id21_im17.bmp_posfs_id21_im22.bmp,['Im_RobertDowneyJr.png', 'Im_BenAffleck.png', 'Im_JustinTimberlake.png', 'Im_RobertPattinson.png', 'Im_KeanuReeves.png', 'Im_RyanGosling.png', 'Im_RyanReynolds.png', 'Im_GeorgeClooney.png', 'Im_OrlandoBloom.png', 'Im_BradPitt.png'],same,1,2.4417570000000524,9,0,
LASY1606,train,pos,fs,posfs_id11_im2.bmp_posfs_id10_im18.bmp,['Im_RobertDowneyJr.png', 'Im_BenAffleck.png', 'Im_JustinTimberlake.png', 'Im_RobertPattinson.png', 'Im_KeanuReeves.png', 'Im_RyanGosling.png', 'Im_RyanReynolds.png', 'Im_GeorgeClooney.png', 'Im_OrlandoBloom.png', 'Im_BradPitt.png'],diff,1,1.1086841000001186,10,0,
LASY1606,train,pos,fs,posfs_id18_im11.bmp_posfs_id18_im18.bmp,['Im_RobertDowneyJr.png', 'Im_BenAffleck.png', 'Im_JustinTimberlake.png', 'Im_RobertPattinson.png', 'Im_KeanuReeves.png', 'Im_RyanGosling.png', 'Im_RyanReynolds.png', 'Im_GeorgeClooney.png', 'Im_OrlandoBloom.png', 'Im_BradPitt.png'],same,1,1.4667188999999325,11,0,
LASY1606,train,pos,fs,posfs_id16_im3.bmp_posfs_id16_im19.bmp,['Im_RobertDowneyJr.png', 'Im_BenAffleck.png', 'Im_JustinTimberlake.png', 'Im_RobertPattinson.png', 'Im_KeanuReeves.png', 'Im_RyanGosling.png', 'Im_RyanReynolds.png', 'Im_GeorgeClooney.png', 'Im_OrlandoBloom.png', 'Im_BradPitt.png'],same,1,1.0833976000001257,12,0,
LASY1606,train,pos,fs,posfs_id21_im16.bmp_posfs_id3_im17.bmp,['Im_RobertDowneyJr.png', 'Im_BenAffleck.png', 'Im_JustinTimberlake.png', 'Im_RobertPattinson.png', 'Im_KeanuReeves.png', 'Im_RyanGosling.png', 'Im_RyanReynolds.png', 'Im_GeorgeClooney.png', 'Im_OrlandoBloom.png', 'Im_BradPitt.png'],diff,1,1.1750617999998667,13,0,
LASY1606,train,pos,fs,posfs_id3_im17.bmp_posfs_id3_im8.bmp,['Im_RobertDowneyJr.png', 'Im_BenAffleck.png', 'Im_JustinTimberlake.png', 'Im_RobertPattinson.png', 'Im_KeanuReeves.png', 'Im_RyanGosling.png', 'Im_RyanReynolds.png', 'Im_GeorgeClooney.png', 'Im_OrlandoBloom.png', 'Im_BradPitt.png'],same,1,1.3753525999998146,14,0,
LASY1606,train,pos,fs,posfs_id11_im2.bmp_posfs_id11_im1.bmp,['Im_RobertDowneyJr.png', 'Im_BenAffleck.png', 'Im_JustinTimberlake.png', 'Im_RobertPattinson.png', 'Im_KeanuReeves.png', 'Im_RyanGosling.png', 'Im_RyanReynolds.png', 'Im_GeorgeClooney.png', 'Im_OrlandoBloom.png', 'Im_BradPitt.png'],same,1,1.350198999999975,15,0,
LASY1606,train,pos,fs,posfs_id18_im18.bmp_posfs_id18_im19.bmp,['Im_RobertDowneyJr.png', 'Im_BenAffleck.png', 'Im_JustinTimberlake.png', 'Im_RobertPattinson.png', 'Im_KeanuReeves.png', 'Im_RyanGosling.png', 'Im_RyanReynolds.png', 'Im_GeorgeClooney.png', 'Im_OrlandoBloom.png', 'Im_BradPitt.png'],same,1,1.1995771000001696,16,0,
LASY1606,train,pos,fs,posfs_id19_im8.bmp_posfs_id19_im27.bmp,['Im_RobertDowneyJr.png', 'Im_BenAffleck.png', 'Im_JustinTimberlake.png', 'Im_RobertPattinson.png', 'Im_KeanuReeves.png', 'Im_RyanGosling.png', 'Im_RyanReynolds.png', 'Im_GeorgeClooney.png', 'Im_OrlandoBloom.png', 'Im_BradPitt.png'],same,1,0.9421285000000807,17,0,
LASY1606,train,pos,fs,posfs_id7_im14.bmp_posfs_id7_im26.bmp,['Im_RobertDowneyJr.png', 'Im_BenAffleck.png', 'Im_JustinTimberlake.png', 'Im_RobertPattinson.png', 'Im_KeanuReeves.png', 'Im_RyanGosling.png', 'Im_RyanReynolds.png', 'Im_GeorgeClooney.png', 'Im_OrlandoBloom.png', 'Im_BradPitt.png'],same,1,0.8501618999998755,18,0,
LASY1606,train,pos,fs,posfs_id19_im8.bmp_posfs_id16_im3.bmp,['Im_RobertDowneyJr.png', 'Im_BenAffleck.png', 'Im_JustinTimberlake.png', 'Im_RobertPattinson.png', 'Im_KeanuReeves.png', 'Im_RyanGosling.png', 'Im_RyanReynolds.png', 'Im_GeorgeClooney.png', 'Im_OrlandoBloom.png', 'Im_BradPitt.png'],diff,1,0.8500242000000071,19,0,
LASY1606,train,pos,fs,posfs_id10_im18.bmp_posfs_id10_im17.bmp,['Im_RobertDowneyJr.png', 'Im_BenAffleck.png', 'Im_JustinTimberlake.png', 'Im_RobertPattinson.png', 'Im_KeanuReeves.png', 'Im_RyanGosling.png', 'Im_RyanReynolds.png', 'Im_GeorgeClooney.png', 'Im_OrlandoBloom.png', 'Im_BradPitt.png'],same,1,1.283374499999809,20,0,
LASY1606,train,pos,fs,posfs_id21_im16.bmp_posfs_id19_im27.bmp,['Im_RobertDowneyJr.png', 'Im_BenAffleck.png', 'Im_JustinTimberlake.png', 'Im_RobertPattinson.png', 'Im_KeanuReeves.png', 'Im_RyanGosling.png', 'Im_RyanReynolds.png', 'Im_GeorgeClooney.png', 'Im_OrlandoBloom.png', 'Im_BradPitt.png'],diff,1,2.716988800000081,1,0,
LASY1606,train,inv,fs,posfs_id19_im8.bmp_posfs_id11_im1.bmp,['Im_RobertDowneyJr.png', 'Im_BenAffleck.png', 'Im_JustinTimberlake.png', 'Im_RobertPattinson.png', 'Im_KeanuReeves.png', 'Im_RyanGosling.png', 'Im_RyanReynolds.png', 'Im_GeorgeClooney.png', 'Im_OrlandoBloom.png', 'Im_BradPitt.png'],diff,1,1.591784299999972,2,0,
LASY1606,train,pos,fs,posfs_id7_im14.bmp_posfs_id21_im17.bmp,['Im_RobertDowneyJr.png', 'Im_BenAffleck.png', 'Im_JustinTimberlake.png', 'Im_RobertPattinson.png', 'Im_KeanuReeves.png', 'Im_RyanGosling.png', 'Im_RyanReynolds.png', 'Im_GeorgeClooney.png', 'Im_OrlandoBloom.png', 'Im_BradPitt.png'],diff,1,0.800047799999902,3,0,
LASY1606,train,neg,fs,negfs_id10_im17.bmp_negfs_id10_im1.bmp,['Im_RobertDowneyJr.png', 'Im_BenAffleck.png', 'Im_JustinTimberlake.png', 'Im_RobertPattinson.png', 'Im_KeanuReeves.png', 'Im_RyanGosling.png', 'Im_RyanReynolds.png', 'Im_GeorgeClooney.png', 'Im_OrlandoBloom.png', 'Im_BradPitt.png'],same,1,2.200197300000127,4,0,
LASY1606,train,inv,fs,posfs_id11_im1.bmp_posfs_id16_im2.bmp,['Im_RobertDowneyJr.png', 'Im_BenAffleck.png', 'Im_JustinTimberlake.png', 'Im_RobertPattinson.png', 'Im_KeanuReeves.png', 'Im_RyanGosling.png', 'Im_RyanReynolds.png', 'Im_GeorgeClooney.png', 'Im_OrlandoBloom.png', 'Im_BradPitt.png'],diff,1,0.7920130999998491,5,0,
LASY1606,train,inv,fs,posfs_id7_im14.bmp_posfs_id21_im17.bmp,['Im_RobertDowneyJr.png', 'Im_BenAffleck.png', 'Im_JustinTimberlake.png', 'Im_RobertPattinson.png', 'Im_KeanuReeves.png', 'Im_RyanGosling.png', 'Im_RyanReynolds.png', 'Im_GeorgeClooney.png', 'Im_OrlandoBloom.png', 'Im_BradPitt.png'],diff,1,0.6000870000000305,6,0,
LASY1606,train,neg,fs,negfs_id18_im19.bmp_negfs_id21_im22.bmp,['Im_RobertDowneyJr.png', 'Im_BenAffleck.png', 'Im_JustinTimberlake.png', 'Im_RobertPattinson.png', 'Im_KeanuReeves.png', 'Im_RyanGosling.png', 'Im_RyanReynolds.png', 'Im_GeorgeClooney.png', 'Im_OrlandoBloom.png', 'Im_BradPitt.png'],diff,1,3.0087972999999693,7,0,
LASY1606,train,inv,fs,posfs_id19_im8.bmp_posfs_id16_im3.bmp,['Im_RobertDowneyJr.png', 'Im_BenAffleck.png', 'Im_JustinTimberlake.png', 'Im_RobertPattinson.png', 'Im_KeanuReeves.png', 'Im_RyanGosling.png', 'Im_RyanReynolds.png', 'Im_GeorgeClooney.png', 'Im_OrlandoBloom.png', 'Im_BradPitt.png'],diff,1,0.8085841000001892,8,0,
LASY1606,train,inv,fs,posfs_id19_im4.bmp_posfs_id7_im26.bmp,['Im_RobertDowneyJr.png', 'Im_BenAffleck.png', 'Im_JustinTimberlake.png', 'Im_RobertPattinson.png', 'Im_KeanuReeves.png', 'Im_RyanGosling.png', 'Im_RyanReynolds.png', 'Im_GeorgeClooney.png', 'Im_OrlandoBloom.png', 'Im_BradPitt.png'],diff,1,0.5253700999999182,9,0,
LASY1606,train,inv,fs,posfs_id18_im11.bmp_posfs_id18_im19.bmp,['Im_RobertDowneyJr.png', 'Im_BenAffleck.png', 'Im_JustinTimberlake.png', 'Im_RobertPattinson.png', 'Im_KeanuReeves.png', 'Im_RyanGosling.png', 'Im_RyanReynolds.png', 'Im_GeorgeClooney.png', 'Im_OrlandoBloom.png', 'Im_BradPitt.png'],diff,0,0.791727499999979,9,0,
LASY1606,train,neg,fs,negfs_id21_im22.bmp_negfs_id21_im17.bmp,['Im_RobertDowneyJr.png', 'Im_BenAffleck.png', 'Im_JustinTimberlake.png', 'Im_RobertPattinson.png', 'Im_KeanuReeves.png', 'Im_RyanGosling.png', 'Im_RyanReynolds.png', 'Im_GeorgeClooney.png', 'Im_OrlandoBloom.png', 'Im_BradPitt.png'],same,1,0.7753273000000718,10,0,
LASY1606,train,neg,fs,negfs_id3_im6.bmp_negfs_id3_im8.bmp,['Im_RobertDowneyJr.png', 'Im_BenAffleck.png', 'Im_JustinTimberlake.png', 'Im_RobertPattinson.png', 'Im_KeanuReeves.png', 'Im_RyanGosling.png', 'Im_RyanReynolds.png', 'Im_GeorgeClooney.png', 'Im_OrlandoBloom.png', 'Im_BradPitt.png'],same,1,2.8336906999998064,11,0,
LASY1606,train,neg,fs,negfs_id21_im17.bmp_negfs_id7_im14.bmp,['Im_RobertDowneyJr.png', 'Im_BenAffleck.png', 'Im_JustinTimberlake.png', 'Im_RobertPattinson.png', 'Im_KeanuReeves.png', 'Im_RyanGosling.png', 'Im_RyanReynolds.png', 'Im_GeorgeClooney.png', 'Im_OrlandoBloom.png', 'Im_BradPitt.png'],diff,1,0.5250704000000042,12,0,
LASY1606,train,inv,fs,posfs_id21_im22.bmp_posfs_id21_im17.bmp,['Im_RobertDowneyJr.png', 'Im_BenAffleck.png', 'Im_JustinTimberlake.png', 'Im_RobertPattinson.png', 'Im_KeanuReeves.png', 'Im_RyanGosling.png', 'Im_RyanReynolds.png', 'Im_GeorgeClooney.png', 'Im_OrlandoBloom.png', 'Im_BradPitt.png'],same,1,2.4418064999999842,13,0,
LASY1606,train,inv,fs,posfs_id21_im17.bmp_posfs_id21_im16.bmp,['Im_RobertDowneyJr.png', 'Im_BenAffleck.png', 'Im_JustinTimberlake.png', 'Im_RobertPattinson.png', 'Im_KeanuReeves.png', 'Im_RyanGosling.png', 'Im_RyanReynolds.png', 'Im_GeorgeClooney.png', 'Im_OrlandoBloom.png', 'Im_BradPitt.png'],same,1,1.0500918999998703,14,0,
LASY1606,train,neg,fs,negfs_id19_im4.bmp_negfs_id7_im15.bmp,['Im_RobertDowneyJr.png', 'Im_BenAffleck.png', 'Im_JustinTimberlake.png', 'Im_RobertPattinson.png', 'Im_KeanuReeves.png', 'Im_RyanGosling.png', 'Im_RyanReynolds.png', 'Im_GeorgeClooney.png', 'Im_OrlandoBloom.png', 'Im_BradPitt.png'],diff,1,0.6916711000001214,15,0,
LASY1606,train,pos,fs,posfs_id11_im1.bmp_posfs_id19_im8.bmp,['Im_RobertDowneyJr.png', 'Im_BenAffleck.png', 'Im_JustinTimberlake.png', 'Im_RobertPattinson.png', 'Im_KeanuReeves.png', 'Im_RyanGosling.png', 'Im_RyanReynolds.png', 'Im_GeorgeClooney.png', 'Im_OrlandoBloom.png', 'Im_BradPitt.png'],diff,1,0.5833760999998958,16,0,
LASY1606,train,pos,fs,posfs_id18_im19.bmp_posfs_id21_im22.bmp,['Im_RobertDowneyJr.png', 'Im_BenAffleck.png', 'Im_JustinTimberlake.png', 'Im_RobertPattinson.png', 'Im_KeanuReeves.png', 'Im_RyanGosling.png', 'Im_RyanReynolds.png', 'Im_GeorgeClooney.png', 'Im_OrlandoBloom.png', 'Im_BradPitt.png'],diff,1,1.0670674999998937,17,0,
LASY1606,train,neg,fs,negfs_id11_im2.bmp_negfs_id11_im1.bmp,['Im_RobertDowneyJr.png', 'Im_BenAffleck.png', 'Im_JustinTimberlake.png', 'Im_RobertPattinson.png', 'Im_KeanuReeves.png', 'Im_RyanGosling.png', 'Im_RyanReynolds.png', 'Im_GeorgeClooney.png', 'Im_OrlandoBloom.png', 'Im_BradPitt.png'],same,1,0.6168781999999737,18,0,
LASY1606,train,pos,fs,posfs_id3_im8.bmp_posfs_id3_im17.bmp,['Im_RobertDowneyJr.png', 'Im_BenAffleck.png', 'Im_JustinTimberlake.png', 'Im_RobertPattinson.png', 'Im_KeanuReeves.png', 'Im_RyanGosling.png', 'Im_RyanReynolds.png', 'Im_GeorgeClooney.png', 'Im_OrlandoBloom.png', 'Im_BradPitt.png'],same,1,1.125365200000033,19,0,
LASY1606,train,neg,30,neg30_id20_im3.bmp_neg30_id20_im30.bmp,['Im_RobertDowneyJr.png', 'Im_BenAffleck.png', 'Im_JustinTimberlake.png', 'Im_RobertPattinson.png', 'Im_KeanuReeves.png', 'Im_RyanGosling.png', 'Im_RyanReynolds.png', 'Im_GeorgeClooney.png', 'Im_OrlandoBloom.png', 'Im_BradPitt.png'],diff,0,4.016908300000068,0,0,
LASY1606,train,neg,0,neg0_id18_im19.bmp_neg0_id20_im3.bmp,['Im_RobertDowneyJr.png', 'Im_BenAffleck.png', 'Im_JustinTimberlake.png', 'Im_RobertPattinson.png', 'Im_KeanuReeves.png', 'Im_RyanGosling.png', 'Im_RyanReynolds.png', 'Im_GeorgeClooney.png', 'Im_OrlandoBloom.png', 'Im_BradPitt.png'],diff,1,0.6002247000001262,1,0,
LASY1606,train,neg,0,neg0_id3_im17.bmp_neg0_id10_im1.bmp,['Im_RobertDowneyJr.png', 'Im_BenAffleck.png', 'Im_JustinTimberlake.png', 'Im_RobertPattinson.png', 'Im_KeanuReeves.png', 'Im_RyanGosling.png', 'Im_RyanReynolds.png', 'Im_GeorgeClooney.png', 'Im_OrlandoBloom.png', 'Im_BradPitt.png'],diff,1,0.9336074000000281,2,0,
LASY1606,train,neg,150,neg150_id18_im18.bmp_neg150_id18_im19.bmp,['Im_RobertDowneyJr.png', 'Im_BenAffleck.png', 'Im_JustinTimberlake.png', 'Im_RobertPattinson.png', 'Im_KeanuReeves.png', 'Im_RyanGosling.png', 'Im_RyanReynolds.png', 'Im_GeorgeClooney.png', 'Im_OrlandoBloom.png', 'Im_BradPitt.png'],same,1,0.8835963999999876,3,0,
LASY1606,train,neg,30,neg30_id10_im18.bmp_neg30_id11_im2.bmp,['Im_RobertDowneyJr.png', 'Im_BenAffleck.png', 'Im_JustinTimberlake.png', 'Im_RobertPattinson.png', 'Im_KeanuReeves.png', 'Im_RyanGosling.png', 'Im_RyanReynolds.png', 'Im_GeorgeClooney.png', 'Im_OrlandoBloom.png', 'Im_BradPitt.png'],diff,1,0.41680089999999836,4,0,
LASY1606,train,neg,120,neg120_id18_im19.bmp_neg120_id20_im3.bmp,['Im_RobertDowneyJr.png', 'Im_BenAffleck.png', 'Im_JustinTimberlake.png', 'Im_RobertPattinson.png', 'Im_KeanuReeves.png', 'Im_RyanGosling.png', 'Im_RyanReynolds.png', 'Im_GeorgeClooney.png', 'Im_OrlandoBloom.png', 'Im_BradPitt.png'],diff,1,0.5835365999998885,5,0,
LASY1606,train,neg,fs,negfs_id16_im2.bmp_negfs_id16_im19.bmp,['Im_RobertDowneyJr.png', 'Im_BenAffleck.png', 'Im_JustinTimberlake.png', 'Im_RobertPattinson.png', 'Im_KeanuReeves.png', 'Im_RyanGosling.png', 'Im_RyanReynolds.png', 'Im_GeorgeClooney.png', 'Im_OrlandoBloom.png', 'Im_BradPitt.png'],same,1,0.9250718000000688,6,0,
LASY1606,train,neg,60,neg60_id10_im18.bmp_neg60_id10_im1.bmp,['Im_RobertDowneyJr.png', 'Im_BenAffleck.png', 'Im_JustinTimberlake.png', 'Im_RobertPattinson.png', 'Im_KeanuReeves.png', 'Im_RyanGosling.png', 'Im_RyanReynolds.png', 'Im_GeorgeClooney.png', 'Im_OrlandoBloom.png', 'Im_BradPitt.png'],same,1,1.024834300000066,7,0,
LASY1606,train,neg,fs,negfs_id20_im3.bmp_negfs_id20_im12.bmp,['Im_RobertDowneyJr.png', 'Im_BenAffleck.png', 'Im_JustinTimberlake.png', 'Im_RobertPattinson.png', 'Im_KeanuReeves.png', 'Im_RyanGosling.png', 'Im_RyanReynolds.png', 'Im_GeorgeClooney.png', 'Im_OrlandoBloom.png', 'Im_BradPitt.png'],same,1,0.8000278999998045,8,0,
LASY1606,train,neg,120,neg120_id19_im4.bmp_neg120_id19_im8.bmp,['Im_RobertDowneyJr.png', 'Im_BenAffleck.png', 'Im_JustinTimberlake.png', 'Im_RobertPattinson.png', 'Im_KeanuReeves.png', 'Im_RyanGosling.png', 'Im_RyanReynolds.png', 'Im_GeorgeClooney.png', 'Im_OrlandoBloom.png', 'Im_BradPitt.png'],none,1,4.3998856000000615,8,0,
LASY1606,train,neg,90,neg90_id7_im26.bmp_neg90_id19_im4.bmp,['Im_RobertDowneyJr.png', 'Im_BenAffleck.png', 'Im_JustinTimberlake.png', 'Im_RobertPattinson.png', 'Im_KeanuReeves.png', 'Im_RyanGosling.png', 'Im_RyanReynolds.png', 'Im_GeorgeClooney.png', 'Im_OrlandoBloom.png', 'Im_BradPitt.png'],diff,1,3.366429700000026,9,0,
LASY1606,train,neg,150,neg150_id20_im30.bmp_neg150_id7_im26.bmp,['Im_RobertDowneyJr.png', 'Im_BenAffleck.png', 'Im_JustinTimberlake.png', 'Im_RobertPattinson.png', 'Im_KeanuReeves.png', 'Im_RyanGosling.png', 'Im_RyanReynolds.png', 'Im_GeorgeClooney.png', 'Im_OrlandoBloom.png', 'Im_BradPitt.png'],diff,1,0.4166904000001068,10,0,
LASY1606,train,neg,60,neg60_id16_im19.bmp_neg60_id16_im3.bmp,['Im_RobertDowneyJr.png', 'Im_BenAffleck.png', 'Im_JustinTimberlake.png', 'Im_RobertPattinson.png', 'Im_KeanuReeves.png', 'Im_RyanGosling.png', 'Im_RyanReynolds.png', 'Im_GeorgeClooney.png', 'Im_OrlandoBloom.png', 'Im_BradPitt.png'],same,1,1.633187399999997,11,0,
LASY1606,train,neg,90,neg90_id1_im4.bmp_neg90_id10_im18.bmp,['Im_RobertDowneyJr.png', 'Im_BenAffleck.png', 'Im_JustinTimberlake.png', 'Im_RobertPattinson.png', 'Im_KeanuReeves.png', 'Im_RyanGosling.png', 'Im_RyanReynolds.png', 'Im_GeorgeClooney.png', 'Im_OrlandoBloom.png', 'Im_BradPitt.png'],same,0,0.9001839999998538,11,0,
LASY1606,train,pos,0,pos0_id11_im2.bmp_pos0_id11_im1.bmp,['Im_RobertDowneyJr.png', 'Im_BenAffleck.png', 'Im_JustinTimberlake.png', 'Im_RobertPattinson.png', 'Im_KeanuReeves.png', 'Im_RyanGosling.png', 'Im_RyanReynolds.png', 'Im_GeorgeClooney.png', 'Im_OrlandoBloom.png', 'Im_BradPitt.png'],same,1,1.1917707000000064,12,0,
LASY1606,train,pos,90,pos90_id10_im17.bmp_pos90_id20_im3.bmp,['Im_RobertDowneyJr.png', 'Im_BenAffleck.png', 'Im_JustinTimberlake.png', 'Im_RobertPattinson.png', 'Im_KeanuReeves.png', 'Im_RyanGosling.png', 'Im_RyanReynolds.png', 'Im_GeorgeClooney.png', 'Im_OrlandoBloom.png', 'Im_BradPitt.png'],diff,1,0.408582000000024,13,0,
LASY1606,train,pos,fs,posfs_id19_im27.bmp_posfs_id19_im8.bmp,['Im_RobertDowneyJr.png', 'Im_BenAffleck.png', 'Im_JustinTimberlake.png', 'Im_RobertPattinson.png', 'Im_KeanuReeves.png', 'Im_RyanGosling.png', 'Im_RyanReynolds.png', 'Im_GeorgeClooney.png', 'Im_OrlandoBloom.png', 'Im_BradPitt.png'],same,1,2.283529900000076,14,0,
LASY1606,train,pos,150,pos150_id18_im11.bmp_pos150_id18_im18.bmp,['Im_RobertDowneyJr.png', 'Im_BenAffleck.png', 'Im_JustinTimberlake.png', 'Im_RobertPattinson.png', 'Im_KeanuReeves.png', 'Im_RyanGosling.png', 'Im_RyanReynolds.png', 'Im_GeorgeClooney.png', 'Im_OrlandoBloom.png', 'Im_BradPitt.png'],same,1,0.5167940000001181,15,0,
LASY1606,train,pos,fs,posfs_id7_im14.bmp_posfs_id7_im26.bmp,['Im_RobertDowneyJr.png', 'Im_BenAffleck.png', 'Im_JustinTimberlake.png', 'Im_RobertPattinson.png', 'Im_KeanuReeves.png', 'Im_RyanGosling.png', 'Im_RyanReynolds.png', 'Im_GeorgeClooney.png', 'Im_OrlandoBloom.png', 'Im_BradPitt.png'],same,1,0.5000162000001183,16,0,
LASY1606,train,pos,60,pos60_id16_im2.bmp_pos60_id11_im1.bmp,['Im_RobertDowneyJr.png', 'Im_BenAffleck.png', 'Im_JustinTimberlake.png', 'Im_RobertPattinson.png', 'Im_KeanuReeves.png', 'Im_RyanGosling.png', 'Im_RyanReynolds.png', 'Im_GeorgeClooney.png', 'Im_OrlandoBloom.png', 'Im_BradPitt.png'],diff,1,0.40830960000016603,17,0,
LASY1606,train,pos,120,pos120_id18_im11.bmp_pos120_id18_im18.bmp,['Im_RobertDowneyJr.png', 'Im_BenAffleck.png', 'Im_JustinTimberlake.png', 'Im_RobertPattinson.png', 'Im_KeanuReeves.png', 'Im_RyanGosling.png', 'Im_RyanReynolds.png', 'Im_GeorgeClooney.png', 'Im_OrlandoBloom.png', 'Im_BradPitt.png'],same,1,0.4165544999998474,18,0,
LASY1606,train,pos,90,pos90_id3_im6.bmp_pos90_id16_im2.bmp,['Im_RobertDowneyJr.png', 'Im_BenAffleck.png', 'Im_JustinTimberlake.png', 'Im_RobertPattinson.png', 'Im_KeanuReeves.png', 'Im_RyanGosling.png', 'Im_RyanReynolds.png', 'Im_GeorgeClooney.png', 'Im_OrlandoBloom.png', 'Im_BradPitt.png'],diff,1,0.816696200000024,19,0,
LASY1606,train,pos,30,pos30_id1_im24.bmp_pos30_id1_im21.bmp,['Im_RobertDowneyJr.png', 'Im_BenAffleck.png', 'Im_JustinTimberlake.png', 'Im_RobertPattinson.png', 'Im_KeanuReeves.png', 'Im_RyanGosling.png', 'Im_RyanReynolds.png', 'Im_GeorgeClooney.png', 'Im_OrlandoBloom.png', 'Im_BradPitt.png'],same,1,1.0584016999998767,20,0,
LASY1606,train,pos,150,pos150_id19_im8.bmp_pos150_id19_im27.bmp,['Im_RobertDowneyJr.png', 'Im_BenAffleck.png', 'Im_JustinTimberlake.png', 'Im_RobertPattinson.png', 'Im_KeanuReeves.png', 'Im_RyanGosling.png', 'Im_RyanReynolds.png', 'Im_GeorgeClooney.png', 'Im_OrlandoBloom.png', 'Im_BradPitt.png'],same,1,1.0420071999999436,21,0,
LASY1606,train,pos,60,pos60_id19_im8.bmp_pos60_id19_im4.bmp,['Im_RobertDowneyJr.png', 'Im_BenAffleck.png', 'Im_JustinTimberlake.png', 'Im_RobertPattinson.png', 'Im_KeanuReeves.png', 'Im_RyanGosling.png', 'Im_RyanReynolds.png', 'Im_GeorgeClooney.png', 'Im_OrlandoBloom.png', 'Im_BradPitt.png'],same,1,0.8501653000000715,22,0,
LASY1606,train,pos,0,pos0_id20_im3.bmp_pos0_id20_im30.bmp,['Im_RobertDowneyJr.png', 'Im_BenAffleck.png', 'Im_JustinTimberlake.png', 'Im_RobertPattinson.png', 'Im_KeanuReeves.png', 'Im_RyanGosling.png', 'Im_RyanReynolds.png', 'Im_GeorgeClooney.png', 'Im_OrlandoBloom.png', 'Im_BradPitt.png'],same,1,0.6834744999998748,23,0,
LASY1606,train,pos,30,pos30_id18_im11.bmp_pos30_id18_im18.bmp,['Im_RobertDowneyJr.png', 'Im_BenAffleck.png', 'Im_JustinTimberlake.png', 'Im_RobertPattinson.png', 'Im_KeanuReeves.png', 'Im_RyanGosling.png', 'Im_RyanReynolds.png', 'Im_GeorgeClooney.png', 'Im_OrlandoBloom.png', 'Im_BradPitt.png'],same,1,0.4084843999999066,24,0,
LASY1606,train,pos,120,pos120_id10_im18.bmp_pos120_id10_im17.bmp,['Im_RobertDowneyJr.png', 'Im_BenAffleck.png', 'Im_JustinTimberlake.png', 'Im_RobertPattinson.png', 'Im_KeanuReeves.png', 'Im_RyanGosling.png', 'Im_RyanReynolds.png', 'Im_GeorgeClooney.png', 'Im_OrlandoBloom.png', 'Im_BradPitt.png'],same,1,0.4499620000001414,25,0,
LASY1606,train,inv,fs,posfs_id16_im2.bmp_posfs_id3_im6.bmp,['Im_RobertDowneyJr.png', 'Im_BenAffleck.png', 'Im_JustinTimberlake.png', 'Im_RobertPattinson.png', 'Im_KeanuReeves.png', 'Im_RyanGosling.png', 'Im_RyanReynolds.png', 'Im_GeorgeClooney.png', 'Im_OrlandoBloom.png', 'Im_BradPitt.png'],diff,1,0.5168813000000227,26,0,
LASY1606,train,inv,120,pos120_id16_im3.bmp_pos120_id19_im8.bmp,['Im_RobertDowneyJr.png', 'Im_BenAffleck.png', 'Im_JustinTimberlake.png', 'Im_RobertPattinson.png', 'Im_KeanuReeves.png', 'Im_RyanGosling.png', 'Im_RyanReynolds.png', 'Im_GeorgeClooney.png', 'Im_OrlandoBloom.png', 'Im_BradPitt.png'],same,0,0.5083575999999539,26,0,
LASY1606,train,inv,150,pos150_id19_im27.bmp_pos150_id19_im4.bmp,['Im_RobertDowneyJr.png', 'Im_BenAffleck.png', 'Im_JustinTimberlake.png', 'Im_RobertPattinson.png', 'Im_KeanuReeves.png', 'Im_RyanGosling.png', 'Im_RyanReynolds.png', 'Im_GeorgeClooney.png', 'Im_OrlandoBloom.png', 'Im_BradPitt.png'],same,1,0.5749980000000505,27,0,
LASY1606,train,inv,120,pos120_id3_im17.bmp_pos120_id10_im1.bmp,['Im_RobertDowneyJr.png', 'Im_BenAffleck.png', 'Im_JustinTimberlake.png', 'Im_RobertPattinson.png', 'Im_KeanuReeves.png', 'Im_RyanGosling.png', 'Im_RyanReynolds.png', 'Im_GeorgeClooney.png', 'Im_OrlandoBloom.png', 'Im_BradPitt.png'],diff,1,0.5335302000000866,28,0,
LASY1606,train,inv,90,pos90_id7_im26.bmp_pos90_id7_im15.bmp,['Im_RobertDowneyJr.png', 'Im_BenAffleck.png', 'Im_JustinTimberlake.png', 'Im_RobertPattinson.png', 'Im_KeanuReeves.png', 'Im_RyanGosling.png', 'Im_RyanReynolds.png', 'Im_GeorgeClooney.png', 'Im_OrlandoBloom.png', 'Im_BradPitt.png'],same,1,0.5503300999998828,29,0,
LASY1606,train,inv,30,pos30_id11_im10.bmp_pos30_id19_im27.bmp,['Im_RobertDowneyJr.png', 'Im_BenAffleck.png', 'Im_JustinTimberlake.png', 'Im_RobertPattinson.png', 'Im_KeanuReeves.png', 'Im_RyanGosling.png', 'Im_RyanReynolds.png', 'Im_GeorgeClooney.png', 'Im_OrlandoBloom.png', 'Im_BradPitt.png'],diff,1,0.4084457999999813,30,0,
LASY1606,train,inv,0,pos0_id18_im18.bmp_pos0_id18_im19.bmp,['Im_RobertDowneyJr.png', 'Im_BenAffleck.png', 'Im_JustinTimberlake.png', 'Im_RobertPattinson.png', 'Im_KeanuReeves.png', 'Im_RyanGosling.png', 'Im_RyanReynolds.png', 'Im_GeorgeClooney.png', 'Im_OrlandoBloom.png', 'Im_BradPitt.png'],diff,0,1.2502113000000463,30,0,
LASY1606,train,inv,150,pos150_id18_im11.bmp_pos150_id18_im19.bmp,['Im_RobertDowneyJr.png', 'Im_BenAffleck.png', 'Im_JustinTimberlake.png', 'Im_RobertPattinson.png', 'Im_KeanuReeves.png', 'Im_RyanGosling.png', 'Im_RyanReynolds.png', 'Im_GeorgeClooney.png', 'Im_OrlandoBloom.png', 'Im_BradPitt.png'],diff,0,0.8671113000000332,30,0,
LASY1606,train,inv,60,pos60_id7_im14.bmp_pos60_id7_im26.bmp,['Im_RobertDowneyJr.png', 'Im_BenAffleck.png', 'Im_JustinTimberlake.png', 'Im_RobertPattinson.png', 'Im_KeanuReeves.png', 'Im_RyanGosling.png', 'Im_RyanReynolds.png', 'Im_GeorgeClooney.png', 'Im_OrlandoBloom.png', 'Im_BradPitt.png'],same,1,0.9000365000001693,31,0,
LASY1606,train,inv,30,pos30_id16_im2.bmp_pos30_id16_im3.bmp,['Im_RobertDowneyJr.png', 'Im_BenAffleck.png', 'Im_JustinTimberlake.png', 'Im_RobertPattinson.png', 'Im_KeanuReeves.png', 'Im_RyanGosling.png', 'Im_RyanReynolds.png', 'Im_GeorgeClooney.png', 'Im_OrlandoBloom.png', 'Im_BradPitt.png'],same,1,1.3084916000000248,32,0,
LASY1606,train,inv,fs,posfs_id20_im12.bmp_posfs_id20_im3.bmp,['Im_RobertDowneyJr.png', 'Im_BenAffleck.png', 'Im_JustinTimberlake.png', 'Im_RobertPattinson.png', 'Im_KeanuReeves.png', 'Im_RyanGosling.png', 'Im_RyanReynolds.png', 'Im_GeorgeClooney.png', 'Im_OrlandoBloom.png', 'Im_BradPitt.png'],same,1,0.41649310000002515,33,0,
LASY1606,train,inv,0,pos0_id11_im10.bmp_pos0_id19_im27.bmp,['Im_RobertDowneyJr.png', 'Im_BenAffleck.png', 'Im_JustinTimberlake.png', 'Im_RobertPattinson.png', 'Im_KeanuReeves.png', 'Im_RyanGosling.png', 'Im_RyanReynolds.png', 'Im_GeorgeClooney.png', 'Im_OrlandoBloom.png', 'Im_BradPitt.png'],diff,1,0.5001119999999446,34,0,
LASY1606,train,inv,60,pos60_id20_im3.bmp_pos60_id18_im19.bmp,['Im_RobertDowneyJr.png', 'Im_BenAffleck.png', 'Im_JustinTimberlake.png', 'Im_RobertPattinson.png', 'Im_KeanuReeves.png', 'Im_RyanGosling.png', 'Im_RyanReynolds.png', 'Im_GeorgeClooney.png', 'Im_OrlandoBloom.png', 'Im_BradPitt.png'],same,0,1.0330410000001393,34,0,
LASY1606,train,inv,90,pos90_id7_im15.bmp_pos90_id19_im4.bmp,['Im_RobertDowneyJr.png', 'Im_BenAffleck.png', 'Im_JustinTimberlake.png', 'Im_RobertPattinson.png', 'Im_KeanuReeves.png', 'Im_RyanGosling.png', 'Im_RyanReynolds.png', 'Im_GeorgeClooney.png', 'Im_OrlandoBloom.png', 'Im_BradPitt.png'],diff,1,0.7500752999999349,35,0,
LASY1606,train,neg,150,neg150_id18_im11.bmp_neg150_id18_im18.bmp,['Im_RobertDowneyJr.png', 'Im_BenAffleck.png', 'Im_JustinTimberlake.png', 'Im_RobertPattinson.png', 'Im_KeanuReeves.png', 'Im_RyanGosling.png', 'Im_RyanReynolds.png', 'Im_GeorgeClooney.png', 'Im_OrlandoBloom.png', 'Im_BradPitt.png'],none,1,4.399557699999832,0,83.33333333333333,
LASY1606,train,neg,150,neg150_id16_im19.bmp_neg150_id1_im21.bmp,['Im_RobertDowneyJr.png', 'Im_BenAffleck.png', 'Im_JustinTimberlake.png', 'Im_RobertPattinson.png', 'Im_KeanuReeves.png', 'Im_RyanGosling.png', 'Im_RyanReynolds.png', 'Im_GeorgeClooney.png', 'Im_OrlandoBloom.png', 'Im_BradPitt.png'],none,1,4.408414699999867,0,83.33333333333333,
LASY1606,train,neg,30,neg30_id18_im11.bmp_neg30_id18_im18.bmp,['Im_RobertDowneyJr.png', 'Im_BenAffleck.png', 'Im_JustinTimberlake.png', 'Im_RobertPattinson.png', 'Im_KeanuReeves.png', 'Im_RyanGosling.png', 'Im_RyanReynolds.png', 'Im_GeorgeClooney.png', 'Im_OrlandoBloom.png', 'Im_BradPitt.png'],same,1,0.7748437000000195,1,83.33333333333333,
LASY1606,train,neg,fs,negfs_id10_im18.bmp_negfs_id10_im1.bmp,['Im_RobertDowneyJr.png', 'Im_BenAffleck.png', 'Im_JustinTimberlake.png', 'Im_RobertPattinson.png', 'Im_KeanuReeves.png', 'Im_RyanGosling.png', 'Im_RyanReynolds.png', 'Im_GeorgeClooney.png', 'Im_OrlandoBloom.png', 'Im_BradPitt.png'],same,1,1.1669584999999643,2,83.33333333333333,
LASY1606,train,neg,60,neg60_id7_im14.bmp_neg60_id21_im17.bmp,['Im_RobertDowneyJr.png', 'Im_BenAffleck.png', 'Im_JustinTimberlake.png', 'Im_RobertPattinson.png', 'Im_KeanuReeves.png', 'Im_RyanGosling.png', 'Im_RyanReynolds.png', 'Im_GeorgeClooney.png', 'Im_OrlandoBloom.png', 'Im_BradPitt.png'],diff,1,0.43321030000015526,3,83.33333333333333,
LASY1606,train,neg,120,neg120_id10_im1.bmp_neg120_id10_im17.bmp,['Im_RobertDowneyJr.png', 'Im_BenAffleck.png', 'Im_JustinTimberlake.png', 'Im_RobertPattinson.png', 'Im_KeanuReeves.png', 'Im_RyanGosling.png', 'Im_RyanReynolds.png', 'Im_GeorgeClooney.png', 'Im_OrlandoBloom.png', 'Im_BradPitt.png'],same,1,1.9002611999999317,4,83.33333333333333,
LASY1606,train,neg,60,neg60_id11_im2.bmp_neg60_id11_im1.bmp,['Im_RobertDowneyJr.png', 'Im_BenAffleck.png', 'Im_JustinTimberlake.png', 'Im_RobertPattinson.png', 'Im_KeanuReeves.png', 'Im_RyanGosling.png', 'Im_RyanReynolds.png', 'Im_GeorgeClooney.png', 'Im_OrlandoBloom.png', 'Im_BradPitt.png'],diff,0,0.7833843000000797,4,83.33333333333333,
LASY1606,train,neg,120,neg120_id10_im18.bmp_neg120_id10_im17.bmp,['Im_RobertDowneyJr.png', 'Im_BenAffleck.png', 'Im_JustinTimberlake.png', 'Im_RobertPattinson.png', 'Im_KeanuReeves.png', 'Im_RyanGosling.png', 'Im_RyanReynolds.png', 'Im_GeorgeClooney.png', 'Im_OrlandoBloom.png', 'Im_BradPitt.png'],same,1,1.5003524999999627,5,83.33333333333333,
LASY1606,train,neg,0,neg0_id19_im4.bmp_neg0_id7_im26.bmp,['Im_RobertDowneyJr.png', 'Im_BenAffleck.png', 'Im_JustinTimberlake.png', 'Im_RobertPattinson.png', 'Im_KeanuReeves.png', 'Im_RyanGosling.png', 'Im_RyanReynolds.png', 'Im_GeorgeClooney.png', 'Im_OrlandoBloom.png', 'Im_BradPitt.png'],diff,1,0.40852319999999054,6,83.33333333333333,
LASY1606,train,neg,fs,negfs_id1_im24.bmp_negfs_id3_im8.bmp,['Im_RobertDowneyJr.png', 'Im_BenAffleck.png', 'Im_JustinTimberlake.png', 'Im_RobertPattinson.png', 'Im_KeanuReeves.png', 'Im_RyanGosling.png', 'Im_RyanReynolds.png', 'Im_GeorgeClooney.png', 'Im_OrlandoBloom.png', 'Im_BradPitt.png'],diff,1,0.3999292000000878,7,83.33333333333333,
LASY1606,train,neg,90,neg90_id1_im24.bmp_neg90_id3_im8.bmp,['Im_RobertDowneyJr.png', 'Im_BenAffleck.png', 'Im_JustinTimberlake.png', 'Im_RobertPattinson.png', 'Im_KeanuReeves.png', 'Im_RyanGosling.png', 'Im_RyanReynolds.png', 'Im_GeorgeClooney.png', 'Im_OrlandoBloom.png', 'Im_BradPitt.png'],same,0,0.6751008999999613,7,83.33333333333333,
LASY1606,train,neg,30,neg30_id19_im27.bmp_neg30_id21_im16.bmp,['Im_RobertDowneyJr.png', 'Im_BenAffleck.png', 'Im_JustinTimberlake.png', 'Im_RobertPattinson.png', 'Im_KeanuReeves.png', 'Im_RyanGosling.png', 'Im_RyanReynolds.png', 'Im_GeorgeClooney.png', 'Im_OrlandoBloom.png', 'Im_BradPitt.png'],same,0,1.8836252999999488,7,83.33333333333333,
LASY1606,train,neg,90,neg90_id3_im8.bmp_neg90_id3_im6.bmp,['Im_RobertDowneyJr.png', 'Im_BenAffleck.png', 'Im_JustinTimberlake.png', 'Im_RobertPattinson.png', 'Im_KeanuReeves.png', 'Im_RyanGosling.png', 'Im_RyanReynolds.png', 'Im_GeorgeClooney.png', 'Im_OrlandoBloom.png', 'Im_BradPitt.png'],diff,0,1.500175899999931,7,83.33333333333333,
LASY1606,train,neg,0,neg0_id11_im1.bmp_neg0_id19_im8.bmp,['Im_RobertDowneyJr.png', 'Im_BenAffleck.png', 'Im_JustinTimberlake.png', 'Im_RobertPattinson.png', 'Im_KeanuReeves.png', 'Im_RyanGosling.png', 'Im_RyanReynolds.png', 'Im_GeorgeClooney.png', 'Im_OrlandoBloom.png', 'Im_BradPitt.png'],diff,1,0.5503062999998747,8,83.33333333333333,
LASY1606,train,pos,90,pos90_id19_im4.bmp_pos90_id19_im27.bmp,['Im_RobertDowneyJr.png', 'Im_BenAffleck.png', 'Im_JustinTimberlake.png', 'Im_RobertPattinson.png', 'Im_KeanuReeves.png', 'Im_RyanGosling.png', 'Im_RyanReynolds.png', 'Im_GeorgeClooney.png', 'Im_OrlandoBloom.png', 'Im_BradPitt.png'],same,1,0.6167063000000326,9,83.33333333333333,
LASY1606,train,pos,30,pos30_id21_im16.bmp_pos30_id3_im17.bmp,['Im_RobertDowneyJr.png', 'Im_BenAffleck.png', 'Im_JustinTimberlake.png', 'Im_RobertPattinson.png', 'Im_KeanuReeves.png', 'Im_RyanGosling.png', 'Im_RyanReynolds.png', 'Im_GeorgeClooney.png', 'Im_OrlandoBloom.png', 'Im_BradPitt.png'],diff,1,1.3000038000000131,10,83.33333333333333,
LASY1606,train,pos,fs,posfs_id16_im3.bmp_posfs_id19_im8.bmp,['Im_RobertDowneyJr.png', 'Im_BenAffleck.png', 'Im_JustinTimberlake.png', 'Im_RobertPattinson.png', 'Im_KeanuReeves.png', 'Im_RyanGosling.png', 'Im_RyanReynolds.png', 'Im_GeorgeClooney.png', 'Im_OrlandoBloom.png', 'Im_BradPitt.png'],diff,1,0.44209249999994427,11,83.33333333333333,
LASY1606,train,pos,30,pos30_id11_im2.bmp_pos30_id20_im12.bmp,['Im_RobertDowneyJr.png', 'Im_BenAffleck.png', 'Im_JustinTimberlake.png', 'Im_RobertPattinson.png', 'Im_KeanuReeves.png', 'Im_RyanGosling.png', 'Im_RyanReynolds.png', 'Im_GeorgeClooney.png', 'Im_OrlandoBloom.png', 'Im_BradPitt.png'],diff,1,0.5248627999999371,12,83.33333333333333,
LASY1606,train,pos,60,pos60_id1_im24.bmp_pos60_id1_im21.bmp,['Im_RobertDowneyJr.png', 'Im_BenAffleck.png', 'Im_JustinTimberlake.png', 'Im_RobertPattinson.png', 'Im_KeanuReeves.png', 'Im_RyanGosling.png', 'Im_RyanReynolds.png', 'Im_GeorgeClooney.png', 'Im_OrlandoBloom.png', 'Im_BradPitt.png'],same,1,2.900127399999974,13,83.33333333333333,
LASY1606,train,pos,150,pos150_id11_im1.bmp_pos150_id19_im8.bmp,['Im_RobertDowneyJr.png', 'Im_BenAffleck.png', 'Im_JustinTimberlake.png', 'Im_RobertPattinson.png', 'Im_KeanuReeves.png', 'Im_RyanGosling.png', 'Im_RyanReynolds.png', 'Im_GeorgeClooney.png', 'Im_OrlandoBloom.png', 'Im_BradPitt.png'],diff,1,0.39956409999990683,14,83.33333333333333,
LASY1606,train,pos,120,pos120_id18_im11.bmp_pos120_id11_im10.bmp,['Im_RobertDowneyJr.png', 'Im_BenAffleck.png', 'Im_JustinTimberlake.png', 'Im_RobertPattinson.png', 'Im_KeanuReeves.png', 'Im_RyanGosling.png', 'Im_RyanReynolds.png', 'Im_GeorgeClooney.png', 'Im_OrlandoBloom.png', 'Im_BradPitt.png'],diff,1,0.591634299999896,15,83.33333333333333,
LASY1606,train,pos,120,pos120_id1_im4.bmp_pos120_id1_im21.bmp,['Im_RobertDowneyJr.png', 'Im_BenAffleck.png', 'Im_JustinTimberlake.png', 'Im_RobertPattinson.png', 'Im_KeanuReeves.png', 'Im_RyanGosling.png', 'Im_RyanReynolds.png', 'Im_GeorgeClooney.png', 'Im_OrlandoBloom.png', 'Im_BradPitt.png'],same,1,2.375027199999977,16,83.33333333333333,
LASY1606,train,pos,90,pos90_id19_im27.bmp_pos90_id19_im8.bmp,['Im_RobertDowneyJr.png', 'Im_BenAffleck.png', 'Im_JustinTimberlake.png', 'Im_RobertPattinson.png', 'Im_KeanuReeves.png', 'Im_RyanGosling.png', 'Im_RyanReynolds.png', 'Im_GeorgeClooney.png', 'Im_OrlandoBloom.png', 'Im_BradPitt.png'],same,1,0.4002784000001611,17,83.33333333333333,
LASY1606,train,pos,0,pos0_id7_im26.bmp_pos0_id7_im15.bmp,['Im_RobertDowneyJr.png', 'Im_BenAffleck.png', 'Im_JustinTimberlake.png', 'Im_RobertPattinson.png', 'Im_KeanuReeves.png', 'Im_RyanGosling.png', 'Im_RyanReynolds.png', 'Im_GeorgeClooney.png', 'Im_OrlandoBloom.png', 'Im_BradPitt.png'],same,1,0.4000648999999612,18,83.33333333333333,
LASY1606,train,pos,60,pos60_id18_im19.bmp_pos60_id18_im18.bmp,['Im_RobertDowneyJr.png', 'Im_BenAffleck.png', 'Im_JustinTimberlake.png', 'Im_RobertPattinson.png', 'Im_KeanuReeves.png', 'Im_RyanGosling.png', 'Im_RyanReynolds.png', 'Im_GeorgeClooney.png', 'Im_OrlandoBloom.png', 'Im_BradPitt.png'],same,1,0.3997358000001441,19,83.33333333333333,
LASY1606,train,pos,0,pos0_id20_im12.bmp_pos0_id20_im3.bmp,['Im_RobertDowneyJr.png', 'Im_BenAffleck.png', 'Im_JustinTimberlake.png', 'Im_RobertPattinson.png', 'Im_KeanuReeves.png', 'Im_RyanGosling.png', 'Im_RyanReynolds.png', 'Im_GeorgeClooney.png', 'Im_OrlandoBloom.png', 'Im_BradPitt.png'],same,1,0.5334303999998156,20,83.33333333333333,
LASY1606,train,pos,150,pos150_id18_im11.bmp_pos150_id20_im30.bmp,['Im_RobertDowneyJr.png', 'Im_BenAffleck.png', 'Im_JustinTimberlake.png', 'Im_RobertPattinson.png', 'Im_KeanuReeves.png', 'Im_RyanGosling.png', 'Im_RyanReynolds.png', 'Im_GeorgeClooney.png', 'Im_OrlandoBloom.png', 'Im_BradPitt.png'],diff,1,0.4166270999999142,21,83.33333333333333,
LASY1606,train,pos,fs,posfs_id10_im17.bmp_posfs_id10_im18.bmp,['Im_RobertDowneyJr.png', 'Im_BenAffleck.png', 'Im_JustinTimberlake.png', 'Im_RobertPattinson.png', 'Im_KeanuReeves.png', 'Im_RyanGosling.png', 'Im_RyanReynolds.png', 'Im_GeorgeClooney.png', 'Im_OrlandoBloom.png', 'Im_BradPitt.png'],same,1,0.6083509999998569,22,83.33333333333333,
LASY1606,train,inv,0,pos0_id11_im1.bmp_pos0_id19_im8.bmp,['Im_RobertDowneyJr.png', 'Im_BenAffleck.png', 'Im_JustinTimberlake.png', 'Im_RobertPattinson.png', 'Im_KeanuReeves.png', 'Im_RyanGosling.png', 'Im_RyanReynolds.png', 'Im_GeorgeClooney.png', 'Im_OrlandoBloom.png', 'Im_BradPitt.png'],diff,1,0.741676200000029,23,83.33333333333333,
LASY1606,train,inv,30,pos30_id18_im19.bmp_pos30_id18_im11.bmp,['Im_RobertDowneyJr.png', 'Im_BenAffleck.png', 'Im_JustinTimberlake.png', 'Im_RobertPattinson.png', 'Im_KeanuReeves.png', 'Im_RyanGosling.png', 'Im_RyanReynolds.png', 'Im_GeorgeClooney.png', 'Im_OrlandoBloom.png', 'Im_BradPitt.png'],diff,0,0.8419344999999794,23,83.33333333333333,
LASY1606,train,inv,150,pos150_id20_im12.bmp_pos150_id11_im2.bmp,['Im_RobertDowneyJr.png', 'Im_BenAffleck.png', 'Im_JustinTimberlake.png', 'Im_RobertPattinson.png', 'Im_KeanuReeves.png', 'Im_RyanGosling.png', 'Im_RyanReynolds.png', 'Im_GeorgeClooney.png', 'Im_OrlandoBloom.png', 'Im_BradPitt.png'],diff,1,0.5169226000000435,24,83.33333333333333,
LASY1606,train,inv,90,pos90_id10_im1.bmp_pos90_id20_im12.bmp,['Im_RobertDowneyJr.png', 'Im_BenAffleck.png', 'Im_JustinTimberlake.png', 'Im_RobertPattinson.png', 'Im_KeanuReeves.png', 'Im_RyanGosling.png', 'Im_RyanReynolds.png', 'Im_GeorgeClooney.png', 'Im_OrlandoBloom.png', 'Im_BradPitt.png'],diff,1,0.8165555000000495,25,83.33333333333333,
LASY1606,train,inv,90,pos90_id10_im18.bmp_pos90_id10_im1.bmp,['Im_RobertDowneyJr.png', 'Im_BenAffleck.png', 'Im_JustinTimberlake.png', 'Im_RobertPattinson.png', 'Im_KeanuReeves.png', 'Im_RyanGosling.png', 'Im_RyanReynolds.png', 'Im_GeorgeClooney.png', 'Im_OrlandoBloom.png', 'Im_BradPitt.png'],same,1,0.3999770999998873,26,83.33333333333333,
LASY1606,train,inv,fs,posfs_id19_im27.bmp_posfs_id11_im10.bmp,['Im_RobertDowneyJr.png', 'Im_BenAffleck.png', 'Im_JustinTimberlake.png', 'Im_RobertPattinson.png', 'Im_KeanuReeves.png', 'Im_RyanGosling.png', 'Im_RyanReynolds.png', 'Im_GeorgeClooney.png', 'Im_OrlandoBloom.png', 'Im_BradPitt.png'],diff,1,0.4166621000001669,27,83.33333333333333,
LASY1606,train,inv,60,pos60_id19_im4.bmp_pos60_id7_im15.bmp,['Im_RobertDowneyJr.png', 'Im_BenAffleck.png', 'Im_JustinTimberlake.png', 'Im_RobertPattinson.png', 'Im_KeanuReeves.png', 'Im_RyanGosling.png', 'Im_RyanReynolds.png', 'Im_GeorgeClooney.png', 'Im_OrlandoBloom.png', 'Im_BradPitt.png'],diff,1,0.41657499999996617,28,83.33333333333333,
LASY1606,train,inv,120,pos120_id11_im10.bmp_pos120_id18_im11.bmp,['Im_RobertDowneyJr.png', 'Im_BenAffleck.png', 'Im_JustinTimberlake.png', 'Im_RobertPattinson.png', 'Im_KeanuReeves.png', 'Im_RyanGosling.png', 'Im_RyanReynolds.png', 'Im_GeorgeClooney.png', 'Im_OrlandoBloom.png', 'Im_BradPitt.png'],same,0,0.5418852000000243,28,83.33333333333333,
LASY1606,train,inv,0,pos0_id18_im11.bmp_pos0_id18_im19.bmp,['Im_RobertDowneyJr.png', 'Im_BenAffleck.png', 'Im_JustinTimberlake.png', 'Im_RobertPattinson.png', 'Im_KeanuReeves.png', 'Im_RyanGosling.png', 'Im_RyanReynolds.png', 'Im_GeorgeClooney.png', 'Im_OrlandoBloom.png', 'Im_BradPitt.png'],same,1,0.8337582999999995,29,83.33333333333333,
LASY1606,train,inv,120,pos120_id19_im4.bmp_pos120_id19_im27.bmp,['Im_RobertDowneyJr.png', 'Im_BenAffleck.png', 'Im_JustinTimberlake.png', 'Im_RobertPattinson.png', 'Im_KeanuReeves.png', 'Im_RyanGosling.png', 'Im_RyanReynolds.png', 'Im_GeorgeClooney.png', 'Im_OrlandoBloom.png', 'Im_BradPitt.png'],same,1,2.533585900000162,30,83.33333333333333,
LASY1606,train,inv,60,pos60_id21_im22.bmp_pos60_id21_im16.bmp,['Im_RobertDowneyJr.png', 'Im_BenAffleck.png', 'Im_JustinTimberlake.png', 'Im_RobertPattinson.png', 'Im_KeanuReeves.png', 'Im_RyanGosling.png', 'Im_RyanReynolds.png', 'Im_GeorgeClooney.png', 'Im_OrlandoBloom.png', 'Im_BradPitt.png'],same,1,0.4584136999999373,31,83.33333333333333,
LASY1606,train,inv,150,pos150_id18_im18.bmp_pos150_id10_im17.bmp,['Im_RobertDowneyJr.png', 'Im_BenAffleck.png', 'Im_JustinTimberlake.png', 'Im_RobertPattinson.png', 'Im_KeanuReeves.png', 'Im_RyanGosling.png', 'Im_RyanReynolds.png', 'Im_GeorgeClooney.png', 'Im_OrlandoBloom.png', 'Im_BradPitt.png'],diff,1,0.5336096000000907,32,83.33333333333333,
LASY1606,train,inv,30,pos30_id10_im18.bmp_pos30_id10_im1.bmp,['Im_RobertDowneyJr.png', 'Im_BenAffleck.png', 'Im_JustinTimberlake.png', 'Im_RobertPattinson.png', 'Im_KeanuReeves.png', 'Im_RyanGosling.png', 'Im_RyanReynolds.png', 'Im_GeorgeClooney.png', 'Im_OrlandoBloom.png', 'Im_BradPitt.png'],same,1,0.758485999999948,33,83.33333333333333,
LASY1606,train,inv,fs,posfs_id1_im24.bmp_posfs_id1_im21.bmp,['Im_RobertDowneyJr.png', 'Im_BenAffleck.png', 'Im_JustinTimberlake.png', 'Im_RobertPattinson.png', 'Im_KeanuReeves.png', 'Im_RyanGosling.png', 'Im_RyanReynolds.png', 'Im_GeorgeClooney.png', 'Im_OrlandoBloom.png', 'Im_BradPitt.png'],diff,0,0.43331720000014684,33,83.33333333333333,
LASY1606,0,neg,0,neg0_id20_im3.bmp_neg0_id20_im12.bmp,['Im_RobertDowneyJr.png', 'Im_BenAffleck.png', 'Im_JustinTimberlake.png', 'Im_RobertPattinson.png', 'Im_KeanuReeves.png', 'Im_RyanGosling.png', 'Im_RyanReynolds.png', 'Im_GeorgeClooney.png', 'Im_OrlandoBloom.png', 'Im_BradPitt.png'],same,1,1.5753042000001187,1,0,
LASY1606,0,neg,30,neg30_id7_im15.bmp_neg30_id1_im21.bmp,['Im_RobertDowneyJr.png', 'Im_BenAffleck.png', 'Im_JustinTimberlake.png', 'Im_RobertPattinson.png', 'Im_KeanuReeves.png', 'Im_RyanGosling.png', 'Im_RyanReynolds.png', 'Im_GeorgeClooney.png', 'Im_OrlandoBloom.png', 'Im_BradPitt.png'],diff,1,0.6084899000002224,2,0,
LASY1606,0,neg,150,neg150_id1_im24.bmp_neg150_id3_im6.bmp,['Im_RobertDowneyJr.png', 'Im_BenAffleck.png', 'Im_JustinTimberlake.png', 'Im_RobertPattinson.png', 'Im_KeanuReeves.png', 'Im_RyanGosling.png', 'Im_RyanReynolds.png', 'Im_GeorgeClooney.png', 'Im_OrlandoBloom.png', 'Im_BradPitt.png'],diff,1,0.6253518999997141,3,0,
LASY1606,0,neg,30,neg30_id10_im18.bmp_neg30_id10_im1.bmp,['Im_RobertDowneyJr.png', 'Im_BenAffleck.png', 'Im_JustinTimberlake.png', 'Im_RobertPattinson.png', 'Im_KeanuReeves.png', 'Im_RyanGosling.png', 'Im_RyanReynolds.png', 'Im_GeorgeClooney.png', 'Im_OrlandoBloom.png', 'Im_BradPitt.png'],same,1,1.0419466999996985,4,0,
LASY1606,0,neg,120,neg120_id19_im27.bmp_neg120_id19_im4.bmp,['Im_RobertDowneyJr.png', 'Im_BenAffleck.png', 'Im_JustinTimberlake.png', 'Im_RobertPattinson.png', 'Im_KeanuReeves.png', 'Im_RyanGosling.png', 'Im_RyanReynolds.png', 'Im_GeorgeClooney.png', 'Im_OrlandoBloom.png', 'Im_BradPitt.png'],same,1,0.7918641000001116,5,0,
LASY1606,0,neg,90,neg90_id18_im11.bmp_neg90_id20_im30.bmp,['Im_RobertDowneyJr.png', 'Im_BenAffleck.png', 'Im_JustinTimberlake.png', 'Im_RobertPattinson.png', 'Im_KeanuReeves.png', 'Im_RyanGosling.png', 'Im_RyanReynolds.png', 'Im_GeorgeClooney.png', 'Im_OrlandoBloom.png', 'Im_BradPitt.png'],same,0,0.7252943000003143,5,0,
LASY1606,0,neg,120,neg120_id11_im2.bmp_neg120_id10_im18.bmp,['Im_RobertDowneyJr.png', 'Im_BenAffleck.png', 'Im_JustinTimberlake.png', 'Im_RobertPattinson.png', 'Im_KeanuReeves.png', 'Im_RyanGosling.png', 'Im_RyanReynolds.png', 'Im_GeorgeClooney.png', 'Im_OrlandoBloom.png', 'Im_BradPitt.png'],diff,1,0.6420671000000766,6,0,
LASY1606,0,neg,0,neg0_id1_im21.bmp_neg0_id1_im4.bmp,['Im_RobertDowneyJr.png', 'Im_BenAffleck.png', 'Im_JustinTimberlake.png', 'Im_RobertPattinson.png', 'Im_KeanuReeves.png', 'Im_RyanGosling.png', 'Im_RyanReynolds.png', 'Im_GeorgeClooney.png', 'Im_OrlandoBloom.png', 'Im_BradPitt.png'],same,1,3.0918163000001186,7,0,
LASY1606,0,neg,60,neg60_id1_im4.bmp_neg60_id21_im17.bmp,['Im_RobertDowneyJr.png', 'Im_BenAffleck.png', 'Im_JustinTimberlake.png', 'Im_RobertPattinson.png', 'Im_KeanuReeves.png', 'Im_RyanGosling.png', 'Im_RyanReynolds.png', 'Im_GeorgeClooney.png', 'Im_OrlandoBloom.png', 'Im_BradPitt.png'],diff,1,0.6171042000000853,8,0,
LASY1606,0,neg,150,neg150_id11_im2.bmp_neg150_id11_im1.bmp,['Im_RobertDowneyJr.png', 'Im_BenAffleck.png', 'Im_JustinTimberlake.png', 'Im_RobertPattinson.png', 'Im_KeanuReeves.png', 'Im_RyanGosling.png', 'Im_RyanReynolds.png', 'Im_GeorgeClooney.png', 'Im_OrlandoBloom.png', 'Im_BradPitt.png'],same,1,0.6749710000003688,9,0,
LASY1606,0,neg,90,neg90_id11_im2.bmp_neg90_id11_im10.bmp,['Im_RobertDowneyJr.png', 'Im_BenAffleck.png', 'Im_JustinTimberlake.png', 'Im_RobertPattinson.png', 'Im_KeanuReeves.png', 'Im_RyanGosling.png', 'Im_RyanReynolds.png', 'Im_GeorgeClooney.png', 'Im_OrlandoBloom.png', 'Im_BradPitt.png'],diff,0,1.2250448999998298,9,0,
LASY1606,0,neg,60,neg60_id20_im12.bmp_neg60_id10_im1.bmp,['Im_RobertDowneyJr.png', 'Im_BenAffleck.png', 'Im_JustinTimberlake.png', 'Im_RobertPattinson.png', 'Im_KeanuReeves.png', 'Im_RyanGosling.png', 'Im_RyanReynolds.png', 'Im_GeorgeClooney.png', 'Im_OrlandoBloom.png', 'Im_BradPitt.png'],diff,1,1.7084024000000682,10,0,
LASY1606,0,neg,fs,negfs_id16_im3.bmp_negfs_id19_im8.bmp,['Im_RobertDowneyJr.png', 'Im_BenAffleck.png', 'Im_JustinTimberlake.png', 'Im_RobertPattinson.png', 'Im_KeanuReeves.png', 'Im_RyanGosling.png', 'Im_RyanReynolds.png', 'Im_GeorgeClooney.png', 'Im_OrlandoBloom.png', 'Im_BradPitt.png'],diff,1,0.8085209999999279,11,0,
LASY1606,0,neg,fs,negfs_id3_im6.bmp_negfs_id3_im17.bmp,['Im_RobertDowneyJr.png', 'Im_BenAffleck.png', 'Im_JustinTimberlake.png', 'Im_RobertPattinson.png', 'Im_KeanuReeves.png', 'Im_RyanGosling.png', 'Im_RyanReynolds.png', 'Im_GeorgeClooney.png', 'Im_OrlandoBloom.png', 'Im_BradPitt.png'],same,1,0.6836329000002479,12,0,
LASY1606,1,pos,60,pos60_id10_im1.bmp_pos60_id10_im17.bmp,['Im_RobertDowneyJr.png', 'Im_BenAffleck.png', 'Im_JustinTimberlake.png', 'Im_RobertPattinson.png', 'Im_KeanuReeves.png', 'Im_RyanGosling.png', 'Im_RyanReynolds.png', 'Im_GeorgeClooney.png', 'Im_OrlandoBloom.png', 'Im_BradPitt.png'],same,1,2.69278149999991,13,0,
LASY1606,1,pos,120,pos120_id19_im27.bmp_pos120_id21_im16.bmp,['Im_RobertDowneyJr.png', 'Im_BenAffleck.png', 'Im_JustinTimberlake.png', 'Im_RobertPattinson.png', 'Im_KeanuReeves.png', 'Im_RyanGosling.png', 'Im_RyanReynolds.png', 'Im_GeorgeClooney.png', 'Im_OrlandoBloom.png', 'Im_BradPitt.png'],diff,1,0.4083676000000196,14,0,
LASY1606,1,pos,30,pos30_id10_im17.bmp_pos30_id10_im1.bmp,['Im_RobertDowneyJr.png', 'Im_BenAffleck.png', 'Im_JustinTimberlake.png', 'Im_RobertPattinson.png', 'Im_KeanuReeves.png', 'Im_RyanGosling.png', 'Im_RyanReynolds.png', 'Im_GeorgeClooney.png', 'Im_OrlandoBloom.png', 'Im_BradPitt.png'],same,1,0.5083893000000899,15,0,
LASY1606,1,pos,90,pos90_id1_im4.bmp_pos90_id1_im21.bmp,['Im_RobertDowneyJr.png', 'Im_BenAffleck.png', 'Im_JustinTimberlake.png', 'Im_RobertPattinson.png', 'Im_KeanuReeves.png', 'Im_RyanGosling.png', 'Im_RyanReynolds.png', 'Im_GeorgeClooney.png', 'Im_OrlandoBloom.png', 'Im_BradPitt.png'],same,1,0.9501436999998987,16,0,
LASY1606,1,pos,fs,posfs_id1_im21.bmp_posfs_id1_im24.bmp,['Im_RobertDowneyJr.png', 'Im_BenAffleck.png', 'Im_JustinTimberlake.png', 'Im_RobertPattinson.png', 'Im_KeanuReeves.png', 'Im_RyanGosling.png', 'Im_RyanReynolds.png', 'Im_GeorgeClooney.png', 'Im_OrlandoBloom.png', 'Im_BradPitt.png'],same,1,0.5667413000001034,17,0,
LASY1606,1,pos,fs,posfs_id7_im26.bmp_posfs_id19_im4.bmp,['Im_RobertDowneyJr.png', 'Im_BenAffleck.png', 'Im_JustinTimberlake.png', 'Im_RobertPattinson.png', 'Im_KeanuReeves.png', 'Im_RyanGosling.png', 'Im_RyanReynolds.png', 'Im_GeorgeClooney.png', 'Im_OrlandoBloom.png', 'Im_BradPitt.png'],diff,1,2.30014250000022,18,0,
LASY1606,1,pos,0,pos0_id10_im17.bmp_pos0_id10_im1.bmp,['Im_RobertDowneyJr.png', 'Im_BenAffleck.png', 'Im_JustinTimberlake.png', 'Im_RobertPattinson.png', 'Im_KeanuReeves.png', 'Im_RyanGosling.png', 'Im_RyanReynolds.png', 'Im_GeorgeClooney.png', 'Im_OrlandoBloom.png', 'Im_BradPitt.png'],same,1,2.1167821999997614,19,0,
LASY1606,1,pos,60,pos60_id18_im19.bmp_pos60_id20_im3.bmp,['Im_RobertDowneyJr.png', 'Im_BenAffleck.png', 'Im_JustinTimberlake.png', 'Im_RobertPattinson.png', 'Im_KeanuReeves.png', 'Im_RyanGosling.png', 'Im_RyanReynolds.png', 'Im_GeorgeClooney.png', 'Im_OrlandoBloom.png', 'Im_BradPitt.png'],diff,1,0.5248120999999628,20,0,
LASY1606,1,pos,0,pos0_id1_im24.bmp_pos0_id1_im4.bmp,['Im_RobertDowneyJr.png', 'Im_BenAffleck.png', 'Im_JustinTimberlake.png', 'Im_RobertPattinson.png', 'Im_KeanuReeves.png', 'Im_RyanGosling.png', 'Im_RyanReynolds.png', 'Im_GeorgeClooney.png', 'Im_OrlandoBloom.png', 'Im_BradPitt.png'],same,1,2.2333214999998745,21,0,
LASY1606,1,pos,150,pos150_id16_im19.bmp_pos150_id1_im21.bmp,['Im_RobertDowneyJr.png', 'Im_BenAffleck.png', 'Im_JustinTimberlake.png', 'Im_RobertPattinson.png', 'Im_KeanuReeves.png', 'Im_RyanGosling.png', 'Im_RyanReynolds.png', 'Im_GeorgeClooney.png', 'Im_OrlandoBloom.png', 'Im_BradPitt.png'],diff,1,0.41676559999996243,22,0,
LASY1606,1,pos,30,pos30_id19_im4.bmp_pos30_id19_im8.bmp,['Im_RobertDowneyJr.png', 'Im_BenAffleck.png', 'Im_JustinTimberlake.png', 'Im_RobertPattinson.png', 'Im_KeanuReeves.png', 'Im_RyanGosling.png', 'Im_RyanReynolds.png', 'Im_GeorgeClooney.png', 'Im_OrlandoBloom.png', 'Im_BradPitt.png'],same,1,1.1583086999999068,23,0,
LASY1606,1,pos,120,pos120_id20_im30.bmp_pos120_id20_im12.bmp,['Im_RobertDowneyJr.png', 'Im_BenAffleck.png', 'Im_JustinTimberlake.png', 'Im_RobertPattinson.png', 'Im_KeanuReeves.png', 'Im_RyanGosling.png', 'Im_RyanReynolds.png', 'Im_GeorgeClooney.png', 'Im_OrlandoBloom.png', 'Im_BradPitt.png'],same,1,0.5834437000003163,24,0,
LASY1606,1,pos,150,pos150_id7_im26.bmp_pos150_id7_im14.bmp,['Im_RobertDowneyJr.png', 'Im_BenAffleck.png', 'Im_JustinTimberlake.png', 'Im_RobertPattinson.png', 'Im_KeanuReeves.png', 'Im_RyanGosling.png', 'Im_RyanReynolds.png', 'Im_GeorgeClooney.png', 'Im_OrlandoBloom.png', 'Im_BradPitt.png'],same,1,0.4751360999998724,25,0,
LASY1606,1,pos,90,pos90_id7_im14.bmp_pos90_id7_im26.bmp,['Im_RobertDowneyJr.png', 'Im_BenAffleck.png', 'Im_JustinTimberlake.png', 'Im_RobertPattinson.png', 'Im_KeanuReeves.png', 'Im_RyanGosling.png', 'Im_RyanReynolds.png', 'Im_GeorgeClooney.png', 'Im_OrlandoBloom.png', 'Im_BradPitt.png'],same,1,0.708333400000356,26,0,
LASY1606,2,inv,120,pos120_id16_im3.bmp_pos120_id7_im14.bmp,['Im_RobertDowneyJr.png', 'Im_BenAffleck.png', 'Im_JustinTimberlake.png', 'Im_RobertPattinson.png', 'Im_KeanuReeves.png', 'Im_RyanGosling.png', 'Im_RyanReynolds.png', 'Im_GeorgeClooney.png', 'Im_OrlandoBloom.png', 'Im_BradPitt.png'],same,0,0.9833521999998993,26,0,
LASY1606,2,inv,60,pos60_id16_im3.bmp_pos60_id7_im14.bmp,['Im_RobertDowneyJr.png', 'Im_BenAffleck.png', 'Im_JustinTimberlake.png', 'Im_RobertPattinson.png', 'Im_KeanuReeves.png', 'Im_RyanGosling.png', 'Im_RyanReynolds.png', 'Im_GeorgeClooney.png', 'Im_OrlandoBloom.png', 'Im_BradPitt.png'],diff,1,0.4169259999998758,27,0,
LASY1606,2,inv,90,pos90_id16_im19.bmp_pos90_id1_im21.bmp,['Im_RobertDowneyJr.png', 'Im_BenAffleck.png', 'Im_JustinTimberlake.png', 'Im_RobertPattinson.png', 'Im_KeanuReeves.png', 'Im_RyanGosling.png', 'Im_RyanReynolds.png', 'Im_GeorgeClooney.png', 'Im_OrlandoBloom.png', 'Im_BradPitt.png'],same,0,1.4000074999999015,27,0,
LASY1606,2,inv,0,pos0_id1_im4.bmp_pos0_id1_im21.bmp,['Im_RobertDowneyJr.png', 'Im_BenAffleck.png', 'Im_JustinTimberlake.png', 'Im_RobertPattinson.png', 'Im_KeanuReeves.png', 'Im_RyanGosling.png', 'Im_RyanReynolds.png', 'Im_GeorgeClooney.png', 'Im_OrlandoBloom.png', 'Im_BradPitt.png'],same,1,0.6917343000000074,28,0,
LASY1606,2,inv,90,pos90_id3_im17.bmp_pos90_id3_im8.bmp,['Im_RobertDowneyJr.png', 'Im_BenAffleck.png', 'Im_JustinTimberlake.png', 'Im_RobertPattinson.png', 'Im_KeanuReeves.png', 'Im_RyanGosling.png', 'Im_RyanReynolds.png', 'Im_GeorgeClooney.png', 'Im_OrlandoBloom.png', 'Im_BradPitt.png'],same,1,0.7334879000000001,29,0,
LASY1606,2,inv,150,pos150_id3_im17.bmp_pos150_id21_im16.bmp,['Im_RobertDowneyJr.png', 'Im_BenAffleck.png', 'Im_JustinTimberlake.png', 'Im_RobertPattinson.png', 'Im_KeanuReeves.png', 'Im_RyanGosling.png', 'Im_RyanReynolds.png', 'Im_GeorgeClooney.png', 'Im_OrlandoBloom.png', 'Im_BradPitt.png'],diff,1,0.4250514000000294,30,0,
LASY1606,2,inv,fs,posfs_id10_im1.bmp_posfs_id3_im17.bmp,['Im_RobertDowneyJr.png', 'Im_BenAffleck.png', 'Im_JustinTimberlake.png', 'Im_RobertPattinson.png', 'Im_KeanuReeves.png', 'Im_RyanGosling.png', 'Im_RyanReynolds.png', 'Im_GeorgeClooney.png', 'Im_OrlandoBloom.png', 'Im_BradPitt.png'],diff,1,0.4668965999999273,31,0,
LASY1606,2,inv,fs,posfs_id21_im16.bmp_posfs_id3_im17.bmp,['Im_RobertDowneyJr.png', 'Im_BenAffleck.png', 'Im_JustinTimberlake.png', 'Im_RobertPattinson.png', 'Im_KeanuReeves.png', 'Im_RyanGosling.png', 'Im_RyanReynolds.png', 'Im_GeorgeClooney.png', 'Im_OrlandoBloom.png', 'Im_BradPitt.png'],diff,1,0.4166008000001966,32,0,
LASY1606,2,inv,0,pos0_id18_im11.bmp_pos0_id20_im30.bmp,['Im_RobertDowneyJr.png', 'Im_BenAffleck.png', 'Im_JustinTimberlake.png', 'Im_RobertPattinson.png', 'Im_KeanuReeves.png', 'Im_RyanGosling.png', 'Im_RyanReynolds.png', 'Im_GeorgeClooney.png', 'Im_OrlandoBloom.png', 'Im_BradPitt.png'],diff,1,1.5670144999999138,33,0,
LASY1606,2,inv,30,pos30_id18_im11.bmp_pos30_id11_im10.bmp,['Im_RobertDowneyJr.png', 'Im_BenAffleck.png', 'Im_JustinTimberlake.png', 'Im_RobertPattinson.png', 'Im_KeanuReeves.png', 'Im_RyanGosling.png', 'Im_RyanReynolds.png', 'Im_GeorgeClooney.png', 'Im_OrlandoBloom.png', 'Im_BradPitt.png'],diff,1,1.0999509999996917,34,0,
LASY1606,2,inv,120,pos120_id1_im24.bmp_pos120_id3_im6.bmp,['Im_RobertDowneyJr.png', 'Im_BenAffleck.png', 'Im_JustinTimberlake.png', 'Im_RobertPattinson.png', 'Im_KeanuReeves.png', 'Im_RyanGosling.png', 'Im_RyanReynolds.png', 'Im_GeorgeClooney.png', 'Im_OrlandoBloom.png', 'Im_BradPitt.png'],diff,1,1.2418901999999434,35,0,
LASY1606,2,inv,30,pos30_id1_im4.bmp_pos30_id10_im18.bmp,['Im_RobertDowneyJr.png', 'Im_BenAffleck.png', 'Im_JustinTimberlake.png', 'Im_RobertPattinson.png', 'Im_KeanuReeves.png', 'Im_RyanGosling.png', 'Im_RyanReynolds.png', 'Im_GeorgeClooney.png', 'Im_OrlandoBloom.png', 'Im_BradPitt.png'],same,0,0.4250521999997545,35,0,
LASY1606,2,inv,60,pos60_id7_im14.bmp_pos60_id7_im15.bmp,['Im_RobertDowneyJr.png', 'Im_BenAffleck.png', 'Im_JustinTimberlake.png', 'Im_RobertPattinson.png', 'Im_KeanuReeves.png', 'Im_RyanGosling.png', 'Im_RyanReynolds.png', 'Im_GeorgeClooney.png', 'Im_OrlandoBloom.png', 'Im_BradPitt.png'],same,1,0.4669862999999168,36,0,
LASY1606,2,inv,150,pos150_id18_im19.bmp_pos150_id20_im3.bmp,['Im_RobertDowneyJr.png', 'Im_BenAffleck.png', 'Im_JustinTimberlake.png', 'Im_RobertPattinson.png', 'Im_KeanuReeves.png', 'Im_RyanGosling.png', 'Im_RyanReynolds.png', 'Im_GeorgeClooney.png', 'Im_OrlandoBloom.png', 'Im_BradPitt.png'],diff,1,1.425200600000153,37,0,
LASY1606,3,neg,fs,negfs_id16_im2.bmp_negfs_id3_im6.bmp,['Im_RobertDowneyJr.png', 'Im_BenAffleck.png', 'Im_JustinTimberlake.png', 'Im_RobertPattinson.png', 'Im_KeanuReeves.png', 'Im_RyanGosling.png', 'Im_RyanReynolds.png', 'Im_GeorgeClooney.png', 'Im_OrlandoBloom.png', 'Im_BradPitt.png'],diff,1,0.7752424999998766,1,88.0952380952381,
LASY1606,3,neg,90,neg90_id1_im4.bmp_neg90_id1_im21.bmp,['Im_RobertDowneyJr.png', 'Im_BenAffleck.png', 'Im_JustinTimberlake.png', 'Im_RobertPattinson.png', 'Im_KeanuReeves.png', 'Im_RyanGosling.png', 'Im_RyanReynolds.png', 'Im_GeorgeClooney.png', 'Im_OrlandoBloom.png', 'Im_BradPitt.png'],same,1,0.566732900000261,2,88.0952380952381,
LASY1606,3,neg,0,neg0_id21_im16.bmp_neg0_id21_im22.bmp,['Im_RobertDowneyJr.png', 'Im_BenAffleck.png', 'Im_JustinTimberlake.png', 'Im_RobertPattinson.png', 'Im_KeanuReeves.png', 'Im_RyanGosling.png', 'Im_RyanReynolds.png', 'Im_GeorgeClooney.png', 'Im_OrlandoBloom.png', 'Im_BradPitt.png'],same,1,1.0837274000000434,3,88.0952380952381,
LASY1606,3,neg,60,neg60_id7_im14.bmp_neg60_id7_im15.bmp,['Im_RobertDowneyJr.png', 'Im_BenAffleck.png', 'Im_JustinTimberlake.png', 'Im_RobertPattinson.png', 'Im_KeanuReeves.png', 'Im_RyanGosling.png', 'Im_RyanReynolds.png', 'Im_GeorgeClooney.png', 'Im_OrlandoBloom.png', 'Im_BradPitt.png'],same,1,1.2832354999995914,4,88.0952380952381,
LASY1606,3,neg,60,neg60_id21_im16.bmp_neg60_id21_im22.bmp,['Im_RobertDowneyJr.png', 'Im_BenAffleck.png', 'Im_JustinTimberlake.png', 'Im_RobertPattinson.png', 'Im_KeanuReeves.png', 'Im_RyanGosling.png', 'Im_RyanReynolds.png', 'Im_GeorgeClooney.png', 'Im_OrlandoBloom.png', 'Im_BradPitt.png'],same,1,3.2253114999998616,5,88.0952380952381,
LASY1606,3,neg,120,neg120_id20_im12.bmp_neg120_id10_im1.bmp,['Im_RobertDowneyJr.png', 'Im_BenAffleck.png', 'Im_JustinTimberlake.png', 'Im_RobertPattinson.png', 'Im_KeanuReeves.png', 'Im_RyanGosling.png', 'Im_RyanReynolds.png', 'Im_GeorgeClooney.png', 'Im_OrlandoBloom.png', 'Im_BradPitt.png'],diff,1,0.783230900000035,6,88.0952380952381,
LASY1606,3,neg,90,neg90_id21_im22.bmp_neg90_id18_im19.bmp,['Im_RobertDowneyJr.png', 'Im_BenAffleck.png', 'Im_JustinTimberlake.png', 'Im_RobertPattinson.png', 'Im_KeanuReeves.png', 'Im_RyanGosling.png', 'Im_RyanReynolds.png', 'Im_GeorgeClooney.png', 'Im_OrlandoBloom.png', 'Im_BradPitt.png'],diff,1,1.8248322999997981,7,88.0952380952381,
LASY1606,3,neg,30,neg30_id7_im14.bmp_neg30_id7_im15.bmp,['Im_RobertDowneyJr.png', 'Im_BenAffleck.png', 'Im_JustinTimberlake.png', 'Im_RobertPattinson.png', 'Im_KeanuReeves.png', 'Im_RyanGosling.png', 'Im_RyanReynolds.png', 'Im_GeorgeClooney.png', 'Im_OrlandoBloom.png', 'Im_BradPitt.png'],same,1,0.4252150000002075,8,88.0952380952381,
LASY1606,3,neg,150,neg150_id20_im12.bmp_neg150_id10_im1.bmp,['Im_RobertDowneyJr.png', 'Im_BenAffleck.png', 'Im_JustinTimberlake.png', 'Im_RobertPattinson.png', 'Im_KeanuReeves.png', 'Im_RyanGosling.png', 'Im_RyanReynolds.png', 'Im_GeorgeClooney.png', 'Im_OrlandoBloom.png', 'Im_BradPitt.png'],diff,1,0.5500578000001042,9,88.0952380952381,
LASY1606,3,neg,30,neg30_id20_im3.bmp_neg30_id10_im17.bmp,['Im_RobertDowneyJr.png', 'Im_BenAffleck.png', 'Im_JustinTimberlake.png', 'Im_RobertPattinson.png', 'Im_KeanuReeves.png', 'Im_RyanGosling.png', 'Im_RyanReynolds.png', 'Im_GeorgeClooney.png', 'Im_OrlandoBloom.png', 'Im_BradPitt.png'],diff,1,0.4166706000000886,10,88.0952380952381,
LASY1606,3,neg,fs,negfs_id11_im1.bmp_negfs_id11_im10.bmp,['Im_RobertDowneyJr.png', 'Im_BenAffleck.png', 'Im_JustinTimberlake.png', 'Im_RobertPattinson.png', 'Im_KeanuReeves.png', 'Im_RyanGosling.png', 'Im_RyanReynolds.png', 'Im_GeorgeClooney.png', 'Im_OrlandoBloom.png', 'Im_BradPitt.png'],same,1,0.408538099999987,11,88.0952380952381,
LASY1606,3,neg,0,neg0_id21_im17.bmp_neg0_id7_im14.bmp,['Im_RobertDowneyJr.png', 'Im_BenAffleck.png', 'Im_JustinTimberlake.png', 'Im_RobertPattinson.png', 'Im_KeanuReeves.png', 'Im_RyanGosling.png', 'Im_RyanReynolds.png', 'Im_GeorgeClooney.png', 'Im_OrlandoBloom.png', 'Im_BradPitt.png'],diff,1,0.4667538999997305,12,88.0952380952381,
LASY1606,3,neg,150,neg150_id7_im26.bmp_neg150_id19_im4.bmp,['Im_RobertDowneyJr.png', 'Im_BenAffleck.png', 'Im_JustinTimberlake.png', 'Im_RobertPattinson.png', 'Im_KeanuReeves.png', 'Im_RyanGosling.png', 'Im_RyanReynolds.png', 'Im_GeorgeClooney.png', 'Im_OrlandoBloom.png', 'Im_BradPitt.png'],diff,1,0.4834802000000309,13,88.0952380952381,
LASY1606,3,neg,120,neg120_id11_im1.bmp_neg120_id11_im2.bmp,['Im_RobertDowneyJr.png', 'Im_BenAffleck.png', 'Im_JustinTimberlake.png', 'Im_RobertPattinson.png', 'Im_KeanuReeves.png', 'Im_RyanGosling.png', 'Im_RyanReynolds.png', 'Im_GeorgeClooney.png', 'Im_OrlandoBloom.png', 'Im_BradPitt.png'],same,1,0.5915841999999429,14,88.0952380952381,
LASY1606,4,pos,90,pos90_id11_im2.bmp_pos90_id20_im12.bmp,['Im_RobertDowneyJr.png', 'Im_BenAffleck.png', 'Im_JustinTimberlake.png', 'Im_RobertPattinson.png', 'Im_KeanuReeves.png', 'Im_RyanGosling.png', 'Im_RyanReynolds.png', 'Im_GeorgeClooney.png', 'Im_OrlandoBloom.png', 'Im_BradPitt.png'],diff,1,2.1167107999999644,15,88.0952380952381,
LASY1606,4,pos,90,pos90_id19_im8.bmp_pos90_id16_im3.bmp,['Im_RobertDowneyJr.png', 'Im_BenAffleck.png', 'Im_JustinTimberlake.png', 'Im_RobertPattinson.png', 'Im_KeanuReeves.png', 'Im_RyanGosling.png', 'Im_RyanReynolds.png', 'Im_GeorgeClooney.png', 'Im_OrlandoBloom.png', 'Im_BradPitt.png'],diff,1,0.9003631999999016,16,88.0952380952381,
LASY1606,4,pos,150,pos150_id16_im3.bmp_pos150_id16_im2.bmp,['Im_RobertDowneyJr.png', 'Im_BenAffleck.png', 'Im_JustinTimberlake.png', 'Im_RobertPattinson.png', 'Im_KeanuReeves.png', 'Im_RyanGosling.png', 'Im_RyanReynolds.png', 'Im_GeorgeClooney.png', 'Im_OrlandoBloom.png', 'Im_BradPitt.png'],same,1,0.5502701999998862,17,88.0952380952381,
LASY1606,4,pos,0,pos0_id21_im22.bmp_pos0_id21_im16.bmp,['Im_RobertDowneyJr.png', 'Im_BenAffleck.png', 'Im_JustinTimberlake.png', 'Im_RobertPattinson.png', 'Im_KeanuReeves.png', 'Im_RyanGosling.png', 'Im_RyanReynolds.png', 'Im_GeorgeClooney.png', 'Im_OrlandoBloom.png', 'Im_BradPitt.png'],same,1,1.3583865000000515,18,88.0952380952381,
LASY1606,4,pos,60,pos60_id3_im8.bmp_pos60_id3_im17.bmp,['Im_RobertDowneyJr.png', 'Im_BenAffleck.png', 'Im_JustinTimberlake.png', 'Im_RobertPattinson.png', 'Im_KeanuReeves.png', 'Im_RyanGosling.png', 'Im_RyanReynolds.png', 'Im_GeorgeClooney.png', 'Im_OrlandoBloom.png', 'Im_BradPitt.png'],same,1,0.4249958999998853,19,88.0952380952381,
LASY1606,4,pos,30,pos30_id21_im17.bmp_pos30_id1_im4.bmp,['Im_RobertDowneyJr.png', 'Im_BenAffleck.png', 'Im_JustinTimberlake.png', 'Im_RobertPattinson.png', 'Im_KeanuReeves.png', 'Im_RyanGosling.png', 'Im_RyanReynolds.png', 'Im_GeorgeClooney.png', 'Im_OrlandoBloom.png', 'Im_BradPitt.png'],diff,1,0.4416049999999814,20,88.0952380952381,
LASY1606,4,pos,0,pos0_id20_im3.bmp_pos0_id18_im19.bmp,['Im_RobertDowneyJr.png', 'Im_BenAffleck.png', 'Im_JustinTimberlake.png', 'Im_RobertPattinson.png', 'Im_KeanuReeves.png', 'Im_RyanGosling.png', 'Im_RyanReynolds.png', 'Im_GeorgeClooney.png', 'Im_OrlandoBloom.png', 'Im_BradPitt.png'],diff,1,0.4167287000000215,21,88.0952380952381,
LASY1606,4,pos,fs,posfs_id11_im2.bmp_posfs_id20_im12.bmp,['Im_RobertDowneyJr.png', 'Im_BenAffleck.png', 'Im_JustinTimberlake.png', 'Im_RobertPattinson.png', 'Im_KeanuReeves.png', 'Im_RyanGosling.png', 'Im_RyanReynolds.png', 'Im_GeorgeClooney.png', 'Im_OrlandoBloom.png', 'Im_BradPitt.png'],diff,1,0.458511400000134,22,88.0952380952381,
LASY1606,4,pos,60,pos60_id21_im22.bmp_pos60_id21_im16.bmp,['Im_RobertDowneyJr.png', 'Im_BenAffleck.png', 'Im_JustinTimberlake.png', 'Im_RobertPattinson.png', 'Im_KeanuReeves.png', 'Im_RyanGosling.png', 'Im_RyanReynolds.png', 'Im_GeorgeClooney.png', 'Im_OrlandoBloom.png', 'Im_BradPitt.png'],same,1,0.4167310000002544,23,88.0952380952381,
LASY1606,4,pos,fs,posfs_id11_im1.bmp_posfs_id16_im2.bmp,['Im_RobertDowneyJr.png', 'Im_BenAffleck.png', 'Im_JustinTimberlake.png', 'Im_RobertPattinson.png', 'Im_KeanuReeves.png', 'Im_RyanGosling.png', 'Im_RyanReynolds.png', 'Im_GeorgeClooney.png', 'Im_OrlandoBloom.png', 'Im_BradPitt.png'],diff,1,0.43345399999998335,24,88.0952380952381,
LASY1606,4,pos,120,pos120_id20_im12.bmp_pos120_id20_im3.bmp,['Im_RobertDowneyJr.png', 'Im_BenAffleck.png', 'Im_JustinTimberlake.png', 'Im_RobertPattinson.png', 'Im_KeanuReeves.png', 'Im_RyanGosling.png', 'Im_RyanReynolds.png', 'Im_GeorgeClooney.png', 'Im_OrlandoBloom.png', 'Im_BradPitt.png'],same,1,0.5584109999999782,25,88.0952380952381,
LASY1606,4,pos,120,pos120_id11_im2.bmp_pos120_id11_im1.bmp,['Im_RobertDowneyJr.png', 'Im_BenAffleck.png', 'Im_JustinTimberlake.png', 'Im_RobertPattinson.png', 'Im_KeanuReeves.png', 'Im_RyanGosling.png', 'Im_RyanReynolds.png', 'Im_GeorgeClooney.png', 'Im_OrlandoBloom.png', 'Im_BradPitt.png'],same,1,0.47507590000031996,26,88.0952380952381,
LASY1606,4,pos,30,pos30_id19_im27.bmp_pos30_id11_im10.bmp,['Im_RobertDowneyJr.png', 'Im_BenAffleck.png', 'Im_JustinTimberlake.png', 'Im_RobertPattinson.png', 'Im_KeanuReeves.png', 'Im_RyanGosling.png', 'Im_RyanReynolds.png', 'Im_GeorgeClooney.png', 'Im_OrlandoBloom.png', 'Im_BradPitt.png'],diff,1,0.41677100000015344,27,88.0952380952381,
LASY1606,4,pos,150,pos150_id19_im27.bmp_pos150_id11_im10.bmp,['Im_RobertDowneyJr.png', 'Im_BenAffleck.png', 'Im_JustinTimberlake.png', 'Im_RobertPattinson.png', 'Im_KeanuReeves.png', 'Im_RyanGosling.png', 'Im_RyanReynolds.png', 'Im_GeorgeClooney.png', 'Im_OrlandoBloom.png', 'Im_BradPitt.png'],diff,1,0.41649909999978263,28,88.0952380952381,
LASY1606,5,inv,fs,posfs_id7_im26.bmp_posfs_id7_im14.bmp,['Im_RobertDowneyJr.png', 'Im_BenAffleck.png', 'Im_JustinTimberlake.png', 'Im_RobertPattinson.png', 'Im_KeanuReeves.png', 'Im_RyanGosling.png', 'Im_RyanReynolds.png', 'Im_GeorgeClooney.png', 'Im_OrlandoBloom.png', 'Im_BradPitt.png'],same,1,0.45829009999988557,29,88.0952380952381,
LASY1606,5,inv,150,pos150_id10_im17.bmp_pos150_id10_im1.bmp,['Im_RobertDowneyJr.png', 'Im_BenAffleck.png', 'Im_JustinTimberlake.png', 'Im_RobertPattinson.png', 'Im_KeanuReeves.png', 'Im_RyanGosling.png', 'Im_RyanReynolds.png', 'Im_GeorgeClooney.png', 'Im_OrlandoBloom.png', 'Im_BradPitt.png'],same,1,0.4250234000001001,30,88.0952380952381,
LASY1606,5,inv,90,pos90_id21_im17.bmp_pos90_id7_im14.bmp,['Im_RobertDowneyJr.png', 'Im_BenAffleck.png', 'Im_JustinTimberlake.png', 'Im_RobertPattinson.png', 'Im_KeanuReeves.png', 'Im_RyanGosling.png', 'Im_RyanReynolds.png', 'Im_GeorgeClooney.png', 'Im_OrlandoBloom.png', 'Im_BradPitt.png'],diff,1,0.42511430000013206,31,88.0952380952381,
LASY1606,5,inv,120,pos120_id19_im4.bmp_pos120_id7_im26.bmp,['Im_RobertDowneyJr.png', 'Im_BenAffleck.png', 'Im_JustinTimberlake.png', 'Im_RobertPattinson.png', 'Im_KeanuReeves.png', 'Im_RyanGosling.png', 'Im_RyanReynolds.png', 'Im_GeorgeClooney.png', 'Im_OrlandoBloom.png', 'Im_BradPitt.png'],diff,1,0.5085354999996525,32,88.0952380952381,
LASY1606,5,inv,30,pos30_id7_im15.bmp_pos30_id7_im26.bmp,['Im_RobertDowneyJr.png', 'Im_BenAffleck.png', 'Im_JustinTimberlake.png', 'Im_RobertPattinson.png', 'Im_KeanuReeves.png', 'Im_RyanGosling.png', 'Im_RyanReynolds.png', 'Im_GeorgeClooney.png', 'Im_OrlandoBloom.png', 'Im_BradPitt.png'],same,1,0.6416877999999997,33,88.0952380952381,
LASY1606,5,inv,60,pos60_id21_im16.bmp_pos60_id3_im17.bmp,['Im_RobertDowneyJr.png', 'Im_BenAffleck.png', 'Im_JustinTimberlake.png', 'Im_RobertPattinson.png', 'Im_KeanuReeves.png', 'Im_RyanGosling.png', 'Im_RyanReynolds.png', 'Im_GeorgeClooney.png', 'Im_OrlandoBloom.png', 'Im_BradPitt.png'],diff,1,0.41668890000028114,34,88.0952380952381,
LASY1606,5,inv,120,pos120_id21_im22.bmp_pos120_id18_im18.bmp,['Im_RobertDowneyJr.png', 'Im_BenAffleck.png', 'Im_JustinTimberlake.png', 'Im_RobertPattinson.png', 'Im_KeanuReeves.png', 'Im_RyanGosling.png', 'Im_RyanReynolds.png', 'Im_GeorgeClooney.png', 'Im_OrlandoBloom.png', 'Im_BradPitt.png'],same,0,1.3001765000003616,34,88.0952380952381,
LASY1606,5,inv,30,pos30_id18_im19.bmp_pos30_id21_im22.bmp,['Im_RobertDowneyJr.png', 'Im_BenAffleck.png', 'Im_JustinTimberlake.png', 'Im_RobertPattinson.png', 'Im_KeanuReeves.png', 'Im_RyanGosling.png', 'Im_RyanReynolds.png', 'Im_GeorgeClooney.png', 'Im_OrlandoBloom.png', 'Im_BradPitt.png'],diff,1,1.4084328999997524,35,88.0952380952381,
LASY1606,5,inv,fs,posfs_id1_im24.bmp_posfs_id3_im8.bmp,['Im_RobertDowneyJr.png', 'Im_BenAffleck.png', 'Im_JustinTimberlake.png', 'Im_RobertPattinson.png', 'Im_KeanuReeves.png', 'Im_RyanGosling.png', 'Im_RyanReynolds.png', 'Im_GeorgeClooney.png', 'Im_OrlandoBloom.png', 'Im_BradPitt.png'],diff,1,0.4665850999999748,36,88.0952380952381,
LASY1606,5,inv,0,pos0_id3_im8.bmp_pos0_id16_im19.bmp,['Im_RobertDowneyJr.png', 'Im_BenAffleck.png', 'Im_JustinTimberlake.png', 'Im_RobertPattinson.png', 'Im_KeanuReeves.png', 'Im_RyanGosling.png', 'Im_RyanReynolds.png', 'Im_GeorgeClooney.png', 'Im_OrlandoBloom.png', 'Im_BradPitt.png'],same,0,0.7759472000002461,36,88.0952380952381,
LASY1606,5,inv,60,pos60_id7_im26.bmp_pos60_id20_im30.bmp,['Im_RobertDowneyJr.png', 'Im_BenAffleck.png', 'Im_JustinTimberlake.png', 'Im_RobertPattinson.png', 'Im_KeanuReeves.png', 'Im_RyanGosling.png', 'Im_RyanReynolds.png', 'Im_GeorgeClooney.png', 'Im_OrlandoBloom.png', 'Im_BradPitt.png'],diff,1,0.6083785000000717,37,88.0952380952381,
LASY1606,5,inv,90,pos90_id1_im24.bmp_pos90_id1_im21.bmp,['Im_RobertDowneyJr.png', 'Im_BenAffleck.png', 'Im_JustinTimberlake.png', 'Im_RobertPattinson.png', 'Im_KeanuReeves.png', 'Im_RyanGosling.png', 'Im_RyanReynolds.png', 'Im_GeorgeClooney.png', 'Im_OrlandoBloom.png', 'Im_BradPitt.png'],diff,0,0.5916674999998577,37,88.0952380952381,
LASY1606,5,inv,150,pos150_id3_im8.bmp_pos150_id3_im17.bmp,['Im_RobertDowneyJr.png', 'Im_BenAffleck.png', 'Im_JustinTimberlake.png', 'Im_RobertPattinson.png', 'Im_KeanuReeves.png', 'Im_RyanGosling.png', 'Im_RyanReynolds.png', 'Im_GeorgeClooney.png', 'Im_OrlandoBloom.png', 'Im_BradPitt.png'],same,1,0.5333569999997962,38,88.0952380952381,
LASY1606,5,inv,0,pos0_id19_im4.bmp_pos0_id7_im26.bmp,['Im_RobertDowneyJr.png', 'Im_BenAffleck.png', 'Im_JustinTimberlake.png', 'Im_RobertPattinson.png', 'Im_KeanuReeves.png', 'Im_RyanGosling.png', 'Im_RyanReynolds.png', 'Im_GeorgeClooney.png', 'Im_OrlandoBloom.png', 'Im_BradPitt.png'],diff,1,0.7500547999998162,39,88.0952380952381,
LASY1606,6,pos,150,pos150_id20_im30.bmp_pos150_id20_im12.bmp,['Im_RobertDowneyJr.png', 'Im_BenAffleck.png', 'Im_JustinTimberlake.png', 'Im_RobertPattinson.png', 'Im_KeanuReeves.png', 'Im_RyanGosling.png', 'Im_RyanReynolds.png', 'Im_GeorgeClooney.png', 'Im_OrlandoBloom.png', 'Im_BradPitt.png'],same,1,0.4833958999997776,1,92.85714285714286,
LASY1606,6,pos,60,pos60_id10_im1.bmp_pos60_id20_im12.bmp,['Im_RobertDowneyJr.png', 'Im_BenAffleck.png', 'Im_JustinTimberlake.png', 'Im_RobertPattinson.png', 'Im_KeanuReeves.png', 'Im_RyanGosling.png', 'Im_RyanReynolds.png', 'Im_GeorgeClooney.png', 'Im_OrlandoBloom.png', 'Im_BradPitt.png'],diff,1,0.9501266000002033,2,92.85714285714286,
LASY1606,6,pos,fs,posfs_id3_im8.bmp_posfs_id16_im19.bmp,['Im_RobertDowneyJr.png', 'Im_BenAffleck.png', 'Im_JustinTimberlake.png', 'Im_RobertPattinson.png', 'Im_KeanuReeves.png', 'Im_RyanGosling.png', 'Im_RyanReynolds.png', 'Im_GeorgeClooney.png', 'Im_OrlandoBloom.png', 'Im_BradPitt.png'],diff,1,1.6918574000001172,3,92.85714285714286,
LASY1606,6,pos,150,pos150_id16_im3.bmp_pos150_id16_im19.bmp,['Im_RobertDowneyJr.png', 'Im_BenAffleck.png', 'Im_JustinTimberlake.png', 'Im_RobertPattinson.png', 'Im_KeanuReeves.png', 'Im_RyanGosling.png', 'Im_RyanReynolds.png', 'Im_GeorgeClooney.png', 'Im_OrlandoBloom.png', 'Im_BradPitt.png'],same,1,0.43333339999981035,4,92.85714285714286,
LASY1606,6,pos,90,pos90_id7_im26.bmp_pos90_id20_im30.bmp,['Im_RobertDowneyJr.png', 'Im_BenAffleck.png', 'Im_JustinTimberlake.png', 'Im_RobertPattinson.png', 'Im_KeanuReeves.png', 'Im_RyanGosling.png', 'Im_RyanReynolds.png', 'Im_GeorgeClooney.png', 'Im_OrlandoBloom.png', 'Im_BradPitt.png'],diff,1,0.4167866999996477,5,92.85714285714286,
LASY1606,6,pos,120,pos120_id7_im14.bmp_pos120_id16_im3.bmp,['Im_RobertDowneyJr.png', 'Im_BenAffleck.png', 'Im_JustinTimberlake.png', 'Im_RobertPattinson.png', 'Im_KeanuReeves.png', 'Im_RyanGosling.png', 'Im_RyanReynolds.png', 'Im_GeorgeClooney.png', 'Im_OrlandoBloom.png', 'Im_BradPitt.png'],diff,1,0.4334374999998545,6,92.85714285714286,
LASY1606,6,pos,30,pos30_id1_im4.bmp_pos30_id1_im21.bmp,['Im_RobertDowneyJr.png', 'Im_BenAffleck.png', 'Im_JustinTimberlake.png', 'Im_RobertPattinson.png', 'Im_KeanuReeves.png', 'Im_RyanGosling.png', 'Im_RyanReynolds.png', 'Im_GeorgeClooney.png', 'Im_OrlandoBloom.png', 'Im_BradPitt.png'],same,1,0.5834439000000202,7,92.85714285714286,
LASY1606,6,pos,60,pos60_id16_im19.bmp_pos60_id3_im8.bmp,['Im_RobertDowneyJr.png', 'Im_BenAffleck.png', 'Im_JustinTimberlake.png', 'Im_RobertPattinson.png', 'Im_KeanuReeves.png', 'Im_RyanGosling.png', 'Im_RyanReynolds.png', 'Im_GeorgeClooney.png', 'Im_OrlandoBloom.png', 'Im_BradPitt.png'],diff,1,0.4248718999997436,8,92.85714285714286,
LASY1606,6,pos,0,pos0_id18_im18.bmp_pos0_id18_im19.bmp,['Im_RobertDowneyJr.png', 'Im_BenAffleck.png', 'Im_JustinTimberlake.png', 'Im_RobertPattinson.png', 'Im_KeanuReeves.png', 'Im_RyanGosling.png', 'Im_RyanReynolds.png', 'Im_GeorgeClooney.png', 'Im_OrlandoBloom.png', 'Im_BradPitt.png'],same,1,0.9418202000001656,9,92.85714285714286,
LASY1606,6,pos,fs,posfs_id11_im10.bmp_posfs_id18_im11.bmp,['Im_RobertDowneyJr.png', 'Im_BenAffleck.png', 'Im_JustinTimberlake.png', 'Im_RobertPattinson.png', 'Im_KeanuReeves.png', 'Im_RyanGosling.png', 'Im_RyanReynolds.png', 'Im_GeorgeClooney.png', 'Im_OrlandoBloom.png', 'Im_BradPitt.png'],diff,1,0.42495469999994384,10,92.85714285714286,
LASY1606,6,pos,90,pos90_id10_im1.bmp_pos90_id10_im18.bmp,['Im_RobertDowneyJr.png', 'Im_BenAffleck.png', 'Im_JustinTimberlake.png', 'Im_RobertPattinson.png', 'Im_KeanuReeves.png', 'Im_RyanGosling.png', 'Im_RyanReynolds.png', 'Im_GeorgeClooney.png', 'Im_OrlandoBloom.png', 'Im_BradPitt.png'],same,1,3.8835064999998394,11,92.85714285714286,
LASY1606,6,pos,30,pos30_id21_im17.bmp_pos30_id21_im16.bmp,['Im_RobertDowneyJr.png', 'Im_BenAffleck.png', 'Im_JustinTimberlake.png', 'Im_RobertPattinson.png', 'Im_KeanuReeves.png', 'Im_RyanGosling.png', 'Im_RyanReynolds.png', 'Im_GeorgeClooney.png', 'Im_OrlandoBloom.png', 'Im_BradPitt.png'],same,1,0.425292399999762,12,92.85714285714286,
LASY1606,6,pos,120,pos120_id10_im17.bmp_pos120_id10_im1.bmp,['Im_RobertDowneyJr.png', 'Im_BenAffleck.png', 'Im_JustinTimberlake.png', 'Im_RobertPattinson.png', 'Im_KeanuReeves.png', 'Im_RyanGosling.png', 'Im_RyanReynolds.png', 'Im_GeorgeClooney.png', 'Im_OrlandoBloom.png', 'Im_BradPitt.png'],same,1,0.4250010000000657,13,92.85714285714286,
LASY1606,6,pos,0,pos0_id1_im21.bmp_pos0_id16_im19.bmp,['Im_RobertDowneyJr.png', 'Im_BenAffleck.png', 'Im_JustinTimberlake.png', 'Im_RobertPattinson.png', 'Im_KeanuReeves.png', 'Im_RyanGosling.png', 'Im_RyanReynolds.png', 'Im_GeorgeClooney.png', 'Im_OrlandoBloom.png', 'Im_BradPitt.png'],diff,1,0.40841439999985596,14,92.85714285714286,
LASY1606,7,inv,120,pos120_id19_im4.bmp_pos120_id19_im8.bmp,['Im_RobertDowneyJr.png', 'Im_BenAffleck.png', 'Im_JustinTimberlake.png', 'Im_RobertPattinson.png', 'Im_KeanuReeves.png', 'Im_RyanGosling.png', 'Im_RyanReynolds.png', 'Im_GeorgeClooney.png', 'Im_OrlandoBloom.png', 'Im_BradPitt.png'],diff,0,0.9335017000003063,14,92.85714285714286,
LASY1606,7,inv,150,pos150_id18_im18.bmp_pos150_id21_im22.bmp,['Im_RobertDowneyJr.png', 'Im_BenAffleck.png', 'Im_JustinTimberlake.png', 'Im_RobertPattinson.png', 'Im_KeanuReeves.png', 'Im_RyanGosling.png', 'Im_RyanReynolds.png', 'Im_GeorgeClooney.png', 'Im_OrlandoBloom.png', 'Im_BradPitt.png'],diff,1,0.4083998999999494,15,92.85714285714286,
LASY1606,7,inv,0,pos0_id3_im8.bmp_pos0_id1_im24.bmp,['Im_RobertDowneyJr.png', 'Im_BenAffleck.png', 'Im_JustinTimberlake.png', 'Im_RobertPattinson.png', 'Im_KeanuReeves.png', 'Im_RyanGosling.png', 'Im_RyanReynolds.png', 'Im_GeorgeClooney.png', 'Im_OrlandoBloom.png', 'Im_BradPitt.png'],same,0,1.4586329000003389,15,92.85714285714286,
LASY1606,7,inv,30,pos30_id16_im19.bmp_pos30_id3_im8.bmp,['Im_RobertDowneyJr.png', 'Im_BenAffleck.png', 'Im_JustinTimberlake.png', 'Im_RobertPattinson.png', 'Im_KeanuReeves.png', 'Im_RyanGosling.png', 'Im_RyanReynolds.png', 'Im_GeorgeClooney.png', 'Im_OrlandoBloom.png', 'Im_BradPitt.png'],diff,1,0.458308699999634,16,92.85714285714286,
LASY1606,7,inv,60,pos60_id16_im19.bmp_pos60_id16_im2.bmp,['Im_RobertDowneyJr.png', 'Im_BenAffleck.png', 'Im_JustinTimberlake.png', 'Im_RobertPattinson.png', 'Im_KeanuReeves.png', 'Im_RyanGosling.png', 'Im_RyanReynolds.png', 'Im_GeorgeClooney.png', 'Im_OrlandoBloom.png', 'Im_BradPitt.png'],same,1,0.9249675999999454,17,92.85714285714286,
LASY1606,7,inv,150,pos150_id18_im19.bmp_pos150_id18_im18.bmp,['Im_RobertDowneyJr.png', 'Im_BenAffleck.png', 'Im_JustinTimberlake.png', 'Im_RobertPattinson.png', 'Im_KeanuReeves.png', 'Im_RyanGosling.png', 'Im_RyanReynolds.png', 'Im_GeorgeClooney.png', 'Im_OrlandoBloom.png', 'Im_BradPitt.png'],diff,0,1.9749997999997504,17,92.85714285714286,
LASY1606,7,inv,60,pos60_id20_im12.bmp_pos60_id20_im3.bmp,['Im_RobertDowneyJr.png', 'Im_BenAffleck.png', 'Im_JustinTimberlake.png', 'Im_RobertPattinson.png', 'Im_KeanuReeves.png', 'Im_RyanGosling.png', 'Im_RyanReynolds.png', 'Im_GeorgeClooney.png', 'Im_OrlandoBloom.png', 'Im_BradPitt.png'],same,1,0.666582699999708,18,92.85714285714286,
LASY1606,7,inv,90,pos90_id19_im27.bmp_pos90_id19_im4.bmp,['Im_RobertDowneyJr.png', 'Im_BenAffleck.png', 'Im_JustinTimberlake.png', 'Im_RobertPattinson.png', 'Im_KeanuReeves.png', 'Im_RyanGosling.png', 'Im_RyanReynolds.png', 'Im_GeorgeClooney.png', 'Im_OrlandoBloom.png', 'Im_BradPitt.png'],same,1,0.6502625000002809,19,92.85714285714286,
LASY1606,7,inv,fs,posfs_id7_im15.bmp_posfs_id7_im14.bmp,['Im_RobertDowneyJr.png', 'Im_BenAffleck.png', 'Im_JustinTimberlake.png', 'Im_RobertPattinson.png', 'Im_KeanuReeves.png', 'Im_RyanGosling.png', 'Im_RyanReynolds.png', 'Im_GeorgeClooney.png', 'Im_OrlandoBloom.png', 'Im_BradPitt.png'],same,1,0.5760966999996526,20,92.85714285714286,
LASY1606,7,inv,90,pos90_id21_im16.bmp_pos90_id19_im27.bmp,['Im_RobertDowneyJr.png', 'Im_BenAffleck.png', 'Im_JustinTimberlake.png', 'Im_RobertPattinson.png', 'Im_KeanuReeves.png', 'Im_RyanGosling.png', 'Im_RyanReynolds.png', 'Im_GeorgeClooney.png', 'Im_OrlandoBloom.png', 'Im_BradPitt.png'],diff,1,0.6082347000001391,21,92.85714285714286,
LASY1606,7,inv,30,pos30_id19_im27.bmp_pos30_id19_im8.bmp,['Im_RobertDowneyJr.png', 'Im_BenAffleck.png', 'Im_JustinTimberlake.png', 'Im_RobertPattinson.png', 'Im_KeanuReeves.png', 'Im_RyanGosling.png', 'Im_RyanReynolds.png', 'Im_GeorgeClooney.png', 'Im_OrlandoBloom.png', 'Im_BradPitt.png'],same,1,1.16688669999985,22,92.85714285714286,
LASY1606,7,inv,fs,posfs_id19_im8.bmp_posfs_id19_im4.bmp,['Im_RobertDowneyJr.png', 'Im_BenAffleck.png', 'Im_JustinTimberlake.png', 'Im_RobertPattinson.png', 'Im_KeanuReeves.png', 'Im_RyanGosling.png', 'Im_RyanReynolds.png', 'Im_GeorgeClooney.png', 'Im_OrlandoBloom.png', 'Im_BradPitt.png'],same,1,0.6252119000000675,23,92.85714285714286,
LASY1606,7,inv,0,pos0_id1_im24.bmp_pos0_id1_im21.bmp,['Im_RobertDowneyJr.png', 'Im_BenAffleck.png', 'Im_JustinTimberlake.png', 'Im_RobertPattinson.png', 'Im_KeanuReeves.png', 'Im_RyanGosling.png', 'Im_RyanReynolds.png', 'Im_GeorgeClooney.png', 'Im_OrlandoBloom.png', 'Im_BradPitt.png'],same,1,0.6835559999999532,24,92.85714285714286,
LASY1606,7,inv,120,pos120_id16_im3.bmp_pos120_id16_im19.bmp,['Im_RobertDowneyJr.png', 'Im_BenAffleck.png', 'Im_JustinTimberlake.png', 'Im_RobertPattinson.png', 'Im_KeanuReeves.png', 'Im_RyanGosling.png', 'Im_RyanReynolds.png', 'Im_GeorgeClooney.png', 'Im_OrlandoBloom.png', 'Im_BradPitt.png'],same,1,0.966762099999869,25,92.85714285714286,
LASY1606,8,neg,60,neg60_id11_im1.bmp_neg60_id11_im10.bmp,['Im_RobertDowneyJr.png', 'Im_BenAffleck.png', 'Im_JustinTimberlake.png', 'Im_RobertPattinson.png', 'Im_KeanuReeves.png', 'Im_RyanGosling.png', 'Im_RyanReynolds.png', 'Im_GeorgeClooney.png', 'Im_OrlandoBloom.png', 'Im_BradPitt.png'],same,1,0.6248556999998982,26,92.85714285714286,
LASY1606,8,neg,90,neg90_id11_im2.bmp_neg90_id10_im18.bmp,['Im_RobertDowneyJr.png', 'Im_BenAffleck.png', 'Im_JustinTimberlake.png', 'Im_RobertPattinson.png', 'Im_KeanuReeves.png', 'Im_RyanGosling.png', 'Im_RyanReynolds.png', 'Im_GeorgeClooney.png', 'Im_OrlandoBloom.png', 'Im_BradPitt.png'],diff,1,0.4667774000004101,27,92.85714285714286,
LASY1606,8,neg,150,neg150_id11_im1.bmp_neg150_id11_im10.bmp,['Im_RobertDowneyJr.png', 'Im_BenAffleck.png', 'Im_JustinTimberlake.png', 'Im_RobertPattinson.png', 'Im_KeanuReeves.png', 'Im_RyanGosling.png', 'Im_RyanReynolds.png', 'Im_GeorgeClooney.png', 'Im_OrlandoBloom.png', 'Im_BradPitt.png'],same,1,0.4336308000001736,28,92.85714285714286,
LASY1606,8,neg,30,neg30_id3_im17.bmp_neg30_id21_im16.bmp,['Im_RobertDowneyJr.png', 'Im_BenAffleck.png', 'Im_JustinTimberlake.png', 'Im_RobertPattinson.png', 'Im_KeanuReeves.png', 'Im_RyanGosling.png', 'Im_RyanReynolds.png', 'Im_GeorgeClooney.png', 'Im_OrlandoBloom.png', 'Im_BradPitt.png'],diff,1,0.5500719000001482,29,92.85714285714286,
LASY1606,8,neg,fs,negfs_id1_im21.bmp_negfs_id1_im4.bmp,['Im_RobertDowneyJr.png', 'Im_BenAffleck.png', 'Im_JustinTimberlake.png', 'Im_RobertPattinson.png', 'Im_KeanuReeves.png', 'Im_RyanGosling.png', 'Im_RyanReynolds.png', 'Im_GeorgeClooney.png', 'Im_OrlandoBloom.png', 'Im_BradPitt.png'],same,1,0.4084509999997863,30,92.85714285714286,
LASY1606,8,neg,150,neg150_id20_im30.bmp_neg150_id18_im11.bmp,['Im_RobertDowneyJr.png', 'Im_BenAffleck.png', 'Im_JustinTimberlake.png', 'Im_RobertPattinson.png', 'Im_KeanuReeves.png', 'Im_RyanGosling.png', 'Im_RyanReynolds.png', 'Im_GeorgeClooney.png', 'Im_OrlandoBloom.png', 'Im_BradPitt.png'],diff,1,0.6252329000003556,31,92.85714285714286,
LASY1606,8,neg,120,neg120_id1_im21.bmp_neg120_id1_im24.bmp,['Im_RobertDowneyJr.png', 'Im_BenAffleck.png', 'Im_JustinTimberlake.png', 'Im_RobertPattinson.png', 'Im_KeanuReeves.png', 'Im_RyanGosling.png', 'Im_RyanReynolds.png', 'Im_GeorgeClooney.png', 'Im_OrlandoBloom.png', 'Im_BradPitt.png'],same,1,0.7085008000003654,32,92.85714285714286,
LASY1606,8,neg,60,neg60_id7_im15.bmp_neg60_id7_im26.bmp,['Im_RobertDowneyJr.png', 'Im_BenAffleck.png', 'Im_JustinTimberlake.png', 'Im_RobertPattinson.png', 'Im_KeanuReeves.png', 'Im_RyanGosling.png', 'Im_RyanReynolds.png', 'Im_GeorgeClooney.png', 'Im_OrlandoBloom.png', 'Im_BradPitt.png'],same,1,0.6667776999997841,33,92.85714285714286,
LASY1606,8,neg,120,neg120_id19_im8.bmp_neg120_id16_im3.bmp,['Im_RobertDowneyJr.png', 'Im_BenAffleck.png', 'Im_JustinTimberlake.png', 'Im_RobertPattinson.png', 'Im_KeanuReeves.png', 'Im_RyanGosling.png', 'Im_RyanReynolds.png', 'Im_GeorgeClooney.png', 'Im_OrlandoBloom.png', 'Im_BradPitt.png'],diff,1,0.5416817000000265,34,92.85714285714286,
LASY1606,8,neg,30,neg30_id1_im21.bmp_neg30_id1_im24.bmp,['Im_RobertDowneyJr.png', 'Im_BenAffleck.png', 'Im_JustinTimberlake.png', 'Im_RobertPattinson.png', 'Im_KeanuReeves.png', 'Im_RyanGosling.png', 'Im_RyanReynolds.png', 'Im_GeorgeClooney.png', 'Im_OrlandoBloom.png', 'Im_BradPitt.png'],same,1,0.4167546999997285,35,92.85714285714286,
LASY1606,8,neg,0,neg0_id11_im2.bmp_neg0_id10_im18.bmp,['Im_RobertDowneyJr.png', 'Im_BenAffleck.png', 'Im_JustinTimberlake.png', 'Im_RobertPattinson.png', 'Im_KeanuReeves.png', 'Im_RyanGosling.png', 'Im_RyanReynolds.png', 'Im_GeorgeClooney.png', 'Im_OrlandoBloom.png', 'Im_BradPitt.png'],diff,1,0.49187750000010055,36,92.85714285714286,
LASY1606,8,neg,0,neg0_id21_im16.bmp_neg0_id19_im27.bmp,['Im_RobertDowneyJr.png', 'Im_BenAffleck.png', 'Im_JustinTimberlake.png', 'Im_RobertPattinson.png', 'Im_KeanuReeves.png', 'Im_RyanGosling.png', 'Im_RyanReynolds.png', 'Im_GeorgeClooney.png', 'Im_OrlandoBloom.png', 'Im_BradPitt.png'],diff,1,0.7998532999999952,37,92.85714285714286,
LASY1606,8,neg,fs,negfs_id7_im14.bmp_negfs_id16_im3.bmp,['Im_RobertDowneyJr.png', 'Im_BenAffleck.png', 'Im_JustinTimberlake.png', 'Im_RobertPattinson.png', 'Im_KeanuReeves.png', 'Im_RyanGosling.png', 'Im_RyanReynolds.png', 'Im_GeorgeClooney.png', 'Im_OrlandoBloom.png', 'Im_BradPitt.png'],diff,1,0.6334161999998287,38,92.85714285714286,
LASY1606,8,neg,90,neg90_id20_im12.bmp_neg90_id20_im30.bmp,['Im_RobertDowneyJr.png', 'Im_BenAffleck.png', 'Im_JustinTimberlake.png', 'Im_RobertPattinson.png', 'Im_KeanuReeves.png', 'Im_RyanGosling.png', 'Im_RyanReynolds.png', 'Im_GeorgeClooney.png', 'Im_OrlandoBloom.png', 'Im_BradPitt.png'],same,1,0.425016599999708,39,92.85714285714286,
LASY1606,9,pos,120,pos120_id19_im8.bmp_pos120_id11_im1.bmp,['Im_RobertDowneyJr.png', 'Im_BenAffleck.png', 'Im_JustinTimberlake.png', 'Im_RobertPattinson.png', 'Im_KeanuReeves.png', 'Im_RyanGosling.png', 'Im_RyanReynolds.png', 'Im_GeorgeClooney.png', 'Im_OrlandoBloom.png', 'Im_BradPitt.png'],diff,1,0.6751623000000109,1,92.85714285714286,
LASY1606,9,pos,fs,posfs_id20_im3.bmp_posfs_id20_im30.bmp,['Im_RobertDowneyJr.png', 'Im_BenAffleck.png', 'Im_JustinTimberlake.png', 'Im_RobertPattinson.png', 'Im_KeanuReeves.png', 'Im_RyanGosling.png', 'Im_RyanReynolds.png', 'Im_GeorgeClooney.png', 'Im_OrlandoBloom.png', 'Im_BradPitt.png'],same,1,0.4082985000000008,2,92.85714285714286,
LASY1606,9,pos,120,pos120_id7_im14.bmp_pos120_id21_im17.bmp,['Im_RobertDowneyJr.png', 'Im_BenAffleck.png', 'Im_JustinTimberlake.png', 'Im_RobertPattinson.png', 'Im_KeanuReeves.png', 'Im_RyanGosling.png', 'Im_RyanReynolds.png', 'Im_GeorgeClooney.png', 'Im_OrlandoBloom.png', 'Im_BradPitt.png'],diff,1,0.6916635999996288,3,92.85714285714286,
LASY1606,9,pos,60,pos60_id7_im15.bmp_pos60_id19_im4.bmp,['Im_RobertDowneyJr.png', 'Im_BenAffleck.png', 'Im_JustinTimberlake.png', 'Im_RobertPattinson.png', 'Im_KeanuReeves.png', 'Im_RyanGosling.png', 'Im_RyanReynolds.png', 'Im_GeorgeClooney.png', 'Im_OrlandoBloom.png', 'Im_BradPitt.png'],diff,1,0.43336509999971895,4,92.85714285714286,
LASY1606,9,pos,90,pos90_id21_im17.bmp_pos90_id21_im22.bmp,['Im_RobertDowneyJr.png', 'Im_BenAffleck.png', 'Im_JustinTimberlake.png', 'Im_RobertPattinson.png', 'Im_KeanuReeves.png', 'Im_RyanGosling.png', 'Im_RyanReynolds.png', 'Im_GeorgeClooney.png', 'Im_OrlandoBloom.png', 'Im_BradPitt.png'],same,1,0.5166730000000825,5,92.85714285714286,
LASY1606,9,pos,90,pos90_id1_im4.bmp_pos90_id1_im24.bmp,['Im_RobertDowneyJr.png', 'Im_BenAffleck.png', 'Im_JustinTimberlake.png', 'Im_RobertPattinson.png', 'Im_KeanuReeves.png', 'Im_RyanGosling.png', 'Im_RyanReynolds.png', 'Im_GeorgeClooney.png', 'Im_OrlandoBloom.png', 'Im_BradPitt.png'],same,1,0.41679930000009335,6,92.85714285714286,
LASY1606,9,pos,0,pos0_id3_im8.bmp_pos0_id3_im6.bmp,['Im_RobertDowneyJr.png', 'Im_BenAffleck.png', 'Im_JustinTimberlake.png', 'Im_RobertPattinson.png', 'Im_KeanuReeves.png', 'Im_RyanGosling.png', 'Im_RyanReynolds.png', 'Im_GeorgeClooney.png', 'Im_OrlandoBloom.png', 'Im_BradPitt.png'],same,1,0.42511719999993147,7,92.85714285714286,
LASY1606,9,pos,fs,posfs_id10_im1.bmp_posfs_id3_im17.bmp,['Im_RobertDowneyJr.png', 'Im_BenAffleck.png', 'Im_JustinTimberlake.png', 'Im_RobertPattinson.png', 'Im_KeanuReeves.png', 'Im_RyanGosling.png', 'Im_RyanReynolds.png', 'Im_GeorgeClooney.png', 'Im_OrlandoBloom.png', 'Im_BradPitt.png'],diff,1,3.7500648000000183,8,92.85714285714286,
LASY1606,9,pos,30,pos30_id11_im2.bmp_pos30_id11_im10.bmp,['Im_RobertDowneyJr.png', 'Im_BenAffleck.png', 'Im_JustinTimberlake.png', 'Im_RobertPattinson.png', 'Im_KeanuReeves.png', 'Im_RyanGosling.png', 'Im_RyanReynolds.png', 'Im_GeorgeClooney.png', 'Im_OrlandoBloom.png', 'Im_BradPitt.png'],same,1,0.42503620000024966,9,92.85714285714286,
LASY1606,9,pos,150,pos150_id7_im14.bmp_pos150_id7_im15.bmp,['Im_RobertDowneyJr.png', 'Im_BenAffleck.png', 'Im_JustinTimberlake.png', 'Im_RobertPattinson.png', 'Im_KeanuReeves.png', 'Im_RyanGosling.png', 'Im_RyanReynolds.png', 'Im_GeorgeClooney.png', 'Im_OrlandoBloom.png', 'Im_BradPitt.png'],same,1,0.4584157999997842,10,92.85714285714286,
LASY1606,9,pos,150,pos150_id3_im6.bmp_pos150_id3_im8.bmp,['Im_RobertDowneyJr.png', 'Im_BenAffleck.png', 'Im_JustinTimberlake.png', 'Im_RobertPattinson.png', 'Im_KeanuReeves.png', 'Im_RyanGosling.png', 'Im_RyanReynolds.png', 'Im_GeorgeClooney.png', 'Im_OrlandoBloom.png', 'Im_BradPitt.png'],same,1,0.7419364000002133,11,92.85714285714286,
LASY1606,9,pos,60,pos60_id21_im22.bmp_pos60_id18_im19.bmp,['Im_RobertDowneyJr.png', 'Im_BenAffleck.png', 'Im_JustinTimberlake.png', 'Im_RobertPattinson.png', 'Im_KeanuReeves.png', 'Im_RyanGosling.png', 'Im_RyanReynolds.png', 'Im_GeorgeClooney.png', 'Im_OrlandoBloom.png', 'Im_BradPitt.png'],diff,1,0.42514600000004066,12,92.85714285714286,
LASY1606,9,pos,30,pos30_id16_im19.bmp_pos30_id1_im21.bmp,['Im_RobertDowneyJr.png', 'Im_BenAffleck.png', 'Im_JustinTimberlake.png', 'Im_RobertPattinson.png', 'Im_KeanuReeves.png', 'Im_RyanGosling.png', 'Im_RyanReynolds.png', 'Im_GeorgeClooney.png', 'Im_OrlandoBloom.png', 'Im_BradPitt.png'],same,0,1.3665860000000976,12,92.85714285714286,
