Sujet,Trial,Condition,Filter,Imname,Actor0,Actor1,Actor2,Actor3,Actor4,Actor5,Actor6,Actor7,Actor8,Actor9,Answer,Accu,RT,Score,Scoreperc, 
MAEL2812,train,pos,0,pos0_id19_im8.bmp_pos0_id19_im27.bmp,['Im_LeonardoDiCaprio.png', 'Im_BenAffleck.png', 'Im_BradPitt.png', 'Im_RobertDowneyJr.png', 'Im_RobertPattinson.png', 'Im_OrlandoBloom.png', 'Im_HughJackman.png', 'Im_MattDamon.png', 'Im_ElijahWood.png', 'Im_RyanReynolds.png'],same,1,0.4996778999993694,1,0,
MAEL2812,train,pos,90,pos90_id14_im18.bmp_pos90_id18_im11.bmp,['Im_LeonardoDiCaprio.png', 'Im_BenAffleck.png', 'Im_BradPitt.png', 'Im_RobertDowneyJr.png', 'Im_RobertPattinson.png', 'Im_OrlandoBloom.png', 'Im_HughJackman.png', 'Im_MattDamon.png', 'Im_ElijahWood.png', 'Im_RyanReynolds.png'],diff,1,0.6997592999996414,2,0,
MAEL2812,train,pos,30,pos30_id19_im27.bmp_pos30_id3_im17.bmp,['Im_LeonardoDiCaprio.png', 'Im_BenAffleck.png', 'Im_BradPitt.png', 'Im_RobertDowneyJr.png', 'Im_RobertPattinson.png', 'Im_OrlandoBloom.png', 'Im_HughJackman.png', 'Im_MattDamon.png', 'Im_ElijahWood.png', 'Im_RyanReynolds.png'],diff,1,0.4171160999994754,3,0,
MAEL2812,train,pos,fs,posfs_id21_im22.bmp_posfs_id8_im21.bmp,['Im_LeonardoDiCaprio.png', 'Im_BenAffleck.png', 'Im_BradPitt.png', 'Im_RobertDowneyJr.png', 'Im_RobertPattinson.png', 'Im_OrlandoBloom.png', 'Im_HughJackman.png', 'Im_MattDamon.png', 'Im_ElijahWood.png', 'Im_RyanReynolds.png'],diff,1,0.41687520000050426,4,0,
MAEL2812,train,pos,60,pos60_id14_im16.bmp_pos60_id14_im24.bmp,['Im_LeonardoDiCaprio.png', 'Im_BenAffleck.png', 'Im_BradPitt.png', 'Im_RobertDowneyJr.png', 'Im_RobertPattinson.png', 'Im_OrlandoBloom.png', 'Im_HughJackman.png', 'Im_MattDamon.png', 'Im_ElijahWood.png', 'Im_RyanReynolds.png'],same,1,0.4168446000003314,5,0,
MAEL2812,train,pos,90,pos90_id8_im13.bmp_pos90_id8_im21.bmp,['Im_LeonardoDiCaprio.png', 'Im_BenAffleck.png', 'Im_BradPitt.png', 'Im_RobertDowneyJr.png', 'Im_RobertPattinson.png', 'Im_OrlandoBloom.png', 'Im_HughJackman.png', 'Im_MattDamon.png', 'Im_ElijahWood.png', 'Im_RyanReynolds.png'],same,1,0.6167205999990983,6,0,
MAEL2812,train,pos,150,pos150_id19_im4.bmp_pos150_id8_im21.bmp,['Im_LeonardoDiCaprio.png', 'Im_BenAffleck.png', 'Im_BradPitt.png', 'Im_RobertDowneyJr.png', 'Im_RobertPattinson.png', 'Im_OrlandoBloom.png', 'Im_HughJackman.png', 'Im_MattDamon.png', 'Im_ElijahWood.png', 'Im_RyanReynolds.png'],diff,1,0.4419244999990042,7,0,
MAEL2812,train,pos,fs,posfs_id14_im16.bmp_posfs_id19_im8.bmp,['Im_LeonardoDiCaprio.png', 'Im_BenAffleck.png', 'Im_BradPitt.png', 'Im_RobertDowneyJr.png', 'Im_RobertPattinson.png', 'Im_OrlandoBloom.png', 'Im_HughJackman.png', 'Im_MattDamon.png', 'Im_ElijahWood.png', 'Im_RyanReynolds.png'],diff,1,0.41673070000069856,8,0,
MAEL2812,train,pos,150,pos150_id6_im12.bmp_pos150_id3_im17.bmp,['Im_LeonardoDiCaprio.png', 'Im_BenAffleck.png', 'Im_BradPitt.png', 'Im_RobertDowneyJr.png', 'Im_RobertPattinson.png', 'Im_OrlandoBloom.png', 'Im_HughJackman.png', 'Im_MattDamon.png', 'Im_ElijahWood.png', 'Im_RyanReynolds.png'],diff,1,0.4085145000008197,9,0,
MAEL2812,train,pos,0,pos0_id16_im2.bmp_pos0_id16_im3.bmp,['Im_LeonardoDiCaprio.png', 'Im_BenAffleck.png', 'Im_BradPitt.png', 'Im_RobertDowneyJr.png', 'Im_RobertPattinson.png', 'Im_OrlandoBloom.png', 'Im_HughJackman.png', 'Im_MattDamon.png', 'Im_ElijahWood.png', 'Im_RyanReynolds.png'],same,1,0.41666779999832215,10,0,
MAEL2812,train,pos,30,pos30_id6_im12.bmp_pos30_id6_im19.bmp,['Im_LeonardoDiCaprio.png', 'Im_BenAffleck.png', 'Im_BradPitt.png', 'Im_RobertDowneyJr.png', 'Im_RobertPattinson.png', 'Im_OrlandoBloom.png', 'Im_HughJackman.png', 'Im_MattDamon.png', 'Im_ElijahWood.png', 'Im_RyanReynolds.png'],same,1,0.40018249999957334,11,0,
MAEL2812,train,pos,120,pos120_id19_im27.bmp_pos120_id19_im8.bmp,['Im_LeonardoDiCaprio.png', 'Im_BenAffleck.png', 'Im_BradPitt.png', 'Im_RobertDowneyJr.png', 'Im_RobertPattinson.png', 'Im_OrlandoBloom.png', 'Im_HughJackman.png', 'Im_MattDamon.png', 'Im_ElijahWood.png', 'Im_RyanReynolds.png'],same,1,0.3998934000010195,12,0,
MAEL2812,train,pos,120,pos120_id21_im17.bmp_pos120_id21_im22.bmp,['Im_LeonardoDiCaprio.png', 'Im_BenAffleck.png', 'Im_BradPitt.png', 'Im_RobertDowneyJr.png', 'Im_RobertPattinson.png', 'Im_OrlandoBloom.png', 'Im_HughJackman.png', 'Im_MattDamon.png', 'Im_ElijahWood.png', 'Im_RyanReynolds.png'],same,1,0.4165772999986075,13,0,
MAEL2812,train,pos,60,pos60_id3_im8.bmp_pos60_id18_im18.bmp,['Im_LeonardoDiCaprio.png', 'Im_BenAffleck.png', 'Im_BradPitt.png', 'Im_RobertDowneyJr.png', 'Im_RobertPattinson.png', 'Im_OrlandoBloom.png', 'Im_HughJackman.png', 'Im_MattDamon.png', 'Im_ElijahWood.png', 'Im_RyanReynolds.png'],diff,1,0.5501843000001827,14,0,
MAEL2812,train,pos,30,pos30_id18_im18.bmp_pos30_id18_im19.bmp,['Im_LeonardoDiCaprio.png', 'Im_BenAffleck.png', 'Im_BradPitt.png', 'Im_RobertDowneyJr.png', 'Im_RobertPattinson.png', 'Im_OrlandoBloom.png', 'Im_HughJackman.png', 'Im_MattDamon.png', 'Im_ElijahWood.png', 'Im_RyanReynolds.png'],same,1,0.666766500000449,15,0,
MAEL2812,train,pos,90,pos90_id16_im19.bmp_pos90_id16_im3.bmp,['Im_LeonardoDiCaprio.png', 'Im_BenAffleck.png', 'Im_BradPitt.png', 'Im_RobertDowneyJr.png', 'Im_RobertPattinson.png', 'Im_OrlandoBloom.png', 'Im_HughJackman.png', 'Im_MattDamon.png', 'Im_ElijahWood.png', 'Im_RyanReynolds.png'],same,1,0.4081358999992517,16,0,
MAEL2812,train,pos,90,pos90_id13_im29.bmp_pos90_id1_im4.bmp,['Im_LeonardoDiCaprio.png', 'Im_BenAffleck.png', 'Im_BradPitt.png', 'Im_RobertDowneyJr.png', 'Im_RobertPattinson.png', 'Im_OrlandoBloom.png', 'Im_HughJackman.png', 'Im_MattDamon.png', 'Im_ElijahWood.png', 'Im_RyanReynolds.png'],diff,1,0.39987850000034086,17,0,
MAEL2812,train,pos,150,pos150_id3_im17.bmp_pos150_id3_im8.bmp,['Im_LeonardoDiCaprio.png', 'Im_BenAffleck.png', 'Im_BradPitt.png', 'Im_RobertDowneyJr.png', 'Im_RobertPattinson.png', 'Im_OrlandoBloom.png', 'Im_HughJackman.png', 'Im_MattDamon.png', 'Im_ElijahWood.png', 'Im_RyanReynolds.png'],same,1,0.6003600000003644,18,0,
MAEL2812,train,pos,60,pos60_id1_im24.bmp_pos60_id1_im4.bmp,['Im_LeonardoDiCaprio.png', 'Im_BenAffleck.png', 'Im_BradPitt.png', 'Im_RobertDowneyJr.png', 'Im_RobertPattinson.png', 'Im_OrlandoBloom.png', 'Im_HughJackman.png', 'Im_MattDamon.png', 'Im_ElijahWood.png', 'Im_RyanReynolds.png'],same,1,0.40823439999985567,19,0,
MAEL2812,train,pos,60,pos60_id21_im16.bmp_pos60_id21_im17.bmp,['Im_LeonardoDiCaprio.png', 'Im_BenAffleck.png', 'Im_BradPitt.png', 'Im_RobertDowneyJr.png', 'Im_RobertPattinson.png', 'Im_OrlandoBloom.png', 'Im_HughJackman.png', 'Im_MattDamon.png', 'Im_ElijahWood.png', 'Im_RyanReynolds.png'],same,1,0.408402400000341,20,0,
MAEL2812,train,pos,0,pos0_id3_im6.bmp_pos0_id8_im13.bmp,['Im_LeonardoDiCaprio.png', 'Im_BenAffleck.png', 'Im_BradPitt.png', 'Im_RobertDowneyJr.png', 'Im_RobertPattinson.png', 'Im_OrlandoBloom.png', 'Im_HughJackman.png', 'Im_MattDamon.png', 'Im_ElijahWood.png', 'Im_RyanReynolds.png'],diff,1,0.40019460000075924,21,0,
MAEL2812,train,pos,150,pos150_id16_im2.bmp_pos150_id14_im16.bmp,['Im_LeonardoDiCaprio.png', 'Im_BenAffleck.png', 'Im_BradPitt.png', 'Im_RobertDowneyJr.png', 'Im_RobertPattinson.png', 'Im_OrlandoBloom.png', 'Im_HughJackman.png', 'Im_MattDamon.png', 'Im_ElijahWood.png', 'Im_RyanReynolds.png'],diff,1,0.40839149999919755,22,0,
MAEL2812,train,pos,fs,posfs_id21_im16.bmp_posfs_id14_im24.bmp,['Im_LeonardoDiCaprio.png', 'Im_BenAffleck.png', 'Im_BradPitt.png', 'Im_RobertDowneyJr.png', 'Im_RobertPattinson.png', 'Im_OrlandoBloom.png', 'Im_HughJackman.png', 'Im_MattDamon.png', 'Im_ElijahWood.png', 'Im_RyanReynolds.png'],diff,1,0.4085201000016241,23,0,
MAEL2812,train,pos,120,pos120_id21_im17.bmp_pos120_id13_im15.bmp,['Im_LeonardoDiCaprio.png', 'Im_BenAffleck.png', 'Im_BradPitt.png', 'Im_RobertDowneyJr.png', 'Im_RobertPattinson.png', 'Im_OrlandoBloom.png', 'Im_HughJackman.png', 'Im_MattDamon.png', 'Im_ElijahWood.png', 'Im_RyanReynolds.png'],diff,1,0.40819920000103593,24,0,
MAEL2812,train,pos,120,pos120_id8_im13.bmp_pos120_id3_im6.bmp,['Im_LeonardoDiCaprio.png', 'Im_BenAffleck.png', 'Im_BradPitt.png', 'Im_RobertDowneyJr.png', 'Im_RobertPattinson.png', 'Im_OrlandoBloom.png', 'Im_HughJackman.png', 'Im_MattDamon.png', 'Im_ElijahWood.png', 'Im_RyanReynolds.png'],diff,1,0.40845079999962763,25,0,
MAEL2812,train,pos,fs,posfs_id6_im19.bmp_posfs_id6_im18.bmp,['Im_LeonardoDiCaprio.png', 'Im_BenAffleck.png', 'Im_BradPitt.png', 'Im_RobertDowneyJr.png', 'Im_RobertPattinson.png', 'Im_OrlandoBloom.png', 'Im_HughJackman.png', 'Im_MattDamon.png', 'Im_ElijahWood.png', 'Im_RyanReynolds.png'],same,1,0.4085038000011991,26,0,
MAEL2812,train,pos,0,pos0_id13_im15.bmp_pos0_id21_im17.bmp,['Im_LeonardoDiCaprio.png', 'Im_BenAffleck.png', 'Im_BradPitt.png', 'Im_RobertDowneyJr.png', 'Im_RobertPattinson.png', 'Im_OrlandoBloom.png', 'Im_HughJackman.png', 'Im_MattDamon.png', 'Im_ElijahWood.png', 'Im_RyanReynolds.png'],diff,1,0.4085267999998905,27,0,
MAEL2812,train,pos,30,pos30_id6_im12.bmp_pos30_id6_im18.bmp,['Im_LeonardoDiCaprio.png', 'Im_BenAffleck.png', 'Im_BradPitt.png', 'Im_RobertDowneyJr.png', 'Im_RobertPattinson.png', 'Im_OrlandoBloom.png', 'Im_HughJackman.png', 'Im_MattDamon.png', 'Im_ElijahWood.png', 'Im_RyanReynolds.png'],same,1,0.4168785999991087,28,0,
MAEL2812,train,inv,150,pos150_id1_im24.bmp_pos150_id6_im18.bmp,['Im_LeonardoDiCaprio.png', 'Im_BenAffleck.png', 'Im_BradPitt.png', 'Im_RobertDowneyJr.png', 'Im_RobertPattinson.png', 'Im_OrlandoBloom.png', 'Im_HughJackman.png', 'Im_MattDamon.png', 'Im_ElijahWood.png', 'Im_RyanReynolds.png'],diff,1,0.7169389999999112,29,0,
MAEL2812,train,inv,120,pos120_id8_im21.bmp_pos120_id8_im13.bmp,['Im_LeonardoDiCaprio.png', 'Im_BenAffleck.png', 'Im_BradPitt.png', 'Im_RobertDowneyJr.png', 'Im_RobertPattinson.png', 'Im_OrlandoBloom.png', 'Im_HughJackman.png', 'Im_MattDamon.png', 'Im_ElijahWood.png', 'Im_RyanReynolds.png'],same,1,0.8419340000000375,30,0,
MAEL2812,train,inv,90,pos90_id21_im17.bmp_pos90_id13_im15.bmp,['Im_LeonardoDiCaprio.png', 'Im_BenAffleck.png', 'Im_BradPitt.png', 'Im_RobertDowneyJr.png', 'Im_RobertPattinson.png', 'Im_OrlandoBloom.png', 'Im_HughJackman.png', 'Im_MattDamon.png', 'Im_ElijahWood.png', 'Im_RyanReynolds.png'],diff,1,1.2333759000011923,31,0,
MAEL2812,train,inv,0,pos0_id1_im21.bmp_pos0_id16_im19.bmp,['Im_LeonardoDiCaprio.png', 'Im_BenAffleck.png', 'Im_BradPitt.png', 'Im_RobertDowneyJr.png', 'Im_RobertPattinson.png', 'Im_OrlandoBloom.png', 'Im_HughJackman.png', 'Im_MattDamon.png', 'Im_ElijahWood.png', 'Im_RyanReynolds.png'],diff,1,0.5584689999996044,32,0,
MAEL2812,train,inv,30,pos30_id8_im20.bmp_pos30_id19_im4.bmp,['Im_LeonardoDiCaprio.png', 'Im_BenAffleck.png', 'Im_BradPitt.png', 'Im_RobertDowneyJr.png', 'Im_RobertPattinson.png', 'Im_OrlandoBloom.png', 'Im_HughJackman.png', 'Im_MattDamon.png', 'Im_ElijahWood.png', 'Im_RyanReynolds.png'],diff,1,0.9667650999999751,33,0,
MAEL2812,train,inv,0,pos0_id19_im27.bmp_pos0_id19_im4.bmp,['Im_LeonardoDiCaprio.png', 'Im_BenAffleck.png', 'Im_BradPitt.png', 'Im_RobertDowneyJr.png', 'Im_RobertPattinson.png', 'Im_OrlandoBloom.png', 'Im_HughJackman.png', 'Im_MattDamon.png', 'Im_ElijahWood.png', 'Im_RyanReynolds.png'],same,1,0.8501489999998739,34,0,
MAEL2812,train,inv,90,pos90_id8_im20.bmp_pos90_id8_im13.bmp,['Im_LeonardoDiCaprio.png', 'Im_BenAffleck.png', 'Im_BradPitt.png', 'Im_RobertDowneyJr.png', 'Im_RobertPattinson.png', 'Im_OrlandoBloom.png', 'Im_HughJackman.png', 'Im_MattDamon.png', 'Im_ElijahWood.png', 'Im_RyanReynolds.png'],same,1,0.7168347999995603,35,0,
MAEL2812,train,inv,30,pos30_id19_im27.bmp_pos30_id19_im4.bmp,['Im_LeonardoDiCaprio.png', 'Im_BenAffleck.png', 'Im_BradPitt.png', 'Im_RobertDowneyJr.png', 'Im_RobertPattinson.png', 'Im_OrlandoBloom.png', 'Im_HughJackman.png', 'Im_MattDamon.png', 'Im_ElijahWood.png', 'Im_RyanReynolds.png'],same,1,0.5329986000015197,36,0,
MAEL2812,train,inv,120,pos120_id1_im21.bmp_pos120_id1_im24.bmp,['Im_LeonardoDiCaprio.png', 'Im_BenAffleck.png', 'Im_BradPitt.png', 'Im_RobertDowneyJr.png', 'Im_RobertPattinson.png', 'Im_OrlandoBloom.png', 'Im_HughJackman.png', 'Im_MattDamon.png', 'Im_ElijahWood.png', 'Im_RyanReynolds.png'],same,1,0.39980190000096627,37,0,
MAEL2812,train,inv,60,pos60_id3_im8.bmp_pos60_id3_im17.bmp,['Im_LeonardoDiCaprio.png', 'Im_BenAffleck.png', 'Im_BradPitt.png', 'Im_RobertDowneyJr.png', 'Im_RobertPattinson.png', 'Im_OrlandoBloom.png', 'Im_HughJackman.png', 'Im_MattDamon.png', 'Im_ElijahWood.png', 'Im_RyanReynolds.png'],diff,0,0.4168941999996605,37,0,
MAEL2812,train,inv,fs,posfs_id18_im11.bmp_posfs_id18_im19.bmp,['Im_LeonardoDiCaprio.png', 'Im_BenAffleck.png', 'Im_BradPitt.png', 'Im_RobertDowneyJr.png', 'Im_RobertPattinson.png', 'Im_OrlandoBloom.png', 'Im_HughJackman.png', 'Im_MattDamon.png', 'Im_ElijahWood.png', 'Im_RyanReynolds.png'],same,1,0.766775799998868,38,0,
MAEL2812,train,inv,150,pos150_id14_im18.bmp_pos150_id18_im11.bmp,['Im_LeonardoDiCaprio.png', 'Im_BenAffleck.png', 'Im_BradPitt.png', 'Im_RobertDowneyJr.png', 'Im_RobertPattinson.png', 'Im_OrlandoBloom.png', 'Im_HughJackman.png', 'Im_MattDamon.png', 'Im_ElijahWood.png', 'Im_RyanReynolds.png'],same,0,0.4829325999999128,38,0,
MAEL2812,train,inv,fs,posfs_id16_im3.bmp_posfs_id16_im2.bmp,['Im_LeonardoDiCaprio.png', 'Im_BenAffleck.png', 'Im_BradPitt.png', 'Im_RobertDowneyJr.png', 'Im_RobertPattinson.png', 'Im_OrlandoBloom.png', 'Im_HughJackman.png', 'Im_MattDamon.png', 'Im_ElijahWood.png', 'Im_RyanReynolds.png'],same,1,0.40846480000072916,39,0,
MAEL2812,train,inv,60,pos60_id16_im3.bmp_pos60_id16_im19.bmp,['Im_LeonardoDiCaprio.png', 'Im_BenAffleck.png', 'Im_BradPitt.png', 'Im_RobertDowneyJr.png', 'Im_RobertPattinson.png', 'Im_OrlandoBloom.png', 'Im_HughJackman.png', 'Im_MattDamon.png', 'Im_ElijahWood.png', 'Im_RyanReynolds.png'],same,1,0.9005603000005067,40,0,
MAEL2812,train,neg,30,neg30_id1_im24.bmp_neg30_id6_im19.bmp,['Im_LeonardoDiCaprio.png', 'Im_BenAffleck.png', 'Im_BradPitt.png', 'Im_RobertDowneyJr.png', 'Im_RobertPattinson.png', 'Im_OrlandoBloom.png', 'Im_HughJackman.png', 'Im_MattDamon.png', 'Im_ElijahWood.png', 'Im_RyanReynolds.png'],diff,1,2.26727960000062,1,95.23809523809524,
MAEL2812,train,neg,90,neg90_id16_im3.bmp_neg90_id8_im13.bmp,['Im_LeonardoDiCaprio.png', 'Im_BenAffleck.png', 'Im_BradPitt.png', 'Im_RobertDowneyJr.png', 'Im_RobertPattinson.png', 'Im_OrlandoBloom.png', 'Im_HughJackman.png', 'Im_MattDamon.png', 'Im_ElijahWood.png', 'Im_RyanReynolds.png'],diff,1,0.41670020000128716,2,95.23809523809524,
MAEL2812,train,neg,90,neg90_id18_im19.bmp_neg90_id21_im17.bmp,['Im_LeonardoDiCaprio.png', 'Im_BenAffleck.png', 'Im_BradPitt.png', 'Im_RobertDowneyJr.png', 'Im_RobertPattinson.png', 'Im_OrlandoBloom.png', 'Im_HughJackman.png', 'Im_MattDamon.png', 'Im_ElijahWood.png', 'Im_RyanReynolds.png'],same,0,0.43338009999934,2,95.23809523809524,
MAEL2812,train,neg,120,neg120_id3_im17.bmp_neg120_id6_im12.bmp,['Im_LeonardoDiCaprio.png', 'Im_BenAffleck.png', 'Im_BradPitt.png', 'Im_RobertDowneyJr.png', 'Im_RobertPattinson.png', 'Im_OrlandoBloom.png', 'Im_HughJackman.png', 'Im_MattDamon.png', 'Im_ElijahWood.png', 'Im_RyanReynolds.png'],diff,1,0.3998848999999609,3,95.23809523809524,
MAEL2812,train,neg,60,neg60_id19_im4.bmp_neg60_id19_im8.bmp,['Im_LeonardoDiCaprio.png', 'Im_BenAffleck.png', 'Im_BradPitt.png', 'Im_RobertDowneyJr.png', 'Im_RobertPattinson.png', 'Im_OrlandoBloom.png', 'Im_HughJackman.png', 'Im_MattDamon.png', 'Im_ElijahWood.png', 'Im_RyanReynolds.png'],diff,0,1.2250313999993523,3,95.23809523809524,
MAEL2812,train,neg,150,neg150_id6_im18.bmp_neg150_id6_im12.bmp,['Im_LeonardoDiCaprio.png', 'Im_BenAffleck.png', 'Im_BradPitt.png', 'Im_RobertDowneyJr.png', 'Im_RobertPattinson.png', 'Im_OrlandoBloom.png', 'Im_HughJackman.png', 'Im_MattDamon.png', 'Im_ElijahWood.png', 'Im_RyanReynolds.png'],same,1,0.5836402000004455,4,95.23809523809524,
MAEL2812,train,neg,0,neg0_id8_im20.bmp_neg0_id8_im21.bmp,['Im_LeonardoDiCaprio.png', 'Im_BenAffleck.png', 'Im_BradPitt.png', 'Im_RobertDowneyJr.png', 'Im_RobertPattinson.png', 'Im_OrlandoBloom.png', 'Im_HughJackman.png', 'Im_MattDamon.png', 'Im_ElijahWood.png', 'Im_RyanReynolds.png'],same,1,0.41653109999970184,5,95.23809523809524,
MAEL2812,train,neg,0,neg0_id13_im10.bmp_neg0_id6_im12.bmp,['Im_LeonardoDiCaprio.png', 'Im_BenAffleck.png', 'Im_BradPitt.png', 'Im_RobertDowneyJr.png', 'Im_RobertPattinson.png', 'Im_OrlandoBloom.png', 'Im_HughJackman.png', 'Im_MattDamon.png', 'Im_ElijahWood.png', 'Im_RyanReynolds.png'],diff,1,0.40835750000042026,6,95.23809523809524,
MAEL2812,train,neg,fs,negfs_id21_im17.bmp_negfs_id21_im16.bmp,['Im_LeonardoDiCaprio.png', 'Im_BenAffleck.png', 'Im_BradPitt.png', 'Im_RobertDowneyJr.png', 'Im_RobertPattinson.png', 'Im_OrlandoBloom.png', 'Im_HughJackman.png', 'Im_MattDamon.png', 'Im_ElijahWood.png', 'Im_RyanReynolds.png'],same,1,0.41668720000052417,7,95.23809523809524,
MAEL2812,train,neg,60,neg60_id1_im24.bmp_neg60_id6_im19.bmp,['Im_LeonardoDiCaprio.png', 'Im_BenAffleck.png', 'Im_BradPitt.png', 'Im_RobertDowneyJr.png', 'Im_RobertPattinson.png', 'Im_OrlandoBloom.png', 'Im_HughJackman.png', 'Im_MattDamon.png', 'Im_ElijahWood.png', 'Im_RyanReynolds.png'],diff,1,0.41653670000050624,8,95.23809523809524,
MAEL2812,train,neg,30,neg30_id8_im13.bmp_neg30_id8_im21.bmp,['Im_LeonardoDiCaprio.png', 'Im_BenAffleck.png', 'Im_BradPitt.png', 'Im_RobertDowneyJr.png', 'Im_RobertPattinson.png', 'Im_OrlandoBloom.png', 'Im_HughJackman.png', 'Im_MattDamon.png', 'Im_ElijahWood.png', 'Im_RyanReynolds.png'],same,1,0.4835505999999441,9,95.23809523809524,
MAEL2812,train,neg,fs,negfs_id8_im20.bmp_negfs_id1_im21.bmp,['Im_LeonardoDiCaprio.png', 'Im_BenAffleck.png', 'Im_BradPitt.png', 'Im_RobertDowneyJr.png', 'Im_RobertPattinson.png', 'Im_OrlandoBloom.png', 'Im_HughJackman.png', 'Im_MattDamon.png', 'Im_ElijahWood.png', 'Im_RyanReynolds.png'],diff,1,0.408191500000612,10,95.23809523809524,
MAEL2812,train,neg,120,neg120_id21_im16.bmp_neg120_id21_im22.bmp,['Im_LeonardoDiCaprio.png', 'Im_BenAffleck.png', 'Im_BradPitt.png', 'Im_RobertDowneyJr.png', 'Im_RobertPattinson.png', 'Im_OrlandoBloom.png', 'Im_HughJackman.png', 'Im_MattDamon.png', 'Im_ElijahWood.png', 'Im_RyanReynolds.png'],same,1,0.41677789999994275,11,95.23809523809524,
MAEL2812,train,neg,150,neg150_id13_im15.bmp_neg150_id21_im17.bmp,['Im_LeonardoDiCaprio.png', 'Im_BenAffleck.png', 'Im_BradPitt.png', 'Im_RobertDowneyJr.png', 'Im_RobertPattinson.png', 'Im_OrlandoBloom.png', 'Im_HughJackman.png', 'Im_MattDamon.png', 'Im_ElijahWood.png', 'Im_RyanReynolds.png'],diff,1,0.408365600000252,12,95.23809523809524,
MAEL2812,train,neg,30,neg30_id16_im19.bmp_neg30_id1_im21.bmp,['Im_LeonardoDiCaprio.png', 'Im_BenAffleck.png', 'Im_BradPitt.png', 'Im_RobertDowneyJr.png', 'Im_RobertPattinson.png', 'Im_OrlandoBloom.png', 'Im_HughJackman.png', 'Im_MattDamon.png', 'Im_ElijahWood.png', 'Im_RyanReynolds.png'],diff,1,0.41665549999925133,13,95.23809523809524,
MAEL2812,train,neg,90,neg90_id6_im18.bmp_neg90_id6_im19.bmp,['Im_LeonardoDiCaprio.png', 'Im_BenAffleck.png', 'Im_BradPitt.png', 'Im_RobertDowneyJr.png', 'Im_RobertPattinson.png', 'Im_OrlandoBloom.png', 'Im_HughJackman.png', 'Im_MattDamon.png', 'Im_ElijahWood.png', 'Im_RyanReynolds.png'],same,1,0.4165054999994027,14,95.23809523809524,
MAEL2812,train,neg,150,neg150_id8_im13.bmp_neg150_id8_im20.bmp,['Im_LeonardoDiCaprio.png', 'Im_BenAffleck.png', 'Im_BradPitt.png', 'Im_RobertDowneyJr.png', 'Im_RobertPattinson.png', 'Im_OrlandoBloom.png', 'Im_HughJackman.png', 'Im_MattDamon.png', 'Im_ElijahWood.png', 'Im_RyanReynolds.png'],same,1,0.39992679999886604,15,95.23809523809524,
MAEL2812,train,neg,0,neg0_id16_im3.bmp_neg0_id8_im13.bmp,['Im_LeonardoDiCaprio.png', 'Im_BenAffleck.png', 'Im_BradPitt.png', 'Im_RobertDowneyJr.png', 'Im_RobertPattinson.png', 'Im_OrlandoBloom.png', 'Im_HughJackman.png', 'Im_MattDamon.png', 'Im_ElijahWood.png', 'Im_RyanReynolds.png'],diff,1,0.3998745000008057,16,95.23809523809524,
MAEL2812,train,neg,0,neg0_id14_im24.bmp_neg0_id14_im16.bmp,['Im_LeonardoDiCaprio.png', 'Im_BenAffleck.png', 'Im_BradPitt.png', 'Im_RobertDowneyJr.png', 'Im_RobertPattinson.png', 'Im_OrlandoBloom.png', 'Im_HughJackman.png', 'Im_MattDamon.png', 'Im_ElijahWood.png', 'Im_RyanReynolds.png'],diff,0,0.8083756000014546,16,95.23809523809524,
MAEL2812,train,neg,60,neg60_id3_im8.bmp_neg60_id18_im18.bmp,['Im_LeonardoDiCaprio.png', 'Im_BenAffleck.png', 'Im_BradPitt.png', 'Im_RobertDowneyJr.png', 'Im_RobertPattinson.png', 'Im_OrlandoBloom.png', 'Im_HughJackman.png', 'Im_MattDamon.png', 'Im_ElijahWood.png', 'Im_RyanReynolds.png'],same,0,1.4918128000008437,16,95.23809523809524,
MAEL2812,train,neg,150,neg150_id16_im3.bmp_neg150_id16_im2.bmp,['Im_LeonardoDiCaprio.png', 'Im_BenAffleck.png', 'Im_BradPitt.png', 'Im_RobertDowneyJr.png', 'Im_RobertPattinson.png', 'Im_OrlandoBloom.png', 'Im_HughJackman.png', 'Im_MattDamon.png', 'Im_ElijahWood.png', 'Im_RyanReynolds.png'],diff,0,0.8666680999995151,16,95.23809523809524,
MAEL2812,train,neg,30,neg30_id16_im2.bmp_neg30_id16_im3.bmp,['Im_LeonardoDiCaprio.png', 'Im_BenAffleck.png', 'Im_BradPitt.png', 'Im_RobertDowneyJr.png', 'Im_RobertPattinson.png', 'Im_OrlandoBloom.png', 'Im_HughJackman.png', 'Im_MattDamon.png', 'Im_ElijahWood.png', 'Im_RyanReynolds.png'],same,1,0.41665420000026643,17,95.23809523809524,
MAEL2812,train,neg,fs,negfs_id13_im15.bmp_negfs_id13_im10.bmp,['Im_LeonardoDiCaprio.png', 'Im_BenAffleck.png', 'Im_BradPitt.png', 'Im_RobertDowneyJr.png', 'Im_RobertPattinson.png', 'Im_OrlandoBloom.png', 'Im_HughJackman.png', 'Im_MattDamon.png', 'Im_ElijahWood.png', 'Im_RyanReynolds.png'],same,1,0.41669940000065253,18,95.23809523809524,
MAEL2812,train,neg,fs,negfs_id13_im29.bmp_negfs_id14_im24.bmp,['Im_LeonardoDiCaprio.png', 'Im_BenAffleck.png', 'Im_BradPitt.png', 'Im_RobertDowneyJr.png', 'Im_RobertPattinson.png', 'Im_OrlandoBloom.png', 'Im_HughJackman.png', 'Im_MattDamon.png', 'Im_ElijahWood.png', 'Im_RyanReynolds.png'],diff,1,0.4166908000006515,19,95.23809523809524,
MAEL2812,train,neg,60,neg60_id1_im21.bmp_neg60_id16_im19.bmp,['Im_LeonardoDiCaprio.png', 'Im_BenAffleck.png', 'Im_BradPitt.png', 'Im_RobertDowneyJr.png', 'Im_RobertPattinson.png', 'Im_OrlandoBloom.png', 'Im_HughJackman.png', 'Im_MattDamon.png', 'Im_ElijahWood.png', 'Im_RyanReynolds.png'],diff,1,0.41674720000082743,20,95.23809523809524,
MAEL2812,train,neg,120,neg120_id6_im12.bmp_neg120_id6_im19.bmp,['Im_LeonardoDiCaprio.png', 'Im_BenAffleck.png', 'Im_BradPitt.png', 'Im_RobertDowneyJr.png', 'Im_RobertPattinson.png', 'Im_OrlandoBloom.png', 'Im_HughJackman.png', 'Im_MattDamon.png', 'Im_ElijahWood.png', 'Im_RyanReynolds.png'],same,1,0.8003901000010956,21,95.23809523809524,
MAEL2812,train,neg,90,neg90_id8_im21.bmp_neg90_id8_im13.bmp,['Im_LeonardoDiCaprio.png', 'Im_BenAffleck.png', 'Im_BradPitt.png', 'Im_RobertDowneyJr.png', 'Im_RobertPattinson.png', 'Im_OrlandoBloom.png', 'Im_HughJackman.png', 'Im_MattDamon.png', 'Im_ElijahWood.png', 'Im_RyanReynolds.png'],same,1,0.41671690000111994,22,95.23809523809524,
MAEL2812,train,neg,120,neg120_id3_im8.bmp_neg120_id18_im18.bmp,['Im_LeonardoDiCaprio.png', 'Im_BenAffleck.png', 'Im_BradPitt.png', 'Im_RobertDowneyJr.png', 'Im_RobertPattinson.png', 'Im_OrlandoBloom.png', 'Im_HughJackman.png', 'Im_MattDamon.png', 'Im_ElijahWood.png', 'Im_RyanReynolds.png'],diff,1,0.5083502999987104,23,95.23809523809524,
MAEL2812,train,inv,150,pos150_id13_im15.bmp_pos150_id21_im17.bmp,['Im_LeonardoDiCaprio.png', 'Im_BenAffleck.png', 'Im_BradPitt.png', 'Im_RobertDowneyJr.png', 'Im_RobertPattinson.png', 'Im_OrlandoBloom.png', 'Im_HughJackman.png', 'Im_MattDamon.png', 'Im_ElijahWood.png', 'Im_RyanReynolds.png'],diff,1,0.5082980000006501,24,95.23809523809524,
MAEL2812,train,inv,0,pos0_id3_im6.bmp_pos0_id8_im13.bmp,['Im_LeonardoDiCaprio.png', 'Im_BenAffleck.png', 'Im_BradPitt.png', 'Im_RobertDowneyJr.png', 'Im_RobertPattinson.png', 'Im_OrlandoBloom.png', 'Im_HughJackman.png', 'Im_MattDamon.png', 'Im_ElijahWood.png', 'Im_RyanReynolds.png'],same,0,0.43356560000029276,24,95.23809523809524,
MAEL2812,train,inv,60,pos60_id19_im4.bmp_pos60_id8_im20.bmp,['Im_LeonardoDiCaprio.png', 'Im_BenAffleck.png', 'Im_BradPitt.png', 'Im_RobertDowneyJr.png', 'Im_RobertPattinson.png', 'Im_OrlandoBloom.png', 'Im_HughJackman.png', 'Im_MattDamon.png', 'Im_ElijahWood.png', 'Im_RyanReynolds.png'],diff,1,1.1002416999999696,25,95.23809523809524,
MAEL2812,train,inv,150,pos150_id18_im11.bmp_pos150_id21_im22.bmp,['Im_LeonardoDiCaprio.png', 'Im_BenAffleck.png', 'Im_BradPitt.png', 'Im_RobertDowneyJr.png', 'Im_RobertPattinson.png', 'Im_OrlandoBloom.png', 'Im_HughJackman.png', 'Im_MattDamon.png', 'Im_ElijahWood.png', 'Im_RyanReynolds.png'],diff,1,1.3500063999999838,26,95.23809523809524,
MAEL2812,train,inv,fs,posfs_id3_im8.bmp_posfs_id3_im6.bmp,['Im_LeonardoDiCaprio.png', 'Im_BenAffleck.png', 'Im_BradPitt.png', 'Im_RobertDowneyJr.png', 'Im_RobertPattinson.png', 'Im_OrlandoBloom.png', 'Im_HughJackman.png', 'Im_MattDamon.png', 'Im_ElijahWood.png', 'Im_RyanReynolds.png'],same,1,1.1666624000008596,27,95.23809523809524,
MAEL2812,train,inv,30,pos30_id6_im12.bmp_pos30_id6_im18.bmp,['Im_LeonardoDiCaprio.png', 'Im_BenAffleck.png', 'Im_BradPitt.png', 'Im_RobertDowneyJr.png', 'Im_RobertPattinson.png', 'Im_OrlandoBloom.png', 'Im_HughJackman.png', 'Im_MattDamon.png', 'Im_ElijahWood.png', 'Im_RyanReynolds.png'],same,1,0.5086115000012796,28,95.23809523809524,
MAEL2812,train,inv,0,pos0_id21_im16.bmp_pos0_id21_im17.bmp,['Im_LeonardoDiCaprio.png', 'Im_BenAffleck.png', 'Im_BradPitt.png', 'Im_RobertDowneyJr.png', 'Im_RobertPattinson.png', 'Im_OrlandoBloom.png', 'Im_HughJackman.png', 'Im_MattDamon.png', 'Im_ElijahWood.png', 'Im_RyanReynolds.png'],same,1,0.46673379999992903,29,95.23809523809524,
MAEL2812,train,inv,90,pos90_id8_im21.bmp_pos90_id21_im22.bmp,['Im_LeonardoDiCaprio.png', 'Im_BenAffleck.png', 'Im_BradPitt.png', 'Im_RobertDowneyJr.png', 'Im_RobertPattinson.png', 'Im_OrlandoBloom.png', 'Im_HughJackman.png', 'Im_MattDamon.png', 'Im_ElijahWood.png', 'Im_RyanReynolds.png'],diff,1,0.8503569999993488,30,95.23809523809524,
MAEL2812,train,inv,90,pos90_id8_im20.bmp_pos90_id8_im21.bmp,['Im_LeonardoDiCaprio.png', 'Im_BenAffleck.png', 'Im_BradPitt.png', 'Im_RobertDowneyJr.png', 'Im_RobertPattinson.png', 'Im_OrlandoBloom.png', 'Im_HughJackman.png', 'Im_MattDamon.png', 'Im_ElijahWood.png', 'Im_RyanReynolds.png'],same,1,0.7588703999990685,31,95.23809523809524,
MAEL2812,train,inv,fs,posfs_id18_im11.bmp_posfs_id14_im18.bmp,['Im_LeonardoDiCaprio.png', 'Im_BenAffleck.png', 'Im_BradPitt.png', 'Im_RobertDowneyJr.png', 'Im_RobertPattinson.png', 'Im_OrlandoBloom.png', 'Im_HughJackman.png', 'Im_MattDamon.png', 'Im_ElijahWood.png', 'Im_RyanReynolds.png'],diff,1,0.40841269999873475,32,95.23809523809524,
MAEL2812,train,inv,120,pos120_id21_im17.bmp_pos120_id13_im15.bmp,['Im_LeonardoDiCaprio.png', 'Im_BenAffleck.png', 'Im_BradPitt.png', 'Im_RobertDowneyJr.png', 'Im_RobertPattinson.png', 'Im_OrlandoBloom.png', 'Im_HughJackman.png', 'Im_MattDamon.png', 'Im_ElijahWood.png', 'Im_RyanReynolds.png'],diff,1,0.4915342000003875,33,95.23809523809524,
MAEL2812,train,inv,60,pos60_id1_im24.bmp_pos60_id1_im4.bmp,['Im_LeonardoDiCaprio.png', 'Im_BenAffleck.png', 'Im_BradPitt.png', 'Im_RobertDowneyJr.png', 'Im_RobertPattinson.png', 'Im_OrlandoBloom.png', 'Im_HughJackman.png', 'Im_MattDamon.png', 'Im_ElijahWood.png', 'Im_RyanReynolds.png'],diff,0,0.7083495999995648,33,95.23809523809524,
MAEL2812,train,inv,30,pos30_id3_im8.bmp_pos30_id18_im18.bmp,['Im_LeonardoDiCaprio.png', 'Im_BenAffleck.png', 'Im_BradPitt.png', 'Im_RobertDowneyJr.png', 'Im_RobertPattinson.png', 'Im_OrlandoBloom.png', 'Im_HughJackman.png', 'Im_MattDamon.png', 'Im_ElijahWood.png', 'Im_RyanReynolds.png'],same,0,1.466344399999798,33,95.23809523809524,
MAEL2812,train,inv,120,pos120_id16_im2.bmp_pos120_id6_im18.bmp,['Im_LeonardoDiCaprio.png', 'Im_BenAffleck.png', 'Im_BradPitt.png', 'Im_RobertDowneyJr.png', 'Im_RobertPattinson.png', 'Im_OrlandoBloom.png', 'Im_HughJackman.png', 'Im_MattDamon.png', 'Im_ElijahWood.png', 'Im_RyanReynolds.png'],same,0,0.5335823999994318,33,95.23809523809524,
MAEL2812,0,neg,fs,negfs_id14_im18.bmp_negfs_id14_im24.bmp,['Im_LeonardoDiCaprio.png', 'Im_BenAffleck.png', 'Im_BradPitt.png', 'Im_RobertDowneyJr.png', 'Im_RobertPattinson.png', 'Im_OrlandoBloom.png', 'Im_HughJackman.png', 'Im_MattDamon.png', 'Im_ElijahWood.png', 'Im_RyanReynolds.png'],same,1,0.4083509000010963,1,0,
MAEL2812,0,neg,30,neg30_id19_im8.bmp_neg30_id14_im16.bmp,['Im_LeonardoDiCaprio.png', 'Im_BenAffleck.png', 'Im_BradPitt.png', 'Im_RobertDowneyJr.png', 'Im_RobertPattinson.png', 'Im_OrlandoBloom.png', 'Im_HughJackman.png', 'Im_MattDamon.png', 'Im_ElijahWood.png', 'Im_RyanReynolds.png'],same,0,1.0335424999993847,1,0,
MAEL2812,0,neg,60,neg60_id1_im21.bmp_neg60_id1_im4.bmp,['Im_LeonardoDiCaprio.png', 'Im_BenAffleck.png', 'Im_BradPitt.png', 'Im_RobertDowneyJr.png', 'Im_RobertPattinson.png', 'Im_OrlandoBloom.png', 'Im_HughJackman.png', 'Im_MattDamon.png', 'Im_ElijahWood.png', 'Im_RyanReynolds.png'],same,1,0.40006889999858686,2,0,
MAEL2812,0,neg,0,neg0_id16_im3.bmp_neg0_id16_im2.bmp,['Im_LeonardoDiCaprio.png', 'Im_BenAffleck.png', 'Im_BradPitt.png', 'Im_RobertDowneyJr.png', 'Im_RobertPattinson.png', 'Im_OrlandoBloom.png', 'Im_HughJackman.png', 'Im_MattDamon.png', 'Im_ElijahWood.png', 'Im_RyanReynolds.png'],same,1,0.9833742999999231,3,0,
MAEL2812,0,neg,fs,negfs_id14_im18.bmp_negfs_id19_im27.bmp,['Im_LeonardoDiCaprio.png', 'Im_BenAffleck.png', 'Im_BradPitt.png', 'Im_RobertDowneyJr.png', 'Im_RobertPattinson.png', 'Im_OrlandoBloom.png', 'Im_HughJackman.png', 'Im_MattDamon.png', 'Im_ElijahWood.png', 'Im_RyanReynolds.png'],diff,1,0.40846760000022186,4,0,
MAEL2812,0,neg,150,neg150_id16_im2.bmp_neg150_id16_im19.bmp,['Im_LeonardoDiCaprio.png', 'Im_BenAffleck.png', 'Im_BradPitt.png', 'Im_RobertDowneyJr.png', 'Im_RobertPattinson.png', 'Im_OrlandoBloom.png', 'Im_HughJackman.png', 'Im_MattDamon.png', 'Im_ElijahWood.png', 'Im_RyanReynolds.png'],same,1,0.40008080000006885,5,0,
MAEL2812,0,neg,0,neg0_id21_im22.bmp_neg0_id8_im21.bmp,['Im_LeonardoDiCaprio.png', 'Im_BenAffleck.png', 'Im_BradPitt.png', 'Im_RobertDowneyJr.png', 'Im_RobertPattinson.png', 'Im_OrlandoBloom.png', 'Im_HughJackman.png', 'Im_MattDamon.png', 'Im_ElijahWood.png', 'Im_RyanReynolds.png'],diff,1,0.4084043000002566,6,0,
MAEL2812,0,neg,60,neg60_id3_im6.bmp_neg60_id3_im17.bmp,['Im_LeonardoDiCaprio.png', 'Im_BenAffleck.png', 'Im_BradPitt.png', 'Im_RobertDowneyJr.png', 'Im_RobertPattinson.png', 'Im_OrlandoBloom.png', 'Im_HughJackman.png', 'Im_MattDamon.png', 'Im_ElijahWood.png', 'Im_RyanReynolds.png'],same,1,0.39991660000123375,7,0,
MAEL2812,0,neg,120,neg120_id3_im17.bmp_neg120_id3_im8.bmp,['Im_LeonardoDiCaprio.png', 'Im_BenAffleck.png', 'Im_BradPitt.png', 'Im_RobertDowneyJr.png', 'Im_RobertPattinson.png', 'Im_OrlandoBloom.png', 'Im_HughJackman.png', 'Im_MattDamon.png', 'Im_ElijahWood.png', 'Im_RyanReynolds.png'],same,1,0.4083511999997427,8,0,
MAEL2812,0,neg,90,neg90_id13_im15.bmp_neg90_id13_im10.bmp,['Im_LeonardoDiCaprio.png', 'Im_BenAffleck.png', 'Im_BradPitt.png', 'Im_RobertDowneyJr.png', 'Im_RobertPattinson.png', 'Im_OrlandoBloom.png', 'Im_HughJackman.png', 'Im_MattDamon.png', 'Im_ElijahWood.png', 'Im_RyanReynolds.png'],same,1,0.41677749999871594,9,0,
MAEL2812,0,neg,150,neg150_id14_im18.bmp_neg150_id19_im27.bmp,['Im_LeonardoDiCaprio.png', 'Im_BenAffleck.png', 'Im_BradPitt.png', 'Im_RobertDowneyJr.png', 'Im_RobertPattinson.png', 'Im_OrlandoBloom.png', 'Im_HughJackman.png', 'Im_MattDamon.png', 'Im_ElijahWood.png', 'Im_RyanReynolds.png'],diff,1,0.4084077999996225,10,0,
MAEL2812,0,neg,30,neg30_id18_im19.bmp_neg30_id18_im11.bmp,['Im_LeonardoDiCaprio.png', 'Im_BenAffleck.png', 'Im_BradPitt.png', 'Im_RobertDowneyJr.png', 'Im_RobertPattinson.png', 'Im_OrlandoBloom.png', 'Im_HughJackman.png', 'Im_MattDamon.png', 'Im_ElijahWood.png', 'Im_RyanReynolds.png'],same,1,0.4085664000012912,11,0,
MAEL2812,0,neg,90,neg90_id6_im18.bmp_neg90_id1_im24.bmp,['Im_LeonardoDiCaprio.png', 'Im_BenAffleck.png', 'Im_BradPitt.png', 'Im_RobertDowneyJr.png', 'Im_RobertPattinson.png', 'Im_OrlandoBloom.png', 'Im_HughJackman.png', 'Im_MattDamon.png', 'Im_ElijahWood.png', 'Im_RyanReynolds.png'],diff,1,0.4083176000003732,12,0,
MAEL2812,0,neg,120,neg120_id8_im21.bmp_neg120_id19_im4.bmp,['Im_LeonardoDiCaprio.png', 'Im_BenAffleck.png', 'Im_BradPitt.png', 'Im_RobertDowneyJr.png', 'Im_RobertPattinson.png', 'Im_OrlandoBloom.png', 'Im_HughJackman.png', 'Im_MattDamon.png', 'Im_ElijahWood.png', 'Im_RyanReynolds.png'],diff,1,0.9087140999999974,13,0,
MAEL2812,1,pos,60,pos60_id6_im18.bmp_pos60_id6_im12.bmp,['Im_LeonardoDiCaprio.png', 'Im_BenAffleck.png', 'Im_BradPitt.png', 'Im_RobertDowneyJr.png', 'Im_RobertPattinson.png', 'Im_OrlandoBloom.png', 'Im_HughJackman.png', 'Im_MattDamon.png', 'Im_ElijahWood.png', 'Im_RyanReynolds.png'],same,1,0.425087399999029,14,0,
MAEL2812,1,pos,90,pos90_id13_im10.bmp_pos90_id13_im29.bmp,['Im_LeonardoDiCaprio.png', 'Im_BenAffleck.png', 'Im_BradPitt.png', 'Im_RobertDowneyJr.png', 'Im_RobertPattinson.png', 'Im_OrlandoBloom.png', 'Im_HughJackman.png', 'Im_MattDamon.png', 'Im_ElijahWood.png', 'Im_RyanReynolds.png'],same,1,0.41686809999919205,15,0,
MAEL2812,1,pos,fs,posfs_id21_im16.bmp_posfs_id21_im22.bmp,['Im_LeonardoDiCaprio.png', 'Im_BenAffleck.png', 'Im_BradPitt.png', 'Im_RobertDowneyJr.png', 'Im_RobertPattinson.png', 'Im_OrlandoBloom.png', 'Im_HughJackman.png', 'Im_MattDamon.png', 'Im_ElijahWood.png', 'Im_RyanReynolds.png'],same,1,0.4168686999983038,16,0,
MAEL2812,1,pos,60,pos60_id18_im11.bmp_pos60_id18_im19.bmp,['Im_LeonardoDiCaprio.png', 'Im_BenAffleck.png', 'Im_BradPitt.png', 'Im_RobertDowneyJr.png', 'Im_RobertPattinson.png', 'Im_OrlandoBloom.png', 'Im_HughJackman.png', 'Im_MattDamon.png', 'Im_ElijahWood.png', 'Im_RyanReynolds.png'],same,1,0.4167355999998108,17,0,
MAEL2812,1,pos,0,pos0_id13_im15.bmp_pos0_id13_im10.bmp,['Im_LeonardoDiCaprio.png', 'Im_BenAffleck.png', 'Im_BradPitt.png', 'Im_RobertDowneyJr.png', 'Im_RobertPattinson.png', 'Im_OrlandoBloom.png', 'Im_HughJackman.png', 'Im_MattDamon.png', 'Im_ElijahWood.png', 'Im_RyanReynolds.png'],same,1,0.4166936000001442,18,0,
MAEL2812,1,pos,90,pos90_id21_im22.bmp_pos90_id18_im11.bmp,['Im_LeonardoDiCaprio.png', 'Im_BenAffleck.png', 'Im_BradPitt.png', 'Im_RobertDowneyJr.png', 'Im_RobertPattinson.png', 'Im_OrlandoBloom.png', 'Im_HughJackman.png', 'Im_MattDamon.png', 'Im_ElijahWood.png', 'Im_RyanReynolds.png'],diff,1,0.41672400000061316,19,0,
MAEL2812,1,pos,150,pos150_id14_im18.bmp_pos150_id14_im24.bmp,['Im_LeonardoDiCaprio.png', 'Im_BenAffleck.png', 'Im_BradPitt.png', 'Im_RobertDowneyJr.png', 'Im_RobertPattinson.png', 'Im_OrlandoBloom.png', 'Im_HughJackman.png', 'Im_MattDamon.png', 'Im_ElijahWood.png', 'Im_RyanReynolds.png'],same,1,0.42507839999962016,20,0,
MAEL2812,1,pos,30,pos30_id3_im6.bmp_pos30_id3_im17.bmp,['Im_LeonardoDiCaprio.png', 'Im_BenAffleck.png', 'Im_BradPitt.png', 'Im_RobertDowneyJr.png', 'Im_RobertPattinson.png', 'Im_OrlandoBloom.png', 'Im_HughJackman.png', 'Im_MattDamon.png', 'Im_ElijahWood.png', 'Im_RyanReynolds.png'],same,1,0.41675779999968654,21,0,
MAEL2812,1,pos,30,pos30_id19_im8.bmp_pos30_id19_im27.bmp,['Im_LeonardoDiCaprio.png', 'Im_BenAffleck.png', 'Im_BradPitt.png', 'Im_RobertDowneyJr.png', 'Im_RobertPattinson.png', 'Im_OrlandoBloom.png', 'Im_HughJackman.png', 'Im_MattDamon.png', 'Im_ElijahWood.png', 'Im_RyanReynolds.png'],same,1,0.41659379999873636,22,0,
MAEL2812,1,pos,0,pos0_id6_im18.bmp_pos0_id1_im24.bmp,['Im_LeonardoDiCaprio.png', 'Im_BenAffleck.png', 'Im_BradPitt.png', 'Im_RobertDowneyJr.png', 'Im_RobertPattinson.png', 'Im_OrlandoBloom.png', 'Im_HughJackman.png', 'Im_MattDamon.png', 'Im_ElijahWood.png', 'Im_RyanReynolds.png'],diff,1,0.4167505000004894,23,0,
MAEL2812,1,pos,fs,posfs_id18_im19.bmp_posfs_id18_im18.bmp,['Im_LeonardoDiCaprio.png', 'Im_BenAffleck.png', 'Im_BradPitt.png', 'Im_RobertDowneyJr.png', 'Im_RobertPattinson.png', 'Im_OrlandoBloom.png', 'Im_HughJackman.png', 'Im_MattDamon.png', 'Im_ElijahWood.png', 'Im_RyanReynolds.png'],same,1,0.43338500000027125,24,0,
MAEL2812,1,pos,120,pos120_id3_im17.bmp_pos120_id3_im6.bmp,['Im_LeonardoDiCaprio.png', 'Im_BenAffleck.png', 'Im_BradPitt.png', 'Im_RobertDowneyJr.png', 'Im_RobertPattinson.png', 'Im_OrlandoBloom.png', 'Im_HughJackman.png', 'Im_MattDamon.png', 'Im_ElijahWood.png', 'Im_RyanReynolds.png'],same,1,0.4334354999991774,25,0,
MAEL2812,1,pos,150,pos150_id18_im19.bmp_pos150_id21_im17.bmp,['Im_LeonardoDiCaprio.png', 'Im_BenAffleck.png', 'Im_BradPitt.png', 'Im_RobertDowneyJr.png', 'Im_RobertPattinson.png', 'Im_OrlandoBloom.png', 'Im_HughJackman.png', 'Im_MattDamon.png', 'Im_ElijahWood.png', 'Im_RyanReynolds.png'],diff,1,0.40841270000055374,26,0,
MAEL2812,1,pos,120,pos120_id3_im17.bmp_pos120_id19_im27.bmp,['Im_LeonardoDiCaprio.png', 'Im_BenAffleck.png', 'Im_BradPitt.png', 'Im_RobertDowneyJr.png', 'Im_RobertPattinson.png', 'Im_OrlandoBloom.png', 'Im_HughJackman.png', 'Im_MattDamon.png', 'Im_ElijahWood.png', 'Im_RyanReynolds.png'],diff,1,0.4252436000006128,27,0,
MAEL2812,2,neg,0,neg0_id14_im24.bmp_neg0_id21_im16.bmp,['Im_LeonardoDiCaprio.png', 'Im_BenAffleck.png', 'Im_BradPitt.png', 'Im_RobertDowneyJr.png', 'Im_RobertPattinson.png', 'Im_OrlandoBloom.png', 'Im_HughJackman.png', 'Im_MattDamon.png', 'Im_ElijahWood.png', 'Im_RyanReynolds.png'],diff,1,1.283550699999978,28,0,
MAEL2812,2,neg,120,neg120_id1_im21.bmp_neg120_id1_im24.bmp,['Im_LeonardoDiCaprio.png', 'Im_BenAffleck.png', 'Im_BradPitt.png', 'Im_RobertDowneyJr.png', 'Im_RobertPattinson.png', 'Im_OrlandoBloom.png', 'Im_HughJackman.png', 'Im_MattDamon.png', 'Im_ElijahWood.png', 'Im_RyanReynolds.png'],same,1,0.4167728000011266,29,0,
MAEL2812,2,neg,60,neg60_id21_im17.bmp_neg60_id18_im19.bmp,['Im_LeonardoDiCaprio.png', 'Im_BenAffleck.png', 'Im_BradPitt.png', 'Im_RobertDowneyJr.png', 'Im_RobertPattinson.png', 'Im_OrlandoBloom.png', 'Im_HughJackman.png', 'Im_MattDamon.png', 'Im_ElijahWood.png', 'Im_RyanReynolds.png'],diff,1,0.40839100000084727,30,0,
MAEL2812,2,neg,150,neg150_id18_im19.bmp_neg150_id3_im8.bmp,['Im_LeonardoDiCaprio.png', 'Im_BenAffleck.png', 'Im_BradPitt.png', 'Im_RobertDowneyJr.png', 'Im_RobertPattinson.png', 'Im_OrlandoBloom.png', 'Im_HughJackman.png', 'Im_MattDamon.png', 'Im_ElijahWood.png', 'Im_RyanReynolds.png'],diff,1,0.41672120000112045,31,0,
MAEL2812,2,neg,fs,negfs_id18_im19.bmp_negfs_id18_im11.bmp,['Im_LeonardoDiCaprio.png', 'Im_BenAffleck.png', 'Im_BradPitt.png', 'Im_RobertDowneyJr.png', 'Im_RobertPattinson.png', 'Im_OrlandoBloom.png', 'Im_HughJackman.png', 'Im_MattDamon.png', 'Im_ElijahWood.png', 'Im_RyanReynolds.png'],same,1,0.4419311999990896,32,0,
MAEL2812,2,neg,0,neg0_id1_im24.bmp_neg0_id6_im19.bmp,['Im_LeonardoDiCaprio.png', 'Im_BenAffleck.png', 'Im_BradPitt.png', 'Im_RobertDowneyJr.png', 'Im_RobertPattinson.png', 'Im_OrlandoBloom.png', 'Im_HughJackman.png', 'Im_MattDamon.png', 'Im_ElijahWood.png', 'Im_RyanReynolds.png'],diff,1,0.558792199999516,33,0,
MAEL2812,2,neg,120,neg120_id3_im17.bmp_neg120_id3_im6.bmp,['Im_LeonardoDiCaprio.png', 'Im_BenAffleck.png', 'Im_BradPitt.png', 'Im_RobertDowneyJr.png', 'Im_RobertPattinson.png', 'Im_OrlandoBloom.png', 'Im_HughJackman.png', 'Im_MattDamon.png', 'Im_ElijahWood.png', 'Im_RyanReynolds.png'],same,1,0.4084333000009792,34,0,
MAEL2812,2,neg,90,neg90_id21_im16.bmp_neg90_id14_im24.bmp,['Im_LeonardoDiCaprio.png', 'Im_BenAffleck.png', 'Im_BradPitt.png', 'Im_RobertDowneyJr.png', 'Im_RobertPattinson.png', 'Im_OrlandoBloom.png', 'Im_HughJackman.png', 'Im_MattDamon.png', 'Im_ElijahWood.png', 'Im_RyanReynolds.png'],diff,1,0.6420176000010542,35,0,
MAEL2812,2,neg,150,neg150_id19_im8.bmp_neg150_id19_im4.bmp,['Im_LeonardoDiCaprio.png', 'Im_BenAffleck.png', 'Im_BradPitt.png', 'Im_RobertDowneyJr.png', 'Im_RobertPattinson.png', 'Im_OrlandoBloom.png', 'Im_HughJackman.png', 'Im_MattDamon.png', 'Im_ElijahWood.png', 'Im_RyanReynolds.png'],same,1,0.9248752000003151,36,0,
MAEL2812,2,neg,30,neg30_id18_im18.bmp_neg30_id13_im15.bmp,['Im_LeonardoDiCaprio.png', 'Im_BenAffleck.png', 'Im_BradPitt.png', 'Im_RobertDowneyJr.png', 'Im_RobertPattinson.png', 'Im_OrlandoBloom.png', 'Im_HughJackman.png', 'Im_MattDamon.png', 'Im_ElijahWood.png', 'Im_RyanReynolds.png'],diff,1,0.4083454999999958,37,0,
MAEL2812,2,neg,90,neg90_id8_im20.bmp_neg90_id8_im13.bmp,['Im_LeonardoDiCaprio.png', 'Im_BenAffleck.png', 'Im_BradPitt.png', 'Im_RobertDowneyJr.png', 'Im_RobertPattinson.png', 'Im_OrlandoBloom.png', 'Im_HughJackman.png', 'Im_MattDamon.png', 'Im_ElijahWood.png', 'Im_RyanReynolds.png'],same,1,1.1086825000002136,38,0,
MAEL2812,2,neg,fs,negfs_id21_im16.bmp_negfs_id13_im10.bmp,['Im_LeonardoDiCaprio.png', 'Im_BenAffleck.png', 'Im_BradPitt.png', 'Im_RobertDowneyJr.png', 'Im_RobertPattinson.png', 'Im_OrlandoBloom.png', 'Im_HughJackman.png', 'Im_MattDamon.png', 'Im_ElijahWood.png', 'Im_RyanReynolds.png'],diff,1,0.6666704999988724,39,0,
MAEL2812,2,neg,30,neg30_id21_im17.bmp_neg30_id21_im22.bmp,['Im_LeonardoDiCaprio.png', 'Im_BenAffleck.png', 'Im_BradPitt.png', 'Im_RobertDowneyJr.png', 'Im_RobertPattinson.png', 'Im_OrlandoBloom.png', 'Im_HughJackman.png', 'Im_MattDamon.png', 'Im_ElijahWood.png', 'Im_RyanReynolds.png'],same,1,0.6583546000001661,40,0,
MAEL2812,2,neg,60,neg60_id1_im24.bmp_neg60_id1_im21.bmp,['Im_LeonardoDiCaprio.png', 'Im_BenAffleck.png', 'Im_BradPitt.png', 'Im_RobertDowneyJr.png', 'Im_RobertPattinson.png', 'Im_OrlandoBloom.png', 'Im_HughJackman.png', 'Im_MattDamon.png', 'Im_ElijahWood.png', 'Im_RyanReynolds.png'],same,1,0.4167288999997254,41,0,
MAEL2812,3,inv,90,pos90_id14_im16.bmp_pos90_id19_im8.bmp,['Im_LeonardoDiCaprio.png', 'Im_BenAffleck.png', 'Im_BradPitt.png', 'Im_RobertDowneyJr.png', 'Im_RobertPattinson.png', 'Im_OrlandoBloom.png', 'Im_HughJackman.png', 'Im_MattDamon.png', 'Im_ElijahWood.png', 'Im_RyanReynolds.png'],diff,1,2.0583636999999726,1,97.61904761904762,
MAEL2812,3,inv,60,pos60_id8_im20.bmp_pos60_id1_im21.bmp,['Im_LeonardoDiCaprio.png', 'Im_BenAffleck.png', 'Im_BradPitt.png', 'Im_RobertDowneyJr.png', 'Im_RobertPattinson.png', 'Im_OrlandoBloom.png', 'Im_HughJackman.png', 'Im_MattDamon.png', 'Im_ElijahWood.png', 'Im_RyanReynolds.png'],diff,1,1.2836031000006187,2,97.61904761904762,
MAEL2812,3,inv,30,pos30_id6_im19.bmp_pos30_id16_im19.bmp,['Im_LeonardoDiCaprio.png', 'Im_BenAffleck.png', 'Im_BradPitt.png', 'Im_RobertDowneyJr.png', 'Im_RobertPattinson.png', 'Im_OrlandoBloom.png', 'Im_HughJackman.png', 'Im_MattDamon.png', 'Im_ElijahWood.png', 'Im_RyanReynolds.png'],diff,1,0.5002848000003723,3,97.61904761904762,
MAEL2812,3,inv,30,pos30_id13_im10.bmp_pos30_id13_im29.bmp,['Im_LeonardoDiCaprio.png', 'Im_BenAffleck.png', 'Im_BradPitt.png', 'Im_RobertDowneyJr.png', 'Im_RobertPattinson.png', 'Im_OrlandoBloom.png', 'Im_HughJackman.png', 'Im_MattDamon.png', 'Im_ElijahWood.png', 'Im_RyanReynolds.png'],diff,0,0.5417787999995198,3,97.61904761904762,
MAEL2812,3,inv,120,pos120_id1_im4.bmp_pos120_id13_im29.bmp,['Im_LeonardoDiCaprio.png', 'Im_BenAffleck.png', 'Im_BradPitt.png', 'Im_RobertDowneyJr.png', 'Im_RobertPattinson.png', 'Im_OrlandoBloom.png', 'Im_HughJackman.png', 'Im_MattDamon.png', 'Im_ElijahWood.png', 'Im_RyanReynolds.png'],diff,1,0.6832952000004298,4,97.61904761904762,
MAEL2812,3,inv,0,pos0_id8_im21.bmp_pos0_id8_im13.bmp,['Im_LeonardoDiCaprio.png', 'Im_BenAffleck.png', 'Im_BradPitt.png', 'Im_RobertDowneyJr.png', 'Im_RobertPattinson.png', 'Im_OrlandoBloom.png', 'Im_HughJackman.png', 'Im_MattDamon.png', 'Im_ElijahWood.png', 'Im_RyanReynolds.png'],same,1,0.6667123000006541,5,97.61904761904762,
MAEL2812,3,inv,150,pos150_id21_im16.bmp_pos150_id21_im22.bmp,['Im_LeonardoDiCaprio.png', 'Im_BenAffleck.png', 'Im_BradPitt.png', 'Im_RobertDowneyJr.png', 'Im_RobertPattinson.png', 'Im_OrlandoBloom.png', 'Im_HughJackman.png', 'Im_MattDamon.png', 'Im_ElijahWood.png', 'Im_RyanReynolds.png'],same,1,0.41692220000004454,6,97.61904761904762,
MAEL2812,3,inv,fs,posfs_id3_im8.bmp_posfs_id18_im18.bmp,['Im_LeonardoDiCaprio.png', 'Im_BenAffleck.png', 'Im_BradPitt.png', 'Im_RobertDowneyJr.png', 'Im_RobertPattinson.png', 'Im_OrlandoBloom.png', 'Im_HughJackman.png', 'Im_MattDamon.png', 'Im_ElijahWood.png', 'Im_RyanReynolds.png'],diff,1,1.3749869000002946,7,97.61904761904762,
MAEL2812,3,inv,0,pos0_id19_im27.bmp_pos0_id19_im8.bmp,['Im_LeonardoDiCaprio.png', 'Im_BenAffleck.png', 'Im_BradPitt.png', 'Im_RobertDowneyJr.png', 'Im_RobertPattinson.png', 'Im_OrlandoBloom.png', 'Im_HughJackman.png', 'Im_MattDamon.png', 'Im_ElijahWood.png', 'Im_RyanReynolds.png'],same,1,0.5500752999996621,8,97.61904761904762,
MAEL2812,3,inv,150,pos150_id16_im2.bmp_pos150_id14_im16.bmp,['Im_LeonardoDiCaprio.png', 'Im_BenAffleck.png', 'Im_BradPitt.png', 'Im_RobertDowneyJr.png', 'Im_RobertPattinson.png', 'Im_OrlandoBloom.png', 'Im_HughJackman.png', 'Im_MattDamon.png', 'Im_ElijahWood.png', 'Im_RyanReynolds.png'],diff,1,0.4083487999996578,9,97.61904761904762,
MAEL2812,3,inv,120,pos120_id18_im11.bmp_pos120_id18_im18.bmp,['Im_LeonardoDiCaprio.png', 'Im_BenAffleck.png', 'Im_BradPitt.png', 'Im_RobertDowneyJr.png', 'Im_RobertPattinson.png', 'Im_OrlandoBloom.png', 'Im_HughJackman.png', 'Im_MattDamon.png', 'Im_ElijahWood.png', 'Im_RyanReynolds.png'],same,1,0.908666400000584,10,97.61904761904762,
MAEL2812,3,inv,fs,posfs_id18_im11.bmp_posfs_id21_im22.bmp,['Im_LeonardoDiCaprio.png', 'Im_BenAffleck.png', 'Im_BradPitt.png', 'Im_RobertDowneyJr.png', 'Im_RobertPattinson.png', 'Im_OrlandoBloom.png', 'Im_HughJackman.png', 'Im_MattDamon.png', 'Im_ElijahWood.png', 'Im_RyanReynolds.png'],diff,1,0.425273400000151,11,97.61904761904762,
MAEL2812,3,inv,60,pos60_id8_im20.bmp_pos60_id8_im21.bmp,['Im_LeonardoDiCaprio.png', 'Im_BenAffleck.png', 'Im_BradPitt.png', 'Im_RobertDowneyJr.png', 'Im_RobertPattinson.png', 'Im_OrlandoBloom.png', 'Im_HughJackman.png', 'Im_MattDamon.png', 'Im_ElijahWood.png', 'Im_RyanReynolds.png'],same,1,0.4167443000005733,12,97.61904761904762,
MAEL2812,3,inv,90,pos90_id21_im16.bmp_pos90_id13_im10.bmp,['Im_LeonardoDiCaprio.png', 'Im_BenAffleck.png', 'Im_BradPitt.png', 'Im_RobertDowneyJr.png', 'Im_RobertPattinson.png', 'Im_OrlandoBloom.png', 'Im_HughJackman.png', 'Im_MattDamon.png', 'Im_ElijahWood.png', 'Im_RyanReynolds.png'],diff,1,0.4168112999996083,13,97.61904761904762,
MAEL2812,4,pos,120,pos120_id19_im8.bmp_pos120_id14_im16.bmp,['Im_LeonardoDiCaprio.png', 'Im_BenAffleck.png', 'Im_BradPitt.png', 'Im_RobertDowneyJr.png', 'Im_RobertPattinson.png', 'Im_OrlandoBloom.png', 'Im_HughJackman.png', 'Im_MattDamon.png', 'Im_ElijahWood.png', 'Im_RyanReynolds.png'],diff,1,0.4336206999996648,14,97.61904761904762,
MAEL2812,4,pos,30,pos30_id8_im20.bmp_pos30_id8_im21.bmp,['Im_LeonardoDiCaprio.png', 'Im_BenAffleck.png', 'Im_BradPitt.png', 'Im_RobertDowneyJr.png', 'Im_RobertPattinson.png', 'Im_OrlandoBloom.png', 'Im_HughJackman.png', 'Im_MattDamon.png', 'Im_ElijahWood.png', 'Im_RyanReynolds.png'],same,1,0.49174800000037067,15,97.61904761904762,
MAEL2812,4,pos,90,pos90_id19_im8.bmp_pos90_id19_im4.bmp,['Im_LeonardoDiCaprio.png', 'Im_BenAffleck.png', 'Im_BradPitt.png', 'Im_RobertDowneyJr.png', 'Im_RobertPattinson.png', 'Im_OrlandoBloom.png', 'Im_HughJackman.png', 'Im_MattDamon.png', 'Im_ElijahWood.png', 'Im_RyanReynolds.png'],same,1,0.4751637999997911,16,97.61904761904762,
MAEL2812,4,pos,30,pos30_id8_im21.bmp_pos30_id21_im22.bmp,['Im_LeonardoDiCaprio.png', 'Im_BenAffleck.png', 'Im_BradPitt.png', 'Im_RobertDowneyJr.png', 'Im_RobertPattinson.png', 'Im_OrlandoBloom.png', 'Im_HughJackman.png', 'Im_MattDamon.png', 'Im_ElijahWood.png', 'Im_RyanReynolds.png'],same,0,0.5084869000002072,16,97.61904761904762,
MAEL2812,4,pos,150,pos150_id21_im17.bmp_pos150_id13_im15.bmp,['Im_LeonardoDiCaprio.png', 'Im_BenAffleck.png', 'Im_BradPitt.png', 'Im_RobertDowneyJr.png', 'Im_RobertPattinson.png', 'Im_OrlandoBloom.png', 'Im_HughJackman.png', 'Im_MattDamon.png', 'Im_ElijahWood.png', 'Im_RyanReynolds.png'],same,0,0.47515519999979006,16,97.61904761904762,
MAEL2812,4,pos,60,pos60_id18_im11.bmp_pos60_id18_im18.bmp,['Im_LeonardoDiCaprio.png', 'Im_BenAffleck.png', 'Im_BradPitt.png', 'Im_RobertDowneyJr.png', 'Im_RobertPattinson.png', 'Im_OrlandoBloom.png', 'Im_HughJackman.png', 'Im_MattDamon.png', 'Im_ElijahWood.png', 'Im_RyanReynolds.png'],same,1,0.6752457000002323,17,97.61904761904762,
MAEL2812,4,pos,0,pos0_id16_im19.bmp_pos0_id16_im2.bmp,['Im_LeonardoDiCaprio.png', 'Im_BenAffleck.png', 'Im_BradPitt.png', 'Im_RobertDowneyJr.png', 'Im_RobertPattinson.png', 'Im_OrlandoBloom.png', 'Im_HughJackman.png', 'Im_MattDamon.png', 'Im_ElijahWood.png', 'Im_RyanReynolds.png'],same,1,0.5000144999994518,18,97.61904761904762,
MAEL2812,4,pos,60,pos60_id3_im17.bmp_pos60_id3_im6.bmp,['Im_LeonardoDiCaprio.png', 'Im_BenAffleck.png', 'Im_BradPitt.png', 'Im_RobertDowneyJr.png', 'Im_RobertPattinson.png', 'Im_OrlandoBloom.png', 'Im_HughJackman.png', 'Im_MattDamon.png', 'Im_ElijahWood.png', 'Im_RyanReynolds.png'],same,1,0.700483599999643,19,97.61904761904762,
MAEL2812,4,pos,150,pos150_id14_im16.bmp_pos150_id14_im18.bmp,['Im_LeonardoDiCaprio.png', 'Im_BenAffleck.png', 'Im_BradPitt.png', 'Im_RobertDowneyJr.png', 'Im_RobertPattinson.png', 'Im_OrlandoBloom.png', 'Im_HughJackman.png', 'Im_MattDamon.png', 'Im_ElijahWood.png', 'Im_RyanReynolds.png'],same,1,0.4250750000010157,20,97.61904761904762,
MAEL2812,4,pos,120,pos120_id14_im16.bmp_pos120_id14_im24.bmp,['Im_LeonardoDiCaprio.png', 'Im_BenAffleck.png', 'Im_BradPitt.png', 'Im_RobertDowneyJr.png', 'Im_RobertPattinson.png', 'Im_OrlandoBloom.png', 'Im_HughJackman.png', 'Im_MattDamon.png', 'Im_ElijahWood.png', 'Im_RyanReynolds.png'],same,1,0.4250702999997884,21,97.61904761904762,
MAEL2812,4,pos,fs,posfs_id16_im2.bmp_posfs_id14_im16.bmp,['Im_LeonardoDiCaprio.png', 'Im_BenAffleck.png', 'Im_BradPitt.png', 'Im_RobertDowneyJr.png', 'Im_RobertPattinson.png', 'Im_OrlandoBloom.png', 'Im_HughJackman.png', 'Im_MattDamon.png', 'Im_ElijahWood.png', 'Im_RyanReynolds.png'],diff,1,0.7922243000011804,22,97.61904761904762,
MAEL2812,4,pos,90,pos90_id14_im18.bmp_pos90_id14_im16.bmp,['Im_LeonardoDiCaprio.png', 'Im_BenAffleck.png', 'Im_BradPitt.png', 'Im_RobertDowneyJr.png', 'Im_RobertPattinson.png', 'Im_OrlandoBloom.png', 'Im_HughJackman.png', 'Im_MattDamon.png', 'Im_ElijahWood.png', 'Im_RyanReynolds.png'],same,1,1.1587483000002976,23,97.61904761904762,
MAEL2812,4,pos,0,pos0_id6_im19.bmp_pos0_id6_im18.bmp,['Im_LeonardoDiCaprio.png', 'Im_BenAffleck.png', 'Im_BradPitt.png', 'Im_RobertDowneyJr.png', 'Im_RobertPattinson.png', 'Im_OrlandoBloom.png', 'Im_HughJackman.png', 'Im_MattDamon.png', 'Im_ElijahWood.png', 'Im_RyanReynolds.png'],same,1,1.5915765999998257,24,97.61904761904762,
MAEL2812,4,pos,fs,posfs_id21_im22.bmp_posfs_id18_im11.bmp,['Im_LeonardoDiCaprio.png', 'Im_BenAffleck.png', 'Im_BradPitt.png', 'Im_RobertDowneyJr.png', 'Im_RobertPattinson.png', 'Im_OrlandoBloom.png', 'Im_HughJackman.png', 'Im_MattDamon.png', 'Im_ElijahWood.png', 'Im_RyanReynolds.png'],diff,1,0.41672010000002047,25,97.61904761904762,
MAEL2812,5,neg,150,neg150_id8_im21.bmp_neg150_id19_im4.bmp,['Im_LeonardoDiCaprio.png', 'Im_BenAffleck.png', 'Im_BradPitt.png', 'Im_RobertDowneyJr.png', 'Im_RobertPattinson.png', 'Im_OrlandoBloom.png', 'Im_HughJackman.png', 'Im_MattDamon.png', 'Im_ElijahWood.png', 'Im_RyanReynolds.png'],diff,1,1.150304299999334,26,97.61904761904762,
MAEL2812,5,neg,fs,negfs_id1_im24.bmp_negfs_id1_im21.bmp,['Im_LeonardoDiCaprio.png', 'Im_BenAffleck.png', 'Im_BradPitt.png', 'Im_RobertDowneyJr.png', 'Im_RobertPattinson.png', 'Im_OrlandoBloom.png', 'Im_HughJackman.png', 'Im_MattDamon.png', 'Im_ElijahWood.png', 'Im_RyanReynolds.png'],same,1,0.4250167000009242,27,97.61904761904762,
MAEL2812,5,neg,120,neg120_id8_im13.bmp_neg120_id8_im21.bmp,['Im_LeonardoDiCaprio.png', 'Im_BenAffleck.png', 'Im_BradPitt.png', 'Im_RobertDowneyJr.png', 'Im_RobertPattinson.png', 'Im_OrlandoBloom.png', 'Im_HughJackman.png', 'Im_MattDamon.png', 'Im_ElijahWood.png', 'Im_RyanReynolds.png'],same,1,0.741737500000454,28,97.61904761904762,
MAEL2812,5,neg,90,neg90_id8_im13.bmp_neg90_id3_im6.bmp,['Im_LeonardoDiCaprio.png', 'Im_BenAffleck.png', 'Im_BradPitt.png', 'Im_RobertDowneyJr.png', 'Im_RobertPattinson.png', 'Im_OrlandoBloom.png', 'Im_HughJackman.png', 'Im_MattDamon.png', 'Im_ElijahWood.png', 'Im_RyanReynolds.png'],diff,1,0.8001915999993798,29,97.61904761904762,
MAEL2812,5,neg,90,neg90_id1_im24.bmp_neg90_id1_im21.bmp,['Im_LeonardoDiCaprio.png', 'Im_BenAffleck.png', 'Im_BradPitt.png', 'Im_RobertDowneyJr.png', 'Im_RobertPattinson.png', 'Im_OrlandoBloom.png', 'Im_HughJackman.png', 'Im_MattDamon.png', 'Im_ElijahWood.png', 'Im_RyanReynolds.png'],same,1,0.5000049999998737,30,97.61904761904762,
MAEL2812,5,neg,0,neg0_id1_im4.bmp_neg0_id1_im24.bmp,['Im_LeonardoDiCaprio.png', 'Im_BenAffleck.png', 'Im_BradPitt.png', 'Im_RobertDowneyJr.png', 'Im_RobertPattinson.png', 'Im_OrlandoBloom.png', 'Im_HughJackman.png', 'Im_MattDamon.png', 'Im_ElijahWood.png', 'Im_RyanReynolds.png'],same,1,0.6167231999988871,31,97.61904761904762,
MAEL2812,5,neg,60,neg60_id21_im16.bmp_neg60_id14_im24.bmp,['Im_LeonardoDiCaprio.png', 'Im_BenAffleck.png', 'Im_BradPitt.png', 'Im_RobertDowneyJr.png', 'Im_RobertPattinson.png', 'Im_OrlandoBloom.png', 'Im_HughJackman.png', 'Im_MattDamon.png', 'Im_ElijahWood.png', 'Im_RyanReynolds.png'],diff,1,0.4748961999994208,32,97.61904761904762,
MAEL2812,5,neg,30,neg30_id21_im16.bmp_neg30_id13_im10.bmp,['Im_LeonardoDiCaprio.png', 'Im_BenAffleck.png', 'Im_BradPitt.png', 'Im_RobertDowneyJr.png', 'Im_RobertPattinson.png', 'Im_OrlandoBloom.png', 'Im_HughJackman.png', 'Im_MattDamon.png', 'Im_ElijahWood.png', 'Im_RyanReynolds.png'],diff,1,0.6418964999993477,33,97.61904761904762,
MAEL2812,5,neg,30,neg30_id21_im22.bmp_neg30_id18_im11.bmp,['Im_LeonardoDiCaprio.png', 'Im_BenAffleck.png', 'Im_BradPitt.png', 'Im_RobertDowneyJr.png', 'Im_RobertPattinson.png', 'Im_OrlandoBloom.png', 'Im_HughJackman.png', 'Im_MattDamon.png', 'Im_ElijahWood.png', 'Im_RyanReynolds.png'],diff,1,1.183636399999159,34,97.61904761904762,
MAEL2812,5,neg,0,neg0_id3_im8.bmp_neg0_id3_im17.bmp,['Im_LeonardoDiCaprio.png', 'Im_BenAffleck.png', 'Im_BradPitt.png', 'Im_RobertDowneyJr.png', 'Im_RobertPattinson.png', 'Im_OrlandoBloom.png', 'Im_HughJackman.png', 'Im_MattDamon.png', 'Im_ElijahWood.png', 'Im_RyanReynolds.png'],same,1,0.4332312999995338,35,97.61904761904762,
MAEL2812,5,neg,fs,negfs_id14_im16.bmp_negfs_id14_im24.bmp,['Im_LeonardoDiCaprio.png', 'Im_BenAffleck.png', 'Im_BradPitt.png', 'Im_RobertDowneyJr.png', 'Im_RobertPattinson.png', 'Im_OrlandoBloom.png', 'Im_HughJackman.png', 'Im_MattDamon.png', 'Im_ElijahWood.png', 'Im_RyanReynolds.png'],same,1,0.4333048000007693,36,97.61904761904762,
MAEL2812,5,neg,60,neg60_id14_im24.bmp_neg60_id14_im18.bmp,['Im_LeonardoDiCaprio.png', 'Im_BenAffleck.png', 'Im_BradPitt.png', 'Im_RobertDowneyJr.png', 'Im_RobertPattinson.png', 'Im_OrlandoBloom.png', 'Im_HughJackman.png', 'Im_MattDamon.png', 'Im_ElijahWood.png', 'Im_RyanReynolds.png'],same,1,0.5669228000006115,37,97.61904761904762,
MAEL2812,5,neg,120,neg120_id18_im19.bmp_neg120_id18_im18.bmp,['Im_LeonardoDiCaprio.png', 'Im_BenAffleck.png', 'Im_BradPitt.png', 'Im_RobertDowneyJr.png', 'Im_RobertPattinson.png', 'Im_OrlandoBloom.png', 'Im_HughJackman.png', 'Im_MattDamon.png', 'Im_ElijahWood.png', 'Im_RyanReynolds.png'],diff,0,0.41684170000007725,37,97.61904761904762,
MAEL2812,5,neg,150,neg150_id16_im3.bmp_neg150_id8_im13.bmp,['Im_LeonardoDiCaprio.png', 'Im_BenAffleck.png', 'Im_BradPitt.png', 'Im_RobertDowneyJr.png', 'Im_RobertPattinson.png', 'Im_OrlandoBloom.png', 'Im_HughJackman.png', 'Im_MattDamon.png', 'Im_ElijahWood.png', 'Im_RyanReynolds.png'],diff,1,0.5500612999985606,38,97.61904761904762,
MAEL2812,6,inv,30,pos30_id3_im17.bmp_pos30_id19_im27.bmp,['Im_LeonardoDiCaprio.png', 'Im_BenAffleck.png', 'Im_BradPitt.png', 'Im_RobertDowneyJr.png', 'Im_RobertPattinson.png', 'Im_OrlandoBloom.png', 'Im_HughJackman.png', 'Im_MattDamon.png', 'Im_ElijahWood.png', 'Im_RyanReynolds.png'],diff,1,2.883302000000185,1,90.47619047619048,
MAEL2812,6,inv,150,pos150_id14_im18.bmp_pos150_id14_im24.bmp,['Im_LeonardoDiCaprio.png', 'Im_BenAffleck.png', 'Im_BradPitt.png', 'Im_RobertDowneyJr.png', 'Im_RobertPattinson.png', 'Im_OrlandoBloom.png', 'Im_HughJackman.png', 'Im_MattDamon.png', 'Im_ElijahWood.png', 'Im_RyanReynolds.png'],same,1,0.47509139999965555,2,90.47619047619048,
MAEL2812,6,inv,fs,posfs_id1_im24.bmp_posfs_id1_im4.bmp,['Im_LeonardoDiCaprio.png', 'Im_BenAffleck.png', 'Im_BradPitt.png', 'Im_RobertDowneyJr.png', 'Im_RobertPattinson.png', 'Im_OrlandoBloom.png', 'Im_HughJackman.png', 'Im_MattDamon.png', 'Im_ElijahWood.png', 'Im_RyanReynolds.png'],same,1,0.5000865000001795,3,90.47619047619048,
MAEL2812,6,inv,120,pos120_id8_im21.bmp_pos120_id8_im20.bmp,['Im_LeonardoDiCaprio.png', 'Im_BenAffleck.png', 'Im_BradPitt.png', 'Im_RobertDowneyJr.png', 'Im_RobertPattinson.png', 'Im_OrlandoBloom.png', 'Im_HughJackman.png', 'Im_MattDamon.png', 'Im_ElijahWood.png', 'Im_RyanReynolds.png'],same,1,0.7584071000001131,4,90.47619047619048,
MAEL2812,6,inv,120,pos120_id16_im19.bmp_pos120_id1_im21.bmp,['Im_LeonardoDiCaprio.png', 'Im_BenAffleck.png', 'Im_BradPitt.png', 'Im_RobertDowneyJr.png', 'Im_RobertPattinson.png', 'Im_OrlandoBloom.png', 'Im_HughJackman.png', 'Im_MattDamon.png', 'Im_ElijahWood.png', 'Im_RyanReynolds.png'],diff,1,2.083522200000516,5,90.47619047619048,
MAEL2812,6,inv,90,pos90_id18_im18.bmp_pos90_id18_im19.bmp,['Im_LeonardoDiCaprio.png', 'Im_BenAffleck.png', 'Im_BradPitt.png', 'Im_RobertDowneyJr.png', 'Im_RobertPattinson.png', 'Im_OrlandoBloom.png', 'Im_HughJackman.png', 'Im_MattDamon.png', 'Im_ElijahWood.png', 'Im_RyanReynolds.png'],same,1,1.2089574999990873,6,90.47619047619048,
MAEL2812,6,inv,150,pos150_id3_im17.bmp_pos150_id6_im12.bmp,['Im_LeonardoDiCaprio.png', 'Im_BenAffleck.png', 'Im_BradPitt.png', 'Im_RobertDowneyJr.png', 'Im_RobertPattinson.png', 'Im_OrlandoBloom.png', 'Im_HughJackman.png', 'Im_MattDamon.png', 'Im_ElijahWood.png', 'Im_RyanReynolds.png'],diff,1,0.4168008999986341,7,90.47619047619048,
MAEL2812,6,inv,0,pos0_id8_im21.bmp_pos0_id19_im4.bmp,['Im_LeonardoDiCaprio.png', 'Im_BenAffleck.png', 'Im_BradPitt.png', 'Im_RobertDowneyJr.png', 'Im_RobertPattinson.png', 'Im_OrlandoBloom.png', 'Im_HughJackman.png', 'Im_MattDamon.png', 'Im_ElijahWood.png', 'Im_RyanReynolds.png'],diff,1,1.3502064000003884,8,90.47619047619048,
MAEL2812,6,inv,90,pos90_id21_im17.bmp_pos90_id18_im19.bmp,['Im_LeonardoDiCaprio.png', 'Im_BenAffleck.png', 'Im_BradPitt.png', 'Im_RobertDowneyJr.png', 'Im_RobertPattinson.png', 'Im_OrlandoBloom.png', 'Im_HughJackman.png', 'Im_MattDamon.png', 'Im_ElijahWood.png', 'Im_RyanReynolds.png'],diff,1,2.3916702999995323,9,90.47619047619048,
MAEL2812,6,inv,30,pos30_id21_im17.bmp_pos30_id21_im22.bmp,['Im_LeonardoDiCaprio.png', 'Im_BenAffleck.png', 'Im_BradPitt.png', 'Im_RobertDowneyJr.png', 'Im_RobertPattinson.png', 'Im_OrlandoBloom.png', 'Im_HughJackman.png', 'Im_MattDamon.png', 'Im_ElijahWood.png', 'Im_RyanReynolds.png'],same,1,0.45003449999967415,10,90.47619047619048,
MAEL2812,6,inv,0,pos0_id1_im24.bmp_pos0_id6_im18.bmp,['Im_LeonardoDiCaprio.png', 'Im_BenAffleck.png', 'Im_BradPitt.png', 'Im_RobertDowneyJr.png', 'Im_RobertPattinson.png', 'Im_OrlandoBloom.png', 'Im_HughJackman.png', 'Im_MattDamon.png', 'Im_ElijahWood.png', 'Im_RyanReynolds.png'],diff,1,1.3505222999992839,11,90.47619047619048,
MAEL2812,6,inv,60,pos60_id8_im13.bmp_pos60_id8_im21.bmp,['Im_LeonardoDiCaprio.png', 'Im_BenAffleck.png', 'Im_BradPitt.png', 'Im_RobertDowneyJr.png', 'Im_RobertPattinson.png', 'Im_OrlandoBloom.png', 'Im_HughJackman.png', 'Im_MattDamon.png', 'Im_ElijahWood.png', 'Im_RyanReynolds.png'],same,1,0.5334503999984008,12,90.47619047619048,
MAEL2812,6,inv,60,pos60_id21_im22.bmp_pos60_id8_im21.bmp,['Im_LeonardoDiCaprio.png', 'Im_BenAffleck.png', 'Im_BradPitt.png', 'Im_RobertDowneyJr.png', 'Im_RobertPattinson.png', 'Im_OrlandoBloom.png', 'Im_HughJackman.png', 'Im_MattDamon.png', 'Im_ElijahWood.png', 'Im_RyanReynolds.png'],diff,1,0.5583416999998008,13,90.47619047619048,
MAEL2812,6,inv,fs,posfs_id14_im16.bmp_posfs_id14_im24.bmp,['Im_LeonardoDiCaprio.png', 'Im_BenAffleck.png', 'Im_BradPitt.png', 'Im_RobertDowneyJr.png', 'Im_RobertPattinson.png', 'Im_OrlandoBloom.png', 'Im_HughJackman.png', 'Im_MattDamon.png', 'Im_ElijahWood.png', 'Im_RyanReynolds.png'],same,1,0.42505379999965953,14,90.47619047619048,
MAEL2812,7,inv,0,pos0_id14_im24.bmp_pos0_id14_im16.bmp,['Im_LeonardoDiCaprio.png', 'Im_BenAffleck.png', 'Im_BradPitt.png', 'Im_RobertDowneyJr.png', 'Im_RobertPattinson.png', 'Im_OrlandoBloom.png', 'Im_HughJackman.png', 'Im_MattDamon.png', 'Im_ElijahWood.png', 'Im_RyanReynolds.png'],diff,0,0.9750452999996924,14,90.47619047619048,
MAEL2812,7,inv,90,pos90_id14_im16.bmp_pos90_id16_im2.bmp,['Im_LeonardoDiCaprio.png', 'Im_BenAffleck.png', 'Im_BradPitt.png', 'Im_RobertDowneyJr.png', 'Im_RobertPattinson.png', 'Im_OrlandoBloom.png', 'Im_HughJackman.png', 'Im_MattDamon.png', 'Im_ElijahWood.png', 'Im_RyanReynolds.png'],diff,1,1.3834955999991507,15,90.47619047619048,
MAEL2812,7,inv,150,pos150_id18_im18.bmp_pos150_id13_im15.bmp,['Im_LeonardoDiCaprio.png', 'Im_BenAffleck.png', 'Im_BradPitt.png', 'Im_RobertDowneyJr.png', 'Im_RobertPattinson.png', 'Im_OrlandoBloom.png', 'Im_HughJackman.png', 'Im_MattDamon.png', 'Im_ElijahWood.png', 'Im_RyanReynolds.png'],diff,1,0.6085837999999058,16,90.47619047619048,
MAEL2812,7,inv,30,pos30_id6_im12.bmp_pos30_id3_im17.bmp,['Im_LeonardoDiCaprio.png', 'Im_BenAffleck.png', 'Im_BradPitt.png', 'Im_RobertDowneyJr.png', 'Im_RobertPattinson.png', 'Im_OrlandoBloom.png', 'Im_HughJackman.png', 'Im_MattDamon.png', 'Im_ElijahWood.png', 'Im_RyanReynolds.png'],diff,1,0.42493350000040664,17,90.47619047619048,
MAEL2812,7,inv,30,pos30_id14_im16.bmp_pos30_id16_im2.bmp,['Im_LeonardoDiCaprio.png', 'Im_BenAffleck.png', 'Im_BradPitt.png', 'Im_RobertDowneyJr.png', 'Im_RobertPattinson.png', 'Im_OrlandoBloom.png', 'Im_HughJackman.png', 'Im_MattDamon.png', 'Im_ElijahWood.png', 'Im_RyanReynolds.png'],diff,1,1.3084001000006538,18,90.47619047619048,
MAEL2812,7,inv,150,pos150_id21_im17.bmp_pos150_id18_im19.bmp,['Im_LeonardoDiCaprio.png', 'Im_BenAffleck.png', 'Im_BradPitt.png', 'Im_RobertDowneyJr.png', 'Im_RobertPattinson.png', 'Im_OrlandoBloom.png', 'Im_HughJackman.png', 'Im_MattDamon.png', 'Im_ElijahWood.png', 'Im_RyanReynolds.png'],same,0,0.783217500000319,18,90.47619047619048,
MAEL2812,7,inv,60,pos60_id14_im24.bmp_pos60_id14_im16.bmp,['Im_LeonardoDiCaprio.png', 'Im_BenAffleck.png', 'Im_BradPitt.png', 'Im_RobertDowneyJr.png', 'Im_RobertPattinson.png', 'Im_OrlandoBloom.png', 'Im_HughJackman.png', 'Im_MattDamon.png', 'Im_ElijahWood.png', 'Im_RyanReynolds.png'],same,1,0.8833907999996882,19,90.47619047619048,
MAEL2812,7,inv,120,pos120_id21_im22.bmp_pos120_id18_im11.bmp,['Im_LeonardoDiCaprio.png', 'Im_BenAffleck.png', 'Im_BradPitt.png', 'Im_RobertDowneyJr.png', 'Im_RobertPattinson.png', 'Im_OrlandoBloom.png', 'Im_HughJackman.png', 'Im_MattDamon.png', 'Im_ElijahWood.png', 'Im_RyanReynolds.png'],same,0,1.1084123000000545,19,90.47619047619048,
MAEL2812,7,inv,0,pos0_id18_im18.bmp_pos0_id18_im19.bmp,['Im_LeonardoDiCaprio.png', 'Im_BenAffleck.png', 'Im_BradPitt.png', 'Im_RobertDowneyJr.png', 'Im_RobertPattinson.png', 'Im_OrlandoBloom.png', 'Im_HughJackman.png', 'Im_MattDamon.png', 'Im_ElijahWood.png', 'Im_RyanReynolds.png'],diff,0,2.8836236000006465,19,90.47619047619048,
MAEL2812,7,inv,90,pos90_id3_im17.bmp_pos90_id3_im6.bmp,['Im_LeonardoDiCaprio.png', 'Im_BenAffleck.png', 'Im_BradPitt.png', 'Im_RobertDowneyJr.png', 'Im_RobertPattinson.png', 'Im_OrlandoBloom.png', 'Im_HughJackman.png', 'Im_MattDamon.png', 'Im_ElijahWood.png', 'Im_RyanReynolds.png'],same,1,0.8835515999999188,20,90.47619047619048,
MAEL2812,7,inv,120,pos120_id6_im12.bmp_pos120_id6_im18.bmp,['Im_LeonardoDiCaprio.png', 'Im_BenAffleck.png', 'Im_BradPitt.png', 'Im_RobertDowneyJr.png', 'Im_RobertPattinson.png', 'Im_OrlandoBloom.png', 'Im_HughJackman.png', 'Im_MattDamon.png', 'Im_ElijahWood.png', 'Im_RyanReynolds.png'],same,1,0.40837159999864525,21,90.47619047619048,
MAEL2812,7,inv,fs,posfs_id21_im17.bmp_posfs_id21_im16.bmp,['Im_LeonardoDiCaprio.png', 'Im_BenAffleck.png', 'Im_BradPitt.png', 'Im_RobertDowneyJr.png', 'Im_RobertPattinson.png', 'Im_OrlandoBloom.png', 'Im_HughJackman.png', 'Im_MattDamon.png', 'Im_ElijahWood.png', 'Im_RyanReynolds.png'],same,1,0.4169794000008551,22,90.47619047619048,
MAEL2812,7,inv,fs,posfs_id21_im22.bmp_posfs_id8_im21.bmp,['Im_LeonardoDiCaprio.png', 'Im_BenAffleck.png', 'Im_BradPitt.png', 'Im_RobertDowneyJr.png', 'Im_RobertPattinson.png', 'Im_OrlandoBloom.png', 'Im_HughJackman.png', 'Im_MattDamon.png', 'Im_ElijahWood.png', 'Im_RyanReynolds.png'],diff,1,0.40847870000106923,23,90.47619047619048,
MAEL2812,7,inv,60,pos60_id21_im22.bmp_pos60_id21_im16.bmp,['Im_LeonardoDiCaprio.png', 'Im_BenAffleck.png', 'Im_BradPitt.png', 'Im_RobertDowneyJr.png', 'Im_RobertPattinson.png', 'Im_OrlandoBloom.png', 'Im_HughJackman.png', 'Im_MattDamon.png', 'Im_ElijahWood.png', 'Im_RyanReynolds.png'],same,1,0.5584168000004865,24,90.47619047619048,
MAEL2812,8,neg,90,neg90_id16_im19.bmp_neg90_id6_im19.bmp,['Im_LeonardoDiCaprio.png', 'Im_BenAffleck.png', 'Im_BradPitt.png', 'Im_RobertDowneyJr.png', 'Im_RobertPattinson.png', 'Im_OrlandoBloom.png', 'Im_HughJackman.png', 'Im_MattDamon.png', 'Im_ElijahWood.png', 'Im_RyanReynolds.png'],diff,1,0.41657219999979134,25,90.47619047619048,
MAEL2812,8,neg,150,neg150_id8_im21.bmp_neg150_id8_im20.bmp,['Im_LeonardoDiCaprio.png', 'Im_BenAffleck.png', 'Im_BradPitt.png', 'Im_RobertDowneyJr.png', 'Im_RobertPattinson.png', 'Im_OrlandoBloom.png', 'Im_HughJackman.png', 'Im_MattDamon.png', 'Im_ElijahWood.png', 'Im_RyanReynolds.png'],same,1,0.42493050000121,26,90.47619047619048,
MAEL2812,8,neg,fs,negfs_id6_im18.bmp_negfs_id16_im2.bmp,['Im_LeonardoDiCaprio.png', 'Im_BenAffleck.png', 'Im_BradPitt.png', 'Im_RobertDowneyJr.png', 'Im_RobertPattinson.png', 'Im_OrlandoBloom.png', 'Im_HughJackman.png', 'Im_MattDamon.png', 'Im_ElijahWood.png', 'Im_RyanReynolds.png'],diff,1,2.0335219000007783,27,90.47619047619048,
MAEL2812,8,neg,0,neg0_id18_im19.bmp_neg0_id18_im11.bmp,['Im_LeonardoDiCaprio.png', 'Im_BenAffleck.png', 'Im_BradPitt.png', 'Im_RobertDowneyJr.png', 'Im_RobertPattinson.png', 'Im_OrlandoBloom.png', 'Im_HughJackman.png', 'Im_MattDamon.png', 'Im_ElijahWood.png', 'Im_RyanReynolds.png'],same,1,0.5003921000006812,28,90.47619047619048,
MAEL2812,8,neg,90,neg90_id8_im20.bmp_neg90_id1_im21.bmp,['Im_LeonardoDiCaprio.png', 'Im_BenAffleck.png', 'Im_BradPitt.png', 'Im_RobertDowneyJr.png', 'Im_RobertPattinson.png', 'Im_OrlandoBloom.png', 'Im_HughJackman.png', 'Im_MattDamon.png', 'Im_ElijahWood.png', 'Im_RyanReynolds.png'],diff,1,0.4168093000007502,29,90.47619047619048,
MAEL2812,8,neg,120,neg120_id13_im29.bmp_neg120_id14_im24.bmp,['Im_LeonardoDiCaprio.png', 'Im_BenAffleck.png', 'Im_BradPitt.png', 'Im_RobertDowneyJr.png', 'Im_RobertPattinson.png', 'Im_OrlandoBloom.png', 'Im_HughJackman.png', 'Im_MattDamon.png', 'Im_ElijahWood.png', 'Im_RyanReynolds.png'],diff,1,1.3587058000011893,30,90.47619047619048,
MAEL2812,8,neg,120,neg120_id21_im16.bmp_neg120_id13_im10.bmp,['Im_LeonardoDiCaprio.png', 'Im_BenAffleck.png', 'Im_BradPitt.png', 'Im_RobertDowneyJr.png', 'Im_RobertPattinson.png', 'Im_OrlandoBloom.png', 'Im_HughJackman.png', 'Im_MattDamon.png', 'Im_ElijahWood.png', 'Im_RyanReynolds.png'],diff,1,0.43347630000062054,31,90.47619047619048,
MAEL2812,8,neg,150,neg150_id1_im21.bmp_neg150_id1_im24.bmp,['Im_LeonardoDiCaprio.png', 'Im_BenAffleck.png', 'Im_BradPitt.png', 'Im_RobertDowneyJr.png', 'Im_RobertPattinson.png', 'Im_OrlandoBloom.png', 'Im_HughJackman.png', 'Im_MattDamon.png', 'Im_ElijahWood.png', 'Im_RyanReynolds.png'],same,1,0.8331871000009414,32,90.47619047619048,
MAEL2812,8,neg,30,neg30_id18_im18.bmp_neg30_id18_im19.bmp,['Im_LeonardoDiCaprio.png', 'Im_BenAffleck.png', 'Im_BradPitt.png', 'Im_RobertDowneyJr.png', 'Im_RobertPattinson.png', 'Im_OrlandoBloom.png', 'Im_HughJackman.png', 'Im_MattDamon.png', 'Im_ElijahWood.png', 'Im_RyanReynolds.png'],same,1,4.225069100000837,33,90.47619047619048,
MAEL2812,8,neg,60,neg60_id3_im17.bmp_neg60_id6_im12.bmp,['Im_LeonardoDiCaprio.png', 'Im_BenAffleck.png', 'Im_BradPitt.png', 'Im_RobertDowneyJr.png', 'Im_RobertPattinson.png', 'Im_OrlandoBloom.png', 'Im_HughJackman.png', 'Im_MattDamon.png', 'Im_ElijahWood.png', 'Im_RyanReynolds.png'],diff,1,0.4250888999995368,34,90.47619047619048,
MAEL2812,8,neg,30,neg30_id21_im22.bmp_neg30_id8_im21.bmp,['Im_LeonardoDiCaprio.png', 'Im_BenAffleck.png', 'Im_BradPitt.png', 'Im_RobertDowneyJr.png', 'Im_RobertPattinson.png', 'Im_OrlandoBloom.png', 'Im_HughJackman.png', 'Im_MattDamon.png', 'Im_ElijahWood.png', 'Im_RyanReynolds.png'],diff,1,0.4167350000006991,35,90.47619047619048,
MAEL2812,8,neg,0,neg0_id6_im18.bmp_neg0_id1_im24.bmp,['Im_LeonardoDiCaprio.png', 'Im_BenAffleck.png', 'Im_BradPitt.png', 'Im_RobertDowneyJr.png', 'Im_RobertPattinson.png', 'Im_OrlandoBloom.png', 'Im_HughJackman.png', 'Im_MattDamon.png', 'Im_ElijahWood.png', 'Im_RyanReynolds.png'],diff,1,0.42504379999991215,36,90.47619047619048,
MAEL2812,8,neg,fs,negfs_id18_im18.bmp_negfs_id18_im19.bmp,['Im_LeonardoDiCaprio.png', 'Im_BenAffleck.png', 'Im_BradPitt.png', 'Im_RobertDowneyJr.png', 'Im_RobertPattinson.png', 'Im_OrlandoBloom.png', 'Im_HughJackman.png', 'Im_MattDamon.png', 'Im_ElijahWood.png', 'Im_RyanReynolds.png'],same,1,0.9335991999996622,37,90.47619047619048,
MAEL2812,8,neg,60,neg60_id6_im18.bmp_neg60_id6_im19.bmp,['Im_LeonardoDiCaprio.png', 'Im_BenAffleck.png', 'Im_BradPitt.png', 'Im_RobertDowneyJr.png', 'Im_RobertPattinson.png', 'Im_OrlandoBloom.png', 'Im_HughJackman.png', 'Im_MattDamon.png', 'Im_ElijahWood.png', 'Im_RyanReynolds.png'],same,1,0.4333924000002298,38,90.47619047619048,
MAEL2812,9,pos,30,pos30_id16_im2.bmp_pos30_id6_im18.bmp,['Im_LeonardoDiCaprio.png', 'Im_BenAffleck.png', 'Im_BradPitt.png', 'Im_RobertDowneyJr.png', 'Im_RobertPattinson.png', 'Im_OrlandoBloom.png', 'Im_HughJackman.png', 'Im_MattDamon.png', 'Im_ElijahWood.png', 'Im_RyanReynolds.png'],diff,1,1.9417788999999175,1,90.47619047619048,
MAEL2812,9,pos,60,pos60_id21_im22.bmp_pos60_id21_im17.bmp,['Im_LeonardoDiCaprio.png', 'Im_BenAffleck.png', 'Im_BradPitt.png', 'Im_RobertDowneyJr.png', 'Im_RobertPattinson.png', 'Im_OrlandoBloom.png', 'Im_HughJackman.png', 'Im_MattDamon.png', 'Im_ElijahWood.png', 'Im_RyanReynolds.png'],same,1,0.4503078000016103,2,90.47619047619048,
MAEL2812,9,pos,30,pos30_id6_im12.bmp_pos30_id3_im17.bmp,['Im_LeonardoDiCaprio.png', 'Im_BenAffleck.png', 'Im_BradPitt.png', 'Im_RobertDowneyJr.png', 'Im_RobertPattinson.png', 'Im_OrlandoBloom.png', 'Im_HughJackman.png', 'Im_MattDamon.png', 'Im_ElijahWood.png', 'Im_RyanReynolds.png'],diff,1,0.7166120000001683,3,90.47619047619048,
MAEL2812,9,pos,90,pos90_id21_im16.bmp_pos90_id14_im24.bmp,['Im_LeonardoDiCaprio.png', 'Im_BenAffleck.png', 'Im_BradPitt.png', 'Im_RobertDowneyJr.png', 'Im_RobertPattinson.png', 'Im_OrlandoBloom.png', 'Im_HughJackman.png', 'Im_MattDamon.png', 'Im_ElijahWood.png', 'Im_RyanReynolds.png'],diff,1,1.0417798999988008,4,90.47619047619048,
MAEL2812,9,pos,fs,posfs_id16_im3.bmp_posfs_id19_im8.bmp,['Im_LeonardoDiCaprio.png', 'Im_BenAffleck.png', 'Im_BradPitt.png', 'Im_RobertDowneyJr.png', 'Im_RobertPattinson.png', 'Im_OrlandoBloom.png', 'Im_HughJackman.png', 'Im_MattDamon.png', 'Im_ElijahWood.png', 'Im_RyanReynolds.png'],diff,1,0.4084727999979805,5,90.47619047619048,
MAEL2812,9,pos,120,pos120_id18_im18.bmp_pos120_id18_im19.bmp,['Im_LeonardoDiCaprio.png', 'Im_BenAffleck.png', 'Im_BradPitt.png', 'Im_RobertDowneyJr.png', 'Im_RobertPattinson.png', 'Im_OrlandoBloom.png', 'Im_HughJackman.png', 'Im_MattDamon.png', 'Im_ElijahWood.png', 'Im_RyanReynolds.png'],same,1,0.7586711000003561,6,90.47619047619048,
MAEL2812,9,pos,150,pos150_id18_im11.bmp_pos150_id18_im19.bmp,['Im_LeonardoDiCaprio.png', 'Im_BenAffleck.png', 'Im_BradPitt.png', 'Im_RobertDowneyJr.png', 'Im_RobertPattinson.png', 'Im_OrlandoBloom.png', 'Im_HughJackman.png', 'Im_MattDamon.png', 'Im_ElijahWood.png', 'Im_RyanReynolds.png'],same,1,0.43332899999950314,7,90.47619047619048,
MAEL2812,9,pos,0,pos0_id18_im18.bmp_pos0_id18_im19.bmp,['Im_LeonardoDiCaprio.png', 'Im_BenAffleck.png', 'Im_BradPitt.png', 'Im_RobertDowneyJr.png', 'Im_RobertPattinson.png', 'Im_OrlandoBloom.png', 'Im_HughJackman.png', 'Im_MattDamon.png', 'Im_ElijahWood.png', 'Im_RyanReynolds.png'],same,1,0.42507040000054985,8,90.47619047619048,
MAEL2812,9,pos,fs,posfs_id21_im16.bmp_posfs_id21_im17.bmp,['Im_LeonardoDiCaprio.png', 'Im_BenAffleck.png', 'Im_BradPitt.png', 'Im_RobertDowneyJr.png', 'Im_RobertPattinson.png', 'Im_OrlandoBloom.png', 'Im_HughJackman.png', 'Im_MattDamon.png', 'Im_ElijahWood.png', 'Im_RyanReynolds.png'],same,1,1.1752220000016678,9,90.47619047619048,
MAEL2812,9,pos,0,pos0_id8_im20.bmp_pos0_id8_im13.bmp,['Im_LeonardoDiCaprio.png', 'Im_BenAffleck.png', 'Im_BradPitt.png', 'Im_RobertDowneyJr.png', 'Im_RobertPattinson.png', 'Im_OrlandoBloom.png', 'Im_HughJackman.png', 'Im_MattDamon.png', 'Im_ElijahWood.png', 'Im_RyanReynolds.png'],diff,0,1.266604800002824,9,90.47619047619048,
MAEL2812,9,pos,120,pos120_id13_im15.bmp_pos120_id18_im18.bmp,['Im_LeonardoDiCaprio.png', 'Im_BenAffleck.png', 'Im_BradPitt.png', 'Im_RobertDowneyJr.png', 'Im_RobertPattinson.png', 'Im_OrlandoBloom.png', 'Im_HughJackman.png', 'Im_MattDamon.png', 'Im_ElijahWood.png', 'Im_RyanReynolds.png'],diff,1,0.6585278999991715,10,90.47619047619048,
MAEL2812,9,pos,60,pos60_id3_im8.bmp_pos60_id18_im19.bmp,['Im_LeonardoDiCaprio.png', 'Im_BenAffleck.png', 'Im_BradPitt.png', 'Im_RobertDowneyJr.png', 'Im_RobertPattinson.png', 'Im_OrlandoBloom.png', 'Im_HughJackman.png', 'Im_MattDamon.png', 'Im_ElijahWood.png', 'Im_RyanReynolds.png'],diff,1,2.1336279999995895,11,90.47619047619048,
MAEL2812,9,pos,90,pos90_id8_im21.bmp_pos90_id21_im22.bmp,['Im_LeonardoDiCaprio.png', 'Im_BenAffleck.png', 'Im_BradPitt.png', 'Im_RobertDowneyJr.png', 'Im_RobertPattinson.png', 'Im_OrlandoBloom.png', 'Im_HughJackman.png', 'Im_MattDamon.png', 'Im_ElijahWood.png', 'Im_RyanReynolds.png'],diff,1,0.4333614999995916,12,90.47619047619048,
MAEL2812,9,pos,150,pos150_id19_im27.bmp_pos150_id19_im8.bmp,['Im_LeonardoDiCaprio.png', 'Im_BenAffleck.png', 'Im_BradPitt.png', 'Im_RobertDowneyJr.png', 'Im_RobertPattinson.png', 'Im_OrlandoBloom.png', 'Im_HughJackman.png', 'Im_MattDamon.png', 'Im_ElijahWood.png', 'Im_RyanReynolds.png'],same,1,0.45832460000019637,13,90.47619047619048,
MAEL2812,10,neg,0,neg0_id3_im6.bmp_neg0_id3_im17.bmp,['Im_LeonardoDiCaprio.png', 'Im_BenAffleck.png', 'Im_BradPitt.png', 'Im_RobertDowneyJr.png', 'Im_RobertPattinson.png', 'Im_OrlandoBloom.png', 'Im_HughJackman.png', 'Im_MattDamon.png', 'Im_ElijahWood.png', 'Im_RyanReynolds.png'],same,1,0.4250413000008848,14,90.47619047619048,
MAEL2812,10,neg,90,neg90_id16_im2.bmp_neg90_id14_im16.bmp,['Im_LeonardoDiCaprio.png', 'Im_BenAffleck.png', 'Im_BradPitt.png', 'Im_RobertDowneyJr.png', 'Im_RobertPattinson.png', 'Im_OrlandoBloom.png', 'Im_HughJackman.png', 'Im_MattDamon.png', 'Im_ElijahWood.png', 'Im_RyanReynolds.png'],same,0,0.8667514000007941,14,90.47619047619048,
MAEL2812,10,neg,0,neg0_id18_im11.bmp_neg0_id21_im22.bmp,['Im_LeonardoDiCaprio.png', 'Im_BenAffleck.png', 'Im_BradPitt.png', 'Im_RobertDowneyJr.png', 'Im_RobertPattinson.png', 'Im_OrlandoBloom.png', 'Im_HughJackman.png', 'Im_MattDamon.png', 'Im_ElijahWood.png', 'Im_RyanReynolds.png'],diff,1,0.42507670000122744,15,90.47619047619048,
MAEL2812,10,neg,120,neg120_id16_im3.bmp_neg120_id16_im2.bmp,['Im_LeonardoDiCaprio.png', 'Im_BenAffleck.png', 'Im_BradPitt.png', 'Im_RobertDowneyJr.png', 'Im_RobertPattinson.png', 'Im_OrlandoBloom.png', 'Im_HughJackman.png', 'Im_MattDamon.png', 'Im_ElijahWood.png', 'Im_RyanReynolds.png'],same,1,0.43350509999800124,16,90.47619047619048,
MAEL2812,10,neg,120,neg120_id13_im15.bmp_neg120_id13_im29.bmp,['Im_LeonardoDiCaprio.png', 'Im_BenAffleck.png', 'Im_BradPitt.png', 'Im_RobertDowneyJr.png', 'Im_RobertPattinson.png', 'Im_OrlandoBloom.png', 'Im_HughJackman.png', 'Im_MattDamon.png', 'Im_ElijahWood.png', 'Im_RyanReynolds.png'],diff,0,1.2167475999995077,16,90.47619047619048,
MAEL2812,10,neg,30,neg30_id19_im27.bmp_neg30_id3_im17.bmp,['Im_LeonardoDiCaprio.png', 'Im_BenAffleck.png', 'Im_BradPitt.png', 'Im_RobertDowneyJr.png', 'Im_RobertPattinson.png', 'Im_OrlandoBloom.png', 'Im_HughJackman.png', 'Im_MattDamon.png', 'Im_ElijahWood.png', 'Im_RyanReynolds.png'],diff,1,0.6333678000009968,17,90.47619047619048,
MAEL2812,10,neg,150,neg150_id13_im29.bmp_neg150_id1_im4.bmp,['Im_LeonardoDiCaprio.png', 'Im_BenAffleck.png', 'Im_BradPitt.png', 'Im_RobertDowneyJr.png', 'Im_RobertPattinson.png', 'Im_OrlandoBloom.png', 'Im_HughJackman.png', 'Im_MattDamon.png', 'Im_ElijahWood.png', 'Im_RyanReynolds.png'],diff,1,1.4751012999986415,18,90.47619047619048,
MAEL2812,10,neg,60,neg60_id1_im4.bmp_neg60_id3_im6.bmp,['Im_LeonardoDiCaprio.png', 'Im_BenAffleck.png', 'Im_BradPitt.png', 'Im_RobertDowneyJr.png', 'Im_RobertPattinson.png', 'Im_OrlandoBloom.png', 'Im_HughJackman.png', 'Im_MattDamon.png', 'Im_ElijahWood.png', 'Im_RyanReynolds.png'],diff,1,0.4168134999999893,19,90.47619047619048,
MAEL2812,10,neg,fs,negfs_id1_im4.bmp_negfs_id1_im24.bmp,['Im_LeonardoDiCaprio.png', 'Im_BenAffleck.png', 'Im_BradPitt.png', 'Im_RobertDowneyJr.png', 'Im_RobertPattinson.png', 'Im_OrlandoBloom.png', 'Im_HughJackman.png', 'Im_MattDamon.png', 'Im_ElijahWood.png', 'Im_RyanReynolds.png'],same,1,0.9500640999976895,20,90.47619047619048,
MAEL2812,10,neg,90,neg90_id19_im27.bmp_neg90_id3_im17.bmp,['Im_LeonardoDiCaprio.png', 'Im_BenAffleck.png', 'Im_BradPitt.png', 'Im_RobertDowneyJr.png', 'Im_RobertPattinson.png', 'Im_OrlandoBloom.png', 'Im_HughJackman.png', 'Im_MattDamon.png', 'Im_ElijahWood.png', 'Im_RyanReynolds.png'],diff,1,0.90839269999924,21,90.47619047619048,
MAEL2812,10,neg,60,neg60_id14_im18.bmp_neg60_id19_im27.bmp,['Im_LeonardoDiCaprio.png', 'Im_BenAffleck.png', 'Im_BradPitt.png', 'Im_RobertDowneyJr.png', 'Im_RobertPattinson.png', 'Im_OrlandoBloom.png', 'Im_HughJackman.png', 'Im_MattDamon.png', 'Im_ElijahWood.png', 'Im_RyanReynolds.png'],diff,1,0.7418806000023324,22,90.47619047619048,
MAEL2812,10,neg,30,neg30_id14_im16.bmp_neg30_id14_im24.bmp,['Im_LeonardoDiCaprio.png', 'Im_BenAffleck.png', 'Im_BradPitt.png', 'Im_RobertDowneyJr.png', 'Im_RobertPattinson.png', 'Im_OrlandoBloom.png', 'Im_HughJackman.png', 'Im_MattDamon.png', 'Im_ElijahWood.png', 'Im_RyanReynolds.png'],same,1,1.1751930999998876,23,90.47619047619048,
MAEL2812,10,neg,150,neg150_id13_im29.bmp_neg150_id13_im15.bmp,['Im_LeonardoDiCaprio.png', 'Im_BenAffleck.png', 'Im_BradPitt.png', 'Im_RobertDowneyJr.png', 'Im_RobertPattinson.png', 'Im_OrlandoBloom.png', 'Im_HughJackman.png', 'Im_MattDamon.png', 'Im_ElijahWood.png', 'Im_RyanReynolds.png'],diff,0,0.8085642000005464,23,90.47619047619048,
MAEL2812,10,neg,fs,negfs_id3_im8.bmp_negfs_id18_im18.bmp,['Im_LeonardoDiCaprio.png', 'Im_BenAffleck.png', 'Im_BradPitt.png', 'Im_RobertDowneyJr.png', 'Im_RobertPattinson.png', 'Im_OrlandoBloom.png', 'Im_HughJackman.png', 'Im_MattDamon.png', 'Im_ElijahWood.png', 'Im_RyanReynolds.png'],diff,1,1.3502164999990782,24,90.47619047619048,
MAEL2812,11,inv,60,pos60_id13_im10.bmp_pos60_id13_im15.bmp,['Im_LeonardoDiCaprio.png', 'Im_BenAffleck.png', 'Im_BradPitt.png', 'Im_RobertDowneyJr.png', 'Im_RobertPattinson.png', 'Im_OrlandoBloom.png', 'Im_HughJackman.png', 'Im_MattDamon.png', 'Im_ElijahWood.png', 'Im_RyanReynolds.png'],same,1,1.2167790999992576,25,90.47619047619048,
MAEL2812,11,inv,90,pos90_id1_im4.bmp_pos90_id13_im29.bmp,['Im_LeonardoDiCaprio.png', 'Im_BenAffleck.png', 'Im_BradPitt.png', 'Im_RobertDowneyJr.png', 'Im_RobertPattinson.png', 'Im_OrlandoBloom.png', 'Im_HughJackman.png', 'Im_MattDamon.png', 'Im_ElijahWood.png', 'Im_RyanReynolds.png'],diff,1,0.8082465000006778,26,90.47619047619048,
MAEL2812,11,inv,fs,posfs_id13_im29.bmp_posfs_id13_im10.bmp,['Im_LeonardoDiCaprio.png', 'Im_BenAffleck.png', 'Im_BradPitt.png', 'Im_RobertDowneyJr.png', 'Im_RobertPattinson.png', 'Im_OrlandoBloom.png', 'Im_HughJackman.png', 'Im_MattDamon.png', 'Im_ElijahWood.png', 'Im_RyanReynolds.png'],same,1,0.7167762999997649,27,90.47619047619048,
MAEL2812,11,inv,fs,posfs_id6_im18.bmp_posfs_id16_im2.bmp,['Im_LeonardoDiCaprio.png', 'Im_BenAffleck.png', 'Im_BradPitt.png', 'Im_RobertDowneyJr.png', 'Im_RobertPattinson.png', 'Im_OrlandoBloom.png', 'Im_HughJackman.png', 'Im_MattDamon.png', 'Im_ElijahWood.png', 'Im_RyanReynolds.png'],diff,1,0.5085902000028,28,90.47619047619048,
MAEL2812,11,inv,150,pos150_id13_im10.bmp_pos150_id13_im15.bmp,['Im_LeonardoDiCaprio.png', 'Im_BenAffleck.png', 'Im_BradPitt.png', 'Im_RobertDowneyJr.png', 'Im_RobertPattinson.png', 'Im_OrlandoBloom.png', 'Im_HughJackman.png', 'Im_MattDamon.png', 'Im_ElijahWood.png', 'Im_RyanReynolds.png'],same,1,0.8834739000012632,29,90.47619047619048,
MAEL2812,11,inv,60,pos60_id13_im10.bmp_pos60_id13_im29.bmp,['Im_LeonardoDiCaprio.png', 'Im_BenAffleck.png', 'Im_BradPitt.png', 'Im_RobertDowneyJr.png', 'Im_RobertPattinson.png', 'Im_OrlandoBloom.png', 'Im_HughJackman.png', 'Im_MattDamon.png', 'Im_ElijahWood.png', 'Im_RyanReynolds.png'],same,1,0.5334440999977232,30,90.47619047619048,
MAEL2812,11,inv,90,pos90_id13_im15.bmp_pos90_id13_im10.bmp,['Im_LeonardoDiCaprio.png', 'Im_BenAffleck.png', 'Im_BradPitt.png', 'Im_RobertDowneyJr.png', 'Im_RobertPattinson.png', 'Im_OrlandoBloom.png', 'Im_HughJackman.png', 'Im_MattDamon.png', 'Im_ElijahWood.png', 'Im_RyanReynolds.png'],same,1,0.42528350000065984,31,90.47619047619048,
MAEL2812,11,inv,150,pos150_id8_im20.bmp_pos150_id8_im13.bmp,['Im_LeonardoDiCaprio.png', 'Im_BenAffleck.png', 'Im_BradPitt.png', 'Im_RobertDowneyJr.png', 'Im_RobertPattinson.png', 'Im_OrlandoBloom.png', 'Im_HughJackman.png', 'Im_MattDamon.png', 'Im_ElijahWood.png', 'Im_RyanReynolds.png'],same,1,0.41677569999956177,32,90.47619047619048,
MAEL2812,11,inv,0,pos0_id13_im10.bmp_pos0_id21_im16.bmp,['Im_LeonardoDiCaprio.png', 'Im_BenAffleck.png', 'Im_BradPitt.png', 'Im_RobertDowneyJr.png', 'Im_RobertPattinson.png', 'Im_OrlandoBloom.png', 'Im_HughJackman.png', 'Im_MattDamon.png', 'Im_ElijahWood.png', 'Im_RyanReynolds.png'],diff,1,1.841998899999453,33,90.47619047619048,
MAEL2812,11,inv,120,pos120_id13_im29.bmp_pos120_id13_im10.bmp,['Im_LeonardoDiCaprio.png', 'Im_BenAffleck.png', 'Im_BradPitt.png', 'Im_RobertDowneyJr.png', 'Im_RobertPattinson.png', 'Im_OrlandoBloom.png', 'Im_HughJackman.png', 'Im_MattDamon.png', 'Im_ElijahWood.png', 'Im_RyanReynolds.png'],same,1,0.4251023999968311,34,90.47619047619048,
MAEL2812,11,inv,30,pos30_id21_im16.bmp_pos30_id13_im10.bmp,['Im_LeonardoDiCaprio.png', 'Im_BenAffleck.png', 'Im_BradPitt.png', 'Im_RobertDowneyJr.png', 'Im_RobertPattinson.png', 'Im_OrlandoBloom.png', 'Im_HughJackman.png', 'Im_MattDamon.png', 'Im_ElijahWood.png', 'Im_RyanReynolds.png'],diff,1,0.4250441000003775,35,90.47619047619048,
MAEL2812,11,inv,120,pos120_id8_im20.bmp_pos120_id1_im21.bmp,['Im_LeonardoDiCaprio.png', 'Im_BenAffleck.png', 'Im_BradPitt.png', 'Im_RobertDowneyJr.png', 'Im_RobertPattinson.png', 'Im_OrlandoBloom.png', 'Im_HughJackman.png', 'Im_MattDamon.png', 'Im_ElijahWood.png', 'Im_RyanReynolds.png'],diff,1,0.750143900000694,36,90.47619047619048,
MAEL2812,11,inv,0,pos0_id6_im19.bmp_pos0_id6_im12.bmp,['Im_LeonardoDiCaprio.png', 'Im_BenAffleck.png', 'Im_BradPitt.png', 'Im_RobertDowneyJr.png', 'Im_RobertPattinson.png', 'Im_OrlandoBloom.png', 'Im_HughJackman.png', 'Im_MattDamon.png', 'Im_ElijahWood.png', 'Im_RyanReynolds.png'],same,1,1.0667796000016097,37,90.47619047619048,
MAEL2812,11,inv,30,pos30_id16_im3.bmp_pos30_id16_im19.bmp,['Im_LeonardoDiCaprio.png', 'Im_BenAffleck.png', 'Im_BradPitt.png', 'Im_RobertDowneyJr.png', 'Im_RobertPattinson.png', 'Im_OrlandoBloom.png', 'Im_HughJackman.png', 'Im_MattDamon.png', 'Im_ElijahWood.png', 'Im_RyanReynolds.png'],same,1,0.7669462000012572,38,90.47619047619048,
MAEL2812,12,pos,30,pos30_id18_im11.bmp_pos30_id21_im22.bmp,['Im_LeonardoDiCaprio.png', 'Im_BenAffleck.png', 'Im_BradPitt.png', 'Im_RobertDowneyJr.png', 'Im_RobertPattinson.png', 'Im_OrlandoBloom.png', 'Im_HughJackman.png', 'Im_MattDamon.png', 'Im_ElijahWood.png', 'Im_RyanReynolds.png'],diff,1,1.3083438000030583,1,90.47619047619048,
MAEL2812,12,pos,150,pos150_id8_im13.bmp_pos150_id8_im20.bmp,['Im_LeonardoDiCaprio.png', 'Im_BenAffleck.png', 'Im_BradPitt.png', 'Im_RobertDowneyJr.png', 'Im_RobertPattinson.png', 'Im_OrlandoBloom.png', 'Im_HughJackman.png', 'Im_MattDamon.png', 'Im_ElijahWood.png', 'Im_RyanReynolds.png'],same,1,0.6835078000003705,2,90.47619047619048,
MAEL2812,12,pos,fs,posfs_id1_im21.bmp_posfs_id1_im24.bmp,['Im_LeonardoDiCaprio.png', 'Im_BenAffleck.png', 'Im_BradPitt.png', 'Im_RobertDowneyJr.png', 'Im_RobertPattinson.png', 'Im_OrlandoBloom.png', 'Im_HughJackman.png', 'Im_MattDamon.png', 'Im_ElijahWood.png', 'Im_RyanReynolds.png'],same,1,0.4168710999983887,3,90.47619047619048,
MAEL2812,12,pos,120,pos120_id21_im16.bmp_pos120_id13_im10.bmp,['Im_LeonardoDiCaprio.png', 'Im_BenAffleck.png', 'Im_BradPitt.png', 'Im_RobertDowneyJr.png', 'Im_RobertPattinson.png', 'Im_OrlandoBloom.png', 'Im_HughJackman.png', 'Im_MattDamon.png', 'Im_ElijahWood.png', 'Im_RyanReynolds.png'],diff,1,1.1749052999984997,4,90.47619047619048,
MAEL2812,12,pos,150,pos150_id13_im15.bmp_pos150_id13_im10.bmp,['Im_LeonardoDiCaprio.png', 'Im_BenAffleck.png', 'Im_BradPitt.png', 'Im_RobertDowneyJr.png', 'Im_RobertPattinson.png', 'Im_OrlandoBloom.png', 'Im_HughJackman.png', 'Im_MattDamon.png', 'Im_ElijahWood.png', 'Im_RyanReynolds.png'],same,1,0.4083442000010109,5,90.47619047619048,
MAEL2812,12,pos,30,pos30_id3_im6.bmp_pos30_id8_im13.bmp,['Im_LeonardoDiCaprio.png', 'Im_BenAffleck.png', 'Im_BradPitt.png', 'Im_RobertDowneyJr.png', 'Im_RobertPattinson.png', 'Im_OrlandoBloom.png', 'Im_HughJackman.png', 'Im_MattDamon.png', 'Im_ElijahWood.png', 'Im_RyanReynolds.png'],diff,1,0.43334580000009737,6,90.47619047619048,
MAEL2812,12,pos,0,pos0_id13_im15.bmp_pos0_id13_im29.bmp,['Im_LeonardoDiCaprio.png', 'Im_BenAffleck.png', 'Im_BradPitt.png', 'Im_RobertDowneyJr.png', 'Im_RobertPattinson.png', 'Im_OrlandoBloom.png', 'Im_HughJackman.png', 'Im_MattDamon.png', 'Im_ElijahWood.png', 'Im_RyanReynolds.png'],same,1,1.5749630999998772,7,90.47619047619048,
MAEL2812,12,pos,60,pos60_id21_im22.bmp_pos60_id8_im21.bmp,['Im_LeonardoDiCaprio.png', 'Im_BenAffleck.png', 'Im_BradPitt.png', 'Im_RobertDowneyJr.png', 'Im_RobertPattinson.png', 'Im_OrlandoBloom.png', 'Im_HughJackman.png', 'Im_MattDamon.png', 'Im_ElijahWood.png', 'Im_RyanReynolds.png'],diff,1,0.4167701999976998,8,90.47619047619048,
MAEL2812,12,pos,60,pos60_id18_im19.bmp_pos60_id18_im18.bmp,['Im_LeonardoDiCaprio.png', 'Im_BenAffleck.png', 'Im_BradPitt.png', 'Im_RobertDowneyJr.png', 'Im_RobertPattinson.png', 'Im_OrlandoBloom.png', 'Im_HughJackman.png', 'Im_MattDamon.png', 'Im_ElijahWood.png', 'Im_RyanReynolds.png'],same,1,0.4168085000019346,9,90.47619047619048,
MAEL2812,12,pos,90,pos90_id18_im19.bmp_pos90_id18_im18.bmp,['Im_LeonardoDiCaprio.png', 'Im_BenAffleck.png', 'Im_BradPitt.png', 'Im_RobertDowneyJr.png', 'Im_RobertPattinson.png', 'Im_OrlandoBloom.png', 'Im_HughJackman.png', 'Im_MattDamon.png', 'Im_ElijahWood.png', 'Im_RyanReynolds.png'],same,1,0.5415515999993659,10,90.47619047619048,
MAEL2812,12,pos,0,pos0_id21_im22.bmp_pos0_id21_im17.bmp,['Im_LeonardoDiCaprio.png', 'Im_BenAffleck.png', 'Im_BradPitt.png', 'Im_RobertDowneyJr.png', 'Im_RobertPattinson.png', 'Im_OrlandoBloom.png', 'Im_HughJackman.png', 'Im_MattDamon.png', 'Im_ElijahWood.png', 'Im_RyanReynolds.png'],same,1,0.4250810999983514,11,90.47619047619048,
MAEL2812,12,pos,120,pos120_id14_im16.bmp_pos120_id16_im2.bmp,['Im_LeonardoDiCaprio.png', 'Im_BenAffleck.png', 'Im_BradPitt.png', 'Im_RobertDowneyJr.png', 'Im_RobertPattinson.png', 'Im_OrlandoBloom.png', 'Im_HughJackman.png', 'Im_MattDamon.png', 'Im_ElijahWood.png', 'Im_RyanReynolds.png'],diff,1,0.500204300002224,12,90.47619047619048,
MAEL2812,12,pos,90,pos90_id21_im16.bmp_pos90_id21_im22.bmp,['Im_LeonardoDiCaprio.png', 'Im_BenAffleck.png', 'Im_BradPitt.png', 'Im_RobertDowneyJr.png', 'Im_RobertPattinson.png', 'Im_OrlandoBloom.png', 'Im_HughJackman.png', 'Im_MattDamon.png', 'Im_ElijahWood.png', 'Im_RyanReynolds.png'],same,1,0.5250649000008707,13,90.47619047619048,
MAEL2812,12,pos,fs,posfs_id16_im3.bmp_posfs_id8_im13.bmp,['Im_LeonardoDiCaprio.png', 'Im_BenAffleck.png', 'Im_BradPitt.png', 'Im_RobertDowneyJr.png', 'Im_RobertPattinson.png', 'Im_OrlandoBloom.png', 'Im_HughJackman.png', 'Im_MattDamon.png', 'Im_ElijahWood.png', 'Im_RyanReynolds.png'],diff,1,0.40831169999728445,14,90.47619047619048,
MAEL2812,13,pos,0,pos0_id1_im21.bmp_pos0_id1_im24.bmp,['Im_LeonardoDiCaprio.png', 'Im_BenAffleck.png', 'Im_BradPitt.png', 'Im_RobertDowneyJr.png', 'Im_RobertPattinson.png', 'Im_OrlandoBloom.png', 'Im_HughJackman.png', 'Im_MattDamon.png', 'Im_ElijahWood.png', 'Im_RyanReynolds.png'],same,1,0.4167429000008269,15,90.47619047619048,
MAEL2812,13,pos,30,pos30_id18_im11.bmp_pos30_id14_im18.bmp,['Im_LeonardoDiCaprio.png', 'Im_BenAffleck.png', 'Im_BradPitt.png', 'Im_RobertDowneyJr.png', 'Im_RobertPattinson.png', 'Im_OrlandoBloom.png', 'Im_HughJackman.png', 'Im_MattDamon.png', 'Im_ElijahWood.png', 'Im_RyanReynolds.png'],diff,1,0.43340810000154306,16,90.47619047619048,
MAEL2812,13,pos,90,pos90_id3_im6.bmp_pos90_id1_im4.bmp,['Im_LeonardoDiCaprio.png', 'Im_BenAffleck.png', 'Im_BradPitt.png', 'Im_RobertDowneyJr.png', 'Im_RobertPattinson.png', 'Im_OrlandoBloom.png', 'Im_HughJackman.png', 'Im_MattDamon.png', 'Im_ElijahWood.png', 'Im_RyanReynolds.png'],diff,1,0.4085185999974783,17,90.47619047619048,
MAEL2812,13,pos,fs,posfs_id21_im16.bmp_posfs_id13_im10.bmp,['Im_LeonardoDiCaprio.png', 'Im_BenAffleck.png', 'Im_BradPitt.png', 'Im_RobertDowneyJr.png', 'Im_RobertPattinson.png', 'Im_OrlandoBloom.png', 'Im_HughJackman.png', 'Im_MattDamon.png', 'Im_ElijahWood.png', 'Im_RyanReynolds.png'],diff,1,0.4167842999995628,18,90.47619047619048,
MAEL2812,13,pos,150,pos150_id1_im21.bmp_pos150_id8_im20.bmp,['Im_LeonardoDiCaprio.png', 'Im_BenAffleck.png', 'Im_BradPitt.png', 'Im_RobertDowneyJr.png', 'Im_RobertPattinson.png', 'Im_OrlandoBloom.png', 'Im_HughJackman.png', 'Im_MattDamon.png', 'Im_ElijahWood.png', 'Im_RyanReynolds.png'],diff,1,0.42507779999868944,19,90.47619047619048,
MAEL2812,13,pos,120,pos120_id14_im16.bmp_pos120_id14_im18.bmp,['Im_LeonardoDiCaprio.png', 'Im_BenAffleck.png', 'Im_BradPitt.png', 'Im_RobertDowneyJr.png', 'Im_RobertPattinson.png', 'Im_OrlandoBloom.png', 'Im_HughJackman.png', 'Im_MattDamon.png', 'Im_ElijahWood.png', 'Im_RyanReynolds.png'],same,1,0.41677920000074664,20,90.47619047619048,
MAEL2812,13,pos,60,pos60_id19_im27.bmp_pos60_id14_im18.bmp,['Im_LeonardoDiCaprio.png', 'Im_BenAffleck.png', 'Im_BradPitt.png', 'Im_RobertDowneyJr.png', 'Im_RobertPattinson.png', 'Im_OrlandoBloom.png', 'Im_HughJackman.png', 'Im_MattDamon.png', 'Im_ElijahWood.png', 'Im_RyanReynolds.png'],diff,1,0.60062040000048,21,90.47619047619048,
MAEL2812,13,pos,150,pos150_id6_im19.bmp_pos150_id1_im24.bmp,['Im_LeonardoDiCaprio.png', 'Im_BenAffleck.png', 'Im_BradPitt.png', 'Im_RobertDowneyJr.png', 'Im_RobertPattinson.png', 'Im_OrlandoBloom.png', 'Im_HughJackman.png', 'Im_MattDamon.png', 'Im_ElijahWood.png', 'Im_RyanReynolds.png'],diff,1,0.4501218000004883,22,90.47619047619048,
MAEL2812,13,pos,90,pos90_id8_im13.bmp_pos90_id3_im6.bmp,['Im_LeonardoDiCaprio.png', 'Im_BenAffleck.png', 'Im_BradPitt.png', 'Im_RobertDowneyJr.png', 'Im_RobertPattinson.png', 'Im_OrlandoBloom.png', 'Im_HughJackman.png', 'Im_MattDamon.png', 'Im_ElijahWood.png', 'Im_RyanReynolds.png'],diff,1,0.8836172000010265,23,90.47619047619048,
MAEL2812,13,pos,60,pos60_id14_im16.bmp_pos60_id14_im18.bmp,['Im_LeonardoDiCaprio.png', 'Im_BenAffleck.png', 'Im_BradPitt.png', 'Im_RobertDowneyJr.png', 'Im_RobertPattinson.png', 'Im_OrlandoBloom.png', 'Im_HughJackman.png', 'Im_MattDamon.png', 'Im_ElijahWood.png', 'Im_RyanReynolds.png'],same,1,0.4834092999990389,24,90.47619047619048,
MAEL2812,13,pos,fs,posfs_id13_im10.bmp_posfs_id13_im29.bmp,['Im_LeonardoDiCaprio.png', 'Im_BenAffleck.png', 'Im_BradPitt.png', 'Im_RobertDowneyJr.png', 'Im_RobertPattinson.png', 'Im_OrlandoBloom.png', 'Im_HughJackman.png', 'Im_MattDamon.png', 'Im_ElijahWood.png', 'Im_RyanReynolds.png'],same,1,0.6836007999991125,25,90.47619047619048,
MAEL2812,13,pos,30,pos30_id18_im11.bmp_pos30_id18_im18.bmp,['Im_LeonardoDiCaprio.png', 'Im_BenAffleck.png', 'Im_BradPitt.png', 'Im_RobertDowneyJr.png', 'Im_RobertPattinson.png', 'Im_OrlandoBloom.png', 'Im_HughJackman.png', 'Im_MattDamon.png', 'Im_ElijahWood.png', 'Im_RyanReynolds.png'],same,1,0.41677379999964614,26,90.47619047619048,
MAEL2812,13,pos,120,pos120_id1_im24.bmp_pos120_id6_im18.bmp,['Im_LeonardoDiCaprio.png', 'Im_BenAffleck.png', 'Im_BradPitt.png', 'Im_RobertDowneyJr.png', 'Im_RobertPattinson.png', 'Im_OrlandoBloom.png', 'Im_HughJackman.png', 'Im_MattDamon.png', 'Im_ElijahWood.png', 'Im_RyanReynolds.png'],diff,1,0.5333318000011786,27,90.47619047619048,
MAEL2812,13,pos,0,pos0_id6_im18.bmp_pos0_id6_im12.bmp,['Im_LeonardoDiCaprio.png', 'Im_BenAffleck.png', 'Im_BradPitt.png', 'Im_RobertDowneyJr.png', 'Im_RobertPattinson.png', 'Im_OrlandoBloom.png', 'Im_HughJackman.png', 'Im_MattDamon.png', 'Im_ElijahWood.png', 'Im_RyanReynolds.png'],same,1,0.4167181000011624,28,90.47619047619048,
MAEL2812,14,neg,150,neg150_id14_im18.bmp_neg150_id14_im24.bmp,['Im_LeonardoDiCaprio.png', 'Im_BenAffleck.png', 'Im_BradPitt.png', 'Im_RobertDowneyJr.png', 'Im_RobertPattinson.png', 'Im_OrlandoBloom.png', 'Im_HughJackman.png', 'Im_MattDamon.png', 'Im_ElijahWood.png', 'Im_RyanReynolds.png'],same,1,0.49168680000002496,29,90.47619047619048,
MAEL2812,14,neg,60,neg60_id13_im29.bmp_neg60_id14_im24.bmp,['Im_LeonardoDiCaprio.png', 'Im_BenAffleck.png', 'Im_BradPitt.png', 'Im_RobertDowneyJr.png', 'Im_RobertPattinson.png', 'Im_OrlandoBloom.png', 'Im_HughJackman.png', 'Im_MattDamon.png', 'Im_ElijahWood.png', 'Im_RyanReynolds.png'],diff,1,0.5586661000015738,30,90.47619047619048,
MAEL2812,14,neg,30,neg30_id18_im18.bmp_neg30_id18_im11.bmp,['Im_LeonardoDiCaprio.png', 'Im_BenAffleck.png', 'Im_BradPitt.png', 'Im_RobertDowneyJr.png', 'Im_RobertPattinson.png', 'Im_OrlandoBloom.png', 'Im_HughJackman.png', 'Im_MattDamon.png', 'Im_ElijahWood.png', 'Im_RyanReynolds.png'],same,1,0.41688730000169016,31,90.47619047619048,
MAEL2812,14,neg,0,neg0_id19_im27.bmp_neg0_id19_im8.bmp,['Im_LeonardoDiCaprio.png', 'Im_BenAffleck.png', 'Im_BradPitt.png', 'Im_RobertDowneyJr.png', 'Im_RobertPattinson.png', 'Im_OrlandoBloom.png', 'Im_HughJackman.png', 'Im_MattDamon.png', 'Im_ElijahWood.png', 'Im_RyanReynolds.png'],same,1,0.5335639000004448,32,90.47619047619048,
MAEL2812,14,neg,150,neg150_id21_im17.bmp_neg150_id21_im22.bmp,['Im_LeonardoDiCaprio.png', 'Im_BenAffleck.png', 'Im_BradPitt.png', 'Im_RobertDowneyJr.png', 'Im_RobertPattinson.png', 'Im_OrlandoBloom.png', 'Im_HughJackman.png', 'Im_MattDamon.png', 'Im_ElijahWood.png', 'Im_RyanReynolds.png'],same,1,0.5334038000000874,33,90.47619047619048,
MAEL2812,14,neg,120,neg120_id16_im2.bmp_neg120_id6_im18.bmp,['Im_LeonardoDiCaprio.png', 'Im_BenAffleck.png', 'Im_BradPitt.png', 'Im_RobertDowneyJr.png', 'Im_RobertPattinson.png', 'Im_OrlandoBloom.png', 'Im_HughJackman.png', 'Im_MattDamon.png', 'Im_ElijahWood.png', 'Im_RyanReynolds.png'],diff,1,0.8001039000009769,34,90.47619047619048,
MAEL2812,14,neg,fs,negfs_id16_im3.bmp_negfs_id8_im13.bmp,['Im_LeonardoDiCaprio.png', 'Im_BenAffleck.png', 'Im_BradPitt.png', 'Im_RobertDowneyJr.png', 'Im_RobertPattinson.png', 'Im_OrlandoBloom.png', 'Im_HughJackman.png', 'Im_MattDamon.png', 'Im_ElijahWood.png', 'Im_RyanReynolds.png'],diff,1,0.41674350000175764,35,90.47619047619048,
MAEL2812,14,neg,fs,negfs_id13_im15.bmp_negfs_id18_im18.bmp,['Im_LeonardoDiCaprio.png', 'Im_BenAffleck.png', 'Im_BradPitt.png', 'Im_RobertDowneyJr.png', 'Im_RobertPattinson.png', 'Im_OrlandoBloom.png', 'Im_HughJackman.png', 'Im_MattDamon.png', 'Im_ElijahWood.png', 'Im_RyanReynolds.png'],diff,1,0.416757900002267,36,90.47619047619048,
MAEL2812,14,neg,120,neg120_id19_im27.bmp_neg120_id3_im17.bmp,['Im_LeonardoDiCaprio.png', 'Im_BenAffleck.png', 'Im_BradPitt.png', 'Im_RobertDowneyJr.png', 'Im_RobertPattinson.png', 'Im_OrlandoBloom.png', 'Im_HughJackman.png', 'Im_MattDamon.png', 'Im_ElijahWood.png', 'Im_RyanReynolds.png'],diff,1,0.5499497000018891,37,90.47619047619048,
MAEL2812,14,neg,30,neg30_id6_im12.bmp_neg30_id13_im10.bmp,['Im_LeonardoDiCaprio.png', 'Im_BenAffleck.png', 'Im_BradPitt.png', 'Im_RobertDowneyJr.png', 'Im_RobertPattinson.png', 'Im_OrlandoBloom.png', 'Im_HughJackman.png', 'Im_MattDamon.png', 'Im_ElijahWood.png', 'Im_RyanReynolds.png'],diff,1,0.450323599998228,38,90.47619047619048,
MAEL2812,14,neg,90,neg90_id16_im2.bmp_neg90_id16_im19.bmp,['Im_LeonardoDiCaprio.png', 'Im_BenAffleck.png', 'Im_BradPitt.png', 'Im_RobertDowneyJr.png', 'Im_RobertPattinson.png', 'Im_OrlandoBloom.png', 'Im_HughJackman.png', 'Im_MattDamon.png', 'Im_ElijahWood.png', 'Im_RyanReynolds.png'],same,1,0.4584943999980169,39,90.47619047619048,
MAEL2812,14,neg,90,neg90_id1_im4.bmp_neg90_id3_im6.bmp,['Im_LeonardoDiCaprio.png', 'Im_BenAffleck.png', 'Im_BradPitt.png', 'Im_RobertDowneyJr.png', 'Im_RobertPattinson.png', 'Im_OrlandoBloom.png', 'Im_HughJackman.png', 'Im_MattDamon.png', 'Im_ElijahWood.png', 'Im_RyanReynolds.png'],diff,1,0.5505137000000104,40,90.47619047619048,
MAEL2812,14,neg,0,neg0_id14_im18.bmp_neg0_id18_im11.bmp,['Im_LeonardoDiCaprio.png', 'Im_BenAffleck.png', 'Im_BradPitt.png', 'Im_RobertDowneyJr.png', 'Im_RobertPattinson.png', 'Im_OrlandoBloom.png', 'Im_HughJackman.png', 'Im_MattDamon.png', 'Im_ElijahWood.png', 'Im_RyanReynolds.png'],same,0,1.2086060000001453,40,90.47619047619048,
MAEL2812,14,neg,60,neg60_id6_im12.bmp_neg60_id6_im18.bmp,['Im_LeonardoDiCaprio.png', 'Im_BenAffleck.png', 'Im_BradPitt.png', 'Im_RobertDowneyJr.png', 'Im_RobertPattinson.png', 'Im_OrlandoBloom.png', 'Im_HughJackman.png', 'Im_MattDamon.png', 'Im_ElijahWood.png', 'Im_RyanReynolds.png'],same,1,0.7082717000012053,41,90.47619047619048,
MAEL2812,15,inv,30,pos30_id16_im2.bmp_pos30_id16_im19.bmp,['Im_LeonardoDiCaprio.png', 'Im_BenAffleck.png', 'Im_BradPitt.png', 'Im_RobertDowneyJr.png', 'Im_RobertPattinson.png', 'Im_OrlandoBloom.png', 'Im_HughJackman.png', 'Im_MattDamon.png', 'Im_ElijahWood.png', 'Im_RyanReynolds.png'],same,1,1.2334227999999712,1,97.61904761904762,
MAEL2812,15,inv,90,pos90_id18_im11.bmp_pos90_id18_im19.bmp,['Im_LeonardoDiCaprio.png', 'Im_BenAffleck.png', 'Im_BradPitt.png', 'Im_RobertDowneyJr.png', 'Im_RobertPattinson.png', 'Im_OrlandoBloom.png', 'Im_HughJackman.png', 'Im_MattDamon.png', 'Im_ElijahWood.png', 'Im_RyanReynolds.png'],same,1,2.5170354999972915,2,97.61904761904762,
MAEL2812,15,inv,150,pos150_id8_im13.bmp_pos150_id16_im3.bmp,['Im_LeonardoDiCaprio.png', 'Im_BenAffleck.png', 'Im_BradPitt.png', 'Im_RobertDowneyJr.png', 'Im_RobertPattinson.png', 'Im_OrlandoBloom.png', 'Im_HughJackman.png', 'Im_MattDamon.png', 'Im_ElijahWood.png', 'Im_RyanReynolds.png'],same,0,1.8003120999965176,2,97.61904761904762,
MAEL2812,15,inv,30,pos30_id21_im17.bmp_pos30_id21_im16.bmp,['Im_LeonardoDiCaprio.png', 'Im_BenAffleck.png', 'Im_BradPitt.png', 'Im_RobertDowneyJr.png', 'Im_RobertPattinson.png', 'Im_OrlandoBloom.png', 'Im_HughJackman.png', 'Im_MattDamon.png', 'Im_ElijahWood.png', 'Im_RyanReynolds.png'],same,1,0.42512450000140234,3,97.61904761904762,
MAEL2812,15,inv,fs,posfs_id19_im27.bmp_posfs_id19_im8.bmp,['Im_LeonardoDiCaprio.png', 'Im_BenAffleck.png', 'Im_BradPitt.png', 'Im_RobertDowneyJr.png', 'Im_RobertPattinson.png', 'Im_OrlandoBloom.png', 'Im_HughJackman.png', 'Im_MattDamon.png', 'Im_ElijahWood.png', 'Im_RyanReynolds.png'],same,1,0.4250490999984322,4,97.61904761904762,
MAEL2812,15,inv,60,pos60_id16_im2.bmp_pos60_id16_im3.bmp,['Im_LeonardoDiCaprio.png', 'Im_BenAffleck.png', 'Im_BradPitt.png', 'Im_RobertDowneyJr.png', 'Im_RobertPattinson.png', 'Im_OrlandoBloom.png', 'Im_HughJackman.png', 'Im_MattDamon.png', 'Im_ElijahWood.png', 'Im_RyanReynolds.png'],diff,0,2.166772000000492,4,97.61904761904762,
MAEL2812,15,inv,0,pos0_id14_im24.bmp_pos0_id14_im18.bmp,['Im_LeonardoDiCaprio.png', 'Im_BenAffleck.png', 'Im_BradPitt.png', 'Im_RobertDowneyJr.png', 'Im_RobertPattinson.png', 'Im_OrlandoBloom.png', 'Im_HughJackman.png', 'Im_MattDamon.png', 'Im_ElijahWood.png', 'Im_RyanReynolds.png'],same,1,0.4168247999987216,5,97.61904761904762,
