Sujet,Trial,Condition,Filter,Imname,Actor0,Actor1,Actor2,Actor3,Actor4,Actor5,Actor6,Actor7,Actor8,Actor9,Answer,Accu,RT,Score,Scoreperc, 
MAEL2812,train,neg,60,neg60_id3_im17.bmp_neg60_id3_im8.bmp,['Im_RobertPattinson.png', 'Im_OrlandoBloom.png', 'Im_MattDamon.png', 'Im_RobertDowneyJr.png', 'Im_LeonardoDiCaprio.png', 'Im_ElijahWood.png', 'Im_RyanReynolds.png', 'Im_BenAffleck.png', 'Im_HughJackman.png', 'Im_BradPitt.png'],diff,0,3.050045500000124,0,0,
MAEL2812,train,neg,0,neg0_id16_im2.bmp_neg0_id16_im19.bmp,['Im_RobertPattinson.png', 'Im_OrlandoBloom.png', 'Im_MattDamon.png', 'Im_RobertDowneyJr.png', 'Im_LeonardoDiCaprio.png', 'Im_ElijahWood.png', 'Im_RyanReynolds.png', 'Im_BenAffleck.png', 'Im_HughJackman.png', 'Im_BradPitt.png'],diff,0,0.7753539000004821,0,0,
MAEL2812,train,neg,90,neg90_id1_im4.bmp_neg90_id1_im24.bmp,['Im_RobertPattinson.png', 'Im_OrlandoBloom.png', 'Im_MattDamon.png', 'Im_RobertDowneyJr.png', 'Im_LeonardoDiCaprio.png', 'Im_ElijahWood.png', 'Im_RyanReynolds.png', 'Im_BenAffleck.png', 'Im_HughJackman.png', 'Im_BradPitt.png'],same,1,0.43370649999997113,1,0,
MAEL2812,train,neg,30,neg30_id19_im8.bmp_neg30_id19_im4.bmp,['Im_RobertPattinson.png', 'Im_OrlandoBloom.png', 'Im_MattDamon.png', 'Im_RobertDowneyJr.png', 'Im_LeonardoDiCaprio.png', 'Im_ElijahWood.png', 'Im_RyanReynolds.png', 'Im_BenAffleck.png', 'Im_HughJackman.png', 'Im_BradPitt.png'],diff,0,1.6333254999990459,1,0,
MAEL2812,train,neg,fs,negfs_id19_im27.bmp_negfs_id19_im8.bmp,['Im_RobertPattinson.png', 'Im_OrlandoBloom.png', 'Im_MattDamon.png', 'Im_RobertDowneyJr.png', 'Im_LeonardoDiCaprio.png', 'Im_ElijahWood.png', 'Im_RyanReynolds.png', 'Im_BenAffleck.png', 'Im_HughJackman.png', 'Im_BradPitt.png'],same,1,0.4166992999998911,2,0,
MAEL2812,train,neg,120,neg120_id3_im6.bmp_neg120_id3_im8.bmp,['Im_RobertPattinson.png', 'Im_OrlandoBloom.png', 'Im_MattDamon.png', 'Im_RobertDowneyJr.png', 'Im_LeonardoDiCaprio.png', 'Im_ElijahWood.png', 'Im_RyanReynolds.png', 'Im_BenAffleck.png', 'Im_HughJackman.png', 'Im_BradPitt.png'],same,1,0.4083173999988503,3,0,
MAEL2812,train,neg,150,neg150_id13_im15.bmp_neg150_id13_im10.bmp,['Im_RobertPattinson.png', 'Im_OrlandoBloom.png', 'Im_MattDamon.png', 'Im_RobertDowneyJr.png', 'Im_LeonardoDiCaprio.png', 'Im_ElijahWood.png', 'Im_RyanReynolds.png', 'Im_BenAffleck.png', 'Im_HughJackman.png', 'Im_BradPitt.png'],same,1,0.5667121000005864,4,0,
MAEL2812,train,neg,30,neg30_id3_im17.bmp_neg30_id3_im6.bmp,['Im_RobertPattinson.png', 'Im_OrlandoBloom.png', 'Im_MattDamon.png', 'Im_RobertDowneyJr.png', 'Im_LeonardoDiCaprio.png', 'Im_ElijahWood.png', 'Im_RyanReynolds.png', 'Im_BenAffleck.png', 'Im_HughJackman.png', 'Im_BradPitt.png'],same,1,0.4335286999994423,5,0,
MAEL2812,train,neg,90,neg90_id6_im12.bmp_neg90_id6_im19.bmp,['Im_RobertPattinson.png', 'Im_OrlandoBloom.png', 'Im_MattDamon.png', 'Im_RobertDowneyJr.png', 'Im_LeonardoDiCaprio.png', 'Im_ElijahWood.png', 'Im_RyanReynolds.png', 'Im_BenAffleck.png', 'Im_HughJackman.png', 'Im_BradPitt.png'],same,1,0.4335974999994505,6,0,
MAEL2812,train,neg,60,neg60_id16_im19.bmp_neg60_id16_im3.bmp,['Im_RobertPattinson.png', 'Im_OrlandoBloom.png', 'Im_MattDamon.png', 'Im_RobertDowneyJr.png', 'Im_LeonardoDiCaprio.png', 'Im_ElijahWood.png', 'Im_RyanReynolds.png', 'Im_BenAffleck.png', 'Im_HughJackman.png', 'Im_BradPitt.png'],same,1,0.42506219999995665,7,0,
MAEL2812,train,neg,0,neg0_id3_im17.bmp_neg0_id19_im27.bmp,['Im_RobertPattinson.png', 'Im_OrlandoBloom.png', 'Im_MattDamon.png', 'Im_RobertDowneyJr.png', 'Im_LeonardoDiCaprio.png', 'Im_ElijahWood.png', 'Im_RyanReynolds.png', 'Im_BenAffleck.png', 'Im_HughJackman.png', 'Im_BradPitt.png'],diff,1,0.6584582999985287,8,0,
MAEL2812,train,neg,120,neg120_id14_im24.bmp_neg120_id21_im16.bmp,['Im_RobertPattinson.png', 'Im_OrlandoBloom.png', 'Im_MattDamon.png', 'Im_RobertDowneyJr.png', 'Im_LeonardoDiCaprio.png', 'Im_ElijahWood.png', 'Im_RyanReynolds.png', 'Im_BenAffleck.png', 'Im_HughJackman.png', 'Im_BradPitt.png'],diff,1,0.5165156999992178,9,0,
MAEL2812,train,neg,fs,negfs_id1_im4.bmp_negfs_id1_im21.bmp,['Im_RobertPattinson.png', 'Im_OrlandoBloom.png', 'Im_MattDamon.png', 'Im_RobertDowneyJr.png', 'Im_LeonardoDiCaprio.png', 'Im_ElijahWood.png', 'Im_RyanReynolds.png', 'Im_BenAffleck.png', 'Im_HughJackman.png', 'Im_BradPitt.png'],same,1,0.41702609999993,10,0,
MAEL2812,train,neg,150,neg150_id14_im24.bmp_neg150_id21_im16.bmp,['Im_RobertPattinson.png', 'Im_OrlandoBloom.png', 'Im_MattDamon.png', 'Im_RobertDowneyJr.png', 'Im_LeonardoDiCaprio.png', 'Im_ElijahWood.png', 'Im_RyanReynolds.png', 'Im_BenAffleck.png', 'Im_HughJackman.png', 'Im_BradPitt.png'],diff,1,0.4836076999999932,11,0,
MAEL2812,train,neg,0,neg0_id18_im18.bmp_neg0_id3_im8.bmp,['Im_RobertPattinson.png', 'Im_OrlandoBloom.png', 'Im_MattDamon.png', 'Im_RobertDowneyJr.png', 'Im_LeonardoDiCaprio.png', 'Im_ElijahWood.png', 'Im_RyanReynolds.png', 'Im_BenAffleck.png', 'Im_HughJackman.png', 'Im_BradPitt.png'],diff,1,1.2082155999996758,12,0,
MAEL2812,train,neg,120,neg120_id8_im21.bmp_neg120_id8_im20.bmp,['Im_RobertPattinson.png', 'Im_OrlandoBloom.png', 'Im_MattDamon.png', 'Im_RobertDowneyJr.png', 'Im_LeonardoDiCaprio.png', 'Im_ElijahWood.png', 'Im_RyanReynolds.png', 'Im_BenAffleck.png', 'Im_HughJackman.png', 'Im_BradPitt.png'],same,1,0.41670130000056815,13,0,
MAEL2812,train,neg,30,neg30_id14_im24.bmp_neg30_id14_im18.bmp,['Im_RobertPattinson.png', 'Im_OrlandoBloom.png', 'Im_MattDamon.png', 'Im_RobertDowneyJr.png', 'Im_LeonardoDiCaprio.png', 'Im_ElijahWood.png', 'Im_RyanReynolds.png', 'Im_BenAffleck.png', 'Im_HughJackman.png', 'Im_BradPitt.png'],diff,0,1.4671233000008215,13,0,
MAEL2812,train,neg,60,neg60_id21_im16.bmp_neg60_id21_im17.bmp,['Im_RobertPattinson.png', 'Im_OrlandoBloom.png', 'Im_MattDamon.png', 'Im_RobertDowneyJr.png', 'Im_LeonardoDiCaprio.png', 'Im_ElijahWood.png', 'Im_RyanReynolds.png', 'Im_BenAffleck.png', 'Im_HughJackman.png', 'Im_BradPitt.png'],same,1,0.4248853000008239,14,0,
MAEL2812,train,neg,150,neg150_id19_im8.bmp_neg150_id14_im16.bmp,['Im_RobertPattinson.png', 'Im_OrlandoBloom.png', 'Im_MattDamon.png', 'Im_RobertDowneyJr.png', 'Im_LeonardoDiCaprio.png', 'Im_ElijahWood.png', 'Im_RyanReynolds.png', 'Im_BenAffleck.png', 'Im_HughJackman.png', 'Im_BradPitt.png'],same,0,0.9419311000001471,14,0,
MAEL2812,train,neg,30,neg30_id14_im18.bmp_neg30_id14_im16.bmp,['Im_RobertPattinson.png', 'Im_OrlandoBloom.png', 'Im_MattDamon.png', 'Im_RobertDowneyJr.png', 'Im_LeonardoDiCaprio.png', 'Im_ElijahWood.png', 'Im_RyanReynolds.png', 'Im_BenAffleck.png', 'Im_HughJackman.png', 'Im_BradPitt.png'],same,1,0.43344209999850136,15,0,
MAEL2812,train,neg,fs,negfs_id19_im4.bmp_negfs_id8_im21.bmp,['Im_RobertPattinson.png', 'Im_OrlandoBloom.png', 'Im_MattDamon.png', 'Im_RobertDowneyJr.png', 'Im_LeonardoDiCaprio.png', 'Im_ElijahWood.png', 'Im_RyanReynolds.png', 'Im_BenAffleck.png', 'Im_HughJackman.png', 'Im_BradPitt.png'],diff,1,1.0836240999997244,16,0,
MAEL2812,train,neg,90,neg90_id13_im29.bmp_neg90_id14_im24.bmp,['Im_RobertPattinson.png', 'Im_OrlandoBloom.png', 'Im_MattDamon.png', 'Im_RobertDowneyJr.png', 'Im_LeonardoDiCaprio.png', 'Im_ElijahWood.png', 'Im_RyanReynolds.png', 'Im_BenAffleck.png', 'Im_HughJackman.png', 'Im_BradPitt.png'],same,0,0.4416197000009561,16,0,
MAEL2812,train,neg,60,neg60_id18_im19.bmp_neg60_id3_im8.bmp,['Im_RobertPattinson.png', 'Im_OrlandoBloom.png', 'Im_MattDamon.png', 'Im_RobertDowneyJr.png', 'Im_LeonardoDiCaprio.png', 'Im_ElijahWood.png', 'Im_RyanReynolds.png', 'Im_BenAffleck.png', 'Im_HughJackman.png', 'Im_BradPitt.png'],diff,1,1.1247979999989184,17,0,
MAEL2812,train,neg,150,neg150_id6_im18.bmp_neg150_id6_im19.bmp,['Im_RobertPattinson.png', 'Im_OrlandoBloom.png', 'Im_MattDamon.png', 'Im_RobertDowneyJr.png', 'Im_LeonardoDiCaprio.png', 'Im_ElijahWood.png', 'Im_RyanReynolds.png', 'Im_BenAffleck.png', 'Im_HughJackman.png', 'Im_BradPitt.png'],same,1,0.8577833999988798,18,0,
MAEL2812,train,neg,120,neg120_id14_im18.bmp_neg120_id18_im11.bmp,['Im_RobertPattinson.png', 'Im_OrlandoBloom.png', 'Im_MattDamon.png', 'Im_RobertDowneyJr.png', 'Im_LeonardoDiCaprio.png', 'Im_ElijahWood.png', 'Im_RyanReynolds.png', 'Im_BenAffleck.png', 'Im_HughJackman.png', 'Im_BradPitt.png'],diff,1,0.9667621999997209,19,0,
MAEL2812,train,neg,90,neg90_id19_im8.bmp_neg90_id16_im3.bmp,['Im_RobertPattinson.png', 'Im_OrlandoBloom.png', 'Im_MattDamon.png', 'Im_RobertDowneyJr.png', 'Im_LeonardoDiCaprio.png', 'Im_ElijahWood.png', 'Im_RyanReynolds.png', 'Im_BenAffleck.png', 'Im_HughJackman.png', 'Im_BradPitt.png'],diff,1,1.3835583000000042,20,0,
MAEL2812,train,neg,0,neg0_id14_im18.bmp_neg0_id14_im24.bmp,['Im_RobertPattinson.png', 'Im_OrlandoBloom.png', 'Im_MattDamon.png', 'Im_RobertDowneyJr.png', 'Im_LeonardoDiCaprio.png', 'Im_ElijahWood.png', 'Im_RyanReynolds.png', 'Im_BenAffleck.png', 'Im_HughJackman.png', 'Im_BradPitt.png'],same,1,1.117023099999642,21,0,
MAEL2812,train,neg,fs,negfs_id14_im16.bmp_negfs_id19_im8.bmp,['Im_RobertPattinson.png', 'Im_OrlandoBloom.png', 'Im_MattDamon.png', 'Im_RobertDowneyJr.png', 'Im_LeonardoDiCaprio.png', 'Im_ElijahWood.png', 'Im_RyanReynolds.png', 'Im_BenAffleck.png', 'Im_HughJackman.png', 'Im_BradPitt.png'],diff,1,0.8083824000004824,22,0,
MAEL2812,train,inv,fs,posfs_id6_im12.bmp_posfs_id6_im19.bmp,['Im_RobertPattinson.png', 'Im_OrlandoBloom.png', 'Im_MattDamon.png', 'Im_RobertDowneyJr.png', 'Im_LeonardoDiCaprio.png', 'Im_ElijahWood.png', 'Im_RyanReynolds.png', 'Im_BenAffleck.png', 'Im_HughJackman.png', 'Im_BradPitt.png'],same,1,0.9163387999997212,23,0,
MAEL2812,train,inv,120,pos120_id21_im22.bmp_pos120_id8_im21.bmp,['Im_RobertPattinson.png', 'Im_OrlandoBloom.png', 'Im_MattDamon.png', 'Im_RobertDowneyJr.png', 'Im_LeonardoDiCaprio.png', 'Im_ElijahWood.png', 'Im_RyanReynolds.png', 'Im_BenAffleck.png', 'Im_HughJackman.png', 'Im_BradPitt.png'],same,0,0.4250735999994504,23,0,
MAEL2812,train,inv,0,pos0_id21_im17.bmp_pos0_id21_im22.bmp,['Im_RobertPattinson.png', 'Im_OrlandoBloom.png', 'Im_MattDamon.png', 'Im_RobertDowneyJr.png', 'Im_LeonardoDiCaprio.png', 'Im_ElijahWood.png', 'Im_RyanReynolds.png', 'Im_BenAffleck.png', 'Im_HughJackman.png', 'Im_BradPitt.png'],diff,0,1.4916947999990953,23,0,
MAEL2812,train,inv,90,pos90_id21_im22.bmp_pos90_id18_im11.bmp,['Im_RobertPattinson.png', 'Im_OrlandoBloom.png', 'Im_MattDamon.png', 'Im_RobertDowneyJr.png', 'Im_LeonardoDiCaprio.png', 'Im_ElijahWood.png', 'Im_RyanReynolds.png', 'Im_BenAffleck.png', 'Im_HughJackman.png', 'Im_BradPitt.png'],same,0,2.7916798000005656,23,0,
MAEL2812,train,inv,90,pos90_id14_im18.bmp_pos90_id18_im11.bmp,['Im_RobertPattinson.png', 'Im_OrlandoBloom.png', 'Im_MattDamon.png', 'Im_RobertDowneyJr.png', 'Im_LeonardoDiCaprio.png', 'Im_ElijahWood.png', 'Im_RyanReynolds.png', 'Im_BenAffleck.png', 'Im_HughJackman.png', 'Im_BradPitt.png'],diff,1,0.783404600000722,24,0,
MAEL2812,train,inv,120,pos120_id8_im20.bmp_pos120_id8_im13.bmp,['Im_RobertPattinson.png', 'Im_OrlandoBloom.png', 'Im_MattDamon.png', 'Im_RobertDowneyJr.png', 'Im_LeonardoDiCaprio.png', 'Im_ElijahWood.png', 'Im_RyanReynolds.png', 'Im_BenAffleck.png', 'Im_HughJackman.png', 'Im_BradPitt.png'],same,1,0.8584403000004386,25,0,
MAEL2812,train,inv,fs,posfs_id14_im24.bmp_posfs_id14_im18.bmp,['Im_RobertPattinson.png', 'Im_OrlandoBloom.png', 'Im_MattDamon.png', 'Im_RobertDowneyJr.png', 'Im_LeonardoDiCaprio.png', 'Im_ElijahWood.png', 'Im_RyanReynolds.png', 'Im_BenAffleck.png', 'Im_HughJackman.png', 'Im_BradPitt.png'],same,1,0.42507429999932356,26,0,
MAEL2812,train,inv,30,pos30_id19_im8.bmp_pos30_id16_im3.bmp,['Im_RobertPattinson.png', 'Im_OrlandoBloom.png', 'Im_MattDamon.png', 'Im_RobertDowneyJr.png', 'Im_LeonardoDiCaprio.png', 'Im_ElijahWood.png', 'Im_RyanReynolds.png', 'Im_BenAffleck.png', 'Im_HughJackman.png', 'Im_BradPitt.png'],same,0,0.8167098000012629,26,0,
MAEL2812,train,inv,30,pos30_id18_im19.bmp_pos30_id3_im8.bmp,['Im_RobertPattinson.png', 'Im_OrlandoBloom.png', 'Im_MattDamon.png', 'Im_RobertDowneyJr.png', 'Im_LeonardoDiCaprio.png', 'Im_ElijahWood.png', 'Im_RyanReynolds.png', 'Im_BenAffleck.png', 'Im_HughJackman.png', 'Im_BradPitt.png'],same,0,1.0000201000002562,26,0,
MAEL2812,train,inv,60,pos60_id8_im13.bmp_pos60_id3_im6.bmp,['Im_RobertPattinson.png', 'Im_OrlandoBloom.png', 'Im_MattDamon.png', 'Im_RobertDowneyJr.png', 'Im_LeonardoDiCaprio.png', 'Im_ElijahWood.png', 'Im_RyanReynolds.png', 'Im_BenAffleck.png', 'Im_HughJackman.png', 'Im_BradPitt.png'],same,0,1.2916416000007303,26,0,
MAEL2812,train,inv,150,pos150_id3_im6.bmp_pos150_id3_im17.bmp,['Im_RobertPattinson.png', 'Im_OrlandoBloom.png', 'Im_MattDamon.png', 'Im_RobertDowneyJr.png', 'Im_LeonardoDiCaprio.png', 'Im_ElijahWood.png', 'Im_RyanReynolds.png', 'Im_BenAffleck.png', 'Im_HughJackman.png', 'Im_BradPitt.png'],same,1,1.0832326999989164,27,0,
MAEL2812,train,inv,0,pos0_id6_im19.bmp_pos0_id6_im18.bmp,['Im_RobertPattinson.png', 'Im_OrlandoBloom.png', 'Im_MattDamon.png', 'Im_RobertDowneyJr.png', 'Im_LeonardoDiCaprio.png', 'Im_ElijahWood.png', 'Im_RyanReynolds.png', 'Im_BenAffleck.png', 'Im_HughJackman.png', 'Im_BradPitt.png'],same,1,1.0669729000001098,28,0,
MAEL2812,train,inv,60,pos60_id6_im12.bmp_pos60_id3_im17.bmp,['Im_RobertPattinson.png', 'Im_OrlandoBloom.png', 'Im_MattDamon.png', 'Im_RobertDowneyJr.png', 'Im_LeonardoDiCaprio.png', 'Im_ElijahWood.png', 'Im_RyanReynolds.png', 'Im_BenAffleck.png', 'Im_HughJackman.png', 'Im_BradPitt.png'],diff,1,0.4335986000005505,29,0,
MAEL2812,train,inv,150,pos150_id19_im27.bmp_pos150_id3_im17.bmp,['Im_RobertPattinson.png', 'Im_OrlandoBloom.png', 'Im_MattDamon.png', 'Im_RobertDowneyJr.png', 'Im_LeonardoDiCaprio.png', 'Im_ElijahWood.png', 'Im_RyanReynolds.png', 'Im_BenAffleck.png', 'Im_HughJackman.png', 'Im_BradPitt.png'],diff,1,1.4252563000009104,30,0,
MAEL2812,train,pos,0,pos0_id19_im27.bmp_pos0_id19_im8.bmp,['Im_RobertPattinson.png', 'Im_OrlandoBloom.png', 'Im_MattDamon.png', 'Im_RobertDowneyJr.png', 'Im_LeonardoDiCaprio.png', 'Im_ElijahWood.png', 'Im_RyanReynolds.png', 'Im_BenAffleck.png', 'Im_HughJackman.png', 'Im_BradPitt.png'],same,1,0.6000566999991861,1,71.42857142857143,
MAEL2812,train,pos,90,pos90_id18_im11.bmp_pos90_id14_im18.bmp,['Im_RobertPattinson.png', 'Im_OrlandoBloom.png', 'Im_MattDamon.png', 'Im_RobertDowneyJr.png', 'Im_LeonardoDiCaprio.png', 'Im_ElijahWood.png', 'Im_RyanReynolds.png', 'Im_BenAffleck.png', 'Im_HughJackman.png', 'Im_BradPitt.png'],diff,1,0.42536029999973834,2,71.42857142857143,
MAEL2812,train,pos,30,pos30_id3_im17.bmp_pos30_id19_im27.bmp,['Im_RobertPattinson.png', 'Im_OrlandoBloom.png', 'Im_MattDamon.png', 'Im_RobertDowneyJr.png', 'Im_LeonardoDiCaprio.png', 'Im_ElijahWood.png', 'Im_RyanReynolds.png', 'Im_BenAffleck.png', 'Im_HughJackman.png', 'Im_BradPitt.png'],diff,1,0.9583779000004142,3,71.42857142857143,
MAEL2812,train,pos,fs,posfs_id21_im22.bmp_posfs_id8_im21.bmp,['Im_RobertPattinson.png', 'Im_OrlandoBloom.png', 'Im_MattDamon.png', 'Im_RobertDowneyJr.png', 'Im_LeonardoDiCaprio.png', 'Im_ElijahWood.png', 'Im_RyanReynolds.png', 'Im_BenAffleck.png', 'Im_HughJackman.png', 'Im_BradPitt.png'],diff,1,0.41668380000010075,4,71.42857142857143,
MAEL2812,train,pos,60,pos60_id14_im16.bmp_pos60_id14_im24.bmp,['Im_RobertPattinson.png', 'Im_OrlandoBloom.png', 'Im_MattDamon.png', 'Im_RobertDowneyJr.png', 'Im_LeonardoDiCaprio.png', 'Im_ElijahWood.png', 'Im_RyanReynolds.png', 'Im_BenAffleck.png', 'Im_HughJackman.png', 'Im_BradPitt.png'],same,1,0.41668119999849296,5,71.42857142857143,
MAEL2812,train,pos,90,pos90_id8_im13.bmp_pos90_id8_im21.bmp,['Im_RobertPattinson.png', 'Im_OrlandoBloom.png', 'Im_MattDamon.png', 'Im_RobertDowneyJr.png', 'Im_LeonardoDiCaprio.png', 'Im_ElijahWood.png', 'Im_RyanReynolds.png', 'Im_BenAffleck.png', 'Im_HughJackman.png', 'Im_BradPitt.png'],same,1,0.42477299999882234,6,71.42857142857143,
MAEL2812,train,pos,150,pos150_id8_im21.bmp_pos150_id19_im4.bmp,['Im_RobertPattinson.png', 'Im_OrlandoBloom.png', 'Im_MattDamon.png', 'Im_RobertDowneyJr.png', 'Im_LeonardoDiCaprio.png', 'Im_ElijahWood.png', 'Im_RyanReynolds.png', 'Im_BenAffleck.png', 'Im_HughJackman.png', 'Im_BradPitt.png'],diff,1,0.4250439000006736,7,71.42857142857143,
MAEL2812,train,pos,fs,posfs_id19_im8.bmp_posfs_id14_im16.bmp,['Im_RobertPattinson.png', 'Im_OrlandoBloom.png', 'Im_MattDamon.png', 'Im_RobertDowneyJr.png', 'Im_LeonardoDiCaprio.png', 'Im_ElijahWood.png', 'Im_RyanReynolds.png', 'Im_BenAffleck.png', 'Im_HughJackman.png', 'Im_BradPitt.png'],diff,1,0.43381349999981467,8,71.42857142857143,
MAEL2812,train,pos,150,pos150_id6_im12.bmp_pos150_id3_im17.bmp,['Im_RobertPattinson.png', 'Im_OrlandoBloom.png', 'Im_MattDamon.png', 'Im_RobertDowneyJr.png', 'Im_LeonardoDiCaprio.png', 'Im_ElijahWood.png', 'Im_RyanReynolds.png', 'Im_BenAffleck.png', 'Im_HughJackman.png', 'Im_BradPitt.png'],diff,1,0.4584149999991496,9,71.42857142857143,
MAEL2812,train,pos,0,pos0_id16_im2.bmp_pos0_id16_im3.bmp,['Im_RobertPattinson.png', 'Im_OrlandoBloom.png', 'Im_MattDamon.png', 'Im_RobertDowneyJr.png', 'Im_LeonardoDiCaprio.png', 'Im_ElijahWood.png', 'Im_RyanReynolds.png', 'Im_BenAffleck.png', 'Im_HughJackman.png', 'Im_BradPitt.png'],same,1,0.40832569999838597,10,71.42857142857143,
MAEL2812,train,pos,30,pos30_id6_im12.bmp_pos30_id6_im19.bmp,['Im_RobertPattinson.png', 'Im_OrlandoBloom.png', 'Im_MattDamon.png', 'Im_RobertDowneyJr.png', 'Im_LeonardoDiCaprio.png', 'Im_ElijahWood.png', 'Im_RyanReynolds.png', 'Im_BenAffleck.png', 'Im_HughJackman.png', 'Im_BradPitt.png'],same,1,0.41665089999878546,11,71.42857142857143,
MAEL2812,train,pos,120,pos120_id19_im8.bmp_pos120_id19_im27.bmp,['Im_RobertPattinson.png', 'Im_OrlandoBloom.png', 'Im_MattDamon.png', 'Im_RobertDowneyJr.png', 'Im_LeonardoDiCaprio.png', 'Im_ElijahWood.png', 'Im_RyanReynolds.png', 'Im_BenAffleck.png', 'Im_HughJackman.png', 'Im_BradPitt.png'],same,1,0.42509290000089095,12,71.42857142857143,
MAEL2812,train,pos,120,pos120_id21_im17.bmp_pos120_id21_im22.bmp,['Im_RobertPattinson.png', 'Im_OrlandoBloom.png', 'Im_MattDamon.png', 'Im_RobertDowneyJr.png', 'Im_LeonardoDiCaprio.png', 'Im_ElijahWood.png', 'Im_RyanReynolds.png', 'Im_BenAffleck.png', 'Im_HughJackman.png', 'Im_BradPitt.png'],same,1,0.41682159999982105,13,71.42857142857143,
MAEL2812,train,pos,60,pos60_id18_im18.bmp_pos60_id3_im8.bmp,['Im_RobertPattinson.png', 'Im_OrlandoBloom.png', 'Im_MattDamon.png', 'Im_RobertDowneyJr.png', 'Im_LeonardoDiCaprio.png', 'Im_ElijahWood.png', 'Im_RyanReynolds.png', 'Im_BenAffleck.png', 'Im_HughJackman.png', 'Im_BradPitt.png'],diff,1,0.42506390000016836,14,71.42857142857143,
MAEL2812,train,pos,30,pos30_id18_im19.bmp_pos30_id18_im18.bmp,['Im_RobertPattinson.png', 'Im_OrlandoBloom.png', 'Im_MattDamon.png', 'Im_RobertDowneyJr.png', 'Im_LeonardoDiCaprio.png', 'Im_ElijahWood.png', 'Im_RyanReynolds.png', 'Im_BenAffleck.png', 'Im_HughJackman.png', 'Im_BradPitt.png'],same,1,0.4085012999985338,15,71.42857142857143,
MAEL2812,train,pos,90,pos90_id16_im19.bmp_pos90_id16_im3.bmp,['Im_RobertPattinson.png', 'Im_OrlandoBloom.png', 'Im_MattDamon.png', 'Im_RobertDowneyJr.png', 'Im_LeonardoDiCaprio.png', 'Im_ElijahWood.png', 'Im_RyanReynolds.png', 'Im_BenAffleck.png', 'Im_HughJackman.png', 'Im_BradPitt.png'],same,1,0.40843279999899096,16,71.42857142857143,
MAEL2812,train,pos,90,pos90_id1_im4.bmp_pos90_id13_im29.bmp,['Im_RobertPattinson.png', 'Im_OrlandoBloom.png', 'Im_MattDamon.png', 'Im_RobertDowneyJr.png', 'Im_LeonardoDiCaprio.png', 'Im_ElijahWood.png', 'Im_RyanReynolds.png', 'Im_BenAffleck.png', 'Im_HughJackman.png', 'Im_BradPitt.png'],diff,1,0.4167191000015009,17,71.42857142857143,
MAEL2812,train,pos,150,pos150_id3_im8.bmp_pos150_id3_im17.bmp,['Im_RobertPattinson.png', 'Im_OrlandoBloom.png', 'Im_MattDamon.png', 'Im_RobertDowneyJr.png', 'Im_LeonardoDiCaprio.png', 'Im_ElijahWood.png', 'Im_RyanReynolds.png', 'Im_BenAffleck.png', 'Im_HughJackman.png', 'Im_BradPitt.png'],same,1,0.4168031000008341,18,71.42857142857143,
MAEL2812,train,pos,60,pos60_id1_im24.bmp_pos60_id1_im4.bmp,['Im_RobertPattinson.png', 'Im_OrlandoBloom.png', 'Im_MattDamon.png', 'Im_RobertDowneyJr.png', 'Im_LeonardoDiCaprio.png', 'Im_ElijahWood.png', 'Im_RyanReynolds.png', 'Im_BenAffleck.png', 'Im_HughJackman.png', 'Im_BradPitt.png'],same,1,0.4167491999996855,19,71.42857142857143,
MAEL2812,train,pos,60,pos60_id21_im17.bmp_pos60_id21_im16.bmp,['Im_RobertPattinson.png', 'Im_OrlandoBloom.png', 'Im_MattDamon.png', 'Im_RobertDowneyJr.png', 'Im_LeonardoDiCaprio.png', 'Im_ElijahWood.png', 'Im_RyanReynolds.png', 'Im_BenAffleck.png', 'Im_HughJackman.png', 'Im_BradPitt.png'],same,1,0.41670820000035746,20,71.42857142857143,
MAEL2812,train,pos,0,pos0_id8_im13.bmp_pos0_id3_im6.bmp,['Im_RobertPattinson.png', 'Im_OrlandoBloom.png', 'Im_MattDamon.png', 'Im_RobertDowneyJr.png', 'Im_LeonardoDiCaprio.png', 'Im_ElijahWood.png', 'Im_RyanReynolds.png', 'Im_BenAffleck.png', 'Im_HughJackman.png', 'Im_BradPitt.png'],diff,1,0.4169017000003805,21,71.42857142857143,
MAEL2812,train,pos,150,pos150_id16_im2.bmp_pos150_id14_im16.bmp,['Im_RobertPattinson.png', 'Im_OrlandoBloom.png', 'Im_MattDamon.png', 'Im_RobertDowneyJr.png', 'Im_LeonardoDiCaprio.png', 'Im_ElijahWood.png', 'Im_RyanReynolds.png', 'Im_BenAffleck.png', 'Im_HughJackman.png', 'Im_BradPitt.png'],diff,1,0.408240200000364,22,71.42857142857143,
MAEL2812,train,pos,fs,posfs_id21_im16.bmp_posfs_id14_im24.bmp,['Im_RobertPattinson.png', 'Im_OrlandoBloom.png', 'Im_MattDamon.png', 'Im_RobertDowneyJr.png', 'Im_LeonardoDiCaprio.png', 'Im_ElijahWood.png', 'Im_RyanReynolds.png', 'Im_BenAffleck.png', 'Im_HughJackman.png', 'Im_BradPitt.png'],diff,1,0.41667229999984556,23,71.42857142857143,
MAEL2812,train,pos,120,pos120_id21_im17.bmp_pos120_id13_im15.bmp,['Im_RobertPattinson.png', 'Im_OrlandoBloom.png', 'Im_MattDamon.png', 'Im_RobertDowneyJr.png', 'Im_LeonardoDiCaprio.png', 'Im_ElijahWood.png', 'Im_RyanReynolds.png', 'Im_BenAffleck.png', 'Im_HughJackman.png', 'Im_BradPitt.png'],diff,1,0.40830450000066776,24,71.42857142857143,
MAEL2812,train,pos,120,pos120_id8_im13.bmp_pos120_id3_im6.bmp,['Im_RobertPattinson.png', 'Im_OrlandoBloom.png', 'Im_MattDamon.png', 'Im_RobertDowneyJr.png', 'Im_LeonardoDiCaprio.png', 'Im_ElijahWood.png', 'Im_RyanReynolds.png', 'Im_BenAffleck.png', 'Im_HughJackman.png', 'Im_BradPitt.png'],diff,1,0.47521690000030503,25,71.42857142857143,
MAEL2812,train,pos,fs,posfs_id6_im18.bmp_posfs_id6_im19.bmp,['Im_RobertPattinson.png', 'Im_OrlandoBloom.png', 'Im_MattDamon.png', 'Im_RobertDowneyJr.png', 'Im_LeonardoDiCaprio.png', 'Im_ElijahWood.png', 'Im_RyanReynolds.png', 'Im_BenAffleck.png', 'Im_HughJackman.png', 'Im_BradPitt.png'],same,1,0.4083256000012625,26,71.42857142857143,
MAEL2812,train,pos,0,pos0_id21_im17.bmp_pos0_id13_im15.bmp,['Im_RobertPattinson.png', 'Im_OrlandoBloom.png', 'Im_MattDamon.png', 'Im_RobertDowneyJr.png', 'Im_LeonardoDiCaprio.png', 'Im_ElijahWood.png', 'Im_RyanReynolds.png', 'Im_BenAffleck.png', 'Im_HughJackman.png', 'Im_BradPitt.png'],diff,1,0.4334328999993886,27,71.42857142857143,
MAEL2812,train,pos,30,pos30_id6_im12.bmp_pos30_id6_im18.bmp,['Im_RobertPattinson.png', 'Im_OrlandoBloom.png', 'Im_MattDamon.png', 'Im_RobertDowneyJr.png', 'Im_LeonardoDiCaprio.png', 'Im_ElijahWood.png', 'Im_RyanReynolds.png', 'Im_BenAffleck.png', 'Im_HughJackman.png', 'Im_BradPitt.png'],same,1,0.4166936000001442,28,71.42857142857143,
MAEL2812,train,inv,150,pos150_id1_im24.bmp_pos150_id6_im18.bmp,['Im_RobertPattinson.png', 'Im_OrlandoBloom.png', 'Im_MattDamon.png', 'Im_RobertDowneyJr.png', 'Im_LeonardoDiCaprio.png', 'Im_ElijahWood.png', 'Im_RyanReynolds.png', 'Im_BenAffleck.png', 'Im_HughJackman.png', 'Im_BradPitt.png'],same,0,1.2083636000006663,28,71.42857142857143,
MAEL2812,train,inv,120,pos120_id8_im13.bmp_pos120_id8_im21.bmp,['Im_RobertPattinson.png', 'Im_OrlandoBloom.png', 'Im_MattDamon.png', 'Im_RobertDowneyJr.png', 'Im_LeonardoDiCaprio.png', 'Im_ElijahWood.png', 'Im_RyanReynolds.png', 'Im_BenAffleck.png', 'Im_HughJackman.png', 'Im_BradPitt.png'],same,1,0.6170794999998179,29,71.42857142857143,
MAEL2812,train,inv,90,pos90_id13_im15.bmp_pos90_id21_im17.bmp,['Im_RobertPattinson.png', 'Im_OrlandoBloom.png', 'Im_MattDamon.png', 'Im_RobertDowneyJr.png', 'Im_LeonardoDiCaprio.png', 'Im_ElijahWood.png', 'Im_RyanReynolds.png', 'Im_BenAffleck.png', 'Im_HughJackman.png', 'Im_BradPitt.png'],diff,1,0.7082712999999785,30,71.42857142857143,
MAEL2812,train,inv,0,pos0_id1_im21.bmp_pos0_id16_im19.bmp,['Im_RobertPattinson.png', 'Im_OrlandoBloom.png', 'Im_MattDamon.png', 'Im_RobertDowneyJr.png', 'Im_LeonardoDiCaprio.png', 'Im_ElijahWood.png', 'Im_RyanReynolds.png', 'Im_BenAffleck.png', 'Im_HughJackman.png', 'Im_BradPitt.png'],diff,1,1.341675400000895,31,71.42857142857143,
MAEL2812,train,inv,30,pos30_id19_im4.bmp_pos30_id8_im20.bmp,['Im_RobertPattinson.png', 'Im_OrlandoBloom.png', 'Im_MattDamon.png', 'Im_RobertDowneyJr.png', 'Im_LeonardoDiCaprio.png', 'Im_ElijahWood.png', 'Im_RyanReynolds.png', 'Im_BenAffleck.png', 'Im_HughJackman.png', 'Im_BradPitt.png'],same,0,0.5251014999994368,31,71.42857142857143,
MAEL2812,train,inv,0,pos0_id19_im4.bmp_pos0_id19_im27.bmp,['Im_RobertPattinson.png', 'Im_OrlandoBloom.png', 'Im_MattDamon.png', 'Im_RobertDowneyJr.png', 'Im_LeonardoDiCaprio.png', 'Im_ElijahWood.png', 'Im_RyanReynolds.png', 'Im_BenAffleck.png', 'Im_HughJackman.png', 'Im_BradPitt.png'],diff,0,1.12503900000047,31,71.42857142857143,
MAEL2812,train,inv,90,pos90_id8_im20.bmp_pos90_id8_im13.bmp,['Im_RobertPattinson.png', 'Im_OrlandoBloom.png', 'Im_MattDamon.png', 'Im_RobertDowneyJr.png', 'Im_LeonardoDiCaprio.png', 'Im_ElijahWood.png', 'Im_RyanReynolds.png', 'Im_BenAffleck.png', 'Im_HughJackman.png', 'Im_BradPitt.png'],same,1,1.0336363999995228,32,71.42857142857143,
MAEL2812,train,inv,30,pos30_id19_im27.bmp_pos30_id19_im4.bmp,['Im_RobertPattinson.png', 'Im_OrlandoBloom.png', 'Im_MattDamon.png', 'Im_RobertDowneyJr.png', 'Im_LeonardoDiCaprio.png', 'Im_ElijahWood.png', 'Im_RyanReynolds.png', 'Im_BenAffleck.png', 'Im_HughJackman.png', 'Im_BradPitt.png'],diff,0,0.7665837999993528,32,71.42857142857143,
MAEL2812,train,inv,120,pos120_id1_im24.bmp_pos120_id1_im21.bmp,['Im_RobertPattinson.png', 'Im_OrlandoBloom.png', 'Im_MattDamon.png', 'Im_RobertDowneyJr.png', 'Im_LeonardoDiCaprio.png', 'Im_ElijahWood.png', 'Im_RyanReynolds.png', 'Im_BenAffleck.png', 'Im_HughJackman.png', 'Im_BradPitt.png'],same,1,1.5588004000001092,33,71.42857142857143,
MAEL2812,train,inv,60,pos60_id3_im8.bmp_pos60_id3_im17.bmp,['Im_RobertPattinson.png', 'Im_OrlandoBloom.png', 'Im_MattDamon.png', 'Im_RobertDowneyJr.png', 'Im_LeonardoDiCaprio.png', 'Im_ElijahWood.png', 'Im_RyanReynolds.png', 'Im_BenAffleck.png', 'Im_HughJackman.png', 'Im_BradPitt.png'],same,1,1.241618500000186,34,71.42857142857143,
MAEL2812,train,inv,fs,posfs_id18_im19.bmp_posfs_id18_im11.bmp,['Im_RobertPattinson.png', 'Im_OrlandoBloom.png', 'Im_MattDamon.png', 'Im_RobertDowneyJr.png', 'Im_LeonardoDiCaprio.png', 'Im_ElijahWood.png', 'Im_RyanReynolds.png', 'Im_BenAffleck.png', 'Im_HughJackman.png', 'Im_BradPitt.png'],same,1,0.41655249999894295,35,71.42857142857143,
MAEL2812,train,inv,150,pos150_id14_im18.bmp_pos150_id18_im11.bmp,['Im_RobertPattinson.png', 'Im_OrlandoBloom.png', 'Im_MattDamon.png', 'Im_RobertDowneyJr.png', 'Im_LeonardoDiCaprio.png', 'Im_ElijahWood.png', 'Im_RyanReynolds.png', 'Im_BenAffleck.png', 'Im_HughJackman.png', 'Im_BradPitt.png'],diff,1,1.0917251000009855,36,71.42857142857143,
MAEL2812,train,inv,fs,posfs_id16_im2.bmp_posfs_id16_im3.bmp,['Im_RobertPattinson.png', 'Im_OrlandoBloom.png', 'Im_MattDamon.png', 'Im_RobertDowneyJr.png', 'Im_LeonardoDiCaprio.png', 'Im_ElijahWood.png', 'Im_RyanReynolds.png', 'Im_BenAffleck.png', 'Im_HughJackman.png', 'Im_BradPitt.png'],diff,0,1.5917332000008173,36,71.42857142857143,
MAEL2812,train,inv,60,pos60_id16_im19.bmp_pos60_id16_im3.bmp,['Im_RobertPattinson.png', 'Im_OrlandoBloom.png', 'Im_MattDamon.png', 'Im_RobertDowneyJr.png', 'Im_LeonardoDiCaprio.png', 'Im_ElijahWood.png', 'Im_RyanReynolds.png', 'Im_BenAffleck.png', 'Im_HughJackman.png', 'Im_BradPitt.png'],diff,0,1.0580195999991702,36,71.42857142857143,
MAEL2812,train,neg,30,neg30_id6_im19.bmp_neg30_id1_im24.bmp,['Im_RobertPattinson.png', 'Im_OrlandoBloom.png', 'Im_MattDamon.png', 'Im_RobertDowneyJr.png', 'Im_LeonardoDiCaprio.png', 'Im_ElijahWood.png', 'Im_RyanReynolds.png', 'Im_BenAffleck.png', 'Im_HughJackman.png', 'Im_BradPitt.png'],diff,1,1.7501291000007768,1,85.71428571428571,
MAEL2812,train,neg,90,neg90_id16_im3.bmp_neg90_id8_im13.bmp,['Im_RobertPattinson.png', 'Im_OrlandoBloom.png', 'Im_MattDamon.png', 'Im_RobertDowneyJr.png', 'Im_LeonardoDiCaprio.png', 'Im_ElijahWood.png', 'Im_RyanReynolds.png', 'Im_BenAffleck.png', 'Im_HughJackman.png', 'Im_BradPitt.png'],diff,1,2.07491409999966,2,85.71428571428571,
MAEL2812,train,neg,90,neg90_id21_im17.bmp_neg90_id18_im19.bmp,['Im_RobertPattinson.png', 'Im_OrlandoBloom.png', 'Im_MattDamon.png', 'Im_RobertDowneyJr.png', 'Im_LeonardoDiCaprio.png', 'Im_ElijahWood.png', 'Im_RyanReynolds.png', 'Im_BenAffleck.png', 'Im_HughJackman.png', 'Im_BradPitt.png'],same,0,1.4418934999994235,2,85.71428571428571,
MAEL2812,train,neg,120,neg120_id6_im12.bmp_neg120_id3_im17.bmp,['Im_RobertPattinson.png', 'Im_OrlandoBloom.png', 'Im_MattDamon.png', 'Im_RobertDowneyJr.png', 'Im_LeonardoDiCaprio.png', 'Im_ElijahWood.png', 'Im_RyanReynolds.png', 'Im_BenAffleck.png', 'Im_HughJackman.png', 'Im_BradPitt.png'],diff,1,0.42510779999975057,3,85.71428571428571,
MAEL2812,train,neg,60,neg60_id19_im8.bmp_neg60_id19_im4.bmp,['Im_RobertPattinson.png', 'Im_OrlandoBloom.png', 'Im_MattDamon.png', 'Im_RobertDowneyJr.png', 'Im_LeonardoDiCaprio.png', 'Im_ElijahWood.png', 'Im_RyanReynolds.png', 'Im_BenAffleck.png', 'Im_HughJackman.png', 'Im_BradPitt.png'],diff,0,0.5834244999987277,3,85.71428571428571,
MAEL2812,train,neg,150,neg150_id6_im18.bmp_neg150_id6_im12.bmp,['Im_RobertPattinson.png', 'Im_OrlandoBloom.png', 'Im_MattDamon.png', 'Im_RobertDowneyJr.png', 'Im_LeonardoDiCaprio.png', 'Im_ElijahWood.png', 'Im_RyanReynolds.png', 'Im_BenAffleck.png', 'Im_HughJackman.png', 'Im_BradPitt.png'],same,1,0.40839150000101654,4,85.71428571428571,
MAEL2812,train,neg,0,neg0_id8_im20.bmp_neg0_id8_im21.bmp,['Im_RobertPattinson.png', 'Im_OrlandoBloom.png', 'Im_MattDamon.png', 'Im_RobertDowneyJr.png', 'Im_LeonardoDiCaprio.png', 'Im_ElijahWood.png', 'Im_RyanReynolds.png', 'Im_BenAffleck.png', 'Im_HughJackman.png', 'Im_BradPitt.png'],same,1,0.4167529000005743,5,85.71428571428571,
MAEL2812,train,neg,0,neg0_id13_im10.bmp_neg0_id6_im12.bmp,['Im_RobertPattinson.png', 'Im_OrlandoBloom.png', 'Im_MattDamon.png', 'Im_RobertDowneyJr.png', 'Im_LeonardoDiCaprio.png', 'Im_ElijahWood.png', 'Im_RyanReynolds.png', 'Im_BenAffleck.png', 'Im_HughJackman.png', 'Im_BradPitt.png'],diff,1,0.4248130999985733,6,85.71428571428571,
MAEL2812,train,neg,fs,negfs_id21_im16.bmp_negfs_id21_im17.bmp,['Im_RobertPattinson.png', 'Im_OrlandoBloom.png', 'Im_MattDamon.png', 'Im_RobertDowneyJr.png', 'Im_LeonardoDiCaprio.png', 'Im_ElijahWood.png', 'Im_RyanReynolds.png', 'Im_BenAffleck.png', 'Im_HughJackman.png', 'Im_BradPitt.png'],same,1,0.4167398999998113,7,85.71428571428571,
MAEL2812,train,neg,60,neg60_id1_im24.bmp_neg60_id6_im19.bmp,['Im_RobertPattinson.png', 'Im_OrlandoBloom.png', 'Im_MattDamon.png', 'Im_RobertDowneyJr.png', 'Im_LeonardoDiCaprio.png', 'Im_ElijahWood.png', 'Im_RyanReynolds.png', 'Im_BenAffleck.png', 'Im_HughJackman.png', 'Im_BradPitt.png'],diff,1,0.4250499000008858,8,85.71428571428571,
MAEL2812,train,neg,30,neg30_id8_im13.bmp_neg30_id8_im21.bmp,['Im_RobertPattinson.png', 'Im_OrlandoBloom.png', 'Im_MattDamon.png', 'Im_RobertDowneyJr.png', 'Im_LeonardoDiCaprio.png', 'Im_ElijahWood.png', 'Im_RyanReynolds.png', 'Im_BenAffleck.png', 'Im_HughJackman.png', 'Im_BradPitt.png'],same,1,0.9333843000003981,9,85.71428571428571,
MAEL2812,train,neg,fs,negfs_id1_im21.bmp_negfs_id8_im20.bmp,['Im_RobertPattinson.png', 'Im_OrlandoBloom.png', 'Im_MattDamon.png', 'Im_RobertDowneyJr.png', 'Im_LeonardoDiCaprio.png', 'Im_ElijahWood.png', 'Im_RyanReynolds.png', 'Im_BenAffleck.png', 'Im_HughJackman.png', 'Im_BradPitt.png'],diff,1,0.40815920000022743,10,85.71428571428571,
MAEL2812,train,neg,120,neg120_id21_im16.bmp_neg120_id21_im22.bmp,['Im_RobertPattinson.png', 'Im_OrlandoBloom.png', 'Im_MattDamon.png', 'Im_RobertDowneyJr.png', 'Im_LeonardoDiCaprio.png', 'Im_ElijahWood.png', 'Im_RyanReynolds.png', 'Im_BenAffleck.png', 'Im_HughJackman.png', 'Im_BradPitt.png'],same,1,0.8333516999991843,11,85.71428571428571,
MAEL2812,train,neg,150,neg150_id13_im15.bmp_neg150_id21_im17.bmp,['Im_RobertPattinson.png', 'Im_OrlandoBloom.png', 'Im_MattDamon.png', 'Im_RobertDowneyJr.png', 'Im_LeonardoDiCaprio.png', 'Im_ElijahWood.png', 'Im_RyanReynolds.png', 'Im_BenAffleck.png', 'Im_HughJackman.png', 'Im_BradPitt.png'],diff,1,0.6334045000003243,12,85.71428571428571,
MAEL2812,train,neg,30,neg30_id16_im19.bmp_neg30_id1_im21.bmp,['Im_RobertPattinson.png', 'Im_OrlandoBloom.png', 'Im_MattDamon.png', 'Im_RobertDowneyJr.png', 'Im_LeonardoDiCaprio.png', 'Im_ElijahWood.png', 'Im_RyanReynolds.png', 'Im_BenAffleck.png', 'Im_HughJackman.png', 'Im_BradPitt.png'],diff,1,0.4165391999995336,13,85.71428571428571,
MAEL2812,train,neg,90,neg90_id6_im18.bmp_neg90_id6_im19.bmp,['Im_RobertPattinson.png', 'Im_OrlandoBloom.png', 'Im_MattDamon.png', 'Im_RobertDowneyJr.png', 'Im_LeonardoDiCaprio.png', 'Im_ElijahWood.png', 'Im_RyanReynolds.png', 'Im_BenAffleck.png', 'Im_HughJackman.png', 'Im_BradPitt.png'],same,1,0.6920277999997779,14,85.71428571428571,
MAEL2812,train,neg,150,neg150_id8_im20.bmp_neg150_id8_im13.bmp,['Im_RobertPattinson.png', 'Im_OrlandoBloom.png', 'Im_MattDamon.png', 'Im_RobertDowneyJr.png', 'Im_LeonardoDiCaprio.png', 'Im_ElijahWood.png', 'Im_RyanReynolds.png', 'Im_BenAffleck.png', 'Im_HughJackman.png', 'Im_BradPitt.png'],same,1,0.7177003000015247,15,85.71428571428571,
MAEL2812,train,neg,0,neg0_id16_im3.bmp_neg0_id8_im13.bmp,['Im_RobertPattinson.png', 'Im_OrlandoBloom.png', 'Im_MattDamon.png', 'Im_RobertDowneyJr.png', 'Im_LeonardoDiCaprio.png', 'Im_ElijahWood.png', 'Im_RyanReynolds.png', 'Im_BenAffleck.png', 'Im_HughJackman.png', 'Im_BradPitt.png'],diff,1,0.6158394999984012,16,85.71428571428571,
MAEL2812,train,neg,0,neg0_id14_im24.bmp_neg0_id14_im16.bmp,['Im_RobertPattinson.png', 'Im_OrlandoBloom.png', 'Im_MattDamon.png', 'Im_RobertDowneyJr.png', 'Im_LeonardoDiCaprio.png', 'Im_ElijahWood.png', 'Im_RyanReynolds.png', 'Im_BenAffleck.png', 'Im_HughJackman.png', 'Im_BradPitt.png'],same,1,0.500315799999953,17,85.71428571428571,
MAEL2812,train,neg,60,neg60_id3_im8.bmp_neg60_id18_im18.bmp,['Im_RobertPattinson.png', 'Im_OrlandoBloom.png', 'Im_MattDamon.png', 'Im_RobertDowneyJr.png', 'Im_LeonardoDiCaprio.png', 'Im_ElijahWood.png', 'Im_RyanReynolds.png', 'Im_BenAffleck.png', 'Im_HughJackman.png', 'Im_BradPitt.png'],diff,1,0.7586327999997593,18,85.71428571428571,
MAEL2812,train,neg,150,neg150_id16_im2.bmp_neg150_id16_im3.bmp,['Im_RobertPattinson.png', 'Im_OrlandoBloom.png', 'Im_MattDamon.png', 'Im_RobertDowneyJr.png', 'Im_LeonardoDiCaprio.png', 'Im_ElijahWood.png', 'Im_RyanReynolds.png', 'Im_BenAffleck.png', 'Im_HughJackman.png', 'Im_BradPitt.png'],same,1,1.1081924999998591,19,85.71428571428571,
MAEL2812,train,neg,30,neg30_id16_im3.bmp_neg30_id16_im2.bmp,['Im_RobertPattinson.png', 'Im_OrlandoBloom.png', 'Im_MattDamon.png', 'Im_RobertDowneyJr.png', 'Im_LeonardoDiCaprio.png', 'Im_ElijahWood.png', 'Im_RyanReynolds.png', 'Im_BenAffleck.png', 'Im_HughJackman.png', 'Im_BradPitt.png'],same,1,1.00822479999988,20,85.71428571428571,
MAEL2812,train,neg,fs,negfs_id13_im10.bmp_negfs_id13_im15.bmp,['Im_RobertPattinson.png', 'Im_OrlandoBloom.png', 'Im_MattDamon.png', 'Im_RobertDowneyJr.png', 'Im_LeonardoDiCaprio.png', 'Im_ElijahWood.png', 'Im_RyanReynolds.png', 'Im_BenAffleck.png', 'Im_HughJackman.png', 'Im_BradPitt.png'],same,1,0.41673830000036105,21,85.71428571428571,
MAEL2812,train,neg,fs,negfs_id14_im24.bmp_negfs_id13_im29.bmp,['Im_RobertPattinson.png', 'Im_OrlandoBloom.png', 'Im_MattDamon.png', 'Im_RobertDowneyJr.png', 'Im_LeonardoDiCaprio.png', 'Im_ElijahWood.png', 'Im_RyanReynolds.png', 'Im_BenAffleck.png', 'Im_HughJackman.png', 'Im_BradPitt.png'],diff,1,0.7591181999996479,22,85.71428571428571,
MAEL2812,train,neg,60,neg60_id1_im21.bmp_neg60_id16_im19.bmp,['Im_RobertPattinson.png', 'Im_OrlandoBloom.png', 'Im_MattDamon.png', 'Im_RobertDowneyJr.png', 'Im_LeonardoDiCaprio.png', 'Im_ElijahWood.png', 'Im_RyanReynolds.png', 'Im_BenAffleck.png', 'Im_HughJackman.png', 'Im_BradPitt.png'],diff,1,0.42513859999962733,23,85.71428571428571,
MAEL2812,train,neg,120,neg120_id6_im19.bmp_neg120_id6_im12.bmp,['Im_RobertPattinson.png', 'Im_OrlandoBloom.png', 'Im_MattDamon.png', 'Im_RobertDowneyJr.png', 'Im_LeonardoDiCaprio.png', 'Im_ElijahWood.png', 'Im_RyanReynolds.png', 'Im_BenAffleck.png', 'Im_HughJackman.png', 'Im_BradPitt.png'],same,1,0.41671990000031656,24,85.71428571428571,
MAEL2812,train,neg,90,neg90_id8_im21.bmp_neg90_id8_im13.bmp,['Im_RobertPattinson.png', 'Im_OrlandoBloom.png', 'Im_MattDamon.png', 'Im_RobertDowneyJr.png', 'Im_LeonardoDiCaprio.png', 'Im_ElijahWood.png', 'Im_RyanReynolds.png', 'Im_BenAffleck.png', 'Im_HughJackman.png', 'Im_BradPitt.png'],same,1,0.4083887999986473,25,85.71428571428571,
MAEL2812,train,neg,120,neg120_id3_im8.bmp_neg120_id18_im18.bmp,['Im_RobertPattinson.png', 'Im_OrlandoBloom.png', 'Im_MattDamon.png', 'Im_RobertDowneyJr.png', 'Im_LeonardoDiCaprio.png', 'Im_ElijahWood.png', 'Im_RyanReynolds.png', 'Im_BenAffleck.png', 'Im_HughJackman.png', 'Im_BradPitt.png'],diff,1,0.4085536000020511,26,85.71428571428571,
MAEL2812,train,inv,150,pos150_id13_im15.bmp_pos150_id21_im17.bmp,['Im_RobertPattinson.png', 'Im_OrlandoBloom.png', 'Im_MattDamon.png', 'Im_RobertDowneyJr.png', 'Im_LeonardoDiCaprio.png', 'Im_ElijahWood.png', 'Im_RyanReynolds.png', 'Im_BenAffleck.png', 'Im_HughJackman.png', 'Im_BradPitt.png'],diff,1,0.9582272000006924,27,85.71428571428571,
MAEL2812,train,inv,0,pos0_id3_im6.bmp_pos0_id8_im13.bmp,['Im_RobertPattinson.png', 'Im_OrlandoBloom.png', 'Im_MattDamon.png', 'Im_RobertDowneyJr.png', 'Im_LeonardoDiCaprio.png', 'Im_ElijahWood.png', 'Im_RyanReynolds.png', 'Im_BenAffleck.png', 'Im_HughJackman.png', 'Im_BradPitt.png'],same,0,0.7581886999978451,27,85.71428571428571,
MAEL2812,train,inv,60,pos60_id8_im20.bmp_pos60_id19_im4.bmp,['Im_RobertPattinson.png', 'Im_OrlandoBloom.png', 'Im_MattDamon.png', 'Im_RobertDowneyJr.png', 'Im_LeonardoDiCaprio.png', 'Im_ElijahWood.png', 'Im_RyanReynolds.png', 'Im_BenAffleck.png', 'Im_HughJackman.png', 'Im_BradPitt.png'],same,0,0.6249655999999959,27,85.71428571428571,
MAEL2812,train,inv,150,pos150_id18_im11.bmp_pos150_id21_im22.bmp,['Im_RobertPattinson.png', 'Im_OrlandoBloom.png', 'Im_MattDamon.png', 'Im_RobertDowneyJr.png', 'Im_LeonardoDiCaprio.png', 'Im_ElijahWood.png', 'Im_RyanReynolds.png', 'Im_BenAffleck.png', 'Im_HughJackman.png', 'Im_BradPitt.png'],diff,1,1.141674200000125,28,85.71428571428571,
MAEL2812,train,inv,fs,posfs_id3_im8.bmp_posfs_id3_im6.bmp,['Im_RobertPattinson.png', 'Im_OrlandoBloom.png', 'Im_MattDamon.png', 'Im_RobertDowneyJr.png', 'Im_LeonardoDiCaprio.png', 'Im_ElijahWood.png', 'Im_RyanReynolds.png', 'Im_BenAffleck.png', 'Im_HughJackman.png', 'Im_BradPitt.png'],same,1,1.6584339999972144,29,85.71428571428571,
MAEL2812,train,inv,30,pos30_id6_im12.bmp_pos30_id6_im18.bmp,['Im_RobertPattinson.png', 'Im_OrlandoBloom.png', 'Im_MattDamon.png', 'Im_RobertDowneyJr.png', 'Im_LeonardoDiCaprio.png', 'Im_ElijahWood.png', 'Im_RyanReynolds.png', 'Im_BenAffleck.png', 'Im_HughJackman.png', 'Im_BradPitt.png'],same,1,0.533519200002047,30,85.71428571428571,
MAEL2812,train,inv,0,pos0_id21_im16.bmp_pos0_id21_im17.bmp,['Im_RobertPattinson.png', 'Im_OrlandoBloom.png', 'Im_MattDamon.png', 'Im_RobertDowneyJr.png', 'Im_LeonardoDiCaprio.png', 'Im_ElijahWood.png', 'Im_RyanReynolds.png', 'Im_BenAffleck.png', 'Im_HughJackman.png', 'Im_BradPitt.png'],same,1,0.4249743000000308,31,85.71428571428571,
MAEL2812,train,inv,90,pos90_id21_im22.bmp_pos90_id8_im21.bmp,['Im_RobertPattinson.png', 'Im_OrlandoBloom.png', 'Im_MattDamon.png', 'Im_RobertDowneyJr.png', 'Im_LeonardoDiCaprio.png', 'Im_ElijahWood.png', 'Im_RyanReynolds.png', 'Im_BenAffleck.png', 'Im_HughJackman.png', 'Im_BradPitt.png'],diff,1,1.4331989000020258,32,85.71428571428571,
MAEL2812,train,inv,90,pos90_id8_im20.bmp_pos90_id8_im21.bmp,['Im_RobertPattinson.png', 'Im_OrlandoBloom.png', 'Im_MattDamon.png', 'Im_RobertDowneyJr.png', 'Im_LeonardoDiCaprio.png', 'Im_ElijahWood.png', 'Im_RyanReynolds.png', 'Im_BenAffleck.png', 'Im_HughJackman.png', 'Im_BradPitt.png'],same,1,0.8000874999997905,33,85.71428571428571,
MAEL2812,train,inv,fs,posfs_id18_im11.bmp_posfs_id14_im18.bmp,['Im_RobertPattinson.png', 'Im_OrlandoBloom.png', 'Im_MattDamon.png', 'Im_RobertDowneyJr.png', 'Im_LeonardoDiCaprio.png', 'Im_ElijahWood.png', 'Im_RyanReynolds.png', 'Im_BenAffleck.png', 'Im_HughJackman.png', 'Im_BradPitt.png'],diff,1,0.45858679999946617,34,85.71428571428571,
MAEL2812,train,inv,120,pos120_id21_im17.bmp_pos120_id13_im15.bmp,['Im_RobertPattinson.png', 'Im_OrlandoBloom.png', 'Im_MattDamon.png', 'Im_RobertDowneyJr.png', 'Im_LeonardoDiCaprio.png', 'Im_ElijahWood.png', 'Im_RyanReynolds.png', 'Im_BenAffleck.png', 'Im_HughJackman.png', 'Im_BradPitt.png'],diff,1,0.46675450000111596,35,85.71428571428571,
MAEL2812,train,inv,60,pos60_id1_im4.bmp_pos60_id1_im24.bmp,['Im_RobertPattinson.png', 'Im_OrlandoBloom.png', 'Im_MattDamon.png', 'Im_RobertDowneyJr.png', 'Im_LeonardoDiCaprio.png', 'Im_ElijahWood.png', 'Im_RyanReynolds.png', 'Im_BenAffleck.png', 'Im_HughJackman.png', 'Im_BradPitt.png'],diff,0,1.2254876999977569,35,85.71428571428571,
MAEL2812,train,inv,30,pos30_id3_im8.bmp_pos30_id18_im18.bmp,['Im_RobertPattinson.png', 'Im_OrlandoBloom.png', 'Im_MattDamon.png', 'Im_RobertDowneyJr.png', 'Im_LeonardoDiCaprio.png', 'Im_ElijahWood.png', 'Im_RyanReynolds.png', 'Im_BenAffleck.png', 'Im_HughJackman.png', 'Im_BradPitt.png'],same,0,1.391460000002553,35,85.71428571428571,
MAEL2812,train,inv,120,pos120_id6_im18.bmp_pos120_id16_im2.bmp,['Im_RobertPattinson.png', 'Im_OrlandoBloom.png', 'Im_MattDamon.png', 'Im_RobertDowneyJr.png', 'Im_LeonardoDiCaprio.png', 'Im_ElijahWood.png', 'Im_RyanReynolds.png', 'Im_BenAffleck.png', 'Im_HughJackman.png', 'Im_BradPitt.png'],diff,1,1.4421072000004642,36,85.71428571428571,
MAEL2812,0,inv,30,pos30_id1_im21.bmp_pos30_id1_im24.bmp,['Im_RobertPattinson.png', 'Im_OrlandoBloom.png', 'Im_MattDamon.png', 'Im_RobertDowneyJr.png', 'Im_LeonardoDiCaprio.png', 'Im_ElijahWood.png', 'Im_RyanReynolds.png', 'Im_BenAffleck.png', 'Im_HughJackman.png', 'Im_BradPitt.png'],same,1,0.8335477000000537,1,0,
MAEL2812,0,inv,120,pos120_id18_im11.bmp_pos120_id18_im19.bmp,['Im_RobertPattinson.png', 'Im_OrlandoBloom.png', 'Im_MattDamon.png', 'Im_RobertDowneyJr.png', 'Im_LeonardoDiCaprio.png', 'Im_ElijahWood.png', 'Im_RyanReynolds.png', 'Im_BenAffleck.png', 'Im_HughJackman.png', 'Im_BradPitt.png'],diff,0,0.9421397000005527,1,0,
MAEL2812,0,inv,90,pos90_id3_im8.bmp_pos90_id18_im18.bmp,['Im_RobertPattinson.png', 'Im_OrlandoBloom.png', 'Im_MattDamon.png', 'Im_RobertDowneyJr.png', 'Im_LeonardoDiCaprio.png', 'Im_ElijahWood.png', 'Im_RyanReynolds.png', 'Im_BenAffleck.png', 'Im_HughJackman.png', 'Im_BradPitt.png'],diff,1,0.8748539999978675,2,0,
MAEL2812,0,inv,90,pos90_id13_im29.bmp_pos90_id13_im15.bmp,['Im_RobertPattinson.png', 'Im_OrlandoBloom.png', 'Im_MattDamon.png', 'Im_RobertDowneyJr.png', 'Im_LeonardoDiCaprio.png', 'Im_ElijahWood.png', 'Im_RyanReynolds.png', 'Im_BenAffleck.png', 'Im_HughJackman.png', 'Im_BradPitt.png'],same,1,0.42496590000155265,3,0,
MAEL2812,0,inv,fs,posfs_id19_im4.bmp_posfs_id19_im8.bmp,['Im_RobertPattinson.png', 'Im_OrlandoBloom.png', 'Im_MattDamon.png', 'Im_RobertDowneyJr.png', 'Im_LeonardoDiCaprio.png', 'Im_ElijahWood.png', 'Im_RyanReynolds.png', 'Im_BenAffleck.png', 'Im_HughJackman.png', 'Im_BradPitt.png'],same,1,1.3001083000017388,4,0,
MAEL2812,0,inv,0,pos0_id16_im3.bmp_pos0_id8_im13.bmp,['Im_RobertPattinson.png', 'Im_OrlandoBloom.png', 'Im_MattDamon.png', 'Im_RobertDowneyJr.png', 'Im_LeonardoDiCaprio.png', 'Im_ElijahWood.png', 'Im_RyanReynolds.png', 'Im_BenAffleck.png', 'Im_HughJackman.png', 'Im_BradPitt.png'],same,0,0.5668791999996756,4,0,
MAEL2812,0,inv,fs,posfs_id3_im6.bmp_posfs_id8_im13.bmp,['Im_RobertPattinson.png', 'Im_OrlandoBloom.png', 'Im_MattDamon.png', 'Im_RobertDowneyJr.png', 'Im_LeonardoDiCaprio.png', 'Im_ElijahWood.png', 'Im_RyanReynolds.png', 'Im_BenAffleck.png', 'Im_HughJackman.png', 'Im_BradPitt.png'],diff,1,0.69183189999967,5,0,
MAEL2812,0,inv,120,pos120_id19_im8.bmp_pos120_id14_im16.bmp,['Im_RobertPattinson.png', 'Im_OrlandoBloom.png', 'Im_MattDamon.png', 'Im_RobertDowneyJr.png', 'Im_LeonardoDiCaprio.png', 'Im_ElijahWood.png', 'Im_RyanReynolds.png', 'Im_BenAffleck.png', 'Im_HughJackman.png', 'Im_BradPitt.png'],diff,1,0.9334917999985919,6,0,
MAEL2812,0,inv,60,pos60_id16_im2.bmp_pos60_id14_im16.bmp,['Im_RobertPattinson.png', 'Im_OrlandoBloom.png', 'Im_MattDamon.png', 'Im_RobertDowneyJr.png', 'Im_LeonardoDiCaprio.png', 'Im_ElijahWood.png', 'Im_RyanReynolds.png', 'Im_BenAffleck.png', 'Im_HughJackman.png', 'Im_BradPitt.png'],same,0,1.0917167000006884,6,0,
MAEL2812,0,inv,150,pos150_id19_im8.bmp_pos150_id14_im16.bmp,['Im_RobertPattinson.png', 'Im_OrlandoBloom.png', 'Im_MattDamon.png', 'Im_RobertDowneyJr.png', 'Im_LeonardoDiCaprio.png', 'Im_ElijahWood.png', 'Im_RyanReynolds.png', 'Im_BenAffleck.png', 'Im_HughJackman.png', 'Im_BradPitt.png'],diff,1,2.2419857999993837,7,0,
MAEL2812,0,inv,30,pos30_id21_im16.bmp_pos30_id21_im22.bmp,['Im_RobertPattinson.png', 'Im_OrlandoBloom.png', 'Im_MattDamon.png', 'Im_RobertDowneyJr.png', 'Im_LeonardoDiCaprio.png', 'Im_ElijahWood.png', 'Im_RyanReynolds.png', 'Im_BenAffleck.png', 'Im_HughJackman.png', 'Im_BradPitt.png'],same,1,0.49192260000199894,8,0,
MAEL2812,0,inv,150,pos150_id21_im16.bmp_pos150_id14_im24.bmp,['Im_RobertPattinson.png', 'Im_OrlandoBloom.png', 'Im_MattDamon.png', 'Im_RobertDowneyJr.png', 'Im_LeonardoDiCaprio.png', 'Im_ElijahWood.png', 'Im_RyanReynolds.png', 'Im_BenAffleck.png', 'Im_HughJackman.png', 'Im_BradPitt.png'],diff,1,2.591941399998177,9,0,
MAEL2812,0,inv,60,pos60_id13_im15.bmp_pos60_id21_im17.bmp,['Im_RobertPattinson.png', 'Im_OrlandoBloom.png', 'Im_MattDamon.png', 'Im_RobertDowneyJr.png', 'Im_LeonardoDiCaprio.png', 'Im_ElijahWood.png', 'Im_RyanReynolds.png', 'Im_BenAffleck.png', 'Im_HughJackman.png', 'Im_BradPitt.png'],diff,1,2.7836138999991817,10,0,
MAEL2812,0,inv,0,pos0_id18_im11.bmp_pos0_id18_im19.bmp,['Im_RobertPattinson.png', 'Im_OrlandoBloom.png', 'Im_MattDamon.png', 'Im_RobertDowneyJr.png', 'Im_LeonardoDiCaprio.png', 'Im_ElijahWood.png', 'Im_RyanReynolds.png', 'Im_BenAffleck.png', 'Im_HughJackman.png', 'Im_BradPitt.png'],same,1,0.5752725999991526,11,0,
MAEL2812,1,pos,150,pos150_id18_im19.bmp_pos150_id18_im18.bmp,['Im_RobertPattinson.png', 'Im_OrlandoBloom.png', 'Im_MattDamon.png', 'Im_RobertDowneyJr.png', 'Im_LeonardoDiCaprio.png', 'Im_ElijahWood.png', 'Im_RyanReynolds.png', 'Im_BenAffleck.png', 'Im_HughJackman.png', 'Im_BradPitt.png'],same,1,0.4253936999994039,12,0,
MAEL2812,1,pos,60,pos60_id18_im11.bmp_pos60_id14_im18.bmp,['Im_RobertPattinson.png', 'Im_OrlandoBloom.png', 'Im_MattDamon.png', 'Im_RobertDowneyJr.png', 'Im_LeonardoDiCaprio.png', 'Im_ElijahWood.png', 'Im_RyanReynolds.png', 'Im_BenAffleck.png', 'Im_HughJackman.png', 'Im_BradPitt.png'],diff,1,2.850108000002365,13,0,
MAEL2812,1,pos,120,pos120_id18_im18.bmp_pos120_id18_im11.bmp,['Im_RobertPattinson.png', 'Im_OrlandoBloom.png', 'Im_MattDamon.png', 'Im_RobertDowneyJr.png', 'Im_LeonardoDiCaprio.png', 'Im_ElijahWood.png', 'Im_RyanReynolds.png', 'Im_BenAffleck.png', 'Im_HughJackman.png', 'Im_BradPitt.png'],same,1,0.41667579999921145,14,0,
MAEL2812,1,pos,150,pos150_id19_im8.bmp_pos150_id16_im3.bmp,['Im_RobertPattinson.png', 'Im_OrlandoBloom.png', 'Im_MattDamon.png', 'Im_RobertDowneyJr.png', 'Im_LeonardoDiCaprio.png', 'Im_ElijahWood.png', 'Im_RyanReynolds.png', 'Im_BenAffleck.png', 'Im_HughJackman.png', 'Im_BradPitt.png'],diff,1,1.033661800000118,15,0,
MAEL2812,1,pos,90,pos90_id3_im8.bmp_pos90_id3_im17.bmp,['Im_RobertPattinson.png', 'Im_OrlandoBloom.png', 'Im_MattDamon.png', 'Im_RobertDowneyJr.png', 'Im_LeonardoDiCaprio.png', 'Im_ElijahWood.png', 'Im_RyanReynolds.png', 'Im_BenAffleck.png', 'Im_HughJackman.png', 'Im_BradPitt.png'],same,1,0.4251351999992039,16,0,
MAEL2812,1,pos,90,pos90_id1_im21.bmp_pos90_id1_im24.bmp,['Im_RobertPattinson.png', 'Im_OrlandoBloom.png', 'Im_MattDamon.png', 'Im_RobertDowneyJr.png', 'Im_LeonardoDiCaprio.png', 'Im_ElijahWood.png', 'Im_RyanReynolds.png', 'Im_BenAffleck.png', 'Im_HughJackman.png', 'Im_BradPitt.png'],same,1,1.2169904000002134,17,0,
MAEL2812,1,pos,30,pos30_id13_im10.bmp_pos30_id13_im15.bmp,['Im_RobertPattinson.png', 'Im_OrlandoBloom.png', 'Im_MattDamon.png', 'Im_RobertDowneyJr.png', 'Im_LeonardoDiCaprio.png', 'Im_ElijahWood.png', 'Im_RyanReynolds.png', 'Im_BenAffleck.png', 'Im_HughJackman.png', 'Im_BradPitt.png'],same,1,0.41673630000150297,18,0,
MAEL2812,1,pos,fs,posfs_id13_im29.bmp_posfs_id13_im15.bmp,['Im_RobertPattinson.png', 'Im_OrlandoBloom.png', 'Im_MattDamon.png', 'Im_RobertDowneyJr.png', 'Im_LeonardoDiCaprio.png', 'Im_ElijahWood.png', 'Im_RyanReynolds.png', 'Im_BenAffleck.png', 'Im_HughJackman.png', 'Im_BradPitt.png'],same,1,0.5253549999979441,19,0,
MAEL2812,1,pos,60,pos60_id19_im8.bmp_pos60_id19_im27.bmp,['Im_RobertPattinson.png', 'Im_OrlandoBloom.png', 'Im_MattDamon.png', 'Im_RobertDowneyJr.png', 'Im_LeonardoDiCaprio.png', 'Im_ElijahWood.png', 'Im_RyanReynolds.png', 'Im_BenAffleck.png', 'Im_HughJackman.png', 'Im_BradPitt.png'],same,1,0.41682079999736743,20,0,
MAEL2812,1,pos,120,pos120_id16_im19.bmp_pos120_id6_im19.bmp,['Im_RobertPattinson.png', 'Im_OrlandoBloom.png', 'Im_MattDamon.png', 'Im_RobertDowneyJr.png', 'Im_LeonardoDiCaprio.png', 'Im_ElijahWood.png', 'Im_RyanReynolds.png', 'Im_BenAffleck.png', 'Im_HughJackman.png', 'Im_BradPitt.png'],diff,1,0.4167240999995556,21,0,
MAEL2812,1,pos,0,pos0_id14_im24.bmp_pos0_id13_im29.bmp,['Im_RobertPattinson.png', 'Im_OrlandoBloom.png', 'Im_MattDamon.png', 'Im_RobertDowneyJr.png', 'Im_LeonardoDiCaprio.png', 'Im_ElijahWood.png', 'Im_RyanReynolds.png', 'Im_BenAffleck.png', 'Im_HughJackman.png', 'Im_BradPitt.png'],same,0,2.7004173000023,21,0,
MAEL2812,1,pos,fs,posfs_id1_im4.bmp_posfs_id1_im24.bmp,['Im_RobertPattinson.png', 'Im_OrlandoBloom.png', 'Im_MattDamon.png', 'Im_RobertDowneyJr.png', 'Im_LeonardoDiCaprio.png', 'Im_ElijahWood.png', 'Im_RyanReynolds.png', 'Im_BenAffleck.png', 'Im_HughJackman.png', 'Im_BradPitt.png'],same,1,0.41672079999989364,22,0,
MAEL2812,1,pos,30,pos30_id14_im24.bmp_pos30_id13_im29.bmp,['Im_RobertPattinson.png', 'Im_OrlandoBloom.png', 'Im_MattDamon.png', 'Im_RobertDowneyJr.png', 'Im_LeonardoDiCaprio.png', 'Im_ElijahWood.png', 'Im_RyanReynolds.png', 'Im_BenAffleck.png', 'Im_HughJackman.png', 'Im_BradPitt.png'],diff,1,0.6083307999979297,23,0,
MAEL2812,1,pos,0,pos0_id21_im17.bmp_pos0_id21_im16.bmp,['Im_RobertPattinson.png', 'Im_OrlandoBloom.png', 'Im_MattDamon.png', 'Im_RobertDowneyJr.png', 'Im_LeonardoDiCaprio.png', 'Im_ElijahWood.png', 'Im_RyanReynolds.png', 'Im_BenAffleck.png', 'Im_HughJackman.png', 'Im_BradPitt.png'],same,1,0.45854599999802304,24,0,
MAEL2812,2,inv,90,pos90_id3_im17.bmp_pos90_id3_im8.bmp,['Im_RobertPattinson.png', 'Im_OrlandoBloom.png', 'Im_MattDamon.png', 'Im_RobertDowneyJr.png', 'Im_LeonardoDiCaprio.png', 'Im_ElijahWood.png', 'Im_RyanReynolds.png', 'Im_BenAffleck.png', 'Im_HughJackman.png', 'Im_BradPitt.png'],same,1,0.7667488000006415,25,0,
MAEL2812,2,inv,90,pos90_id1_im4.bmp_pos90_id1_im24.bmp,['Im_RobertPattinson.png', 'Im_OrlandoBloom.png', 'Im_MattDamon.png', 'Im_RobertDowneyJr.png', 'Im_LeonardoDiCaprio.png', 'Im_ElijahWood.png', 'Im_RyanReynolds.png', 'Im_BenAffleck.png', 'Im_HughJackman.png', 'Im_BradPitt.png'],diff,0,1.1418257000004814,25,0,
MAEL2812,2,inv,60,pos60_id8_im20.bmp_pos60_id8_im13.bmp,['Im_RobertPattinson.png', 'Im_OrlandoBloom.png', 'Im_MattDamon.png', 'Im_RobertDowneyJr.png', 'Im_LeonardoDiCaprio.png', 'Im_ElijahWood.png', 'Im_RyanReynolds.png', 'Im_BenAffleck.png', 'Im_HughJackman.png', 'Im_BradPitt.png'],diff,0,0.9251856000009866,25,0,
MAEL2812,2,inv,60,pos60_id14_im16.bmp_pos60_id14_im18.bmp,['Im_RobertPattinson.png', 'Im_OrlandoBloom.png', 'Im_MattDamon.png', 'Im_RobertDowneyJr.png', 'Im_LeonardoDiCaprio.png', 'Im_ElijahWood.png', 'Im_RyanReynolds.png', 'Im_BenAffleck.png', 'Im_HughJackman.png', 'Im_BradPitt.png'],same,1,0.5833802000015567,26,0,
MAEL2812,2,inv,30,pos30_id1_im4.bmp_pos30_id1_im21.bmp,['Im_RobertPattinson.png', 'Im_OrlandoBloom.png', 'Im_MattDamon.png', 'Im_RobertDowneyJr.png', 'Im_LeonardoDiCaprio.png', 'Im_ElijahWood.png', 'Im_RyanReynolds.png', 'Im_BenAffleck.png', 'Im_HughJackman.png', 'Im_BradPitt.png'],diff,0,0.9167321000022639,26,0,
MAEL2812,2,inv,120,pos120_id18_im19.bmp_pos120_id21_im17.bmp,['Im_RobertPattinson.png', 'Im_OrlandoBloom.png', 'Im_MattDamon.png', 'Im_RobertDowneyJr.png', 'Im_LeonardoDiCaprio.png', 'Im_ElijahWood.png', 'Im_RyanReynolds.png', 'Im_BenAffleck.png', 'Im_HughJackman.png', 'Im_BradPitt.png'],same,0,0.41665910000301665,26,0,
MAEL2812,2,inv,150,pos150_id18_im18.bmp_pos150_id18_im19.bmp,['Im_RobertPattinson.png', 'Im_OrlandoBloom.png', 'Im_MattDamon.png', 'Im_RobertDowneyJr.png', 'Im_LeonardoDiCaprio.png', 'Im_ElijahWood.png', 'Im_RyanReynolds.png', 'Im_BenAffleck.png', 'Im_HughJackman.png', 'Im_BradPitt.png'],diff,0,3.0165779999988445,26,0,
MAEL2812,2,inv,0,pos0_id3_im8.bmp_pos0_id3_im17.bmp,['Im_RobertPattinson.png', 'Im_OrlandoBloom.png', 'Im_MattDamon.png', 'Im_RobertDowneyJr.png', 'Im_LeonardoDiCaprio.png', 'Im_ElijahWood.png', 'Im_RyanReynolds.png', 'Im_BenAffleck.png', 'Im_HughJackman.png', 'Im_BradPitt.png'],diff,0,0.5169554999993125,26,0,
MAEL2812,2,inv,120,pos120_id14_im16.bmp_pos120_id16_im2.bmp,['Im_RobertPattinson.png', 'Im_OrlandoBloom.png', 'Im_MattDamon.png', 'Im_RobertDowneyJr.png', 'Im_LeonardoDiCaprio.png', 'Im_ElijahWood.png', 'Im_RyanReynolds.png', 'Im_BenAffleck.png', 'Im_HughJackman.png', 'Im_BradPitt.png'],same,0,1.0417497999987972,26,0,
MAEL2812,2,inv,150,pos150_id13_im10.bmp_pos150_id13_im29.bmp,['Im_RobertPattinson.png', 'Im_OrlandoBloom.png', 'Im_MattDamon.png', 'Im_RobertDowneyJr.png', 'Im_LeonardoDiCaprio.png', 'Im_ElijahWood.png', 'Im_RyanReynolds.png', 'Im_BenAffleck.png', 'Im_HughJackman.png', 'Im_BradPitt.png'],diff,0,0.6927656000007119,26,0,
MAEL2812,2,inv,30,pos30_id6_im19.bmp_pos30_id6_im12.bmp,['Im_RobertPattinson.png', 'Im_OrlandoBloom.png', 'Im_MattDamon.png', 'Im_RobertDowneyJr.png', 'Im_LeonardoDiCaprio.png', 'Im_ElijahWood.png', 'Im_RyanReynolds.png', 'Im_BenAffleck.png', 'Im_HughJackman.png', 'Im_BradPitt.png'],diff,0,0.4919606000003114,26,0,
MAEL2812,2,inv,0,pos0_id16_im2.bmp_pos0_id16_im19.bmp,['Im_RobertPattinson.png', 'Im_OrlandoBloom.png', 'Im_MattDamon.png', 'Im_RobertDowneyJr.png', 'Im_LeonardoDiCaprio.png', 'Im_ElijahWood.png', 'Im_RyanReynolds.png', 'Im_BenAffleck.png', 'Im_HughJackman.png', 'Im_BradPitt.png'],same,1,0.6502872999990359,27,0,
MAEL2812,2,inv,fs,posfs_id13_im15.bmp_posfs_id13_im10.bmp,['Im_RobertPattinson.png', 'Im_OrlandoBloom.png', 'Im_MattDamon.png', 'Im_RobertDowneyJr.png', 'Im_LeonardoDiCaprio.png', 'Im_ElijahWood.png', 'Im_RyanReynolds.png', 'Im_BenAffleck.png', 'Im_HughJackman.png', 'Im_BradPitt.png'],same,1,0.5336373999998614,28,0,
MAEL2812,2,inv,fs,posfs_id8_im21.bmp_posfs_id19_im4.bmp,['Im_RobertPattinson.png', 'Im_OrlandoBloom.png', 'Im_MattDamon.png', 'Im_RobertDowneyJr.png', 'Im_LeonardoDiCaprio.png', 'Im_ElijahWood.png', 'Im_RyanReynolds.png', 'Im_BenAffleck.png', 'Im_HughJackman.png', 'Im_BradPitt.png'],same,0,0.683496900001046,28,0,
MAEL2812,3,neg,fs,negfs_id14_im18.bmp_negfs_id14_im24.bmp,['Im_RobertPattinson.png', 'Im_OrlandoBloom.png', 'Im_MattDamon.png', 'Im_RobertDowneyJr.png', 'Im_LeonardoDiCaprio.png', 'Im_ElijahWood.png', 'Im_RyanReynolds.png', 'Im_BenAffleck.png', 'Im_HughJackman.png', 'Im_BradPitt.png'],same,1,1.6002273999984027,1,66.66666666666667,
MAEL2812,3,neg,30,neg30_id19_im8.bmp_neg30_id14_im16.bmp,['Im_RobertPattinson.png', 'Im_OrlandoBloom.png', 'Im_MattDamon.png', 'Im_RobertDowneyJr.png', 'Im_LeonardoDiCaprio.png', 'Im_ElijahWood.png', 'Im_RyanReynolds.png', 'Im_BenAffleck.png', 'Im_HughJackman.png', 'Im_BradPitt.png'],diff,1,0.5833512999997765,2,66.66666666666667,
MAEL2812,3,neg,60,neg60_id1_im4.bmp_neg60_id1_im21.bmp,['Im_RobertPattinson.png', 'Im_OrlandoBloom.png', 'Im_MattDamon.png', 'Im_RobertDowneyJr.png', 'Im_LeonardoDiCaprio.png', 'Im_ElijahWood.png', 'Im_RyanReynolds.png', 'Im_BenAffleck.png', 'Im_HughJackman.png', 'Im_BradPitt.png'],same,1,0.5583107000020391,3,66.66666666666667,
MAEL2812,3,neg,0,neg0_id16_im3.bmp_neg0_id16_im2.bmp,['Im_RobertPattinson.png', 'Im_OrlandoBloom.png', 'Im_MattDamon.png', 'Im_RobertDowneyJr.png', 'Im_LeonardoDiCaprio.png', 'Im_ElijahWood.png', 'Im_RyanReynolds.png', 'Im_BenAffleck.png', 'Im_HughJackman.png', 'Im_BradPitt.png'],same,1,0.4167280000001483,4,66.66666666666667,
MAEL2812,3,neg,fs,negfs_id19_im27.bmp_negfs_id14_im18.bmp,['Im_RobertPattinson.png', 'Im_OrlandoBloom.png', 'Im_MattDamon.png', 'Im_RobertDowneyJr.png', 'Im_LeonardoDiCaprio.png', 'Im_ElijahWood.png', 'Im_RyanReynolds.png', 'Im_BenAffleck.png', 'Im_HughJackman.png', 'Im_BradPitt.png'],diff,1,0.41670560000056867,5,66.66666666666667,
MAEL2812,3,neg,150,neg150_id16_im19.bmp_neg150_id16_im2.bmp,['Im_RobertPattinson.png', 'Im_OrlandoBloom.png', 'Im_MattDamon.png', 'Im_RobertDowneyJr.png', 'Im_LeonardoDiCaprio.png', 'Im_ElijahWood.png', 'Im_RyanReynolds.png', 'Im_BenAffleck.png', 'Im_HughJackman.png', 'Im_BradPitt.png'],same,1,0.4333623999991687,6,66.66666666666667,
MAEL2812,3,neg,0,neg0_id8_im21.bmp_neg0_id21_im22.bmp,['Im_RobertPattinson.png', 'Im_OrlandoBloom.png', 'Im_MattDamon.png', 'Im_RobertDowneyJr.png', 'Im_LeonardoDiCaprio.png', 'Im_ElijahWood.png', 'Im_RyanReynolds.png', 'Im_BenAffleck.png', 'Im_HughJackman.png', 'Im_BradPitt.png'],diff,1,0.4919195000002219,7,66.66666666666667,
MAEL2812,3,neg,60,neg60_id3_im6.bmp_neg60_id3_im17.bmp,['Im_RobertPattinson.png', 'Im_OrlandoBloom.png', 'Im_MattDamon.png', 'Im_RobertDowneyJr.png', 'Im_LeonardoDiCaprio.png', 'Im_ElijahWood.png', 'Im_RyanReynolds.png', 'Im_BenAffleck.png', 'Im_HughJackman.png', 'Im_BradPitt.png'],same,1,0.41679540000041015,8,66.66666666666667,
MAEL2812,3,neg,120,neg120_id3_im17.bmp_neg120_id3_im8.bmp,['Im_RobertPattinson.png', 'Im_OrlandoBloom.png', 'Im_MattDamon.png', 'Im_RobertDowneyJr.png', 'Im_LeonardoDiCaprio.png', 'Im_ElijahWood.png', 'Im_RyanReynolds.png', 'Im_BenAffleck.png', 'Im_HughJackman.png', 'Im_BradPitt.png'],same,1,0.42498820000037085,9,66.66666666666667,
MAEL2812,3,neg,90,neg90_id13_im15.bmp_neg90_id13_im10.bmp,['Im_RobertPattinson.png', 'Im_OrlandoBloom.png', 'Im_MattDamon.png', 'Im_RobertDowneyJr.png', 'Im_LeonardoDiCaprio.png', 'Im_ElijahWood.png', 'Im_RyanReynolds.png', 'Im_BenAffleck.png', 'Im_HughJackman.png', 'Im_BradPitt.png'],same,1,1.400216599999112,10,66.66666666666667,
MAEL2812,3,neg,150,neg150_id19_im27.bmp_neg150_id14_im18.bmp,['Im_RobertPattinson.png', 'Im_OrlandoBloom.png', 'Im_MattDamon.png', 'Im_RobertDowneyJr.png', 'Im_LeonardoDiCaprio.png', 'Im_ElijahWood.png', 'Im_RyanReynolds.png', 'Im_BenAffleck.png', 'Im_HughJackman.png', 'Im_BradPitt.png'],diff,1,0.41677960000015446,11,66.66666666666667,
MAEL2812,3,neg,30,neg30_id18_im11.bmp_neg30_id18_im19.bmp,['Im_RobertPattinson.png', 'Im_OrlandoBloom.png', 'Im_MattDamon.png', 'Im_RobertDowneyJr.png', 'Im_LeonardoDiCaprio.png', 'Im_ElijahWood.png', 'Im_RyanReynolds.png', 'Im_BenAffleck.png', 'Im_HughJackman.png', 'Im_BradPitt.png'],same,1,1.6667129000015848,12,66.66666666666667,
MAEL2812,3,neg,90,neg90_id6_im18.bmp_neg90_id1_im24.bmp,['Im_RobertPattinson.png', 'Im_OrlandoBloom.png', 'Im_MattDamon.png', 'Im_RobertDowneyJr.png', 'Im_LeonardoDiCaprio.png', 'Im_ElijahWood.png', 'Im_RyanReynolds.png', 'Im_BenAffleck.png', 'Im_HughJackman.png', 'Im_BradPitt.png'],diff,1,0.4168221999971138,13,66.66666666666667,
MAEL2812,3,neg,120,neg120_id19_im4.bmp_neg120_id8_im21.bmp,['Im_RobertPattinson.png', 'Im_OrlandoBloom.png', 'Im_MattDamon.png', 'Im_RobertDowneyJr.png', 'Im_LeonardoDiCaprio.png', 'Im_ElijahWood.png', 'Im_RyanReynolds.png', 'Im_BenAffleck.png', 'Im_HughJackman.png', 'Im_BradPitt.png'],same,0,0.6335375000016938,13,66.66666666666667,
MAEL2812,4,pos,60,pos60_id6_im18.bmp_pos60_id6_im12.bmp,['Im_RobertPattinson.png', 'Im_OrlandoBloom.png', 'Im_MattDamon.png', 'Im_RobertDowneyJr.png', 'Im_LeonardoDiCaprio.png', 'Im_ElijahWood.png', 'Im_RyanReynolds.png', 'Im_BenAffleck.png', 'Im_HughJackman.png', 'Im_BradPitt.png'],same,1,0.42492850000053295,14,66.66666666666667,
MAEL2812,4,pos,90,pos90_id13_im10.bmp_pos90_id13_im29.bmp,['Im_RobertPattinson.png', 'Im_OrlandoBloom.png', 'Im_MattDamon.png', 'Im_RobertDowneyJr.png', 'Im_LeonardoDiCaprio.png', 'Im_ElijahWood.png', 'Im_RyanReynolds.png', 'Im_BenAffleck.png', 'Im_HughJackman.png', 'Im_BradPitt.png'],same,1,0.4168427000004158,15,66.66666666666667,
MAEL2812,4,pos,fs,posfs_id21_im22.bmp_posfs_id21_im16.bmp,['Im_RobertPattinson.png', 'Im_OrlandoBloom.png', 'Im_MattDamon.png', 'Im_RobertDowneyJr.png', 'Im_LeonardoDiCaprio.png', 'Im_ElijahWood.png', 'Im_RyanReynolds.png', 'Im_BenAffleck.png', 'Im_HughJackman.png', 'Im_BradPitt.png'],same,1,0.4333976999987499,16,66.66666666666667,
MAEL2812,4,pos,60,pos60_id18_im11.bmp_pos60_id18_im19.bmp,['Im_RobertPattinson.png', 'Im_OrlandoBloom.png', 'Im_MattDamon.png', 'Im_RobertDowneyJr.png', 'Im_LeonardoDiCaprio.png', 'Im_ElijahWood.png', 'Im_RyanReynolds.png', 'Im_BenAffleck.png', 'Im_HughJackman.png', 'Im_BradPitt.png'],same,1,0.5582224999998289,17,66.66666666666667,
MAEL2812,4,pos,0,pos0_id13_im15.bmp_pos0_id13_im10.bmp,['Im_RobertPattinson.png', 'Im_OrlandoBloom.png', 'Im_MattDamon.png', 'Im_RobertDowneyJr.png', 'Im_LeonardoDiCaprio.png', 'Im_ElijahWood.png', 'Im_RyanReynolds.png', 'Im_BenAffleck.png', 'Im_HughJackman.png', 'Im_BradPitt.png'],same,1,0.42525469999964116,18,66.66666666666667,
MAEL2812,4,pos,90,pos90_id21_im22.bmp_pos90_id18_im11.bmp,['Im_RobertPattinson.png', 'Im_OrlandoBloom.png', 'Im_MattDamon.png', 'Im_RobertDowneyJr.png', 'Im_LeonardoDiCaprio.png', 'Im_ElijahWood.png', 'Im_RyanReynolds.png', 'Im_BenAffleck.png', 'Im_HughJackman.png', 'Im_BradPitt.png'],diff,1,0.8250984999976936,19,66.66666666666667,
MAEL2812,4,pos,150,pos150_id14_im18.bmp_pos150_id14_im24.bmp,['Im_RobertPattinson.png', 'Im_OrlandoBloom.png', 'Im_MattDamon.png', 'Im_RobertDowneyJr.png', 'Im_LeonardoDiCaprio.png', 'Im_ElijahWood.png', 'Im_RyanReynolds.png', 'Im_BenAffleck.png', 'Im_HughJackman.png', 'Im_BradPitt.png'],same,1,1.100043899998127,20,66.66666666666667,
MAEL2812,4,pos,30,pos30_id3_im6.bmp_pos30_id3_im17.bmp,['Im_RobertPattinson.png', 'Im_OrlandoBloom.png', 'Im_MattDamon.png', 'Im_RobertDowneyJr.png', 'Im_LeonardoDiCaprio.png', 'Im_ElijahWood.png', 'Im_RyanReynolds.png', 'Im_BenAffleck.png', 'Im_HughJackman.png', 'Im_BradPitt.png'],same,1,0.40843780000068364,21,66.66666666666667,
MAEL2812,4,pos,30,pos30_id19_im8.bmp_pos30_id19_im27.bmp,['Im_RobertPattinson.png', 'Im_OrlandoBloom.png', 'Im_MattDamon.png', 'Im_RobertDowneyJr.png', 'Im_LeonardoDiCaprio.png', 'Im_ElijahWood.png', 'Im_RyanReynolds.png', 'Im_BenAffleck.png', 'Im_HughJackman.png', 'Im_BradPitt.png'],same,1,0.45841980000113836,22,66.66666666666667,
MAEL2812,4,pos,0,pos0_id1_im24.bmp_pos0_id6_im18.bmp,['Im_RobertPattinson.png', 'Im_OrlandoBloom.png', 'Im_MattDamon.png', 'Im_RobertDowneyJr.png', 'Im_LeonardoDiCaprio.png', 'Im_ElijahWood.png', 'Im_RyanReynolds.png', 'Im_BenAffleck.png', 'Im_HughJackman.png', 'Im_BradPitt.png'],diff,1,0.6500582000007853,23,66.66666666666667,
MAEL2812,4,pos,fs,posfs_id18_im19.bmp_posfs_id18_im18.bmp,['Im_RobertPattinson.png', 'Im_OrlandoBloom.png', 'Im_MattDamon.png', 'Im_RobertDowneyJr.png', 'Im_LeonardoDiCaprio.png', 'Im_ElijahWood.png', 'Im_RyanReynolds.png', 'Im_BenAffleck.png', 'Im_HughJackman.png', 'Im_BradPitt.png'],same,1,0.4250865000030899,24,66.66666666666667,
MAEL2812,4,pos,120,pos120_id3_im17.bmp_pos120_id3_im6.bmp,['Im_RobertPattinson.png', 'Im_OrlandoBloom.png', 'Im_MattDamon.png', 'Im_RobertDowneyJr.png', 'Im_LeonardoDiCaprio.png', 'Im_ElijahWood.png', 'Im_RyanReynolds.png', 'Im_BenAffleck.png', 'Im_HughJackman.png', 'Im_BradPitt.png'],same,1,0.41675089999989723,25,66.66666666666667,
MAEL2812,4,pos,150,pos150_id18_im19.bmp_pos150_id21_im17.bmp,['Im_RobertPattinson.png', 'Im_OrlandoBloom.png', 'Im_MattDamon.png', 'Im_RobertDowneyJr.png', 'Im_LeonardoDiCaprio.png', 'Im_ElijahWood.png', 'Im_RyanReynolds.png', 'Im_BenAffleck.png', 'Im_HughJackman.png', 'Im_BradPitt.png'],diff,1,0.41676759999973,26,66.66666666666667,
MAEL2812,4,pos,120,pos120_id3_im17.bmp_pos120_id19_im27.bmp,['Im_RobertPattinson.png', 'Im_OrlandoBloom.png', 'Im_MattDamon.png', 'Im_RobertDowneyJr.png', 'Im_LeonardoDiCaprio.png', 'Im_ElijahWood.png', 'Im_RyanReynolds.png', 'Im_BenAffleck.png', 'Im_HughJackman.png', 'Im_BradPitt.png'],diff,1,0.4168960999995761,27,66.66666666666667,
MAEL2812,5,neg,0,neg0_id21_im16.bmp_neg0_id14_im24.bmp,['Im_RobertPattinson.png', 'Im_OrlandoBloom.png', 'Im_MattDamon.png', 'Im_RobertDowneyJr.png', 'Im_LeonardoDiCaprio.png', 'Im_ElijahWood.png', 'Im_RyanReynolds.png', 'Im_BenAffleck.png', 'Im_HughJackman.png', 'Im_BradPitt.png'],diff,1,1.3916950999991968,28,66.66666666666667,
MAEL2812,5,neg,120,neg120_id1_im24.bmp_neg120_id1_im21.bmp,['Im_RobertPattinson.png', 'Im_OrlandoBloom.png', 'Im_MattDamon.png', 'Im_RobertDowneyJr.png', 'Im_LeonardoDiCaprio.png', 'Im_ElijahWood.png', 'Im_RyanReynolds.png', 'Im_BenAffleck.png', 'Im_HughJackman.png', 'Im_BradPitt.png'],same,1,1.51695120000295,29,66.66666666666667,
MAEL2812,5,neg,60,neg60_id21_im17.bmp_neg60_id18_im19.bmp,['Im_RobertPattinson.png', 'Im_OrlandoBloom.png', 'Im_MattDamon.png', 'Im_RobertDowneyJr.png', 'Im_LeonardoDiCaprio.png', 'Im_ElijahWood.png', 'Im_RyanReynolds.png', 'Im_BenAffleck.png', 'Im_HughJackman.png', 'Im_BradPitt.png'],diff,1,0.5248696999988169,30,66.66666666666667,
MAEL2812,5,neg,150,neg150_id3_im8.bmp_neg150_id18_im19.bmp,['Im_RobertPattinson.png', 'Im_OrlandoBloom.png', 'Im_MattDamon.png', 'Im_RobertDowneyJr.png', 'Im_LeonardoDiCaprio.png', 'Im_ElijahWood.png', 'Im_RyanReynolds.png', 'Im_BenAffleck.png', 'Im_HughJackman.png', 'Im_BradPitt.png'],diff,1,1.6168125000003783,31,66.66666666666667,
MAEL2812,5,neg,fs,negfs_id18_im19.bmp_negfs_id18_im11.bmp,['Im_RobertPattinson.png', 'Im_OrlandoBloom.png', 'Im_MattDamon.png', 'Im_RobertDowneyJr.png', 'Im_LeonardoDiCaprio.png', 'Im_ElijahWood.png', 'Im_RyanReynolds.png', 'Im_BenAffleck.png', 'Im_HughJackman.png', 'Im_BradPitt.png'],same,1,0.5250780999995186,32,66.66666666666667,
MAEL2812,5,neg,0,neg0_id1_im24.bmp_neg0_id6_im19.bmp,['Im_RobertPattinson.png', 'Im_OrlandoBloom.png', 'Im_MattDamon.png', 'Im_RobertDowneyJr.png', 'Im_LeonardoDiCaprio.png', 'Im_ElijahWood.png', 'Im_RyanReynolds.png', 'Im_BenAffleck.png', 'Im_HughJackman.png', 'Im_BradPitt.png'],diff,1,1.4501735000012559,33,66.66666666666667,
MAEL2812,5,neg,120,neg120_id3_im17.bmp_neg120_id3_im6.bmp,['Im_RobertPattinson.png', 'Im_OrlandoBloom.png', 'Im_MattDamon.png', 'Im_RobertDowneyJr.png', 'Im_LeonardoDiCaprio.png', 'Im_ElijahWood.png', 'Im_RyanReynolds.png', 'Im_BenAffleck.png', 'Im_HughJackman.png', 'Im_BradPitt.png'],same,1,0.9084117000020342,34,66.66666666666667,
MAEL2812,5,neg,90,neg90_id21_im16.bmp_neg90_id14_im24.bmp,['Im_RobertPattinson.png', 'Im_OrlandoBloom.png', 'Im_MattDamon.png', 'Im_RobertDowneyJr.png', 'Im_LeonardoDiCaprio.png', 'Im_ElijahWood.png', 'Im_RyanReynolds.png', 'Im_BenAffleck.png', 'Im_HughJackman.png', 'Im_BradPitt.png'],diff,1,0.8583221999979287,35,66.66666666666667,
MAEL2812,5,neg,150,neg150_id19_im8.bmp_neg150_id19_im4.bmp,['Im_RobertPattinson.png', 'Im_OrlandoBloom.png', 'Im_MattDamon.png', 'Im_RobertDowneyJr.png', 'Im_LeonardoDiCaprio.png', 'Im_ElijahWood.png', 'Im_RyanReynolds.png', 'Im_BenAffleck.png', 'Im_HughJackman.png', 'Im_BradPitt.png'],diff,0,1.0168379000024288,35,66.66666666666667,
MAEL2812,5,neg,30,neg30_id13_im15.bmp_neg30_id18_im18.bmp,['Im_RobertPattinson.png', 'Im_OrlandoBloom.png', 'Im_MattDamon.png', 'Im_RobertDowneyJr.png', 'Im_LeonardoDiCaprio.png', 'Im_ElijahWood.png', 'Im_RyanReynolds.png', 'Im_BenAffleck.png', 'Im_HughJackman.png', 'Im_BradPitt.png'],diff,1,0.8335627999986173,36,66.66666666666667,
MAEL2812,5,neg,90,neg90_id8_im13.bmp_neg90_id8_im20.bmp,['Im_RobertPattinson.png', 'Im_OrlandoBloom.png', 'Im_MattDamon.png', 'Im_RobertDowneyJr.png', 'Im_LeonardoDiCaprio.png', 'Im_ElijahWood.png', 'Im_RyanReynolds.png', 'Im_BenAffleck.png', 'Im_HughJackman.png', 'Im_BradPitt.png'],same,1,0.4834116999991238,37,66.66666666666667,
MAEL2812,5,neg,fs,negfs_id13_im10.bmp_negfs_id21_im16.bmp,['Im_RobertPattinson.png', 'Im_OrlandoBloom.png', 'Im_MattDamon.png', 'Im_RobertDowneyJr.png', 'Im_LeonardoDiCaprio.png', 'Im_ElijahWood.png', 'Im_RyanReynolds.png', 'Im_BenAffleck.png', 'Im_HughJackman.png', 'Im_BradPitt.png'],diff,1,0.4167938000027789,38,66.66666666666667,
MAEL2812,5,neg,30,neg30_id21_im22.bmp_neg30_id21_im17.bmp,['Im_RobertPattinson.png', 'Im_OrlandoBloom.png', 'Im_MattDamon.png', 'Im_RobertDowneyJr.png', 'Im_LeonardoDiCaprio.png', 'Im_ElijahWood.png', 'Im_RyanReynolds.png', 'Im_BenAffleck.png', 'Im_HughJackman.png', 'Im_BradPitt.png'],same,1,0.41686509999999544,39,66.66666666666667,
MAEL2812,5,neg,60,neg60_id1_im24.bmp_neg60_id1_im21.bmp,['Im_RobertPattinson.png', 'Im_OrlandoBloom.png', 'Im_MattDamon.png', 'Im_RobertDowneyJr.png', 'Im_LeonardoDiCaprio.png', 'Im_ElijahWood.png', 'Im_RyanReynolds.png', 'Im_BenAffleck.png', 'Im_HughJackman.png', 'Im_BradPitt.png'],same,1,0.42512880000140285,40,66.66666666666667,
MAEL2812,6,inv,90,pos90_id19_im8.bmp_pos90_id14_im16.bmp,['Im_RobertPattinson.png', 'Im_OrlandoBloom.png', 'Im_MattDamon.png', 'Im_RobertDowneyJr.png', 'Im_LeonardoDiCaprio.png', 'Im_ElijahWood.png', 'Im_RyanReynolds.png', 'Im_BenAffleck.png', 'Im_HughJackman.png', 'Im_BradPitt.png'],same,0,1.8418468999989273,0,95.23809523809524,
MAEL2812,6,inv,60,pos60_id1_im21.bmp_pos60_id8_im20.bmp,['Im_RobertPattinson.png', 'Im_OrlandoBloom.png', 'Im_MattDamon.png', 'Im_RobertDowneyJr.png', 'Im_LeonardoDiCaprio.png', 'Im_ElijahWood.png', 'Im_RyanReynolds.png', 'Im_BenAffleck.png', 'Im_HughJackman.png', 'Im_BradPitt.png'],same,0,1.4500072000009823,0,95.23809523809524,
MAEL2812,6,inv,30,pos30_id6_im19.bmp_pos30_id16_im19.bmp,['Im_RobertPattinson.png', 'Im_OrlandoBloom.png', 'Im_MattDamon.png', 'Im_RobertDowneyJr.png', 'Im_LeonardoDiCaprio.png', 'Im_ElijahWood.png', 'Im_RyanReynolds.png', 'Im_BenAffleck.png', 'Im_HughJackman.png', 'Im_BradPitt.png'],diff,1,0.4748634999996284,1,95.23809523809524,
MAEL2812,6,inv,30,pos30_id13_im29.bmp_pos30_id13_im10.bmp,['Im_RobertPattinson.png', 'Im_OrlandoBloom.png', 'Im_MattDamon.png', 'Im_RobertDowneyJr.png', 'Im_LeonardoDiCaprio.png', 'Im_ElijahWood.png', 'Im_RyanReynolds.png', 'Im_BenAffleck.png', 'Im_HughJackman.png', 'Im_BradPitt.png'],diff,0,1.1670199000000139,1,95.23809523809524,
MAEL2812,6,inv,120,pos120_id13_im29.bmp_pos120_id1_im4.bmp,['Im_RobertPattinson.png', 'Im_OrlandoBloom.png', 'Im_MattDamon.png', 'Im_RobertDowneyJr.png', 'Im_LeonardoDiCaprio.png', 'Im_ElijahWood.png', 'Im_RyanReynolds.png', 'Im_BenAffleck.png', 'Im_HughJackman.png', 'Im_BradPitt.png'],diff,1,1.9249897000008787,2,95.23809523809524,
MAEL2812,6,inv,0,pos0_id8_im13.bmp_pos0_id8_im21.bmp,['Im_RobertPattinson.png', 'Im_OrlandoBloom.png', 'Im_MattDamon.png', 'Im_RobertDowneyJr.png', 'Im_LeonardoDiCaprio.png', 'Im_ElijahWood.png', 'Im_RyanReynolds.png', 'Im_BenAffleck.png', 'Im_HughJackman.png', 'Im_BradPitt.png'],same,1,0.5505241000028036,3,95.23809523809524,
MAEL2812,6,inv,150,pos150_id21_im16.bmp_pos150_id21_im22.bmp,['Im_RobertPattinson.png', 'Im_OrlandoBloom.png', 'Im_MattDamon.png', 'Im_RobertDowneyJr.png', 'Im_LeonardoDiCaprio.png', 'Im_ElijahWood.png', 'Im_RyanReynolds.png', 'Im_BenAffleck.png', 'Im_HughJackman.png', 'Im_BradPitt.png'],same,1,1.2166154000005918,4,95.23809523809524,
MAEL2812,6,inv,fs,posfs_id18_im18.bmp_posfs_id3_im8.bmp,['Im_RobertPattinson.png', 'Im_OrlandoBloom.png', 'Im_MattDamon.png', 'Im_RobertDowneyJr.png', 'Im_LeonardoDiCaprio.png', 'Im_ElijahWood.png', 'Im_RyanReynolds.png', 'Im_BenAffleck.png', 'Im_HughJackman.png', 'Im_BradPitt.png'],diff,1,1.1920095000023139,5,95.23809523809524,
MAEL2812,6,inv,0,pos0_id19_im27.bmp_pos0_id19_im8.bmp,['Im_RobertPattinson.png', 'Im_OrlandoBloom.png', 'Im_MattDamon.png', 'Im_RobertDowneyJr.png', 'Im_LeonardoDiCaprio.png', 'Im_ElijahWood.png', 'Im_RyanReynolds.png', 'Im_BenAffleck.png', 'Im_HughJackman.png', 'Im_BradPitt.png'],same,1,1.6753266999985499,6,95.23809523809524,
MAEL2812,6,inv,150,pos150_id14_im16.bmp_pos150_id16_im2.bmp,['Im_RobertPattinson.png', 'Im_OrlandoBloom.png', 'Im_MattDamon.png', 'Im_RobertDowneyJr.png', 'Im_LeonardoDiCaprio.png', 'Im_ElijahWood.png', 'Im_RyanReynolds.png', 'Im_BenAffleck.png', 'Im_HughJackman.png', 'Im_BradPitt.png'],diff,1,1.0833864000014728,7,95.23809523809524,
MAEL2812,6,inv,120,pos120_id18_im11.bmp_pos120_id18_im18.bmp,['Im_RobertPattinson.png', 'Im_OrlandoBloom.png', 'Im_MattDamon.png', 'Im_RobertDowneyJr.png', 'Im_LeonardoDiCaprio.png', 'Im_ElijahWood.png', 'Im_RyanReynolds.png', 'Im_BenAffleck.png', 'Im_HughJackman.png', 'Im_BradPitt.png'],same,1,0.9166961000009906,8,95.23809523809524,
MAEL2812,6,inv,fs,posfs_id18_im11.bmp_posfs_id21_im22.bmp,['Im_RobertPattinson.png', 'Im_OrlandoBloom.png', 'Im_MattDamon.png', 'Im_RobertDowneyJr.png', 'Im_LeonardoDiCaprio.png', 'Im_ElijahWood.png', 'Im_RyanReynolds.png', 'Im_BenAffleck.png', 'Im_HughJackman.png', 'Im_BradPitt.png'],diff,1,0.6000939000005019,9,95.23809523809524,
MAEL2812,6,inv,60,pos60_id8_im21.bmp_pos60_id8_im20.bmp,['Im_RobertPattinson.png', 'Im_OrlandoBloom.png', 'Im_MattDamon.png', 'Im_RobertDowneyJr.png', 'Im_LeonardoDiCaprio.png', 'Im_ElijahWood.png', 'Im_RyanReynolds.png', 'Im_BenAffleck.png', 'Im_HughJackman.png', 'Im_BradPitt.png'],same,1,0.6667747999999847,10,95.23809523809524,
MAEL2812,6,inv,90,pos90_id21_im16.bmp_pos90_id13_im10.bmp,['Im_RobertPattinson.png', 'Im_OrlandoBloom.png', 'Im_MattDamon.png', 'Im_RobertDowneyJr.png', 'Im_LeonardoDiCaprio.png', 'Im_ElijahWood.png', 'Im_RyanReynolds.png', 'Im_BenAffleck.png', 'Im_HughJackman.png', 'Im_BradPitt.png'],diff,1,1.35036410000248,11,95.23809523809524,
MAEL2812,7,pos,120,pos120_id19_im8.bmp_pos120_id14_im16.bmp,['Im_RobertPattinson.png', 'Im_OrlandoBloom.png', 'Im_MattDamon.png', 'Im_RobertDowneyJr.png', 'Im_LeonardoDiCaprio.png', 'Im_ElijahWood.png', 'Im_RyanReynolds.png', 'Im_BenAffleck.png', 'Im_HughJackman.png', 'Im_BradPitt.png'],diff,1,0.4833287000001292,12,95.23809523809524,
MAEL2812,7,pos,30,pos30_id8_im21.bmp_pos30_id8_im20.bmp,['Im_RobertPattinson.png', 'Im_OrlandoBloom.png', 'Im_MattDamon.png', 'Im_RobertDowneyJr.png', 'Im_LeonardoDiCaprio.png', 'Im_ElijahWood.png', 'Im_RyanReynolds.png', 'Im_BenAffleck.png', 'Im_HughJackman.png', 'Im_BradPitt.png'],same,1,0.6671091999996861,13,95.23809523809524,
MAEL2812,7,pos,90,pos90_id19_im8.bmp_pos90_id19_im4.bmp,['Im_RobertPattinson.png', 'Im_OrlandoBloom.png', 'Im_MattDamon.png', 'Im_RobertDowneyJr.png', 'Im_LeonardoDiCaprio.png', 'Im_ElijahWood.png', 'Im_RyanReynolds.png', 'Im_BenAffleck.png', 'Im_HughJackman.png', 'Im_BradPitt.png'],same,1,0.42512429999987944,14,95.23809523809524,
MAEL2812,7,pos,30,pos30_id21_im22.bmp_pos30_id8_im21.bmp,['Im_RobertPattinson.png', 'Im_OrlandoBloom.png', 'Im_MattDamon.png', 'Im_RobertDowneyJr.png', 'Im_LeonardoDiCaprio.png', 'Im_ElijahWood.png', 'Im_RyanReynolds.png', 'Im_BenAffleck.png', 'Im_HughJackman.png', 'Im_BradPitt.png'],diff,1,0.41658729999835487,15,95.23809523809524,
MAEL2812,7,pos,150,pos150_id21_im17.bmp_pos150_id13_im15.bmp,['Im_RobertPattinson.png', 'Im_OrlandoBloom.png', 'Im_MattDamon.png', 'Im_RobertDowneyJr.png', 'Im_LeonardoDiCaprio.png', 'Im_ElijahWood.png', 'Im_RyanReynolds.png', 'Im_BenAffleck.png', 'Im_HughJackman.png', 'Im_BradPitt.png'],diff,1,0.7671919000022172,16,95.23809523809524,
MAEL2812,7,pos,60,pos60_id18_im11.bmp_pos60_id18_im18.bmp,['Im_RobertPattinson.png', 'Im_OrlandoBloom.png', 'Im_MattDamon.png', 'Im_RobertDowneyJr.png', 'Im_LeonardoDiCaprio.png', 'Im_ElijahWood.png', 'Im_RyanReynolds.png', 'Im_BenAffleck.png', 'Im_HughJackman.png', 'Im_BradPitt.png'],same,1,1.2333175999992818,17,95.23809523809524,
MAEL2812,7,pos,0,pos0_id16_im19.bmp_pos0_id16_im2.bmp,['Im_RobertPattinson.png', 'Im_OrlandoBloom.png', 'Im_MattDamon.png', 'Im_RobertDowneyJr.png', 'Im_LeonardoDiCaprio.png', 'Im_ElijahWood.png', 'Im_RyanReynolds.png', 'Im_BenAffleck.png', 'Im_HughJackman.png', 'Im_BradPitt.png'],same,1,1.5503151999982947,18,95.23809523809524,
MAEL2812,7,pos,60,pos60_id3_im6.bmp_pos60_id3_im17.bmp,['Im_RobertPattinson.png', 'Im_OrlandoBloom.png', 'Im_MattDamon.png', 'Im_RobertDowneyJr.png', 'Im_LeonardoDiCaprio.png', 'Im_ElijahWood.png', 'Im_RyanReynolds.png', 'Im_BenAffleck.png', 'Im_HughJackman.png', 'Im_BradPitt.png'],same,1,0.41669030000048224,19,95.23809523809524,
MAEL2812,7,pos,150,pos150_id14_im16.bmp_pos150_id14_im18.bmp,['Im_RobertPattinson.png', 'Im_OrlandoBloom.png', 'Im_MattDamon.png', 'Im_RobertDowneyJr.png', 'Im_LeonardoDiCaprio.png', 'Im_ElijahWood.png', 'Im_RyanReynolds.png', 'Im_BenAffleck.png', 'Im_HughJackman.png', 'Im_BradPitt.png'],same,1,0.42502849999800674,20,95.23809523809524,
MAEL2812,7,pos,120,pos120_id14_im16.bmp_pos120_id14_im24.bmp,['Im_RobertPattinson.png', 'Im_OrlandoBloom.png', 'Im_MattDamon.png', 'Im_RobertDowneyJr.png', 'Im_LeonardoDiCaprio.png', 'Im_ElijahWood.png', 'Im_RyanReynolds.png', 'Im_BenAffleck.png', 'Im_HughJackman.png', 'Im_BradPitt.png'],same,1,0.40001479999773437,21,95.23809523809524,
MAEL2812,7,pos,fs,posfs_id14_im16.bmp_posfs_id16_im2.bmp,['Im_RobertPattinson.png', 'Im_OrlandoBloom.png', 'Im_MattDamon.png', 'Im_RobertDowneyJr.png', 'Im_LeonardoDiCaprio.png', 'Im_ElijahWood.png', 'Im_RyanReynolds.png', 'Im_BenAffleck.png', 'Im_HughJackman.png', 'Im_BradPitt.png'],diff,1,0.4249557000002824,22,95.23809523809524,
MAEL2812,7,pos,90,pos90_id14_im18.bmp_pos90_id14_im16.bmp,['Im_RobertPattinson.png', 'Im_OrlandoBloom.png', 'Im_MattDamon.png', 'Im_RobertDowneyJr.png', 'Im_LeonardoDiCaprio.png', 'Im_ElijahWood.png', 'Im_RyanReynolds.png', 'Im_BenAffleck.png', 'Im_HughJackman.png', 'Im_BradPitt.png'],same,1,0.4249916000007943,23,95.23809523809524,
MAEL2812,7,pos,0,pos0_id6_im19.bmp_pos0_id6_im18.bmp,['Im_RobertPattinson.png', 'Im_OrlandoBloom.png', 'Im_MattDamon.png', 'Im_RobertDowneyJr.png', 'Im_LeonardoDiCaprio.png', 'Im_ElijahWood.png', 'Im_RyanReynolds.png', 'Im_BenAffleck.png', 'Im_HughJackman.png', 'Im_BradPitt.png'],same,1,0.41672919999837177,24,95.23809523809524,
MAEL2812,7,pos,fs,posfs_id21_im22.bmp_posfs_id18_im11.bmp,['Im_RobertPattinson.png', 'Im_OrlandoBloom.png', 'Im_MattDamon.png', 'Im_RobertDowneyJr.png', 'Im_LeonardoDiCaprio.png', 'Im_ElijahWood.png', 'Im_RyanReynolds.png', 'Im_BenAffleck.png', 'Im_HughJackman.png', 'Im_BradPitt.png'],diff,1,0.9919380999999703,25,95.23809523809524,
MAEL2812,8,neg,150,neg150_id8_im21.bmp_neg150_id19_im4.bmp,['Im_RobertPattinson.png', 'Im_OrlandoBloom.png', 'Im_MattDamon.png', 'Im_RobertDowneyJr.png', 'Im_LeonardoDiCaprio.png', 'Im_ElijahWood.png', 'Im_RyanReynolds.png', 'Im_BenAffleck.png', 'Im_HughJackman.png', 'Im_BradPitt.png'],diff,1,0.508310099998198,26,95.23809523809524,
MAEL2812,8,neg,fs,negfs_id1_im24.bmp_negfs_id1_im21.bmp,['Im_RobertPattinson.png', 'Im_OrlandoBloom.png', 'Im_MattDamon.png', 'Im_RobertDowneyJr.png', 'Im_LeonardoDiCaprio.png', 'Im_ElijahWood.png', 'Im_RyanReynolds.png', 'Im_BenAffleck.png', 'Im_HughJackman.png', 'Im_BradPitt.png'],same,1,0.4168199999985518,27,95.23809523809524,
MAEL2812,8,neg,120,neg120_id8_im13.bmp_neg120_id8_im21.bmp,['Im_RobertPattinson.png', 'Im_OrlandoBloom.png', 'Im_MattDamon.png', 'Im_RobertDowneyJr.png', 'Im_LeonardoDiCaprio.png', 'Im_ElijahWood.png', 'Im_RyanReynolds.png', 'Im_BenAffleck.png', 'Im_HughJackman.png', 'Im_BradPitt.png'],same,1,0.425089600001229,28,95.23809523809524,
MAEL2812,8,neg,90,neg90_id3_im6.bmp_neg90_id8_im13.bmp,['Im_RobertPattinson.png', 'Im_OrlandoBloom.png', 'Im_MattDamon.png', 'Im_RobertDowneyJr.png', 'Im_LeonardoDiCaprio.png', 'Im_ElijahWood.png', 'Im_RyanReynolds.png', 'Im_BenAffleck.png', 'Im_HughJackman.png', 'Im_BradPitt.png'],diff,1,0.42493409999951837,29,95.23809523809524,
MAEL2812,8,neg,90,neg90_id1_im24.bmp_neg90_id1_im21.bmp,['Im_RobertPattinson.png', 'Im_OrlandoBloom.png', 'Im_MattDamon.png', 'Im_RobertDowneyJr.png', 'Im_LeonardoDiCaprio.png', 'Im_ElijahWood.png', 'Im_RyanReynolds.png', 'Im_BenAffleck.png', 'Im_HughJackman.png', 'Im_BradPitt.png'],same,1,0.4250339999998687,30,95.23809523809524,
MAEL2812,8,neg,0,neg0_id1_im4.bmp_neg0_id1_im24.bmp,['Im_RobertPattinson.png', 'Im_OrlandoBloom.png', 'Im_MattDamon.png', 'Im_RobertDowneyJr.png', 'Im_LeonardoDiCaprio.png', 'Im_ElijahWood.png', 'Im_RyanReynolds.png', 'Im_BenAffleck.png', 'Im_HughJackman.png', 'Im_BradPitt.png'],same,1,0.4166920999996364,31,95.23809523809524,
MAEL2812,8,neg,60,neg60_id21_im16.bmp_neg60_id14_im24.bmp,['Im_RobertPattinson.png', 'Im_OrlandoBloom.png', 'Im_MattDamon.png', 'Im_RobertDowneyJr.png', 'Im_LeonardoDiCaprio.png', 'Im_ElijahWood.png', 'Im_RyanReynolds.png', 'Im_BenAffleck.png', 'Im_HughJackman.png', 'Im_BradPitt.png'],diff,1,0.41664029999810737,32,95.23809523809524,
MAEL2812,8,neg,30,neg30_id21_im16.bmp_neg30_id13_im10.bmp,['Im_RobertPattinson.png', 'Im_OrlandoBloom.png', 'Im_MattDamon.png', 'Im_RobertDowneyJr.png', 'Im_LeonardoDiCaprio.png', 'Im_ElijahWood.png', 'Im_RyanReynolds.png', 'Im_BenAffleck.png', 'Im_HughJackman.png', 'Im_BradPitt.png'],diff,1,0.5502659999983734,33,95.23809523809524,
MAEL2812,8,neg,30,neg30_id21_im22.bmp_neg30_id18_im11.bmp,['Im_RobertPattinson.png', 'Im_OrlandoBloom.png', 'Im_MattDamon.png', 'Im_RobertDowneyJr.png', 'Im_LeonardoDiCaprio.png', 'Im_ElijahWood.png', 'Im_RyanReynolds.png', 'Im_BenAffleck.png', 'Im_HughJackman.png', 'Im_BradPitt.png'],diff,1,0.6667333999976108,34,95.23809523809524,
MAEL2812,8,neg,0,neg0_id3_im17.bmp_neg0_id3_im8.bmp,['Im_RobertPattinson.png', 'Im_OrlandoBloom.png', 'Im_MattDamon.png', 'Im_RobertDowneyJr.png', 'Im_LeonardoDiCaprio.png', 'Im_ElijahWood.png', 'Im_RyanReynolds.png', 'Im_BenAffleck.png', 'Im_HughJackman.png', 'Im_BradPitt.png'],same,1,0.5753492000003462,35,95.23809523809524,
MAEL2812,8,neg,fs,negfs_id14_im24.bmp_negfs_id14_im16.bmp,['Im_RobertPattinson.png', 'Im_OrlandoBloom.png', 'Im_MattDamon.png', 'Im_RobertDowneyJr.png', 'Im_LeonardoDiCaprio.png', 'Im_ElijahWood.png', 'Im_RyanReynolds.png', 'Im_BenAffleck.png', 'Im_HughJackman.png', 'Im_BradPitt.png'],same,1,0.41686339999796473,36,95.23809523809524,
MAEL2812,8,neg,60,neg60_id14_im18.bmp_neg60_id14_im24.bmp,['Im_RobertPattinson.png', 'Im_OrlandoBloom.png', 'Im_MattDamon.png', 'Im_RobertDowneyJr.png', 'Im_LeonardoDiCaprio.png', 'Im_ElijahWood.png', 'Im_RyanReynolds.png', 'Im_BenAffleck.png', 'Im_HughJackman.png', 'Im_BradPitt.png'],same,1,0.6669182000005094,37,95.23809523809524,
MAEL2812,8,neg,120,neg120_id18_im19.bmp_neg120_id18_im18.bmp,['Im_RobertPattinson.png', 'Im_OrlandoBloom.png', 'Im_MattDamon.png', 'Im_RobertDowneyJr.png', 'Im_LeonardoDiCaprio.png', 'Im_ElijahWood.png', 'Im_RyanReynolds.png', 'Im_BenAffleck.png', 'Im_HughJackman.png', 'Im_BradPitt.png'],same,1,0.4168199999985518,38,95.23809523809524,
MAEL2812,8,neg,150,neg150_id16_im3.bmp_neg150_id8_im13.bmp,['Im_RobertPattinson.png', 'Im_OrlandoBloom.png', 'Im_MattDamon.png', 'Im_RobertDowneyJr.png', 'Im_LeonardoDiCaprio.png', 'Im_ElijahWood.png', 'Im_RyanReynolds.png', 'Im_BenAffleck.png', 'Im_HughJackman.png', 'Im_BradPitt.png'],diff,1,0.42512900000292575,39,95.23809523809524,
MAEL2812,9,inv,30,pos30_id3_im17.bmp_pos30_id19_im27.bmp,['Im_RobertPattinson.png', 'Im_OrlandoBloom.png', 'Im_MattDamon.png', 'Im_RobertDowneyJr.png', 'Im_LeonardoDiCaprio.png', 'Im_ElijahWood.png', 'Im_RyanReynolds.png', 'Im_BenAffleck.png', 'Im_HughJackman.png', 'Im_BradPitt.png'],diff,1,0.7836108999981661,1,92.85714285714286,
MAEL2812,9,inv,150,pos150_id14_im18.bmp_pos150_id14_im24.bmp,['Im_RobertPattinson.png', 'Im_OrlandoBloom.png', 'Im_MattDamon.png', 'Im_RobertDowneyJr.png', 'Im_LeonardoDiCaprio.png', 'Im_ElijahWood.png', 'Im_RyanReynolds.png', 'Im_BenAffleck.png', 'Im_HughJackman.png', 'Im_BradPitt.png'],same,1,0.7999025999997684,2,92.85714285714286,
MAEL2812,9,inv,fs,posfs_id1_im4.bmp_posfs_id1_im24.bmp,['Im_RobertPattinson.png', 'Im_OrlandoBloom.png', 'Im_MattDamon.png', 'Im_RobertDowneyJr.png', 'Im_LeonardoDiCaprio.png', 'Im_ElijahWood.png', 'Im_RyanReynolds.png', 'Im_BenAffleck.png', 'Im_HughJackman.png', 'Im_BradPitt.png'],same,1,0.5338067999982741,3,92.85714285714286,
MAEL2812,9,inv,120,pos120_id8_im20.bmp_pos120_id8_im21.bmp,['Im_RobertPattinson.png', 'Im_OrlandoBloom.png', 'Im_MattDamon.png', 'Im_RobertDowneyJr.png', 'Im_LeonardoDiCaprio.png', 'Im_ElijahWood.png', 'Im_RyanReynolds.png', 'Im_BenAffleck.png', 'Im_HughJackman.png', 'Im_BradPitt.png'],same,1,0.7001034999993863,4,92.85714285714286,
MAEL2812,9,inv,120,pos120_id1_im21.bmp_pos120_id16_im19.bmp,['Im_RobertPattinson.png', 'Im_OrlandoBloom.png', 'Im_MattDamon.png', 'Im_RobertDowneyJr.png', 'Im_LeonardoDiCaprio.png', 'Im_ElijahWood.png', 'Im_RyanReynolds.png', 'Im_BenAffleck.png', 'Im_HughJackman.png', 'Im_BradPitt.png'],diff,1,0.6666793000003963,5,92.85714285714286,
MAEL2812,9,inv,90,pos90_id18_im19.bmp_pos90_id18_im18.bmp,['Im_RobertPattinson.png', 'Im_OrlandoBloom.png', 'Im_MattDamon.png', 'Im_RobertDowneyJr.png', 'Im_LeonardoDiCaprio.png', 'Im_ElijahWood.png', 'Im_RyanReynolds.png', 'Im_BenAffleck.png', 'Im_HughJackman.png', 'Im_BradPitt.png'],same,1,0.5918983000010485,6,92.85714285714286,
MAEL2812,9,inv,150,pos150_id6_im12.bmp_pos150_id3_im17.bmp,['Im_RobertPattinson.png', 'Im_OrlandoBloom.png', 'Im_MattDamon.png', 'Im_RobertDowneyJr.png', 'Im_LeonardoDiCaprio.png', 'Im_ElijahWood.png', 'Im_RyanReynolds.png', 'Im_BenAffleck.png', 'Im_HughJackman.png', 'Im_BradPitt.png'],diff,1,0.4250253000027442,7,92.85714285714286,
MAEL2812,9,inv,0,pos0_id19_im4.bmp_pos0_id8_im21.bmp,['Im_RobertPattinson.png', 'Im_OrlandoBloom.png', 'Im_MattDamon.png', 'Im_RobertDowneyJr.png', 'Im_LeonardoDiCaprio.png', 'Im_ElijahWood.png', 'Im_RyanReynolds.png', 'Im_BenAffleck.png', 'Im_HughJackman.png', 'Im_BradPitt.png'],diff,1,1.7083410999985063,8,92.85714285714286,
MAEL2812,9,inv,90,pos90_id21_im17.bmp_pos90_id18_im19.bmp,['Im_RobertPattinson.png', 'Im_OrlandoBloom.png', 'Im_MattDamon.png', 'Im_RobertDowneyJr.png', 'Im_LeonardoDiCaprio.png', 'Im_ElijahWood.png', 'Im_RyanReynolds.png', 'Im_BenAffleck.png', 'Im_HughJackman.png', 'Im_BradPitt.png'],diff,1,1.2664946999975655,9,92.85714285714286,
MAEL2812,9,inv,30,pos30_id21_im17.bmp_pos30_id21_im22.bmp,['Im_RobertPattinson.png', 'Im_OrlandoBloom.png', 'Im_MattDamon.png', 'Im_RobertDowneyJr.png', 'Im_LeonardoDiCaprio.png', 'Im_ElijahWood.png', 'Im_RyanReynolds.png', 'Im_BenAffleck.png', 'Im_HughJackman.png', 'Im_BradPitt.png'],same,1,0.4084112000018649,10,92.85714285714286,
MAEL2812,9,inv,0,pos0_id6_im18.bmp_pos0_id1_im24.bmp,['Im_RobertPattinson.png', 'Im_OrlandoBloom.png', 'Im_MattDamon.png', 'Im_RobertDowneyJr.png', 'Im_LeonardoDiCaprio.png', 'Im_ElijahWood.png', 'Im_RyanReynolds.png', 'Im_BenAffleck.png', 'Im_HughJackman.png', 'Im_BradPitt.png'],same,0,0.7665051000003587,10,92.85714285714286,
MAEL2812,9,inv,60,pos60_id8_im13.bmp_pos60_id8_im21.bmp,['Im_RobertPattinson.png', 'Im_OrlandoBloom.png', 'Im_MattDamon.png', 'Im_RobertDowneyJr.png', 'Im_LeonardoDiCaprio.png', 'Im_ElijahWood.png', 'Im_RyanReynolds.png', 'Im_BenAffleck.png', 'Im_HughJackman.png', 'Im_BradPitt.png'],same,1,0.4251021000018227,11,92.85714285714286,
MAEL2812,9,inv,60,pos60_id21_im22.bmp_pos60_id8_im21.bmp,['Im_RobertPattinson.png', 'Im_OrlandoBloom.png', 'Im_MattDamon.png', 'Im_RobertDowneyJr.png', 'Im_LeonardoDiCaprio.png', 'Im_ElijahWood.png', 'Im_RyanReynolds.png', 'Im_BenAffleck.png', 'Im_HughJackman.png', 'Im_BradPitt.png'],same,0,0.6834415999983321,11,92.85714285714286,
MAEL2812,9,inv,fs,posfs_id14_im16.bmp_posfs_id14_im24.bmp,['Im_RobertPattinson.png', 'Im_OrlandoBloom.png', 'Im_MattDamon.png', 'Im_RobertDowneyJr.png', 'Im_LeonardoDiCaprio.png', 'Im_ElijahWood.png', 'Im_RyanReynolds.png', 'Im_BenAffleck.png', 'Im_HughJackman.png', 'Im_BradPitt.png'],same,1,0.40838150000126916,12,92.85714285714286,
MAEL2812,10,inv,0,pos0_id14_im16.bmp_pos0_id14_im24.bmp,['Im_RobertPattinson.png', 'Im_OrlandoBloom.png', 'Im_MattDamon.png', 'Im_RobertDowneyJr.png', 'Im_LeonardoDiCaprio.png', 'Im_ElijahWood.png', 'Im_RyanReynolds.png', 'Im_BenAffleck.png', 'Im_HughJackman.png', 'Im_BradPitt.png'],same,1,1.9252495000000636,13,92.85714285714286,
MAEL2812,10,inv,90,pos90_id14_im16.bmp_pos90_id16_im2.bmp,['Im_RobertPattinson.png', 'Im_OrlandoBloom.png', 'Im_MattDamon.png', 'Im_RobertDowneyJr.png', 'Im_LeonardoDiCaprio.png', 'Im_ElijahWood.png', 'Im_RyanReynolds.png', 'Im_BenAffleck.png', 'Im_HughJackman.png', 'Im_BradPitt.png'],diff,1,0.7750532999998541,14,92.85714285714286,
MAEL2812,10,inv,150,pos150_id18_im18.bmp_pos150_id13_im15.bmp,['Im_RobertPattinson.png', 'Im_OrlandoBloom.png', 'Im_MattDamon.png', 'Im_RobertDowneyJr.png', 'Im_LeonardoDiCaprio.png', 'Im_ElijahWood.png', 'Im_RyanReynolds.png', 'Im_BenAffleck.png', 'Im_HughJackman.png', 'Im_BradPitt.png'],diff,1,0.6755228000001807,15,92.85714285714286,
MAEL2812,10,inv,30,pos30_id6_im12.bmp_pos30_id3_im17.bmp,['Im_RobertPattinson.png', 'Im_OrlandoBloom.png', 'Im_MattDamon.png', 'Im_RobertDowneyJr.png', 'Im_LeonardoDiCaprio.png', 'Im_ElijahWood.png', 'Im_RyanReynolds.png', 'Im_BenAffleck.png', 'Im_HughJackman.png', 'Im_BradPitt.png'],diff,1,0.5086642999995092,16,92.85714285714286,
MAEL2812,10,inv,30,pos30_id16_im2.bmp_pos30_id14_im16.bmp,['Im_RobertPattinson.png', 'Im_OrlandoBloom.png', 'Im_MattDamon.png', 'Im_RobertDowneyJr.png', 'Im_LeonardoDiCaprio.png', 'Im_ElijahWood.png', 'Im_RyanReynolds.png', 'Im_BenAffleck.png', 'Im_HughJackman.png', 'Im_BradPitt.png'],same,0,1.5335832999990089,16,92.85714285714286,
MAEL2812,10,inv,150,pos150_id18_im19.bmp_pos150_id21_im17.bmp,['Im_RobertPattinson.png', 'Im_OrlandoBloom.png', 'Im_MattDamon.png', 'Im_RobertDowneyJr.png', 'Im_LeonardoDiCaprio.png', 'Im_ElijahWood.png', 'Im_RyanReynolds.png', 'Im_BenAffleck.png', 'Im_HughJackman.png', 'Im_BradPitt.png'],diff,1,0.4168914000001678,17,92.85714285714286,
MAEL2812,10,inv,60,pos60_id14_im24.bmp_pos60_id14_im16.bmp,['Im_RobertPattinson.png', 'Im_OrlandoBloom.png', 'Im_MattDamon.png', 'Im_RobertDowneyJr.png', 'Im_LeonardoDiCaprio.png', 'Im_ElijahWood.png', 'Im_RyanReynolds.png', 'Im_BenAffleck.png', 'Im_HughJackman.png', 'Im_BradPitt.png'],same,1,0.4167905000031169,18,92.85714285714286,
MAEL2812,10,inv,120,pos120_id18_im11.bmp_pos120_id21_im22.bmp,['Im_RobertPattinson.png', 'Im_OrlandoBloom.png', 'Im_MattDamon.png', 'Im_RobertDowneyJr.png', 'Im_LeonardoDiCaprio.png', 'Im_ElijahWood.png', 'Im_RyanReynolds.png', 'Im_BenAffleck.png', 'Im_HughJackman.png', 'Im_BradPitt.png'],diff,1,0.8167595000013534,19,92.85714285714286,
MAEL2812,10,inv,0,pos0_id18_im19.bmp_pos0_id18_im18.bmp,['Im_RobertPattinson.png', 'Im_OrlandoBloom.png', 'Im_MattDamon.png', 'Im_RobertDowneyJr.png', 'Im_LeonardoDiCaprio.png', 'Im_ElijahWood.png', 'Im_RyanReynolds.png', 'Im_BenAffleck.png', 'Im_HughJackman.png', 'Im_BradPitt.png'],same,1,2.091889200000878,20,92.85714285714286,
MAEL2812,10,inv,90,pos90_id3_im17.bmp_pos90_id3_im6.bmp,['Im_RobertPattinson.png', 'Im_OrlandoBloom.png', 'Im_MattDamon.png', 'Im_RobertDowneyJr.png', 'Im_LeonardoDiCaprio.png', 'Im_ElijahWood.png', 'Im_RyanReynolds.png', 'Im_BenAffleck.png', 'Im_HughJackman.png', 'Im_BradPitt.png'],diff,0,2.13334599999871,20,92.85714285714286,
MAEL2812,10,inv,120,pos120_id6_im12.bmp_pos120_id6_im18.bmp,['Im_RobertPattinson.png', 'Im_OrlandoBloom.png', 'Im_MattDamon.png', 'Im_RobertDowneyJr.png', 'Im_LeonardoDiCaprio.png', 'Im_ElijahWood.png', 'Im_RyanReynolds.png', 'Im_BenAffleck.png', 'Im_HughJackman.png', 'Im_BradPitt.png'],same,1,0.42490250000264496,21,92.85714285714286,
MAEL2812,10,inv,fs,posfs_id21_im17.bmp_posfs_id21_im16.bmp,['Im_RobertPattinson.png', 'Im_OrlandoBloom.png', 'Im_MattDamon.png', 'Im_RobertDowneyJr.png', 'Im_LeonardoDiCaprio.png', 'Im_ElijahWood.png', 'Im_RyanReynolds.png', 'Im_BenAffleck.png', 'Im_HughJackman.png', 'Im_BradPitt.png'],same,1,0.4165410999994492,22,92.85714285714286,
MAEL2812,10,inv,fs,posfs_id21_im22.bmp_posfs_id8_im21.bmp,['Im_RobertPattinson.png', 'Im_OrlandoBloom.png', 'Im_MattDamon.png', 'Im_RobertDowneyJr.png', 'Im_LeonardoDiCaprio.png', 'Im_ElijahWood.png', 'Im_RyanReynolds.png', 'Im_BenAffleck.png', 'Im_HughJackman.png', 'Im_BradPitt.png'],diff,1,0.41702620000069146,23,92.85714285714286,
MAEL2812,10,inv,60,pos60_id21_im22.bmp_pos60_id21_im16.bmp,['Im_RobertPattinson.png', 'Im_OrlandoBloom.png', 'Im_MattDamon.png', 'Im_RobertDowneyJr.png', 'Im_LeonardoDiCaprio.png', 'Im_ElijahWood.png', 'Im_RyanReynolds.png', 'Im_BenAffleck.png', 'Im_HughJackman.png', 'Im_BradPitt.png'],same,1,0.42505180000080145,24,92.85714285714286,
MAEL2812,11,neg,90,neg90_id6_im19.bmp_neg90_id16_im19.bmp,['Im_RobertPattinson.png', 'Im_OrlandoBloom.png', 'Im_MattDamon.png', 'Im_RobertDowneyJr.png', 'Im_LeonardoDiCaprio.png', 'Im_ElijahWood.png', 'Im_RyanReynolds.png', 'Im_BenAffleck.png', 'Im_HughJackman.png', 'Im_BradPitt.png'],diff,1,0.4167908000017633,25,92.85714285714286,
MAEL2812,11,neg,150,neg150_id8_im20.bmp_neg150_id8_im21.bmp,['Im_RobertPattinson.png', 'Im_OrlandoBloom.png', 'Im_MattDamon.png', 'Im_RobertDowneyJr.png', 'Im_LeonardoDiCaprio.png', 'Im_ElijahWood.png', 'Im_RyanReynolds.png', 'Im_BenAffleck.png', 'Im_HughJackman.png', 'Im_BradPitt.png'],same,1,0.4166175000027579,26,92.85714285714286,
MAEL2812,11,neg,fs,negfs_id6_im18.bmp_negfs_id16_im2.bmp,['Im_RobertPattinson.png', 'Im_OrlandoBloom.png', 'Im_MattDamon.png', 'Im_RobertDowneyJr.png', 'Im_LeonardoDiCaprio.png', 'Im_ElijahWood.png', 'Im_RyanReynolds.png', 'Im_BenAffleck.png', 'Im_HughJackman.png', 'Im_BradPitt.png'],diff,1,0.9001991000004637,27,92.85714285714286,
MAEL2812,11,neg,0,neg0_id18_im19.bmp_neg0_id18_im11.bmp,['Im_RobertPattinson.png', 'Im_OrlandoBloom.png', 'Im_MattDamon.png', 'Im_RobertDowneyJr.png', 'Im_LeonardoDiCaprio.png', 'Im_ElijahWood.png', 'Im_RyanReynolds.png', 'Im_BenAffleck.png', 'Im_HughJackman.png', 'Im_BradPitt.png'],diff,0,2.116699999998673,27,92.85714285714286,
MAEL2812,11,neg,90,neg90_id8_im20.bmp_neg90_id1_im21.bmp,['Im_RobertPattinson.png', 'Im_OrlandoBloom.png', 'Im_MattDamon.png', 'Im_RobertDowneyJr.png', 'Im_LeonardoDiCaprio.png', 'Im_ElijahWood.png', 'Im_RyanReynolds.png', 'Im_BenAffleck.png', 'Im_HughJackman.png', 'Im_BradPitt.png'],diff,1,0.41685019999931683,28,92.85714285714286,
MAEL2812,11,neg,120,neg120_id13_im29.bmp_neg120_id14_im24.bmp,['Im_RobertPattinson.png', 'Im_OrlandoBloom.png', 'Im_MattDamon.png', 'Im_RobertDowneyJr.png', 'Im_LeonardoDiCaprio.png', 'Im_ElijahWood.png', 'Im_RyanReynolds.png', 'Im_BenAffleck.png', 'Im_HughJackman.png', 'Im_BradPitt.png'],same,0,0.8500275000005786,28,92.85714285714286,
MAEL2812,11,neg,120,neg120_id13_im10.bmp_neg120_id21_im16.bmp,['Im_RobertPattinson.png', 'Im_OrlandoBloom.png', 'Im_MattDamon.png', 'Im_RobertDowneyJr.png', 'Im_LeonardoDiCaprio.png', 'Im_ElijahWood.png', 'Im_RyanReynolds.png', 'Im_BenAffleck.png', 'Im_HughJackman.png', 'Im_BradPitt.png'],diff,1,0.42508980000275187,29,92.85714285714286,
MAEL2812,11,neg,150,neg150_id1_im21.bmp_neg150_id1_im24.bmp,['Im_RobertPattinson.png', 'Im_OrlandoBloom.png', 'Im_MattDamon.png', 'Im_RobertDowneyJr.png', 'Im_LeonardoDiCaprio.png', 'Im_ElijahWood.png', 'Im_RyanReynolds.png', 'Im_BenAffleck.png', 'Im_HughJackman.png', 'Im_BradPitt.png'],same,1,0.42501509999783593,30,92.85714285714286,
MAEL2812,11,neg,30,neg30_id18_im18.bmp_neg30_id18_im19.bmp,['Im_RobertPattinson.png', 'Im_OrlandoBloom.png', 'Im_MattDamon.png', 'Im_RobertDowneyJr.png', 'Im_LeonardoDiCaprio.png', 'Im_ElijahWood.png', 'Im_RyanReynolds.png', 'Im_BenAffleck.png', 'Im_HughJackman.png', 'Im_BradPitt.png'],same,1,0.8583666999984416,31,92.85714285714286,
MAEL2812,11,neg,60,neg60_id6_im12.bmp_neg60_id3_im17.bmp,['Im_RobertPattinson.png', 'Im_OrlandoBloom.png', 'Im_MattDamon.png', 'Im_RobertDowneyJr.png', 'Im_LeonardoDiCaprio.png', 'Im_ElijahWood.png', 'Im_RyanReynolds.png', 'Im_BenAffleck.png', 'Im_HughJackman.png', 'Im_BradPitt.png'],diff,1,0.6002311000011105,32,92.85714285714286,
MAEL2812,11,neg,30,neg30_id21_im22.bmp_neg30_id8_im21.bmp,['Im_RobertPattinson.png', 'Im_OrlandoBloom.png', 'Im_MattDamon.png', 'Im_RobertDowneyJr.png', 'Im_LeonardoDiCaprio.png', 'Im_ElijahWood.png', 'Im_RyanReynolds.png', 'Im_BenAffleck.png', 'Im_HughJackman.png', 'Im_BradPitt.png'],diff,1,0.5001505999971414,33,92.85714285714286,
MAEL2812,11,neg,0,neg0_id1_im24.bmp_neg0_id6_im18.bmp,['Im_RobertPattinson.png', 'Im_OrlandoBloom.png', 'Im_MattDamon.png', 'Im_RobertDowneyJr.png', 'Im_LeonardoDiCaprio.png', 'Im_ElijahWood.png', 'Im_RyanReynolds.png', 'Im_BenAffleck.png', 'Im_HughJackman.png', 'Im_BradPitt.png'],diff,1,0.41688109999813605,34,92.85714285714286,
MAEL2812,11,neg,fs,negfs_id18_im18.bmp_negfs_id18_im19.bmp,['Im_RobertPattinson.png', 'Im_OrlandoBloom.png', 'Im_MattDamon.png', 'Im_RobertDowneyJr.png', 'Im_LeonardoDiCaprio.png', 'Im_ElijahWood.png', 'Im_RyanReynolds.png', 'Im_BenAffleck.png', 'Im_HughJackman.png', 'Im_BradPitt.png'],same,1,0.6751695000020845,35,92.85714285714286,
MAEL2812,11,neg,60,neg60_id6_im18.bmp_neg60_id6_im19.bmp,['Im_RobertPattinson.png', 'Im_OrlandoBloom.png', 'Im_MattDamon.png', 'Im_RobertDowneyJr.png', 'Im_LeonardoDiCaprio.png', 'Im_ElijahWood.png', 'Im_RyanReynolds.png', 'Im_BenAffleck.png', 'Im_HughJackman.png', 'Im_BradPitt.png'],same,1,0.5166547000007995,36,92.85714285714286,
MAEL2812,12,pos,30,pos30_id16_im2.bmp_pos30_id6_im18.bmp,['Im_RobertPattinson.png', 'Im_OrlandoBloom.png', 'Im_MattDamon.png', 'Im_RobertDowneyJr.png', 'Im_LeonardoDiCaprio.png', 'Im_ElijahWood.png', 'Im_RyanReynolds.png', 'Im_BenAffleck.png', 'Im_HughJackman.png', 'Im_BradPitt.png'],diff,1,0.8251674999992247,1,85.71428571428571,
MAEL2812,12,pos,60,pos60_id21_im17.bmp_pos60_id21_im22.bmp,['Im_RobertPattinson.png', 'Im_OrlandoBloom.png', 'Im_MattDamon.png', 'Im_RobertDowneyJr.png', 'Im_LeonardoDiCaprio.png', 'Im_ElijahWood.png', 'Im_RyanReynolds.png', 'Im_BenAffleck.png', 'Im_HughJackman.png', 'Im_BradPitt.png'],same,1,0.5002798999994411,2,85.71428571428571,
MAEL2812,12,pos,30,pos30_id3_im17.bmp_pos30_id6_im12.bmp,['Im_RobertPattinson.png', 'Im_OrlandoBloom.png', 'Im_MattDamon.png', 'Im_RobertDowneyJr.png', 'Im_LeonardoDiCaprio.png', 'Im_ElijahWood.png', 'Im_RyanReynolds.png', 'Im_BenAffleck.png', 'Im_HughJackman.png', 'Im_BradPitt.png'],diff,1,0.4166959999965911,3,85.71428571428571,
MAEL2812,12,pos,90,pos90_id21_im16.bmp_pos90_id14_im24.bmp,['Im_RobertPattinson.png', 'Im_OrlandoBloom.png', 'Im_MattDamon.png', 'Im_RobertDowneyJr.png', 'Im_LeonardoDiCaprio.png', 'Im_ElijahWood.png', 'Im_RyanReynolds.png', 'Im_BenAffleck.png', 'Im_HughJackman.png', 'Im_BradPitt.png'],diff,1,0.5086703999986639,4,85.71428571428571,
MAEL2812,12,pos,fs,posfs_id16_im3.bmp_posfs_id19_im8.bmp,['Im_RobertPattinson.png', 'Im_OrlandoBloom.png', 'Im_MattDamon.png', 'Im_RobertDowneyJr.png', 'Im_LeonardoDiCaprio.png', 'Im_ElijahWood.png', 'Im_RyanReynolds.png', 'Im_BenAffleck.png', 'Im_HughJackman.png', 'Im_BradPitt.png'],diff,1,0.4249751000024844,5,85.71428571428571,
MAEL2812,12,pos,120,pos120_id18_im18.bmp_pos120_id18_im19.bmp,['Im_RobertPattinson.png', 'Im_OrlandoBloom.png', 'Im_MattDamon.png', 'Im_RobertDowneyJr.png', 'Im_LeonardoDiCaprio.png', 'Im_ElijahWood.png', 'Im_RyanReynolds.png', 'Im_BenAffleck.png', 'Im_HughJackman.png', 'Im_BradPitt.png'],same,1,0.41674260000218055,6,85.71428571428571,
MAEL2812,12,pos,150,pos150_id18_im19.bmp_pos150_id18_im11.bmp,['Im_RobertPattinson.png', 'Im_OrlandoBloom.png', 'Im_MattDamon.png', 'Im_RobertDowneyJr.png', 'Im_LeonardoDiCaprio.png', 'Im_ElijahWood.png', 'Im_RyanReynolds.png', 'Im_BenAffleck.png', 'Im_HughJackman.png', 'Im_BradPitt.png'],same,1,0.4258685999993759,7,85.71428571428571,
