Sujet,Trial,Condition,Filter,Imname,Actor0,Actor1,Actor2,Actor3,Actor4,Actor5,Actor6,Actor7,Actor8,Actor9,Answer,Accu,RT,Score,Scoreperc, 
MAEL2812,_,posfs_KeanuReeves_im1.bmp,KeanuReeves,LeonardoDiCaprio,LeonardoDiCaprio,BradPitt,JustinTimberlake,RobertPattinson,,,,,posfs_KeanuReeves_im1.bmp,5.61192100000153,
MAEL2812,_,posfs_KeanuReeves_im10.bmp,KeanuReeves,MattDamon,MattDamon,OrlandoBloom,PatrickDempsey,LeonardoDiCaprio,,,,,4,12.162255100000039,
MAEL2812,_,posfs_KeanuReeves_im8.bmp,KeanuReeves,BenAffleck,BenAffleck,LeonardoDiCaprio,RyanGosling,GeorgeClooney,,,,,posfs_KeanuReeves_im8.bmp,1.5373971999997593,
MAEL2812,_,posfs_ElijahWood_im12.bmp,ElijahWood,DanielRadcliffe,DanielRadcliffe,RobertDowneyJr,GeorgeClooney,BenStiller,,,,,posfs_ElijahWood_im12.bmp,9.082381000000169,
MAEL2812,_,posfs_LeonardoDiCaprio_im29.bmp,LeonardoDiCaprio,RobertDowneyJr,RobertDowneyJr,PatrickDempsey,OrlandoBloom,DanielCraig,,,,,posfs_LeonardoDiCaprio_im29.bmp,1.3956579999994574,
MAEL2812,_,posfs_GeorgeClooney_im26.bmp,GeorgeClooney,LeonardoDiCaprio,LeonardoDiCaprio,RobertPattinson,BenAffleck,ElijahWood,,,,,posfs_GeorgeClooney_im26.bmp,2.9880245000003924,
MAEL2812,_,posfs_MattDamon_im9.bmp,MattDamon,BradPitt,BradPitt,HughJackman,DanielCraig,LeonardoDiCaprio,,,,,posfs_MattDamon_im9.bmp,2.6344257000000653,
MAEL2812,_,posfs_BenAffleck_im8.bmp,BenAffleck,OrlandoBloom,OrlandoBloom,RobertPattinson,RyanReynolds,MattDamon,,,,,posfs_BenAffleck_im8.bmp,1.894886400001269,
MAEL2812,_,posfs_ElijahWood_im18.bmp,ElijahWood,PatrickDempsey,PatrickDempsey,JustinTimberlake,RobertPattinson,RobertDowneyJr,,,,,posfs_ElijahWood_im18.bmp,3.5689567000008537,
MAEL2812,_,posfs_DanielCraig_im20.bmp,DanielCraig,BenStiller,BenStiller,BradPitt,LeonardoDiCaprio,OrlandoBloom,,,,,posfs_DanielCraig_im20.bmp,1.495762200000172,
MAEL2812,_,posfs_DanielCraig_im7.bmp,DanielCraig,BenAffleck,BenAffleck,KeanuReeves,PatrickDempsey,DanielRadcliffe,,,,,posfs_DanielCraig_im7.bmp,2.273642199999813,
MAEL2812,_,posfs_RyanGosling_im30.bmp,RyanGosling,RyanReynolds,RyanReynolds,DanielCraig,PatrickDempsey,RobertPattinson,,,,,0,2.4764806000002864,
MAEL2812,_,posfs_MattDamon_im16.bmp,MattDamon,LeonardoDiCaprio,LeonardoDiCaprio,RyanGosling,KeanuReeves,BenStiller,,,,,posfs_MattDamon_im16.bmp,1.5844723999998678,
MAEL2812,_,posfs_HughJackman_im20.bmp,HughJackman,JustinTimberlake,JustinTimberlake,RyanReynolds,DanielCraig,OrlandoBloom,,,,,posfs_HughJackman_im20.bmp,4.118080300000656,
MAEL2812,_,posfs_BenStiller_im16.bmp,BenStiller,KeanuReeves,KeanuReeves,MattDamon,JustinTimberlake,BenAffleck,,,,,posfs_BenStiller_im16.bmp,3.1831339999989723,
MAEL2812,_,posfs_RyanReynolds_im22.bmp,RyanReynolds,JustinTimberlake,JustinTimberlake,BradPitt,KeanuReeves,LeonardoDiCaprio,,,,,posfs_RyanReynolds_im22.bmp,2.478373799998735,
MAEL2812,_,posfs_RobertDowneyJr_im18.bmp,RobertDowneyJr,MattDamon,MattDamon,BradPitt,GeorgeClooney,JustinTimberlake,,,,,posfs_RobertDowneyJr_im18.bmp,5.033306799999991,
MAEL2812,_,posfs_RobertDowneyJr_im11.bmp,RobertDowneyJr,HughJackman,HughJackman,RyanGosling,JustinTimberlake,BenStiller,,,,,posfs_RobertDowneyJr_im11.bmp,2.542042400000355,
MAEL2812,_,posfs_PatrickDempsey_im9.bmp,PatrickDempsey,HughJackman,HughJackman,RobertDowneyJr,KeanuReeves,BenAffleck,,,,,posfs_PatrickDempsey_im9.bmp,6.197756100000333,
MAEL2812,_,posfs_OrlandoBloom_im2.bmp,OrlandoBloom,BenAffleck,BenAffleck,RyanGosling,MattDamon,RobertDowneyJr,,,,,posfs_OrlandoBloom_im2.bmp,8.027954299999692,
MAEL2812,_,posfs_RyanReynolds_im17.bmp,RyanReynolds,PatrickDempsey,PatrickDempsey,ElijahWood,BenStiller,BradPitt,,,,,posfs_RyanReynolds_im17.bmp,2.4001399999997375,
MAEL2812,_,posfs_JustinTimberlake_im1.bmp,JustinTimberlake,BenAffleck,BenAffleck,ElijahWood,PatrickDempsey,HughJackman,,,,,posfs_JustinTimberlake_im1.bmp,2.310280199999397,
MAEL2812,_,posfs_JustinTimberlake_im18.bmp,JustinTimberlake,ElijahWood,ElijahWood,RyanGosling,DanielRadcliffe,LeonardoDiCaprio,,,,,posfs_JustinTimberlake_im18.bmp,3.216087899998456,
MAEL2812,_,posfs_RyanGosling_im25.bmp,RyanGosling,DanielCraig,DanielCraig,KeanuReeves,BradPitt,MattDamon,,,,,posfs_RyanGosling_im25.bmp,7.57346090000101,
MAEL2812,_,posfs_PatrickDempsey_im16.bmp,PatrickDempsey,BradPitt,BradPitt,DanielCraig,DanielRadcliffe,LeonardoDiCaprio,,,,,4,8.796416500001214,
MAEL2812,_,posfs_RobertPattinson_im27.bmp,RobertPattinson,RyanReynolds,RyanReynolds,OrlandoBloom,MattDamon,KeanuReeves,,,,,posfs_RobertPattinson_im27.bmp,1.6668847999990248,
MAEL2812,_,posfs_BenStiller_im3.bmp,BenStiller,ElijahWood,ElijahWood,JustinTimberlake,BradPitt,RobertDowneyJr,,,,,posfs_BenStiller_im3.bmp,2.141520200000741,
MAEL2812,_,posfs_PatrickDempsey_im8.bmp,PatrickDempsey,BenStiller,BenStiller,MattDamon,BradPitt,RyanGosling,,,,,posfs_PatrickDempsey_im8.bmp,6.118621700001313,
MAEL2812,_,posfs_RyanGosling_im12.bmp,RyanGosling,PatrickDempsey,PatrickDempsey,RyanReynolds,BradPitt,DanielCraig,,,,,1,6.863472900000488,
MAEL2812,_,posfs_DanielRadcliffe_im8.bmp,DanielRadcliffe,MattDamon,MattDamon,PatrickDempsey,RyanReynolds,RobertDowneyJr,,,,,posfs_DanielRadcliffe_im8.bmp,7.145629800001188,
MAEL2812,_,posfs_RobertDowneyJr_im4.bmp,RobertDowneyJr,RyanGosling,RyanGosling,BradPitt,HughJackman,ElijahWood,,,,,posfs_RobertDowneyJr_im4.bmp,4.010683099999369,
MAEL2812,_,posfs_LeonardoDiCaprio_im10.bmp,LeonardoDiCaprio,BenStiller,BenStiller,RyanGosling,PatrickDempsey,RobertPattinson,,,,,posfs_LeonardoDiCaprio_im10.bmp,1.5689401999989059,
MAEL2812,_,posfs_KeanuReeves_im2.bmp,KeanuReeves,HughJackman,HughJackman,GeorgeClooney,RobertPattinson,BenStiller,,,,,posfs_KeanuReeves_im2.bmp,2.200661400000172,
MAEL2812,_,posfs_HughJackman_im18.bmp,HughJackman,LeonardoDiCaprio,LeonardoDiCaprio,BradPitt,RyanGosling,DanielRadcliffe,,,,,posfs_HughJackman_im18.bmp,4.086431399999128,
MAEL2812,_,posfs_RobertPattinson_im8.bmp,RobertPattinson,DanielRadcliffe,DanielRadcliffe,OrlandoBloom,MattDamon,RyanGosling,,,,,posfs_RobertPattinson_im8.bmp,1.585677000000942,
MAEL2812,_,posfs_JustinTimberlake_im17.bmp,JustinTimberlake,MattDamon,MattDamon,LeonardoDiCaprio,ElijahWood,GeorgeClooney,,,,,posfs_JustinTimberlake_im17.bmp,1.2562612000001536,
MAEL2812,_,posfs_MattDamon_im18.bmp,MattDamon,DanielCraig,DanielCraig,PatrickDempsey,DanielRadcliffe,ElijahWood,,,,,posfs_MattDamon_im18.bmp,2.8683075999997527,
MAEL2812,_,posfs_JustinTimberlake_im4.bmp,JustinTimberlake,BenStiller,BenStiller,RobertDowneyJr,OrlandoBloom,PatrickDempsey,,,,,posfs_JustinTimberlake_im4.bmp,1.8788652000002912,
MAEL2812,_,posfs_RobertPattinson_im30.bmp,RobertPattinson,DanielRadcliffe,DanielRadcliffe,DanielCraig,BenAffleck,JustinTimberlake,,,,,posfs_RobertPattinson_im30.bmp,3.1299097999999503,
MAEL2812,_,posfs_BradPitt_im6.bmp,BradPitt,RyanGosling,RyanGosling,RobertDowneyJr,OrlandoBloom,HughJackman,,,,,posfs_BradPitt_im6.bmp,1.4102266000008967,
MAEL2812,_,posfs_RyanGosling_im3.bmp,RyanGosling,RobertPattinson,RobertPattinson,PatrickDempsey,DanielCraig,JustinTimberlake,,,,,posfs_RyanGosling_im3.bmp,8.649138599999787,
MAEL2812,_,posfs_LeonardoDiCaprio_im24.bmp,LeonardoDiCaprio,DanielCraig,DanielCraig,BradPitt,PatrickDempsey,RyanGosling,,,,,posfs_LeonardoDiCaprio_im24.bmp,3.964928000001237,
MAEL2812,_,posfs_RyanReynolds_im3.bmp,RyanReynolds,BenAffleck,BenAffleck,DanielCraig,MattDamon,OrlandoBloom,,,,,posfs_RyanReynolds_im3.bmp,2.3953753000005236,
MAEL2812,_,posfs_DanielCraig_im15.bmp,DanielCraig,BenAffleck,BenAffleck,MattDamon,BenStiller,HughJackman,,,,,posfs_DanielCraig_im15.bmp,2.3461681000007957,
MAEL2812,_,posfs_PatrickDempsey_im14.bmp,PatrickDempsey,KeanuReeves,KeanuReeves,RobertDowneyJr,HughJackman,RyanReynolds,,,,,posfs_PatrickDempsey_im14.bmp,2.8731547000006685,
MAEL2812,_,posfs_OrlandoBloom_im3.bmp,OrlandoBloom,RobertPattinson,RobertPattinson,RyanReynolds,RyanGosling,RobertDowneyJr,,,,,posfs_OrlandoBloom_im3.bmp,3.532104600000821,
MAEL2812,_,posfs_RyanReynolds_im16.bmp,RyanReynolds,OrlandoBloom,OrlandoBloom,RobertPattinson,RyanGosling,LeonardoDiCaprio,,,,,posfs_RyanReynolds_im16.bmp,2.3504026000009617,
MAEL2812,_,posfs_DanielRadcliffe_im1.bmp,DanielRadcliffe,BradPitt,BradPitt,LeonardoDiCaprio,BenStiller,RobertPattinson,,,,,posfs_DanielRadcliffe_im1.bmp,6.174080099999628,
MAEL2812,_,posfs_DanielCraig_im8.bmp,DanielCraig,RobertPattinson,RobertPattinson,BenAffleck,BenStiller,LeonardoDiCaprio,,,,,4,9.342276600000332,
MAEL2812,_,posfs_ElijahWood_im23.bmp,ElijahWood,BenAffleck,BenAffleck,RyanGosling,BenStiller,RobertDowneyJr,,,,,posfs_ElijahWood_im23.bmp,2.509479399999691,
MAEL2812,_,posfs_OrlandoBloom_im30.bmp,OrlandoBloom,JustinTimberlake,JustinTimberlake,BradPitt,KeanuReeves,RyanGosling,,,,,posfs_OrlandoBloom_im30.bmp,2.2396395999985543,
MAEL2812,_,posfs_GeorgeClooney_im14.bmp,GeorgeClooney,KeanuReeves,KeanuReeves,LeonardoDiCaprio,PatrickDempsey,RobertPattinson,,,,,posfs_GeorgeClooney_im14.bmp,2.8356272999990324,
MAEL2812,_,posfs_MattDamon_im24.bmp,MattDamon,RobertDowneyJr,RobertDowneyJr,BradPitt,HughJackman,RobertPattinson,,,,,posfs_MattDamon_im24.bmp,3.3916284999995696,
MAEL2812,_,posfs_BenStiller_im7.bmp,BenStiller,LeonardoDiCaprio,LeonardoDiCaprio,RyanGosling,DanielCraig,PatrickDempsey,,,,,posfs_BenStiller_im7.bmp,2.08536119999917,
MAEL2812,_,posfs_BenAffleck_im24.bmp,BenAffleck,OrlandoBloom,OrlandoBloom,DanielRadcliffe,MattDamon,GeorgeClooney,,,,,posfs_BenAffleck_im24.bmp,1.5762807999999495,
MAEL2812,_,posfs_RobertPattinson_im4.bmp,RobertPattinson,DanielRadcliffe,DanielRadcliffe,RyanGosling,MattDamon,ElijahWood,,,,,posfs_RobertPattinson_im4.bmp,1.8638817000010022,
MAEL2812,_,posfs_OrlandoBloom_im19.bmp,OrlandoBloom,ElijahWood,ElijahWood,DanielCraig,PatrickDempsey,LeonardoDiCaprio,,,,,posfs_OrlandoBloom_im19.bmp,1.8671840000006341,
MAEL2812,_,posfs_GeorgeClooney_im23.bmp,GeorgeClooney,BenAffleck,BenAffleck,MattDamon,OrlandoBloom,KeanuReeves,,,,,posfs_GeorgeClooney_im23.bmp,2.141469900001539,
MAEL2812,_,posfs_BenStiller_im2.bmp,BenStiller,RobertDowneyJr,RobertDowneyJr,GeorgeClooney,DanielCraig,RyanReynolds,,,,,posfs_BenStiller_im2.bmp,1.8545268999987456,
MAEL2812,_,posfs_DanielRadcliffe_im10.bmp,DanielRadcliffe,LeonardoDiCaprio,LeonardoDiCaprio,KeanuReeves,ElijahWood,MattDamon,,,,,2,2.339517300000807,
MAEL2812,_,posfs_BradPitt_im14.bmp,BradPitt,MattDamon,MattDamon,DanielCraig,OrlandoBloom,LeonardoDiCaprio,,,,,posfs_BradPitt_im14.bmp,2.1806386999996903,
MAEL2812,_,posfs_BradPitt_im17.bmp,BradPitt,PatrickDempsey,PatrickDempsey,LeonardoDiCaprio,JustinTimberlake,HughJackman,,,,,posfs_BradPitt_im17.bmp,1.9071637000015471,
MAEL2812,_,posfs_ElijahWood_im19.bmp,ElijahWood,PatrickDempsey,PatrickDempsey,RyanReynolds,BenAffleck,OrlandoBloom,,,,,posfs_ElijahWood_im19.bmp,3.6697143000001233,
MAEL2812,_,posfs_BenAffleck_im21.bmp,BenAffleck,RyanGosling,RyanGosling,GeorgeClooney,ElijahWood,BradPitt,,,,,posfs_BenAffleck_im21.bmp,1.200004500000432,
MAEL2812,_,posfs_HughJackman_im13.bmp,HughJackman,BradPitt,BradPitt,PatrickDempsey,MattDamon,RobertPattinson,,,,,posfs_HughJackman_im13.bmp,2.517922199998793,
MAEL2812,_,posfs_HughJackman_im21.bmp,HughJackman,OrlandoBloom,OrlandoBloom,GeorgeClooney,RyanGosling,BradPitt,,,,,posfs_HughJackman_im21.bmp,5.824034899998878,
MAEL2812,_,posfs_GeorgeClooney_im15.bmp,GeorgeClooney,JustinTimberlake,JustinTimberlake,DanielRadcliffe,DanielCraig,BenAffleck,,,,,posfs_GeorgeClooney_im15.bmp,2.068296699999337,
MAEL2812,_,posfs_DanielRadcliffe_im20.bmp,DanielRadcliffe,GeorgeClooney,GeorgeClooney,ElijahWood,RobertPattinson,KeanuReeves,,,,,1,3.6715899999999237,
MAEL2812,_,posfs_BradPitt_im8.bmp,BradPitt,BenStiller,BenStiller,BenAffleck,OrlandoBloom,RobertPattinson,,,,,posfs_BradPitt_im8.bmp,1.4346645000005083,
MAEL2812,_,posfs_BenAffleck_im4.bmp,BenAffleck,BenStiller,BenStiller,KeanuReeves,ElijahWood,PatrickDempsey,,,,,posfs_BenAffleck_im4.bmp,2.3673710000002757,
MAEL2812,_,posfs_LeonardoDiCaprio_im15.bmp,LeonardoDiCaprio,RobertPattinson,RobertPattinson,DanielCraig,BradPitt,DanielRadcliffe,,,,,posfs_LeonardoDiCaprio_im15.bmp,1.8702109999994718,
MAEL2812,_,posfs_RobertDowneyJr_im19.bmp,RobertDowneyJr,DanielRadcliffe,DanielRadcliffe,DanielCraig,PatrickDempsey,BenStiller,,,,,posfs_RobertDowneyJr_im19.bmp,4.369016999999076,
MAEL2812,train,pos,fs,posfs_id3_im8.bmp_posfs_id18_im19.bmp,['Im_BradPitt.png', 'Im_RyanReynolds.png', 'Im_LeonardoDiCaprio.png', 'Im_HughJackman.png', 'Im_RobertPattinson.png', 'Im_ElijahWood.png', 'Im_MattDamon.png', 'Im_BenAffleck.png', 'Im_RobertDowneyJr.png', 'Im_OrlandoBloom.png'],diff,1,1.150074000001041,1,0,
MAEL2812,train,pos,fs,posfs_id19_im27.bmp_posfs_id14_im18.bmp,['Im_BradPitt.png', 'Im_RyanReynolds.png', 'Im_LeonardoDiCaprio.png', 'Im_HughJackman.png', 'Im_RobertPattinson.png', 'Im_ElijahWood.png', 'Im_MattDamon.png', 'Im_BenAffleck.png', 'Im_RobertDowneyJr.png', 'Im_OrlandoBloom.png'],diff,1,1.0166112999995676,2,0,
MAEL2812,train,pos,fs,posfs_id13_im15.bmp_posfs_id18_im18.bmp,['Im_BradPitt.png', 'Im_RyanReynolds.png', 'Im_LeonardoDiCaprio.png', 'Im_HughJackman.png', 'Im_RobertPattinson.png', 'Im_ElijahWood.png', 'Im_MattDamon.png', 'Im_BenAffleck.png', 'Im_RobertDowneyJr.png', 'Im_OrlandoBloom.png'],diff,1,0.6581853999996383,3,0,
MAEL2812,train,pos,fs,posfs_id16_im19.bmp_posfs_id6_im19.bmp,['Im_BradPitt.png', 'Im_RyanReynolds.png', 'Im_LeonardoDiCaprio.png', 'Im_HughJackman.png', 'Im_RobertPattinson.png', 'Im_ElijahWood.png', 'Im_MattDamon.png', 'Im_BenAffleck.png', 'Im_RobertDowneyJr.png', 'Im_OrlandoBloom.png'],diff,1,0.5416764999990846,4,0,
MAEL2812,train,pos,fs,posfs_id6_im12.bmp_posfs_id13_im10.bmp,['Im_BradPitt.png', 'Im_RyanReynolds.png', 'Im_LeonardoDiCaprio.png', 'Im_HughJackman.png', 'Im_RobertPattinson.png', 'Im_ElijahWood.png', 'Im_MattDamon.png', 'Im_BenAffleck.png', 'Im_RobertDowneyJr.png', 'Im_OrlandoBloom.png'],diff,1,0.4417228999991494,5,0,
MAEL2812,train,pos,fs,posfs_id14_im16.bmp_posfs_id14_im24.bmp,['Im_BradPitt.png', 'Im_RyanReynolds.png', 'Im_LeonardoDiCaprio.png', 'Im_HughJackman.png', 'Im_RobertPattinson.png', 'Im_ElijahWood.png', 'Im_MattDamon.png', 'Im_BenAffleck.png', 'Im_RobertDowneyJr.png', 'Im_OrlandoBloom.png'],diff,0,0.41666670000086015,5,0,
MAEL2812,train,pos,fs,posfs_id16_im2.bmp_posfs_id16_im3.bmp,['Im_BradPitt.png', 'Im_RyanReynolds.png', 'Im_LeonardoDiCaprio.png', 'Im_HughJackman.png', 'Im_RobertPattinson.png', 'Im_ElijahWood.png', 'Im_MattDamon.png', 'Im_BenAffleck.png', 'Im_RobertDowneyJr.png', 'Im_OrlandoBloom.png'],diff,0,0.5581084999994346,5,0,
MAEL2812,train,pos,fs,posfs_id14_im18.bmp_posfs_id18_im11.bmp,['Im_BradPitt.png', 'Im_RyanReynolds.png', 'Im_LeonardoDiCaprio.png', 'Im_HughJackman.png', 'Im_RobertPattinson.png', 'Im_ElijahWood.png', 'Im_MattDamon.png', 'Im_BenAffleck.png', 'Im_RobertDowneyJr.png', 'Im_OrlandoBloom.png'],diff,1,0.5748428999995667,6,0,
MAEL2812,train,pos,fs,posfs_id3_im17.bmp_posfs_id3_im8.bmp,['Im_BradPitt.png', 'Im_RyanReynolds.png', 'Im_LeonardoDiCaprio.png', 'Im_HughJackman.png', 'Im_RobertPattinson.png', 'Im_ElijahWood.png', 'Im_MattDamon.png', 'Im_BenAffleck.png', 'Im_RobertDowneyJr.png', 'Im_OrlandoBloom.png'],same,1,0.724992999999813,7,0,
MAEL2812,train,pos,fs,posfs_id21_im17.bmp_posfs_id13_im15.bmp,['Im_BradPitt.png', 'Im_RyanReynolds.png', 'Im_LeonardoDiCaprio.png', 'Im_HughJackman.png', 'Im_RobertPattinson.png', 'Im_ElijahWood.png', 'Im_MattDamon.png', 'Im_BenAffleck.png', 'Im_RobertDowneyJr.png', 'Im_OrlandoBloom.png'],diff,1,0.7167535999997199,8,0,
MAEL2812,train,pos,fs,posfs_id16_im2.bmp_posfs_id6_im18.bmp,['Im_BradPitt.png', 'Im_RyanReynolds.png', 'Im_LeonardoDiCaprio.png', 'Im_HughJackman.png', 'Im_RobertPattinson.png', 'Im_ElijahWood.png', 'Im_MattDamon.png', 'Im_BenAffleck.png', 'Im_RobertDowneyJr.png', 'Im_OrlandoBloom.png'],diff,1,0.7835154000003968,9,0,
MAEL2812,train,pos,fs,posfs_id14_im18.bmp_posfs_id14_im24.bmp,['Im_BradPitt.png', 'Im_RyanReynolds.png', 'Im_LeonardoDiCaprio.png', 'Im_HughJackman.png', 'Im_RobertPattinson.png', 'Im_ElijahWood.png', 'Im_MattDamon.png', 'Im_BenAffleck.png', 'Im_RobertDowneyJr.png', 'Im_OrlandoBloom.png'],same,1,0.6914828999997553,10,0,
MAEL2812,train,pos,fs,posfs_id13_im15.bmp_posfs_id13_im29.bmp,['Im_BradPitt.png', 'Im_RyanReynolds.png', 'Im_LeonardoDiCaprio.png', 'Im_HughJackman.png', 'Im_RobertPattinson.png', 'Im_ElijahWood.png', 'Im_MattDamon.png', 'Im_BenAffleck.png', 'Im_RobertDowneyJr.png', 'Im_OrlandoBloom.png'],same,1,0.7416332000011607,11,0,
MAEL2812,train,pos,fs,posfs_id1_im24.bmp_posfs_id1_im4.bmp,['Im_BradPitt.png', 'Im_RyanReynolds.png', 'Im_LeonardoDiCaprio.png', 'Im_HughJackman.png', 'Im_RobertPattinson.png', 'Im_ElijahWood.png', 'Im_MattDamon.png', 'Im_BenAffleck.png', 'Im_RobertDowneyJr.png', 'Im_OrlandoBloom.png'],same,1,0.5831332999987353,12,0,
MAEL2812,train,pos,fs,posfs_id18_im19.bmp_posfs_id18_im18.bmp,['Im_BradPitt.png', 'Im_RyanReynolds.png', 'Im_LeonardoDiCaprio.png', 'Im_HughJackman.png', 'Im_RobertPattinson.png', 'Im_ElijahWood.png', 'Im_MattDamon.png', 'Im_BenAffleck.png', 'Im_RobertDowneyJr.png', 'Im_OrlandoBloom.png'],same,1,0.5583946999995533,13,0,
MAEL2812,train,pos,fs,posfs_id21_im22.bmp_posfs_id21_im16.bmp,['Im_BradPitt.png', 'Im_RyanReynolds.png', 'Im_LeonardoDiCaprio.png', 'Im_HughJackman.png', 'Im_RobertPattinson.png', 'Im_ElijahWood.png', 'Im_MattDamon.png', 'Im_BenAffleck.png', 'Im_RobertDowneyJr.png', 'Im_OrlandoBloom.png'],same,1,0.5834664000012708,14,0,
MAEL2812,train,pos,fs,posfs_id18_im11.bmp_posfs_id21_im22.bmp,['Im_BradPitt.png', 'Im_RyanReynolds.png', 'Im_LeonardoDiCaprio.png', 'Im_HughJackman.png', 'Im_RobertPattinson.png', 'Im_ElijahWood.png', 'Im_MattDamon.png', 'Im_BenAffleck.png', 'Im_RobertDowneyJr.png', 'Im_OrlandoBloom.png'],diff,1,0.6500015999990865,15,0,
MAEL2812,train,pos,fs,posfs_id14_im16.bmp_posfs_id16_im2.bmp,['Im_BradPitt.png', 'Im_RyanReynolds.png', 'Im_LeonardoDiCaprio.png', 'Im_HughJackman.png', 'Im_RobertPattinson.png', 'Im_ElijahWood.png', 'Im_MattDamon.png', 'Im_BenAffleck.png', 'Im_RobertDowneyJr.png', 'Im_OrlandoBloom.png'],diff,1,0.7752743000000919,16,0,
MAEL2812,train,pos,fs,posfs_id21_im17.bmp_posfs_id21_im16.bmp,['Im_BradPitt.png', 'Im_RyanReynolds.png', 'Im_LeonardoDiCaprio.png', 'Im_HughJackman.png', 'Im_RobertPattinson.png', 'Im_ElijahWood.png', 'Im_MattDamon.png', 'Im_BenAffleck.png', 'Im_RobertDowneyJr.png', 'Im_OrlandoBloom.png'],same,1,0.7498533999987558,17,0,
MAEL2812,train,pos,fs,posfs_id19_im8.bmp_posfs_id16_im3.bmp,['Im_BradPitt.png', 'Im_RyanReynolds.png', 'Im_LeonardoDiCaprio.png', 'Im_HughJackman.png', 'Im_RobertPattinson.png', 'Im_ElijahWood.png', 'Im_MattDamon.png', 'Im_BenAffleck.png', 'Im_RobertDowneyJr.png', 'Im_OrlandoBloom.png'],diff,1,0.7167043999997986,18,0,
MAEL2812,train,inv,fs,posfs_id8_im21.bmp_posfs_id19_im4.bmp,['Im_BradPitt.png', 'Im_RyanReynolds.png', 'Im_LeonardoDiCaprio.png', 'Im_HughJackman.png', 'Im_RobertPattinson.png', 'Im_ElijahWood.png', 'Im_MattDamon.png', 'Im_BenAffleck.png', 'Im_RobertDowneyJr.png', 'Im_OrlandoBloom.png'],diff,1,3.4834212999994634,1,0,
MAEL2812,train,neg,fs,negfs_id1_im4.bmp_negfs_id13_im29.bmp,['Im_BradPitt.png', 'Im_RyanReynolds.png', 'Im_LeonardoDiCaprio.png', 'Im_HughJackman.png', 'Im_RobertPattinson.png', 'Im_ElijahWood.png', 'Im_MattDamon.png', 'Im_BenAffleck.png', 'Im_RobertDowneyJr.png', 'Im_OrlandoBloom.png'],diff,1,1.7587110000004031,2,0,
MAEL2812,train,inv,fs,posfs_id3_im6.bmp_posfs_id3_im8.bmp,['Im_BradPitt.png', 'Im_RyanReynolds.png', 'Im_LeonardoDiCaprio.png', 'Im_HughJackman.png', 'Im_RobertPattinson.png', 'Im_ElijahWood.png', 'Im_MattDamon.png', 'Im_BenAffleck.png', 'Im_RobertDowneyJr.png', 'Im_OrlandoBloom.png'],same,1,2.008585999999923,3,0,
MAEL2812,train,pos,fs,posfs_id19_im8.bmp_posfs_id14_im16.bmp,['Im_BradPitt.png', 'Im_RyanReynolds.png', 'Im_LeonardoDiCaprio.png', 'Im_HughJackman.png', 'Im_RobertPattinson.png', 'Im_ElijahWood.png', 'Im_MattDamon.png', 'Im_BenAffleck.png', 'Im_RobertDowneyJr.png', 'Im_OrlandoBloom.png'],diff,1,0.5916842000006,4,0,
MAEL2812,train,pos,fs,posfs_id21_im22.bmp_posfs_id21_im16.bmp,['Im_BradPitt.png', 'Im_RyanReynolds.png', 'Im_LeonardoDiCaprio.png', 'Im_HughJackman.png', 'Im_RobertPattinson.png', 'Im_ElijahWood.png', 'Im_MattDamon.png', 'Im_BenAffleck.png', 'Im_RobertDowneyJr.png', 'Im_OrlandoBloom.png'],same,1,0.5420620000004419,5,0,
MAEL2812,train,pos,fs,posfs_id21_im17.bmp_posfs_id21_im16.bmp,['Im_BradPitt.png', 'Im_RyanReynolds.png', 'Im_LeonardoDiCaprio.png', 'Im_HughJackman.png', 'Im_RobertPattinson.png', 'Im_ElijahWood.png', 'Im_MattDamon.png', 'Im_BenAffleck.png', 'Im_RobertDowneyJr.png', 'Im_OrlandoBloom.png'],same,1,0.4169434999985242,6,0,
MAEL2812,train,pos,fs,posfs_id6_im12.bmp_posfs_id6_im19.bmp,['Im_BradPitt.png', 'Im_RyanReynolds.png', 'Im_LeonardoDiCaprio.png', 'Im_HughJackman.png', 'Im_RobertPattinson.png', 'Im_ElijahWood.png', 'Im_MattDamon.png', 'Im_BenAffleck.png', 'Im_RobertDowneyJr.png', 'Im_OrlandoBloom.png'],same,1,0.6250774000000092,7,0,
MAEL2812,train,neg,fs,negfs_id3_im8.bmp_negfs_id3_im6.bmp,['Im_BradPitt.png', 'Im_RyanReynolds.png', 'Im_LeonardoDiCaprio.png', 'Im_HughJackman.png', 'Im_RobertPattinson.png', 'Im_ElijahWood.png', 'Im_MattDamon.png', 'Im_BenAffleck.png', 'Im_RobertDowneyJr.png', 'Im_OrlandoBloom.png'],same,1,0.40005179999934626,8,0,
MAEL2812,train,inv,fs,posfs_id19_im8.bmp_posfs_id19_im27.bmp,['Im_BradPitt.png', 'Im_RyanReynolds.png', 'Im_LeonardoDiCaprio.png', 'Im_HughJackman.png', 'Im_RobertPattinson.png', 'Im_ElijahWood.png', 'Im_MattDamon.png', 'Im_BenAffleck.png', 'Im_RobertDowneyJr.png', 'Im_OrlandoBloom.png'],same,1,0.6086094000002049,9,0,
MAEL2812,train,pos,fs,posfs_id8_im21.bmp_posfs_id8_im20.bmp,['Im_BradPitt.png', 'Im_RyanReynolds.png', 'Im_LeonardoDiCaprio.png', 'Im_HughJackman.png', 'Im_RobertPattinson.png', 'Im_ElijahWood.png', 'Im_MattDamon.png', 'Im_BenAffleck.png', 'Im_RobertDowneyJr.png', 'Im_OrlandoBloom.png'],same,1,0.5418752999994467,10,0,
MAEL2812,train,neg,fs,negfs_id14_im16.bmp_negfs_id19_im8.bmp,['Im_BradPitt.png', 'Im_RyanReynolds.png', 'Im_LeonardoDiCaprio.png', 'Im_HughJackman.png', 'Im_RobertPattinson.png', 'Im_ElijahWood.png', 'Im_MattDamon.png', 'Im_BenAffleck.png', 'Im_RobertDowneyJr.png', 'Im_OrlandoBloom.png'],diff,1,0.4250499999998283,11,0,
MAEL2812,train,neg,fs,negfs_id8_im21.bmp_negfs_id21_im22.bmp,['Im_BradPitt.png', 'Im_RyanReynolds.png', 'Im_LeonardoDiCaprio.png', 'Im_HughJackman.png', 'Im_RobertPattinson.png', 'Im_ElijahWood.png', 'Im_MattDamon.png', 'Im_BenAffleck.png', 'Im_RobertDowneyJr.png', 'Im_OrlandoBloom.png'],diff,1,0.5418767999999545,12,0,
MAEL2812,train,inv,fs,posfs_id1_im4.bmp_posfs_id1_im24.bmp,['Im_BradPitt.png', 'Im_RyanReynolds.png', 'Im_LeonardoDiCaprio.png', 'Im_HughJackman.png', 'Im_RobertPattinson.png', 'Im_ElijahWood.png', 'Im_MattDamon.png', 'Im_BenAffleck.png', 'Im_RobertDowneyJr.png', 'Im_OrlandoBloom.png'],same,1,1.1916896000002453,13,0,
MAEL2812,train,pos,fs,posfs_id3_im8.bmp_posfs_id3_im17.bmp,['Im_BradPitt.png', 'Im_RyanReynolds.png', 'Im_LeonardoDiCaprio.png', 'Im_HughJackman.png', 'Im_RobertPattinson.png', 'Im_ElijahWood.png', 'Im_MattDamon.png', 'Im_BenAffleck.png', 'Im_RobertDowneyJr.png', 'Im_OrlandoBloom.png'],same,1,0.4084664999991219,14,0,
MAEL2812,train,neg,fs,negfs_id13_im15.bmp_negfs_id21_im17.bmp,['Im_BradPitt.png', 'Im_RyanReynolds.png', 'Im_LeonardoDiCaprio.png', 'Im_HughJackman.png', 'Im_RobertPattinson.png', 'Im_ElijahWood.png', 'Im_MattDamon.png', 'Im_BenAffleck.png', 'Im_RobertDowneyJr.png', 'Im_OrlandoBloom.png'],diff,1,0.40843559999848367,15,0,
MAEL2812,train,inv,fs,posfs_id14_im24.bmp_posfs_id14_im18.bmp,['Im_BradPitt.png', 'Im_RyanReynolds.png', 'Im_LeonardoDiCaprio.png', 'Im_HughJackman.png', 'Im_RobertPattinson.png', 'Im_ElijahWood.png', 'Im_MattDamon.png', 'Im_BenAffleck.png', 'Im_RobertDowneyJr.png', 'Im_OrlandoBloom.png'],diff,0,0.8417492999997194,15,0,
MAEL2812,train,pos,fs,posfs_id14_im16.bmp_posfs_id14_im24.bmp,['Im_BradPitt.png', 'Im_RyanReynolds.png', 'Im_LeonardoDiCaprio.png', 'Im_HughJackman.png', 'Im_RobertPattinson.png', 'Im_ElijahWood.png', 'Im_MattDamon.png', 'Im_BenAffleck.png', 'Im_RobertDowneyJr.png', 'Im_OrlandoBloom.png'],same,1,0.6254463999994186,16,0,
MAEL2812,train,pos,fs,posfs_id6_im18.bmp_posfs_id1_im24.bmp,['Im_BradPitt.png', 'Im_RyanReynolds.png', 'Im_LeonardoDiCaprio.png', 'Im_HughJackman.png', 'Im_RobertPattinson.png', 'Im_ElijahWood.png', 'Im_MattDamon.png', 'Im_BenAffleck.png', 'Im_RobertDowneyJr.png', 'Im_OrlandoBloom.png'],diff,1,0.40841960000034305,17,0,
MAEL2812,train,neg,fs,negfs_id13_im15.bmp_negfs_id13_im10.bmp,['Im_BradPitt.png', 'Im_RyanReynolds.png', 'Im_LeonardoDiCaprio.png', 'Im_HughJackman.png', 'Im_RobertPattinson.png', 'Im_ElijahWood.png', 'Im_MattDamon.png', 'Im_BenAffleck.png', 'Im_RobertDowneyJr.png', 'Im_OrlandoBloom.png'],diff,0,1.008568600000217,17,0,
MAEL2812,train,neg,fs,negfs_id14_im18.bmp_negfs_id18_im11.bmp,['Im_BradPitt.png', 'Im_RyanReynolds.png', 'Im_LeonardoDiCaprio.png', 'Im_HughJackman.png', 'Im_RobertPattinson.png', 'Im_ElijahWood.png', 'Im_MattDamon.png', 'Im_BenAffleck.png', 'Im_RobertDowneyJr.png', 'Im_OrlandoBloom.png'],diff,1,0.4084017000004678,18,0,
MAEL2812,train,pos,120,pos120_id14_im16.bmp_pos120_id19_im8.bmp,['Im_BradPitt.png', 'Im_RyanReynolds.png', 'Im_LeonardoDiCaprio.png', 'Im_HughJackman.png', 'Im_RobertPattinson.png', 'Im_ElijahWood.png', 'Im_MattDamon.png', 'Im_BenAffleck.png', 'Im_RobertDowneyJr.png', 'Im_OrlandoBloom.png'],diff,1,0.4165408999997453,1,0,
MAEL2812,train,pos,30,pos30_id8_im21.bmp_pos30_id8_im20.bmp,['Im_BradPitt.png', 'Im_RyanReynolds.png', 'Im_LeonardoDiCaprio.png', 'Im_HughJackman.png', 'Im_RobertPattinson.png', 'Im_ElijahWood.png', 'Im_MattDamon.png', 'Im_BenAffleck.png', 'Im_RobertDowneyJr.png', 'Im_OrlandoBloom.png'],diff,0,0.41669200000069395,1,0,
MAEL2812,train,pos,90,pos90_id19_im8.bmp_pos90_id19_im4.bmp,['Im_BradPitt.png', 'Im_RyanReynolds.png', 'Im_LeonardoDiCaprio.png', 'Im_HughJackman.png', 'Im_RobertPattinson.png', 'Im_ElijahWood.png', 'Im_MattDamon.png', 'Im_BenAffleck.png', 'Im_RobertDowneyJr.png', 'Im_OrlandoBloom.png'],same,1,1.1670696000001044,2,0,
MAEL2812,train,pos,30,pos30_id21_im22.bmp_pos30_id8_im21.bmp,['Im_BradPitt.png', 'Im_RyanReynolds.png', 'Im_LeonardoDiCaprio.png', 'Im_HughJackman.png', 'Im_RobertPattinson.png', 'Im_ElijahWood.png', 'Im_MattDamon.png', 'Im_BenAffleck.png', 'Im_RobertDowneyJr.png', 'Im_OrlandoBloom.png'],diff,1,0.41670069999963744,3,0,
MAEL2812,train,pos,150,pos150_id13_im15.bmp_pos150_id21_im17.bmp,['Im_BradPitt.png', 'Im_RyanReynolds.png', 'Im_LeonardoDiCaprio.png', 'Im_HughJackman.png', 'Im_RobertPattinson.png', 'Im_ElijahWood.png', 'Im_MattDamon.png', 'Im_BenAffleck.png', 'Im_RobertDowneyJr.png', 'Im_OrlandoBloom.png'],diff,1,0.8831890999990719,4,0,
MAEL2812,train,pos,60,pos60_id18_im11.bmp_pos60_id18_im18.bmp,['Im_BradPitt.png', 'Im_RyanReynolds.png', 'Im_LeonardoDiCaprio.png', 'Im_HughJackman.png', 'Im_RobertPattinson.png', 'Im_ElijahWood.png', 'Im_MattDamon.png', 'Im_BenAffleck.png', 'Im_RobertDowneyJr.png', 'Im_OrlandoBloom.png'],same,1,0.40839880000021367,5,0,
MAEL2812,train,pos,0,pos0_id16_im19.bmp_pos0_id16_im2.bmp,['Im_BradPitt.png', 'Im_RyanReynolds.png', 'Im_LeonardoDiCaprio.png', 'Im_HughJackman.png', 'Im_RobertPattinson.png', 'Im_ElijahWood.png', 'Im_MattDamon.png', 'Im_BenAffleck.png', 'Im_RobertDowneyJr.png', 'Im_OrlandoBloom.png'],same,1,0.39973160000045027,6,0,
MAEL2812,train,pos,60,pos60_id3_im6.bmp_pos60_id3_im17.bmp,['Im_BradPitt.png', 'Im_RyanReynolds.png', 'Im_LeonardoDiCaprio.png', 'Im_HughJackman.png', 'Im_RobertPattinson.png', 'Im_ElijahWood.png', 'Im_MattDamon.png', 'Im_BenAffleck.png', 'Im_RobertDowneyJr.png', 'Im_OrlandoBloom.png'],same,1,0.41669919999912963,7,0,
MAEL2812,train,pos,150,pos150_id14_im16.bmp_pos150_id14_im18.bmp,['Im_BradPitt.png', 'Im_RyanReynolds.png', 'Im_LeonardoDiCaprio.png', 'Im_HughJackman.png', 'Im_RobertPattinson.png', 'Im_ElijahWood.png', 'Im_MattDamon.png', 'Im_BenAffleck.png', 'Im_RobertDowneyJr.png', 'Im_OrlandoBloom.png'],same,1,0.4164999999993597,8,0,
MAEL2812,train,pos,120,pos120_id14_im24.bmp_pos120_id14_im16.bmp,['Im_BradPitt.png', 'Im_RyanReynolds.png', 'Im_LeonardoDiCaprio.png', 'Im_HughJackman.png', 'Im_RobertPattinson.png', 'Im_ElijahWood.png', 'Im_MattDamon.png', 'Im_BenAffleck.png', 'Im_RobertDowneyJr.png', 'Im_OrlandoBloom.png'],same,1,0.4082342999990942,9,0,
MAEL2812,train,pos,fs,posfs_id14_im16.bmp_posfs_id16_im2.bmp,['Im_BradPitt.png', 'Im_RyanReynolds.png', 'Im_LeonardoDiCaprio.png', 'Im_HughJackman.png', 'Im_RobertPattinson.png', 'Im_ElijahWood.png', 'Im_MattDamon.png', 'Im_BenAffleck.png', 'Im_RobertDowneyJr.png', 'Im_OrlandoBloom.png'],diff,1,0.4083601999991515,10,0,
MAEL2812,train,pos,90,pos90_id14_im16.bmp_pos90_id14_im18.bmp,['Im_BradPitt.png', 'Im_RyanReynolds.png', 'Im_LeonardoDiCaprio.png', 'Im_HughJackman.png', 'Im_RobertPattinson.png', 'Im_ElijahWood.png', 'Im_MattDamon.png', 'Im_BenAffleck.png', 'Im_RobertDowneyJr.png', 'Im_OrlandoBloom.png'],same,1,0.4165825000000041,11,0,
MAEL2812,train,pos,0,pos0_id6_im18.bmp_pos0_id6_im19.bmp,['Im_BradPitt.png', 'Im_RyanReynolds.png', 'Im_LeonardoDiCaprio.png', 'Im_HughJackman.png', 'Im_RobertPattinson.png', 'Im_ElijahWood.png', 'Im_MattDamon.png', 'Im_BenAffleck.png', 'Im_RobertDowneyJr.png', 'Im_OrlandoBloom.png'],same,1,0.39972390000002633,12,0,
MAEL2812,train,pos,fs,posfs_id21_im22.bmp_posfs_id18_im11.bmp,['Im_BradPitt.png', 'Im_RyanReynolds.png', 'Im_LeonardoDiCaprio.png', 'Im_HughJackman.png', 'Im_RobertPattinson.png', 'Im_ElijahWood.png', 'Im_MattDamon.png', 'Im_BenAffleck.png', 'Im_RobertDowneyJr.png', 'Im_OrlandoBloom.png'],diff,1,0.3998589999991964,13,0,
MAEL2812,train,neg,150,neg150_id19_im4.bmp_neg150_id8_im21.bmp,['Im_BradPitt.png', 'Im_RyanReynolds.png', 'Im_LeonardoDiCaprio.png', 'Im_HughJackman.png', 'Im_RobertPattinson.png', 'Im_ElijahWood.png', 'Im_MattDamon.png', 'Im_BenAffleck.png', 'Im_RobertDowneyJr.png', 'Im_OrlandoBloom.png'],diff,1,0.5415302000001248,14,0,
MAEL2812,train,neg,fs,negfs_id1_im24.bmp_negfs_id1_im21.bmp,['Im_BradPitt.png', 'Im_RyanReynolds.png', 'Im_LeonardoDiCaprio.png', 'Im_HughJackman.png', 'Im_RobertPattinson.png', 'Im_ElijahWood.png', 'Im_MattDamon.png', 'Im_BenAffleck.png', 'Im_RobertDowneyJr.png', 'Im_OrlandoBloom.png'],same,1,0.5004360999992059,15,0,
MAEL2812,train,neg,120,neg120_id8_im13.bmp_neg120_id8_im21.bmp,['Im_BradPitt.png', 'Im_RyanReynolds.png', 'Im_LeonardoDiCaprio.png', 'Im_HughJackman.png', 'Im_RobertPattinson.png', 'Im_ElijahWood.png', 'Im_MattDamon.png', 'Im_BenAffleck.png', 'Im_RobertDowneyJr.png', 'Im_OrlandoBloom.png'],same,1,0.4166051000011066,16,0,
MAEL2812,train,neg,90,neg90_id3_im6.bmp_neg90_id8_im13.bmp,['Im_BradPitt.png', 'Im_RyanReynolds.png', 'Im_LeonardoDiCaprio.png', 'Im_HughJackman.png', 'Im_RobertPattinson.png', 'Im_ElijahWood.png', 'Im_MattDamon.png', 'Im_BenAffleck.png', 'Im_RobertDowneyJr.png', 'Im_OrlandoBloom.png'],diff,1,0.40830000000096334,17,0,
MAEL2812,train,neg,90,neg90_id1_im21.bmp_neg90_id1_im24.bmp,['Im_BradPitt.png', 'Im_RyanReynolds.png', 'Im_LeonardoDiCaprio.png', 'Im_HughJackman.png', 'Im_RobertPattinson.png', 'Im_ElijahWood.png', 'Im_MattDamon.png', 'Im_BenAffleck.png', 'Im_RobertDowneyJr.png', 'Im_OrlandoBloom.png'],same,1,0.4163134999998874,18,0,
MAEL2812,train,neg,0,neg0_id1_im24.bmp_neg0_id1_im4.bmp,['Im_BradPitt.png', 'Im_RyanReynolds.png', 'Im_LeonardoDiCaprio.png', 'Im_HughJackman.png', 'Im_RobertPattinson.png', 'Im_ElijahWood.png', 'Im_MattDamon.png', 'Im_BenAffleck.png', 'Im_RobertDowneyJr.png', 'Im_OrlandoBloom.png'],same,1,0.4081853999996383,19,0,
MAEL2812,train,neg,60,neg60_id21_im16.bmp_neg60_id14_im24.bmp,['Im_BradPitt.png', 'Im_RyanReynolds.png', 'Im_LeonardoDiCaprio.png', 'Im_HughJackman.png', 'Im_RobertPattinson.png', 'Im_ElijahWood.png', 'Im_MattDamon.png', 'Im_BenAffleck.png', 'Im_RobertDowneyJr.png', 'Im_OrlandoBloom.png'],diff,1,0.40841439999894646,20,0,
MAEL2812,train,neg,30,neg30_id13_im10.bmp_neg30_id21_im16.bmp,['Im_BradPitt.png', 'Im_RyanReynolds.png', 'Im_LeonardoDiCaprio.png', 'Im_HughJackman.png', 'Im_RobertPattinson.png', 'Im_ElijahWood.png', 'Im_MattDamon.png', 'Im_BenAffleck.png', 'Im_RobertDowneyJr.png', 'Im_OrlandoBloom.png'],diff,1,0.4998736999987159,21,0,
MAEL2812,train,neg,30,neg30_id21_im22.bmp_neg30_id18_im11.bmp,['Im_BradPitt.png', 'Im_RyanReynolds.png', 'Im_LeonardoDiCaprio.png', 'Im_HughJackman.png', 'Im_RobertPattinson.png', 'Im_ElijahWood.png', 'Im_MattDamon.png', 'Im_BenAffleck.png', 'Im_RobertDowneyJr.png', 'Im_OrlandoBloom.png'],diff,1,0.5670637999992323,22,0,
MAEL2812,train,neg,0,neg0_id3_im8.bmp_neg0_id3_im17.bmp,['Im_BradPitt.png', 'Im_RyanReynolds.png', 'Im_LeonardoDiCaprio.png', 'Im_HughJackman.png', 'Im_RobertPattinson.png', 'Im_ElijahWood.png', 'Im_MattDamon.png', 'Im_BenAffleck.png', 'Im_RobertDowneyJr.png', 'Im_OrlandoBloom.png'],diff,0,0.4334340000004886,22,0,
MAEL2812,train,neg,fs,negfs_id14_im16.bmp_negfs_id14_im24.bmp,['Im_BradPitt.png', 'Im_RyanReynolds.png', 'Im_LeonardoDiCaprio.png', 'Im_HughJackman.png', 'Im_RobertPattinson.png', 'Im_ElijahWood.png', 'Im_MattDamon.png', 'Im_BenAffleck.png', 'Im_RobertDowneyJr.png', 'Im_OrlandoBloom.png'],same,1,0.43332530000043334,23,0,
MAEL2812,train,neg,60,neg60_id14_im24.bmp_neg60_id14_im18.bmp,['Im_BradPitt.png', 'Im_RyanReynolds.png', 'Im_LeonardoDiCaprio.png', 'Im_HughJackman.png', 'Im_RobertPattinson.png', 'Im_ElijahWood.png', 'Im_MattDamon.png', 'Im_BenAffleck.png', 'Im_RobertDowneyJr.png', 'Im_OrlandoBloom.png'],same,1,0.7164240999991307,24,0,
MAEL2812,train,neg,120,neg120_id18_im18.bmp_neg120_id18_im19.bmp,['Im_BradPitt.png', 'Im_RyanReynolds.png', 'Im_LeonardoDiCaprio.png', 'Im_HughJackman.png', 'Im_RobertPattinson.png', 'Im_ElijahWood.png', 'Im_MattDamon.png', 'Im_BenAffleck.png', 'Im_RobertDowneyJr.png', 'Im_OrlandoBloom.png'],diff,0,0.8750402000005124,24,0,
MAEL2812,train,neg,150,neg150_id16_im3.bmp_neg150_id8_im13.bmp,['Im_BradPitt.png', 'Im_RyanReynolds.png', 'Im_LeonardoDiCaprio.png', 'Im_HughJackman.png', 'Im_RobertPattinson.png', 'Im_ElijahWood.png', 'Im_MattDamon.png', 'Im_BenAffleck.png', 'Im_RobertDowneyJr.png', 'Im_OrlandoBloom.png'],diff,1,1.3667068999984622,25,0,
MAEL2812,train,inv,30,pos30_id3_im17.bmp_pos30_id19_im27.bmp,['Im_BradPitt.png', 'Im_RyanReynolds.png', 'Im_LeonardoDiCaprio.png', 'Im_HughJackman.png', 'Im_RobertPattinson.png', 'Im_ElijahWood.png', 'Im_MattDamon.png', 'Im_BenAffleck.png', 'Im_RobertDowneyJr.png', 'Im_OrlandoBloom.png'],diff,1,0.8166527000012138,26,0,
MAEL2812,train,inv,150,pos150_id14_im18.bmp_pos150_id14_im24.bmp,['Im_BradPitt.png', 'Im_RyanReynolds.png', 'Im_LeonardoDiCaprio.png', 'Im_HughJackman.png', 'Im_RobertPattinson.png', 'Im_ElijahWood.png', 'Im_MattDamon.png', 'Im_BenAffleck.png', 'Im_RobertDowneyJr.png', 'Im_OrlandoBloom.png'],same,1,0.4169015000006766,27,0,
MAEL2812,train,inv,fs,posfs_id1_im4.bmp_posfs_id1_im24.bmp,['Im_BradPitt.png', 'Im_RyanReynolds.png', 'Im_LeonardoDiCaprio.png', 'Im_HughJackman.png', 'Im_RobertPattinson.png', 'Im_ElijahWood.png', 'Im_MattDamon.png', 'Im_BenAffleck.png', 'Im_RobertDowneyJr.png', 'Im_OrlandoBloom.png'],same,1,0.5833925999995699,28,0,
MAEL2812,train,inv,120,pos120_id8_im21.bmp_pos120_id8_im20.bmp,['Im_BradPitt.png', 'Im_RyanReynolds.png', 'Im_LeonardoDiCaprio.png', 'Im_HughJackman.png', 'Im_RobertPattinson.png', 'Im_ElijahWood.png', 'Im_MattDamon.png', 'Im_BenAffleck.png', 'Im_RobertDowneyJr.png', 'Im_OrlandoBloom.png'],same,1,0.40838309999890043,29,0,
MAEL2812,train,inv,120,pos120_id1_im21.bmp_pos120_id16_im19.bmp,['Im_BradPitt.png', 'Im_RyanReynolds.png', 'Im_LeonardoDiCaprio.png', 'Im_HughJackman.png', 'Im_RobertPattinson.png', 'Im_ElijahWood.png', 'Im_MattDamon.png', 'Im_BenAffleck.png', 'Im_RobertDowneyJr.png', 'Im_OrlandoBloom.png'],same,0,0.4165071000006719,29,0,
MAEL2812,train,inv,90,pos90_id18_im18.bmp_pos90_id18_im19.bmp,['Im_BradPitt.png', 'Im_RyanReynolds.png', 'Im_LeonardoDiCaprio.png', 'Im_HughJackman.png', 'Im_RobertPattinson.png', 'Im_ElijahWood.png', 'Im_MattDamon.png', 'Im_BenAffleck.png', 'Im_RobertDowneyJr.png', 'Im_OrlandoBloom.png'],same,1,0.5250481000002765,30,0,
MAEL2812,train,inv,150,pos150_id6_im12.bmp_pos150_id3_im17.bmp,['Im_BradPitt.png', 'Im_RyanReynolds.png', 'Im_LeonardoDiCaprio.png', 'Im_HughJackman.png', 'Im_RobertPattinson.png', 'Im_ElijahWood.png', 'Im_MattDamon.png', 'Im_BenAffleck.png', 'Im_RobertDowneyJr.png', 'Im_OrlandoBloom.png'],diff,1,0.4083922999998322,31,0,
MAEL2812,train,inv,0,pos0_id19_im4.bmp_pos0_id8_im21.bmp,['Im_BradPitt.png', 'Im_RyanReynolds.png', 'Im_LeonardoDiCaprio.png', 'Im_HughJackman.png', 'Im_RobertPattinson.png', 'Im_ElijahWood.png', 'Im_MattDamon.png', 'Im_BenAffleck.png', 'Im_RobertDowneyJr.png', 'Im_OrlandoBloom.png'],diff,1,0.8333535000001575,32,0,
MAEL2812,train,inv,90,pos90_id21_im17.bmp_pos90_id18_im19.bmp,['Im_BradPitt.png', 'Im_RyanReynolds.png', 'Im_LeonardoDiCaprio.png', 'Im_HughJackman.png', 'Im_RobertPattinson.png', 'Im_ElijahWood.png', 'Im_MattDamon.png', 'Im_BenAffleck.png', 'Im_RobertDowneyJr.png', 'Im_OrlandoBloom.png'],same,0,0.4084506999988662,32,0,
MAEL2812,train,inv,30,pos30_id21_im17.bmp_pos30_id21_im22.bmp,['Im_BradPitt.png', 'Im_RyanReynolds.png', 'Im_LeonardoDiCaprio.png', 'Im_HughJackman.png', 'Im_RobertPattinson.png', 'Im_ElijahWood.png', 'Im_MattDamon.png', 'Im_BenAffleck.png', 'Im_RobertDowneyJr.png', 'Im_OrlandoBloom.png'],same,1,0.41682110000147077,33,0,
MAEL2812,train,inv,0,pos0_id6_im18.bmp_pos0_id1_im24.bmp,['Im_BradPitt.png', 'Im_RyanReynolds.png', 'Im_LeonardoDiCaprio.png', 'Im_HughJackman.png', 'Im_RobertPattinson.png', 'Im_ElijahWood.png', 'Im_MattDamon.png', 'Im_BenAffleck.png', 'Im_RobertDowneyJr.png', 'Im_OrlandoBloom.png'],same,0,0.41669180000099004,33,0,
MAEL2812,train,inv,60,pos60_id8_im13.bmp_pos60_id8_im21.bmp,['Im_BradPitt.png', 'Im_RyanReynolds.png', 'Im_LeonardoDiCaprio.png', 'Im_HughJackman.png', 'Im_RobertPattinson.png', 'Im_ElijahWood.png', 'Im_MattDamon.png', 'Im_BenAffleck.png', 'Im_RobertDowneyJr.png', 'Im_OrlandoBloom.png'],same,1,0.40003839999917545,34,0,
MAEL2812,train,inv,60,pos60_id21_im22.bmp_pos60_id8_im21.bmp,['Im_BradPitt.png', 'Im_RyanReynolds.png', 'Im_LeonardoDiCaprio.png', 'Im_HughJackman.png', 'Im_RobertPattinson.png', 'Im_ElijahWood.png', 'Im_MattDamon.png', 'Im_BenAffleck.png', 'Im_RobertDowneyJr.png', 'Im_OrlandoBloom.png'],same,0,0.40840580000076443,34,0,
MAEL2812,train,inv,fs,posfs_id14_im24.bmp_posfs_id14_im16.bmp,['Im_BradPitt.png', 'Im_RyanReynolds.png', 'Im_LeonardoDiCaprio.png', 'Im_HughJackman.png', 'Im_RobertPattinson.png', 'Im_ElijahWood.png', 'Im_MattDamon.png', 'Im_BenAffleck.png', 'Im_RobertDowneyJr.png', 'Im_OrlandoBloom.png'],same,1,0.4083833999993658,35,0,
MAEL2812,train,inv,0,pos0_id14_im16.bmp_pos0_id14_im24.bmp,['Im_BradPitt.png', 'Im_RyanReynolds.png', 'Im_LeonardoDiCaprio.png', 'Im_HughJackman.png', 'Im_RobertPattinson.png', 'Im_ElijahWood.png', 'Im_MattDamon.png', 'Im_BenAffleck.png', 'Im_RobertDowneyJr.png', 'Im_OrlandoBloom.png'],same,1,2.9002025999998295,1,83.33333333333333,
MAEL2812,train,inv,90,pos90_id16_im2.bmp_pos90_id14_im16.bmp,['Im_BradPitt.png', 'Im_RyanReynolds.png', 'Im_LeonardoDiCaprio.png', 'Im_HughJackman.png', 'Im_RobertPattinson.png', 'Im_ElijahWood.png', 'Im_MattDamon.png', 'Im_BenAffleck.png', 'Im_RobertDowneyJr.png', 'Im_OrlandoBloom.png'],same,0,0.5753415999988647,1,83.33333333333333,
MAEL2812,train,inv,150,pos150_id13_im15.bmp_pos150_id18_im18.bmp,['Im_BradPitt.png', 'Im_RyanReynolds.png', 'Im_LeonardoDiCaprio.png', 'Im_HughJackman.png', 'Im_RobertPattinson.png', 'Im_ElijahWood.png', 'Im_MattDamon.png', 'Im_BenAffleck.png', 'Im_RobertDowneyJr.png', 'Im_OrlandoBloom.png'],diff,1,0.4667319000000134,2,83.33333333333333,
MAEL2812,train,inv,30,pos30_id6_im12.bmp_pos30_id3_im17.bmp,['Im_BradPitt.png', 'Im_RyanReynolds.png', 'Im_LeonardoDiCaprio.png', 'Im_HughJackman.png', 'Im_RobertPattinson.png', 'Im_ElijahWood.png', 'Im_MattDamon.png', 'Im_BenAffleck.png', 'Im_RobertDowneyJr.png', 'Im_OrlandoBloom.png'],diff,1,0.40822619999926246,3,83.33333333333333,
MAEL2812,train,inv,30,pos30_id14_im16.bmp_pos30_id16_im2.bmp,['Im_BradPitt.png', 'Im_RyanReynolds.png', 'Im_LeonardoDiCaprio.png', 'Im_HughJackman.png', 'Im_RobertPattinson.png', 'Im_ElijahWood.png', 'Im_MattDamon.png', 'Im_BenAffleck.png', 'Im_RobertDowneyJr.png', 'Im_OrlandoBloom.png'],diff,1,1.2251487000012276,4,83.33333333333333,
MAEL2812,train,inv,150,pos150_id21_im17.bmp_pos150_id18_im19.bmp,['Im_BradPitt.png', 'Im_RyanReynolds.png', 'Im_LeonardoDiCaprio.png', 'Im_HughJackman.png', 'Im_RobertPattinson.png', 'Im_ElijahWood.png', 'Im_MattDamon.png', 'Im_BenAffleck.png', 'Im_RobertDowneyJr.png', 'Im_OrlandoBloom.png'],diff,1,0.8163715999999113,5,83.33333333333333,
MAEL2812,train,inv,60,pos60_id14_im16.bmp_pos60_id14_im24.bmp,['Im_BradPitt.png', 'Im_RyanReynolds.png', 'Im_LeonardoDiCaprio.png', 'Im_HughJackman.png', 'Im_RobertPattinson.png', 'Im_ElijahWood.png', 'Im_MattDamon.png', 'Im_BenAffleck.png', 'Im_RobertDowneyJr.png', 'Im_OrlandoBloom.png'],same,1,0.40838439999970433,6,83.33333333333333,
MAEL2812,train,inv,120,pos120_id21_im22.bmp_pos120_id18_im11.bmp,['Im_BradPitt.png', 'Im_RyanReynolds.png', 'Im_LeonardoDiCaprio.png', 'Im_HughJackman.png', 'Im_RobertPattinson.png', 'Im_ElijahWood.png', 'Im_MattDamon.png', 'Im_BenAffleck.png', 'Im_RobertDowneyJr.png', 'Im_OrlandoBloom.png'],same,0,0.7170889000008174,6,83.33333333333333,
MAEL2812,train,inv,0,pos0_id18_im19.bmp_pos0_id18_im18.bmp,['Im_BradPitt.png', 'Im_RyanReynolds.png', 'Im_LeonardoDiCaprio.png', 'Im_HughJackman.png', 'Im_RobertPattinson.png', 'Im_ElijahWood.png', 'Im_MattDamon.png', 'Im_BenAffleck.png', 'Im_RobertDowneyJr.png', 'Im_OrlandoBloom.png'],same,1,0.41669679999904474,7,83.33333333333333,
MAEL2812,train,inv,90,pos90_id3_im6.bmp_pos90_id3_im17.bmp,['Im_BradPitt.png', 'Im_RyanReynolds.png', 'Im_LeonardoDiCaprio.png', 'Im_HughJackman.png', 'Im_RobertPattinson.png', 'Im_ElijahWood.png', 'Im_MattDamon.png', 'Im_BenAffleck.png', 'Im_RobertDowneyJr.png', 'Im_OrlandoBloom.png'],diff,0,1.1420784000001731,7,83.33333333333333,
MAEL2812,train,inv,120,pos120_id6_im18.bmp_pos120_id6_im12.bmp,['Im_BradPitt.png', 'Im_RyanReynolds.png', 'Im_LeonardoDiCaprio.png', 'Im_HughJackman.png', 'Im_RobertPattinson.png', 'Im_ElijahWood.png', 'Im_MattDamon.png', 'Im_BenAffleck.png', 'Im_RobertDowneyJr.png', 'Im_OrlandoBloom.png'],diff,0,0.5999117000010301,7,83.33333333333333,
MAEL2812,train,inv,fs,posfs_id21_im16.bmp_posfs_id21_im17.bmp,['Im_BradPitt.png', 'Im_RyanReynolds.png', 'Im_LeonardoDiCaprio.png', 'Im_HughJackman.png', 'Im_RobertPattinson.png', 'Im_ElijahWood.png', 'Im_MattDamon.png', 'Im_BenAffleck.png', 'Im_RobertDowneyJr.png', 'Im_OrlandoBloom.png'],same,1,0.4167560999994748,8,83.33333333333333,
MAEL2812,train,inv,fs,posfs_id8_im21.bmp_posfs_id21_im22.bmp,['Im_BradPitt.png', 'Im_RyanReynolds.png', 'Im_LeonardoDiCaprio.png', 'Im_HughJackman.png', 'Im_RobertPattinson.png', 'Im_ElijahWood.png', 'Im_MattDamon.png', 'Im_BenAffleck.png', 'Im_RobertDowneyJr.png', 'Im_OrlandoBloom.png'],same,0,0.4417511999999988,8,83.33333333333333,
MAEL2812,train,inv,60,pos60_id21_im16.bmp_pos60_id21_im22.bmp,['Im_BradPitt.png', 'Im_RyanReynolds.png', 'Im_LeonardoDiCaprio.png', 'Im_HughJackman.png', 'Im_RobertPattinson.png', 'Im_ElijahWood.png', 'Im_MattDamon.png', 'Im_BenAffleck.png', 'Im_RobertDowneyJr.png', 'Im_OrlandoBloom.png'],same,1,0.40004469999985304,9,83.33333333333333,
MAEL2812,train,neg,90,neg90_id6_im19.bmp_neg90_id16_im19.bmp,['Im_BradPitt.png', 'Im_RyanReynolds.png', 'Im_LeonardoDiCaprio.png', 'Im_HughJackman.png', 'Im_RobertPattinson.png', 'Im_ElijahWood.png', 'Im_MattDamon.png', 'Im_BenAffleck.png', 'Im_RobertDowneyJr.png', 'Im_OrlandoBloom.png'],diff,1,0.41682919999948354,10,83.33333333333333,
MAEL2812,train,neg,150,neg150_id8_im21.bmp_neg150_id8_im20.bmp,['Im_BradPitt.png', 'Im_RyanReynolds.png', 'Im_LeonardoDiCaprio.png', 'Im_HughJackman.png', 'Im_RobertPattinson.png', 'Im_ElijahWood.png', 'Im_MattDamon.png', 'Im_BenAffleck.png', 'Im_RobertDowneyJr.png', 'Im_OrlandoBloom.png'],same,1,0.5001818999990064,11,83.33333333333333,
MAEL2812,train,neg,fs,negfs_id6_im18.bmp_negfs_id16_im2.bmp,['Im_BradPitt.png', 'Im_RyanReynolds.png', 'Im_LeonardoDiCaprio.png', 'Im_HughJackman.png', 'Im_RobertPattinson.png', 'Im_ElijahWood.png', 'Im_MattDamon.png', 'Im_BenAffleck.png', 'Im_RobertDowneyJr.png', 'Im_OrlandoBloom.png'],diff,1,0.40836209999906714,12,83.33333333333333,
MAEL2812,train,neg,0,neg0_id18_im11.bmp_neg0_id18_im19.bmp,['Im_BradPitt.png', 'Im_RyanReynolds.png', 'Im_LeonardoDiCaprio.png', 'Im_HughJackman.png', 'Im_RobertPattinson.png', 'Im_ElijahWood.png', 'Im_MattDamon.png', 'Im_BenAffleck.png', 'Im_RobertDowneyJr.png', 'Im_OrlandoBloom.png'],same,1,0.7916851999998471,13,83.33333333333333,
MAEL2812,train,neg,90,neg90_id8_im20.bmp_neg90_id1_im21.bmp,['Im_BradPitt.png', 'Im_RyanReynolds.png', 'Im_LeonardoDiCaprio.png', 'Im_HughJackman.png', 'Im_RobertPattinson.png', 'Im_ElijahWood.png', 'Im_MattDamon.png', 'Im_BenAffleck.png', 'Im_RobertDowneyJr.png', 'Im_OrlandoBloom.png'],diff,1,0.4167082999992999,14,83.33333333333333,
MAEL2812,train,neg,120,neg120_id13_im29.bmp_neg120_id14_im24.bmp,['Im_BradPitt.png', 'Im_RyanReynolds.png', 'Im_LeonardoDiCaprio.png', 'Im_HughJackman.png', 'Im_RobertPattinson.png', 'Im_ElijahWood.png', 'Im_MattDamon.png', 'Im_BenAffleck.png', 'Im_RobertDowneyJr.png', 'Im_OrlandoBloom.png'],same,0,0.39960679999967397,14,83.33333333333333,
MAEL2812,train,neg,120,neg120_id21_im16.bmp_neg120_id13_im10.bmp,['Im_BradPitt.png', 'Im_RyanReynolds.png', 'Im_LeonardoDiCaprio.png', 'Im_HughJackman.png', 'Im_RobertPattinson.png', 'Im_ElijahWood.png', 'Im_MattDamon.png', 'Im_BenAffleck.png', 'Im_RobertDowneyJr.png', 'Im_OrlandoBloom.png'],diff,1,0.5750798999997642,15,83.33333333333333,
MAEL2812,train,neg,150,neg150_id1_im21.bmp_neg150_id1_im24.bmp,['Im_BradPitt.png', 'Im_RyanReynolds.png', 'Im_LeonardoDiCaprio.png', 'Im_HughJackman.png', 'Im_RobertPattinson.png', 'Im_ElijahWood.png', 'Im_MattDamon.png', 'Im_BenAffleck.png', 'Im_RobertDowneyJr.png', 'Im_OrlandoBloom.png'],same,1,0.41641489999892656,16,83.33333333333333,
MAEL2812,train,neg,30,neg30_id18_im18.bmp_neg30_id18_im19.bmp,['Im_BradPitt.png', 'Im_RyanReynolds.png', 'Im_LeonardoDiCaprio.png', 'Im_HughJackman.png', 'Im_RobertPattinson.png', 'Im_ElijahWood.png', 'Im_MattDamon.png', 'Im_BenAffleck.png', 'Im_RobertDowneyJr.png', 'Im_OrlandoBloom.png'],same,1,0.408390500000678,17,83.33333333333333,
MAEL2812,train,neg,60,neg60_id6_im12.bmp_neg60_id3_im17.bmp,['Im_BradPitt.png', 'Im_RyanReynolds.png', 'Im_LeonardoDiCaprio.png', 'Im_HughJackman.png', 'Im_RobertPattinson.png', 'Im_ElijahWood.png', 'Im_MattDamon.png', 'Im_BenAffleck.png', 'Im_RobertDowneyJr.png', 'Im_OrlandoBloom.png'],diff,1,0.4000964999995631,18,83.33333333333333,
MAEL2812,train,neg,30,neg30_id8_im21.bmp_neg30_id21_im22.bmp,['Im_BradPitt.png', 'Im_RyanReynolds.png', 'Im_LeonardoDiCaprio.png', 'Im_HughJackman.png', 'Im_RobertPattinson.png', 'Im_ElijahWood.png', 'Im_MattDamon.png', 'Im_BenAffleck.png', 'Im_RobertDowneyJr.png', 'Im_OrlandoBloom.png'],diff,1,0.583516899998358,19,83.33333333333333,
MAEL2812,train,neg,0,neg0_id6_im18.bmp_neg0_id1_im24.bmp,['Im_BradPitt.png', 'Im_RyanReynolds.png', 'Im_LeonardoDiCaprio.png', 'Im_HughJackman.png', 'Im_RobertPattinson.png', 'Im_ElijahWood.png', 'Im_MattDamon.png', 'Im_BenAffleck.png', 'Im_RobertDowneyJr.png', 'Im_OrlandoBloom.png'],same,0,0.41683890000058454,19,83.33333333333333,
MAEL2812,train,neg,fs,negfs_id18_im19.bmp_negfs_id18_im18.bmp,['Im_BradPitt.png', 'Im_RyanReynolds.png', 'Im_LeonardoDiCaprio.png', 'Im_HughJackman.png', 'Im_RobertPattinson.png', 'Im_ElijahWood.png', 'Im_MattDamon.png', 'Im_BenAffleck.png', 'Im_RobertDowneyJr.png', 'Im_OrlandoBloom.png'],same,1,0.4753292999994301,20,83.33333333333333,
MAEL2812,train,neg,60,neg60_id6_im18.bmp_neg60_id6_im19.bmp,['Im_BradPitt.png', 'Im_RyanReynolds.png', 'Im_LeonardoDiCaprio.png', 'Im_HughJackman.png', 'Im_RobertPattinson.png', 'Im_ElijahWood.png', 'Im_MattDamon.png', 'Im_BenAffleck.png', 'Im_RobertDowneyJr.png', 'Im_OrlandoBloom.png'],same,1,0.8581212000008236,21,83.33333333333333,
MAEL2812,train,pos,30,pos30_id6_im18.bmp_pos30_id16_im2.bmp,['Im_BradPitt.png', 'Im_RyanReynolds.png', 'Im_LeonardoDiCaprio.png', 'Im_HughJackman.png', 'Im_RobertPattinson.png', 'Im_ElijahWood.png', 'Im_MattDamon.png', 'Im_BenAffleck.png', 'Im_RobertDowneyJr.png', 'Im_OrlandoBloom.png'],diff,1,0.7419231999992917,22,83.33333333333333,
MAEL2812,train,pos,60,pos60_id21_im22.bmp_pos60_id21_im17.bmp,['Im_BradPitt.png', 'Im_RyanReynolds.png', 'Im_LeonardoDiCaprio.png', 'Im_HughJackman.png', 'Im_RobertPattinson.png', 'Im_ElijahWood.png', 'Im_MattDamon.png', 'Im_BenAffleck.png', 'Im_RobertDowneyJr.png', 'Im_OrlandoBloom.png'],same,1,0.4167196000016702,23,83.33333333333333,
MAEL2812,train,pos,30,pos30_id3_im17.bmp_pos30_id6_im12.bmp,['Im_BradPitt.png', 'Im_RyanReynolds.png', 'Im_LeonardoDiCaprio.png', 'Im_HughJackman.png', 'Im_RobertPattinson.png', 'Im_ElijahWood.png', 'Im_MattDamon.png', 'Im_BenAffleck.png', 'Im_RobertDowneyJr.png', 'Im_OrlandoBloom.png'],diff,1,0.40854660000150034,24,83.33333333333333,
MAEL2812,train,pos,90,pos90_id21_im16.bmp_pos90_id14_im24.bmp,['Im_BradPitt.png', 'Im_RyanReynolds.png', 'Im_LeonardoDiCaprio.png', 'Im_HughJackman.png', 'Im_RobertPattinson.png', 'Im_ElijahWood.png', 'Im_MattDamon.png', 'Im_BenAffleck.png', 'Im_RobertDowneyJr.png', 'Im_OrlandoBloom.png'],diff,1,0.4168896000010136,25,83.33333333333333,
MAEL2812,train,pos,fs,posfs_id16_im3.bmp_posfs_id19_im8.bmp,['Im_BradPitt.png', 'Im_RyanReynolds.png', 'Im_LeonardoDiCaprio.png', 'Im_HughJackman.png', 'Im_RobertPattinson.png', 'Im_ElijahWood.png', 'Im_MattDamon.png', 'Im_BenAffleck.png', 'Im_RobertDowneyJr.png', 'Im_OrlandoBloom.png'],diff,1,0.44220429999950284,26,83.33333333333333,
MAEL2812,train,pos,120,pos120_id18_im18.bmp_pos120_id18_im19.bmp,['Im_BradPitt.png', 'Im_RyanReynolds.png', 'Im_LeonardoDiCaprio.png', 'Im_HughJackman.png', 'Im_RobertPattinson.png', 'Im_ElijahWood.png', 'Im_MattDamon.png', 'Im_BenAffleck.png', 'Im_RobertDowneyJr.png', 'Im_OrlandoBloom.png'],same,1,0.40849230000094394,27,83.33333333333333,
MAEL2812,train,pos,150,pos150_id18_im11.bmp_pos150_id18_im19.bmp,['Im_BradPitt.png', 'Im_RyanReynolds.png', 'Im_LeonardoDiCaprio.png', 'Im_HughJackman.png', 'Im_RobertPattinson.png', 'Im_ElijahWood.png', 'Im_MattDamon.png', 'Im_BenAffleck.png', 'Im_RobertDowneyJr.png', 'Im_OrlandoBloom.png'],same,1,1.1000237999996898,28,83.33333333333333,
MAEL2812,train,pos,0,pos0_id18_im19.bmp_pos0_id18_im18.bmp,['Im_BradPitt.png', 'Im_RyanReynolds.png', 'Im_LeonardoDiCaprio.png', 'Im_HughJackman.png', 'Im_RobertPattinson.png', 'Im_ElijahWood.png', 'Im_MattDamon.png', 'Im_BenAffleck.png', 'Im_RobertDowneyJr.png', 'Im_OrlandoBloom.png'],same,1,0.4167536000004475,29,83.33333333333333,
MAEL2812,train,pos,fs,posfs_id21_im17.bmp_posfs_id21_im16.bmp,['Im_BradPitt.png', 'Im_RyanReynolds.png', 'Im_LeonardoDiCaprio.png', 'Im_HughJackman.png', 'Im_RobertPattinson.png', 'Im_ElijahWood.png', 'Im_MattDamon.png', 'Im_BenAffleck.png', 'Im_RobertDowneyJr.png', 'Im_OrlandoBloom.png'],same,1,0.4002356000000873,30,83.33333333333333,
MAEL2812,train,pos,0,pos0_id8_im20.bmp_pos0_id8_im13.bmp,['Im_BradPitt.png', 'Im_RyanReynolds.png', 'Im_LeonardoDiCaprio.png', 'Im_HughJackman.png', 'Im_RobertPattinson.png', 'Im_ElijahWood.png', 'Im_MattDamon.png', 'Im_BenAffleck.png', 'Im_RobertDowneyJr.png', 'Im_OrlandoBloom.png'],same,1,0.4166740000000573,31,83.33333333333333,
MAEL2812,train,pos,120,pos120_id13_im15.bmp_pos120_id18_im18.bmp,['Im_BradPitt.png', 'Im_RyanReynolds.png', 'Im_LeonardoDiCaprio.png', 'Im_HughJackman.png', 'Im_RobertPattinson.png', 'Im_ElijahWood.png', 'Im_MattDamon.png', 'Im_BenAffleck.png', 'Im_RobertDowneyJr.png', 'Im_OrlandoBloom.png'],diff,1,0.4082988000009209,32,83.33333333333333,
MAEL2812,train,pos,60,pos60_id18_im19.bmp_pos60_id3_im8.bmp,['Im_BradPitt.png', 'Im_RyanReynolds.png', 'Im_LeonardoDiCaprio.png', 'Im_HughJackman.png', 'Im_RobertPattinson.png', 'Im_ElijahWood.png', 'Im_MattDamon.png', 'Im_BenAffleck.png', 'Im_RobertDowneyJr.png', 'Im_OrlandoBloom.png'],diff,1,0.3997648999993544,33,83.33333333333333,
MAEL2812,train,pos,90,pos90_id21_im22.bmp_pos90_id8_im21.bmp,['Im_BradPitt.png', 'Im_RyanReynolds.png', 'Im_LeonardoDiCaprio.png', 'Im_HughJackman.png', 'Im_RobertPattinson.png', 'Im_ElijahWood.png', 'Im_MattDamon.png', 'Im_BenAffleck.png', 'Im_RobertDowneyJr.png', 'Im_OrlandoBloom.png'],diff,1,0.4167106999993848,34,83.33333333333333,
MAEL2812,train,pos,150,pos150_id19_im27.bmp_pos150_id19_im8.bmp,['Im_BradPitt.png', 'Im_RyanReynolds.png', 'Im_LeonardoDiCaprio.png', 'Im_HughJackman.png', 'Im_RobertPattinson.png', 'Im_ElijahWood.png', 'Im_MattDamon.png', 'Im_BenAffleck.png', 'Im_RobertDowneyJr.png', 'Im_OrlandoBloom.png'],same,1,0.43322790000092937,35,83.33333333333333,
MAEL2812,0,pos,0,pos0_id18_im11.bmp_pos0_id21_im22.bmp,['Im_BradPitt.png', 'Im_RyanReynolds.png', 'Im_LeonardoDiCaprio.png', 'Im_HughJackman.png', 'Im_RobertPattinson.png', 'Im_ElijahWood.png', 'Im_MattDamon.png', 'Im_BenAffleck.png', 'Im_RobertDowneyJr.png', 'Im_OrlandoBloom.png'],diff,1,1.1252636999997776,1,0,
MAEL2812,0,pos,150,pos150_id1_im4.bmp_pos150_id3_im6.bmp,['Im_BradPitt.png', 'Im_RyanReynolds.png', 'Im_LeonardoDiCaprio.png', 'Im_HughJackman.png', 'Im_RobertPattinson.png', 'Im_ElijahWood.png', 'Im_MattDamon.png', 'Im_BenAffleck.png', 'Im_RobertDowneyJr.png', 'Im_OrlandoBloom.png'],diff,1,0.4419864999999845,2,0,
MAEL2812,0,pos,60,pos60_id14_im18.bmp_pos60_id14_im24.bmp,['Im_BradPitt.png', 'Im_RyanReynolds.png', 'Im_LeonardoDiCaprio.png', 'Im_HughJackman.png', 'Im_RobertPattinson.png', 'Im_ElijahWood.png', 'Im_MattDamon.png', 'Im_BenAffleck.png', 'Im_RobertDowneyJr.png', 'Im_OrlandoBloom.png'],same,1,0.4503103999995801,3,0,
MAEL2812,0,pos,fs,posfs_id3_im8.bmp_posfs_id18_im19.bmp,['Im_BradPitt.png', 'Im_RyanReynolds.png', 'Im_LeonardoDiCaprio.png', 'Im_HughJackman.png', 'Im_RobertPattinson.png', 'Im_ElijahWood.png', 'Im_MattDamon.png', 'Im_BenAffleck.png', 'Im_RobertDowneyJr.png', 'Im_OrlandoBloom.png'],diff,1,0.5583819000003132,4,0,
MAEL2812,0,pos,120,pos120_id8_im21.bmp_pos120_id8_im13.bmp,['Im_BradPitt.png', 'Im_RyanReynolds.png', 'Im_LeonardoDiCaprio.png', 'Im_HughJackman.png', 'Im_RobertPattinson.png', 'Im_ElijahWood.png', 'Im_MattDamon.png', 'Im_BenAffleck.png', 'Im_RobertDowneyJr.png', 'Im_OrlandoBloom.png'],same,1,0.4082242000004044,5,0,
MAEL2812,0,pos,fs,posfs_id14_im18.bmp_posfs_id19_im27.bmp,['Im_BradPitt.png', 'Im_RyanReynolds.png', 'Im_LeonardoDiCaprio.png', 'Im_HughJackman.png', 'Im_RobertPattinson.png', 'Im_ElijahWood.png', 'Im_MattDamon.png', 'Im_BenAffleck.png', 'Im_RobertDowneyJr.png', 'Im_OrlandoBloom.png'],diff,1,0.40841830000135815,6,0,
MAEL2812,0,pos,0,pos0_id19_im8.bmp_pos0_id19_im4.bmp,['Im_BradPitt.png', 'Im_RyanReynolds.png', 'Im_LeonardoDiCaprio.png', 'Im_HughJackman.png', 'Im_RobertPattinson.png', 'Im_ElijahWood.png', 'Im_MattDamon.png', 'Im_BenAffleck.png', 'Im_RobertDowneyJr.png', 'Im_OrlandoBloom.png'],diff,0,1.2251766000008502,6,0,
MAEL2812,0,pos,30,pos30_id19_im4.bmp_pos30_id19_im27.bmp,['Im_BradPitt.png', 'Im_RyanReynolds.png', 'Im_LeonardoDiCaprio.png', 'Im_HughJackman.png', 'Im_RobertPattinson.png', 'Im_ElijahWood.png', 'Im_MattDamon.png', 'Im_BenAffleck.png', 'Im_RobertDowneyJr.png', 'Im_OrlandoBloom.png'],same,1,1.0668280999998387,7,0,
MAEL2812,0,pos,30,pos30_id3_im8.bmp_pos30_id3_im6.bmp,['Im_BradPitt.png', 'Im_RyanReynolds.png', 'Im_LeonardoDiCaprio.png', 'Im_HughJackman.png', 'Im_RobertPattinson.png', 'Im_ElijahWood.png', 'Im_MattDamon.png', 'Im_BenAffleck.png', 'Im_RobertDowneyJr.png', 'Im_OrlandoBloom.png'],same,1,0.6917563000006339,8,0,
MAEL2812,0,pos,90,pos90_id8_im13.bmp_pos90_id16_im3.bmp,['Im_BradPitt.png', 'Im_RyanReynolds.png', 'Im_LeonardoDiCaprio.png', 'Im_HughJackman.png', 'Im_RobertPattinson.png', 'Im_ElijahWood.png', 'Im_MattDamon.png', 'Im_BenAffleck.png', 'Im_RobertDowneyJr.png', 'Im_OrlandoBloom.png'],diff,1,0.40825779999977385,9,0,
MAEL2812,0,pos,60,pos60_id8_im20.bmp_pos60_id8_im13.bmp,['Im_BradPitt.png', 'Im_RyanReynolds.png', 'Im_LeonardoDiCaprio.png', 'Im_HughJackman.png', 'Im_RobertPattinson.png', 'Im_ElijahWood.png', 'Im_MattDamon.png', 'Im_BenAffleck.png', 'Im_RobertDowneyJr.png', 'Im_OrlandoBloom.png'],same,1,0.6086825999991561,10,0,
MAEL2812,0,pos,150,pos150_id18_im19.bmp_pos150_id3_im8.bmp,['Im_BradPitt.png', 'Im_RyanReynolds.png', 'Im_LeonardoDiCaprio.png', 'Im_HughJackman.png', 'Im_RobertPattinson.png', 'Im_ElijahWood.png', 'Im_MattDamon.png', 'Im_BenAffleck.png', 'Im_RobertDowneyJr.png', 'Im_OrlandoBloom.png'],diff,1,0.4336511999990762,11,0,
MAEL2812,0,pos,90,pos90_id13_im10.bmp_pos90_id6_im12.bmp,['Im_BradPitt.png', 'Im_RyanReynolds.png', 'Im_LeonardoDiCaprio.png', 'Im_HughJackman.png', 'Im_RobertPattinson.png', 'Im_ElijahWood.png', 'Im_MattDamon.png', 'Im_BenAffleck.png', 'Im_RobertDowneyJr.png', 'Im_OrlandoBloom.png'],diff,1,0.525514100001601,12,0,
MAEL2812,0,pos,120,pos120_id14_im24.bmp_pos120_id13_im29.bmp,['Im_BradPitt.png', 'Im_RyanReynolds.png', 'Im_LeonardoDiCaprio.png', 'Im_HughJackman.png', 'Im_RobertPattinson.png', 'Im_ElijahWood.png', 'Im_MattDamon.png', 'Im_BenAffleck.png', 'Im_RobertDowneyJr.png', 'Im_OrlandoBloom.png'],diff,1,2.3254297000003135,13,0,
MAEL2812,1,inv,120,pos120_id13_im15.bmp_pos120_id13_im29.bmp,['Im_BradPitt.png', 'Im_RyanReynolds.png', 'Im_LeonardoDiCaprio.png', 'Im_HughJackman.png', 'Im_RobertPattinson.png', 'Im_ElijahWood.png', 'Im_MattDamon.png', 'Im_BenAffleck.png', 'Im_RobertDowneyJr.png', 'Im_OrlandoBloom.png'],diff,0,1.7083448999983375,13,0,
MAEL2812,1,inv,30,pos30_id3_im6.bmp_pos30_id3_im8.bmp,['Im_BradPitt.png', 'Im_RyanReynolds.png', 'Im_LeonardoDiCaprio.png', 'Im_HughJackman.png', 'Im_RobertPattinson.png', 'Im_ElijahWood.png', 'Im_MattDamon.png', 'Im_BenAffleck.png', 'Im_RobertDowneyJr.png', 'Im_OrlandoBloom.png'],same,1,0.4333470000001398,14,0,
MAEL2812,1,inv,90,pos90_id3_im8.bmp_pos90_id18_im19.bmp,['Im_BradPitt.png', 'Im_RyanReynolds.png', 'Im_LeonardoDiCaprio.png', 'Im_HughJackman.png', 'Im_RobertPattinson.png', 'Im_ElijahWood.png', 'Im_MattDamon.png', 'Im_BenAffleck.png', 'Im_RobertDowneyJr.png', 'Im_OrlandoBloom.png'],same,0,0.4253136999996059,14,0,
MAEL2812,1,inv,60,pos60_id19_im4.bmp_pos60_id8_im21.bmp,['Im_BradPitt.png', 'Im_RyanReynolds.png', 'Im_LeonardoDiCaprio.png', 'Im_HughJackman.png', 'Im_RobertPattinson.png', 'Im_ElijahWood.png', 'Im_MattDamon.png', 'Im_BenAffleck.png', 'Im_RobertDowneyJr.png', 'Im_OrlandoBloom.png'],same,0,1.3166710000004969,14,0,
MAEL2812,1,inv,150,pos150_id3_im6.bmp_pos150_id8_im13.bmp,['Im_BradPitt.png', 'Im_RyanReynolds.png', 'Im_LeonardoDiCaprio.png', 'Im_HughJackman.png', 'Im_RobertPattinson.png', 'Im_ElijahWood.png', 'Im_MattDamon.png', 'Im_BenAffleck.png', 'Im_RobertDowneyJr.png', 'Im_OrlandoBloom.png'],same,0,0.41660870000123396,14,0,
MAEL2812,1,inv,fs,posfs_id6_im12.bmp_posfs_id13_im10.bmp,['Im_BradPitt.png', 'Im_RyanReynolds.png', 'Im_LeonardoDiCaprio.png', 'Im_HughJackman.png', 'Im_RobertPattinson.png', 'Im_ElijahWood.png', 'Im_MattDamon.png', 'Im_BenAffleck.png', 'Im_RobertDowneyJr.png', 'Im_OrlandoBloom.png'],diff,1,0.8417302000016207,15,0,
MAEL2812,1,inv,0,pos0_id14_im24.bmp_pos0_id21_im16.bmp,['Im_BradPitt.png', 'Im_RyanReynolds.png', 'Im_LeonardoDiCaprio.png', 'Im_HughJackman.png', 'Im_RobertPattinson.png', 'Im_ElijahWood.png', 'Im_MattDamon.png', 'Im_BenAffleck.png', 'Im_RobertDowneyJr.png', 'Im_OrlandoBloom.png'],diff,1,1.383686299999681,16,0,
MAEL2812,1,inv,30,pos30_id1_im21.bmp_pos30_id8_im20.bmp,['Im_BradPitt.png', 'Im_RyanReynolds.png', 'Im_LeonardoDiCaprio.png', 'Im_HughJackman.png', 'Im_RobertPattinson.png', 'Im_ElijahWood.png', 'Im_MattDamon.png', 'Im_BenAffleck.png', 'Im_RobertDowneyJr.png', 'Im_OrlandoBloom.png'],diff,1,0.8171884000003047,17,0,
MAEL2812,1,inv,60,pos60_id18_im19.bmp_pos60_id3_im8.bmp,['Im_BradPitt.png', 'Im_RyanReynolds.png', 'Im_LeonardoDiCaprio.png', 'Im_HughJackman.png', 'Im_RobertPattinson.png', 'Im_ElijahWood.png', 'Im_MattDamon.png', 'Im_BenAffleck.png', 'Im_RobertDowneyJr.png', 'Im_OrlandoBloom.png'],diff,1,0.8415389999991021,18,0,
MAEL2812,1,inv,0,pos0_id19_im4.bmp_pos0_id8_im20.bmp,['Im_BradPitt.png', 'Im_RyanReynolds.png', 'Im_LeonardoDiCaprio.png', 'Im_HughJackman.png', 'Im_RobertPattinson.png', 'Im_ElijahWood.png', 'Im_MattDamon.png', 'Im_BenAffleck.png', 'Im_RobertDowneyJr.png', 'Im_OrlandoBloom.png'],same,0,0.49200419999942824,18,0,
MAEL2812,1,inv,fs,posfs_id8_im21.bmp_posfs_id8_im13.bmp,['Im_BradPitt.png', 'Im_RyanReynolds.png', 'Im_LeonardoDiCaprio.png', 'Im_HughJackman.png', 'Im_RobertPattinson.png', 'Im_ElijahWood.png', 'Im_MattDamon.png', 'Im_BenAffleck.png', 'Im_RobertDowneyJr.png', 'Im_OrlandoBloom.png'],same,1,0.6584146000004694,19,0,
MAEL2812,1,inv,120,pos120_id13_im10.bmp_pos120_id13_im15.bmp,['Im_BradPitt.png', 'Im_RyanReynolds.png', 'Im_LeonardoDiCaprio.png', 'Im_HughJackman.png', 'Im_RobertPattinson.png', 'Im_ElijahWood.png', 'Im_MattDamon.png', 'Im_BenAffleck.png', 'Im_RobertDowneyJr.png', 'Im_OrlandoBloom.png'],diff,0,1.6667030999997223,19,0,
MAEL2812,1,inv,90,pos90_id19_im8.bmp_pos90_id19_im27.bmp,['Im_BradPitt.png', 'Im_RyanReynolds.png', 'Im_LeonardoDiCaprio.png', 'Im_HughJackman.png', 'Im_RobertPattinson.png', 'Im_ElijahWood.png', 'Im_MattDamon.png', 'Im_BenAffleck.png', 'Im_RobertDowneyJr.png', 'Im_OrlandoBloom.png'],same,1,2.441561899999215,20,0,
MAEL2812,1,inv,150,pos150_id1_im4.bmp_pos150_id1_im24.bmp,['Im_BradPitt.png', 'Im_RyanReynolds.png', 'Im_LeonardoDiCaprio.png', 'Im_HughJackman.png', 'Im_RobertPattinson.png', 'Im_ElijahWood.png', 'Im_MattDamon.png', 'Im_BenAffleck.png', 'Im_RobertDowneyJr.png', 'Im_OrlandoBloom.png'],same,1,0.48372930000005,21,0,
MAEL2812,2,neg,90,neg90_id6_im12.bmp_neg90_id13_im10.bmp,['Im_BradPitt.png', 'Im_RyanReynolds.png', 'Im_LeonardoDiCaprio.png', 'Im_HughJackman.png', 'Im_RobertPattinson.png', 'Im_ElijahWood.png', 'Im_MattDamon.png', 'Im_BenAffleck.png', 'Im_RobertDowneyJr.png', 'Im_OrlandoBloom.png'],diff,1,0.49173850000079256,22,0,
MAEL2812,2,neg,150,neg150_id3_im6.bmp_neg150_id3_im17.bmp,['Im_BradPitt.png', 'Im_RyanReynolds.png', 'Im_LeonardoDiCaprio.png', 'Im_HughJackman.png', 'Im_RobertPattinson.png', 'Im_ElijahWood.png', 'Im_MattDamon.png', 'Im_BenAffleck.png', 'Im_RobertDowneyJr.png', 'Im_OrlandoBloom.png'],same,1,0.9249837000006664,23,0,
MAEL2812,2,neg,0,neg0_id14_im24.bmp_neg0_id13_im29.bmp,['Im_BradPitt.png', 'Im_RyanReynolds.png', 'Im_LeonardoDiCaprio.png', 'Im_HughJackman.png', 'Im_RobertPattinson.png', 'Im_ElijahWood.png', 'Im_MattDamon.png', 'Im_BenAffleck.png', 'Im_RobertDowneyJr.png', 'Im_OrlandoBloom.png'],diff,1,1.516569100000197,24,0,
MAEL2812,2,neg,fs,negfs_id6_im12.bmp_negfs_id6_im18.bmp,['Im_BradPitt.png', 'Im_RyanReynolds.png', 'Im_LeonardoDiCaprio.png', 'Im_HughJackman.png', 'Im_RobertPattinson.png', 'Im_ElijahWood.png', 'Im_MattDamon.png', 'Im_BenAffleck.png', 'Im_RobertDowneyJr.png', 'Im_OrlandoBloom.png'],same,1,1.749997800001438,25,0,
MAEL2812,2,neg,150,neg150_id8_im13.bmp_neg150_id8_im21.bmp,['Im_BradPitt.png', 'Im_RyanReynolds.png', 'Im_LeonardoDiCaprio.png', 'Im_HughJackman.png', 'Im_RobertPattinson.png', 'Im_ElijahWood.png', 'Im_MattDamon.png', 'Im_BenAffleck.png', 'Im_RobertDowneyJr.png', 'Im_OrlandoBloom.png'],same,1,0.425027900000714,26,0,
MAEL2812,2,neg,60,neg60_id6_im18.bmp_neg60_id1_im24.bmp,['Im_BradPitt.png', 'Im_RyanReynolds.png', 'Im_LeonardoDiCaprio.png', 'Im_HughJackman.png', 'Im_RobertPattinson.png', 'Im_ElijahWood.png', 'Im_MattDamon.png', 'Im_BenAffleck.png', 'Im_RobertDowneyJr.png', 'Im_OrlandoBloom.png'],diff,1,0.425017100000332,27,0,
MAEL2812,2,neg,120,neg120_id18_im18.bmp_neg120_id18_im11.bmp,['Im_BradPitt.png', 'Im_RyanReynolds.png', 'Im_LeonardoDiCaprio.png', 'Im_HughJackman.png', 'Im_RobertPattinson.png', 'Im_ElijahWood.png', 'Im_MattDamon.png', 'Im_BenAffleck.png', 'Im_RobertDowneyJr.png', 'Im_OrlandoBloom.png'],same,1,0.49991489999956684,28,0,
MAEL2812,2,neg,120,neg120_id1_im21.bmp_neg120_id1_im4.bmp,['Im_BradPitt.png', 'Im_RyanReynolds.png', 'Im_LeonardoDiCaprio.png', 'Im_HughJackman.png', 'Im_RobertPattinson.png', 'Im_ElijahWood.png', 'Im_MattDamon.png', 'Im_BenAffleck.png', 'Im_RobertDowneyJr.png', 'Im_OrlandoBloom.png'],same,1,0.42507579999983136,29,0,
MAEL2812,2,neg,30,neg30_id1_im21.bmp_neg30_id1_im4.bmp,['Im_BradPitt.png', 'Im_RyanReynolds.png', 'Im_LeonardoDiCaprio.png', 'Im_HughJackman.png', 'Im_RobertPattinson.png', 'Im_ElijahWood.png', 'Im_MattDamon.png', 'Im_BenAffleck.png', 'Im_RobertDowneyJr.png', 'Im_OrlandoBloom.png'],same,1,0.4249383999995189,30,0,
MAEL2812,2,neg,0,neg0_id1_im21.bmp_neg0_id1_im4.bmp,['Im_BradPitt.png', 'Im_RyanReynolds.png', 'Im_LeonardoDiCaprio.png', 'Im_HughJackman.png', 'Im_RobertPattinson.png', 'Im_ElijahWood.png', 'Im_MattDamon.png', 'Im_BenAffleck.png', 'Im_RobertDowneyJr.png', 'Im_OrlandoBloom.png'],same,1,0.416811900000539,31,0,
MAEL2812,2,neg,fs,negfs_id6_im18.bmp_negfs_id6_im19.bmp,['Im_BradPitt.png', 'Im_RyanReynolds.png', 'Im_LeonardoDiCaprio.png', 'Im_HughJackman.png', 'Im_RobertPattinson.png', 'Im_ElijahWood.png', 'Im_MattDamon.png', 'Im_BenAffleck.png', 'Im_RobertDowneyJr.png', 'Im_OrlandoBloom.png'],same,1,0.42521920000035607,32,0,
MAEL2812,2,neg,60,neg60_id18_im11.bmp_neg60_id21_im22.bmp,['Im_BradPitt.png', 'Im_RyanReynolds.png', 'Im_LeonardoDiCaprio.png', 'Im_HughJackman.png', 'Im_RobertPattinson.png', 'Im_ElijahWood.png', 'Im_MattDamon.png', 'Im_BenAffleck.png', 'Im_RobertDowneyJr.png', 'Im_OrlandoBloom.png'],diff,1,0.4252478999987943,33,0,
MAEL2812,2,neg,30,neg30_id6_im19.bmp_neg30_id6_im12.bmp,['Im_BradPitt.png', 'Im_RyanReynolds.png', 'Im_LeonardoDiCaprio.png', 'Im_HughJackman.png', 'Im_RobertPattinson.png', 'Im_ElijahWood.png', 'Im_MattDamon.png', 'Im_BenAffleck.png', 'Im_RobertDowneyJr.png', 'Im_OrlandoBloom.png'],same,1,0.42525490000116406,34,0,
MAEL2812,2,neg,90,neg90_id3_im17.bmp_neg90_id6_im12.bmp,['Im_BradPitt.png', 'Im_RyanReynolds.png', 'Im_LeonardoDiCaprio.png', 'Im_HughJackman.png', 'Im_RobertPattinson.png', 'Im_ElijahWood.png', 'Im_MattDamon.png', 'Im_BenAffleck.png', 'Im_RobertDowneyJr.png', 'Im_OrlandoBloom.png'],diff,1,0.43344080000133545,35,0,
MAEL2812,3,neg,150,neg150_id6_im18.bmp_neg150_id1_im24.bmp,['Im_BradPitt.png', 'Im_RyanReynolds.png', 'Im_LeonardoDiCaprio.png', 'Im_HughJackman.png', 'Im_RobertPattinson.png', 'Im_ElijahWood.png', 'Im_MattDamon.png', 'Im_BenAffleck.png', 'Im_RobertDowneyJr.png', 'Im_OrlandoBloom.png'],diff,1,1.3081222999990132,1,83.33333333333333,
MAEL2812,3,neg,60,neg60_id18_im18.bmp_neg60_id18_im19.bmp,['Im_BradPitt.png', 'Im_RyanReynolds.png', 'Im_LeonardoDiCaprio.png', 'Im_HughJackman.png', 'Im_RobertPattinson.png', 'Im_ElijahWood.png', 'Im_MattDamon.png', 'Im_BenAffleck.png', 'Im_RobertDowneyJr.png', 'Im_OrlandoBloom.png'],same,1,1.2999884000000748,2,83.33333333333333,
MAEL2812,3,neg,0,neg0_id19_im4.bmp_neg0_id8_im20.bmp,['Im_BradPitt.png', 'Im_RyanReynolds.png', 'Im_LeonardoDiCaprio.png', 'Im_HughJackman.png', 'Im_RobertPattinson.png', 'Im_ElijahWood.png', 'Im_MattDamon.png', 'Im_BenAffleck.png', 'Im_RobertDowneyJr.png', 'Im_OrlandoBloom.png'],diff,1,0.425323200001003,3,83.33333333333333,
MAEL2812,3,neg,120,neg120_id6_im18.bmp_neg120_id1_im24.bmp,['Im_BradPitt.png', 'Im_RyanReynolds.png', 'Im_LeonardoDiCaprio.png', 'Im_HughJackman.png', 'Im_RobertPattinson.png', 'Im_ElijahWood.png', 'Im_MattDamon.png', 'Im_BenAffleck.png', 'Im_RobertDowneyJr.png', 'Im_OrlandoBloom.png'],diff,1,0.42501310000079684,4,83.33333333333333,
MAEL2812,3,neg,fs,negfs_id16_im19.bmp_negfs_id1_im21.bmp,['Im_BradPitt.png', 'Im_RyanReynolds.png', 'Im_LeonardoDiCaprio.png', 'Im_HughJackman.png', 'Im_RobertPattinson.png', 'Im_ElijahWood.png', 'Im_MattDamon.png', 'Im_BenAffleck.png', 'Im_RobertDowneyJr.png', 'Im_OrlandoBloom.png'],diff,1,0.4167402000002767,5,83.33333333333333,
MAEL2812,3,neg,0,neg0_id19_im8.bmp_neg0_id16_im3.bmp,['Im_BradPitt.png', 'Im_RyanReynolds.png', 'Im_LeonardoDiCaprio.png', 'Im_HughJackman.png', 'Im_RobertPattinson.png', 'Im_ElijahWood.png', 'Im_MattDamon.png', 'Im_BenAffleck.png', 'Im_RobertDowneyJr.png', 'Im_OrlandoBloom.png'],diff,1,0.5502978999993502,6,83.33333333333333,
MAEL2812,3,neg,60,neg60_id8_im21.bmp_neg60_id8_im13.bmp,['Im_BradPitt.png', 'Im_RyanReynolds.png', 'Im_LeonardoDiCaprio.png', 'Im_HughJackman.png', 'Im_RobertPattinson.png', 'Im_ElijahWood.png', 'Im_MattDamon.png', 'Im_BenAffleck.png', 'Im_RobertDowneyJr.png', 'Im_OrlandoBloom.png'],diff,0,0.7586800999997649,6,83.33333333333333,
MAEL2812,3,neg,90,neg90_id18_im18.bmp_neg90_id3_im8.bmp,['Im_BradPitt.png', 'Im_RyanReynolds.png', 'Im_LeonardoDiCaprio.png', 'Im_HughJackman.png', 'Im_RobertPattinson.png', 'Im_ElijahWood.png', 'Im_MattDamon.png', 'Im_BenAffleck.png', 'Im_RobertDowneyJr.png', 'Im_OrlandoBloom.png'],diff,1,0.6836697999988246,7,83.33333333333333,
MAEL2812,3,neg,30,neg30_id14_im24.bmp_neg30_id13_im29.bmp,['Im_BradPitt.png', 'Im_RyanReynolds.png', 'Im_LeonardoDiCaprio.png', 'Im_HughJackman.png', 'Im_RobertPattinson.png', 'Im_ElijahWood.png', 'Im_MattDamon.png', 'Im_BenAffleck.png', 'Im_RobertDowneyJr.png', 'Im_OrlandoBloom.png'],diff,1,0.9585970000007364,8,83.33333333333333,
MAEL2812,3,neg,30,neg30_id6_im12.bmp_neg30_id3_im17.bmp,['Im_BradPitt.png', 'Im_RyanReynolds.png', 'Im_LeonardoDiCaprio.png', 'Im_HughJackman.png', 'Im_RobertPattinson.png', 'Im_ElijahWood.png', 'Im_MattDamon.png', 'Im_BenAffleck.png', 'Im_RobertDowneyJr.png', 'Im_OrlandoBloom.png'],diff,1,0.41675020000002405,9,83.33333333333333,
MAEL2812,3,neg,120,neg120_id18_im19.bmp_neg120_id21_im17.bmp,['Im_BradPitt.png', 'Im_RyanReynolds.png', 'Im_LeonardoDiCaprio.png', 'Im_HughJackman.png', 'Im_RobertPattinson.png', 'Im_ElijahWood.png', 'Im_MattDamon.png', 'Im_BenAffleck.png', 'Im_RobertDowneyJr.png', 'Im_OrlandoBloom.png'],same,0,0.775197400000252,9,83.33333333333333,
MAEL2812,3,neg,fs,negfs_id8_im20.bmp_negfs_id19_im4.bmp,['Im_BradPitt.png', 'Im_RyanReynolds.png', 'Im_LeonardoDiCaprio.png', 'Im_HughJackman.png', 'Im_RobertPattinson.png', 'Im_ElijahWood.png', 'Im_MattDamon.png', 'Im_BenAffleck.png', 'Im_RobertDowneyJr.png', 'Im_OrlandoBloom.png'],diff,1,2.8917904000009003,10,83.33333333333333,
MAEL2812,3,neg,150,neg150_id1_im24.bmp_neg150_id6_im19.bmp,['Im_BradPitt.png', 'Im_RyanReynolds.png', 'Im_LeonardoDiCaprio.png', 'Im_HughJackman.png', 'Im_RobertPattinson.png', 'Im_ElijahWood.png', 'Im_MattDamon.png', 'Im_BenAffleck.png', 'Im_RobertDowneyJr.png', 'Im_OrlandoBloom.png'],diff,1,0.8250072999999247,11,83.33333333333333,
MAEL2812,3,neg,90,neg90_id21_im22.bmp_neg90_id21_im16.bmp,['Im_BradPitt.png', 'Im_RyanReynolds.png', 'Im_LeonardoDiCaprio.png', 'Im_HughJackman.png', 'Im_RobertPattinson.png', 'Im_ElijahWood.png', 'Im_MattDamon.png', 'Im_BenAffleck.png', 'Im_RobertDowneyJr.png', 'Im_OrlandoBloom.png'],same,1,0.4834219000003941,12,83.33333333333333,
MAEL2812,4,pos,60,pos60_id1_im24.bmp_pos60_id6_im18.bmp,['Im_BradPitt.png', 'Im_RyanReynolds.png', 'Im_LeonardoDiCaprio.png', 'Im_HughJackman.png', 'Im_RobertPattinson.png', 'Im_ElijahWood.png', 'Im_MattDamon.png', 'Im_BenAffleck.png', 'Im_RobertDowneyJr.png', 'Im_OrlandoBloom.png'],diff,1,0.41693190000114555,13,83.33333333333333,
MAEL2812,4,pos,120,pos120_id6_im12.bmp_pos120_id3_im17.bmp,['Im_BradPitt.png', 'Im_RyanReynolds.png', 'Im_LeonardoDiCaprio.png', 'Im_HughJackman.png', 'Im_RobertPattinson.png', 'Im_ElijahWood.png', 'Im_MattDamon.png', 'Im_BenAffleck.png', 'Im_RobertDowneyJr.png', 'Im_OrlandoBloom.png'],diff,1,0.43340709999938554,14,83.33333333333333,
MAEL2812,4,pos,90,pos90_id19_im4.bmp_pos90_id19_im27.bmp,['Im_BradPitt.png', 'Im_RyanReynolds.png', 'Im_LeonardoDiCaprio.png', 'Im_HughJackman.png', 'Im_RobertPattinson.png', 'Im_ElijahWood.png', 'Im_MattDamon.png', 'Im_BenAffleck.png', 'Im_RobertDowneyJr.png', 'Im_OrlandoBloom.png'],same,1,0.42510480000055395,15,83.33333333333333,
MAEL2812,4,pos,fs,posfs_id16_im19.bmp_posfs_id6_im19.bmp,['Im_BradPitt.png', 'Im_RyanReynolds.png', 'Im_LeonardoDiCaprio.png', 'Im_HughJackman.png', 'Im_RobertPattinson.png', 'Im_ElijahWood.png', 'Im_MattDamon.png', 'Im_BenAffleck.png', 'Im_RobertDowneyJr.png', 'Im_OrlandoBloom.png'],diff,1,0.41674590000002354,16,83.33333333333333,
MAEL2812,4,pos,60,pos60_id16_im19.bmp_pos60_id16_im2.bmp,['Im_BradPitt.png', 'Im_RyanReynolds.png', 'Im_LeonardoDiCaprio.png', 'Im_HughJackman.png', 'Im_RobertPattinson.png', 'Im_ElijahWood.png', 'Im_MattDamon.png', 'Im_BenAffleck.png', 'Im_RobertDowneyJr.png', 'Im_OrlandoBloom.png'],same,1,0.41674110000167275,17,83.33333333333333,
MAEL2812,4,pos,fs,posfs_id18_im18.bmp_posfs_id13_im15.bmp,['Im_BradPitt.png', 'Im_RyanReynolds.png', 'Im_LeonardoDiCaprio.png', 'Im_HughJackman.png', 'Im_RobertPattinson.png', 'Im_ElijahWood.png', 'Im_MattDamon.png', 'Im_BenAffleck.png', 'Im_RobertDowneyJr.png', 'Im_OrlandoBloom.png'],diff,1,0.5499086999989231,18,83.33333333333333,
MAEL2812,4,pos,30,pos30_id19_im4.bmp_pos30_id19_im8.bmp,['Im_BradPitt.png', 'Im_RyanReynolds.png', 'Im_LeonardoDiCaprio.png', 'Im_HughJackman.png', 'Im_RobertPattinson.png', 'Im_ElijahWood.png', 'Im_MattDamon.png', 'Im_BenAffleck.png', 'Im_RobertDowneyJr.png', 'Im_OrlandoBloom.png'],same,1,0.5167428000004293,19,83.33333333333333,
MAEL2812,4,pos,150,pos150_id19_im27.bmp_pos150_id14_im18.bmp,['Im_BradPitt.png', 'Im_RyanReynolds.png', 'Im_LeonardoDiCaprio.png', 'Im_HughJackman.png', 'Im_RobertPattinson.png', 'Im_ElijahWood.png', 'Im_MattDamon.png', 'Im_BenAffleck.png', 'Im_RobertDowneyJr.png', 'Im_OrlandoBloom.png'],diff,1,0.9170221000003949,20,83.33333333333333,
MAEL2812,4,pos,150,pos150_id21_im17.bmp_pos150_id21_im16.bmp,['Im_BradPitt.png', 'Im_RyanReynolds.png', 'Im_LeonardoDiCaprio.png', 'Im_HughJackman.png', 'Im_RobertPattinson.png', 'Im_ElijahWood.png', 'Im_MattDamon.png', 'Im_BenAffleck.png', 'Im_RobertDowneyJr.png', 'Im_OrlandoBloom.png'],same,1,0.650085899998885,21,83.33333333333333,
MAEL2812,4,pos,120,pos120_id13_im29.bmp_pos120_id13_im15.bmp,['Im_BradPitt.png', 'Im_RyanReynolds.png', 'Im_LeonardoDiCaprio.png', 'Im_HughJackman.png', 'Im_RobertPattinson.png', 'Im_ElijahWood.png', 'Im_MattDamon.png', 'Im_BenAffleck.png', 'Im_RobertDowneyJr.png', 'Im_OrlandoBloom.png'],same,1,0.4167201999989629,22,83.33333333333333,
MAEL2812,4,pos,0,pos0_id6_im19.bmp_pos0_id1_im24.bmp,['Im_BradPitt.png', 'Im_RyanReynolds.png', 'Im_LeonardoDiCaprio.png', 'Im_HughJackman.png', 'Im_RobertPattinson.png', 'Im_ElijahWood.png', 'Im_MattDamon.png', 'Im_BenAffleck.png', 'Im_RobertDowneyJr.png', 'Im_OrlandoBloom.png'],diff,1,0.42510960000072373,23,83.33333333333333,
MAEL2812,4,pos,90,pos90_id13_im15.bmp_pos90_id13_im10.bmp,['Im_BradPitt.png', 'Im_RyanReynolds.png', 'Im_LeonardoDiCaprio.png', 'Im_HughJackman.png', 'Im_RobertPattinson.png', 'Im_ElijahWood.png', 'Im_MattDamon.png', 'Im_BenAffleck.png', 'Im_RobertDowneyJr.png', 'Im_OrlandoBloom.png'],same,1,0.4334345999996003,24,83.33333333333333,
MAEL2812,4,pos,30,pos30_id16_im2.bmp_pos30_id16_im19.bmp,['Im_BradPitt.png', 'Im_RyanReynolds.png', 'Im_LeonardoDiCaprio.png', 'Im_HughJackman.png', 'Im_RobertPattinson.png', 'Im_ElijahWood.png', 'Im_MattDamon.png', 'Im_BenAffleck.png', 'Im_RobertDowneyJr.png', 'Im_OrlandoBloom.png'],same,1,0.42511630000080913,25,83.33333333333333,
MAEL2812,4,pos,0,pos0_id16_im2.bmp_pos0_id6_im18.bmp,['Im_BradPitt.png', 'Im_RyanReynolds.png', 'Im_LeonardoDiCaprio.png', 'Im_HughJackman.png', 'Im_RobertPattinson.png', 'Im_ElijahWood.png', 'Im_MattDamon.png', 'Im_BenAffleck.png', 'Im_RobertDowneyJr.png', 'Im_OrlandoBloom.png'],diff,1,0.4334073999998509,26,83.33333333333333,
MAEL2812,5,inv,30,pos30_id6_im19.bmp_pos30_id6_im18.bmp,['Im_BradPitt.png', 'Im_RyanReynolds.png', 'Im_LeonardoDiCaprio.png', 'Im_HughJackman.png', 'Im_RobertPattinson.png', 'Im_ElijahWood.png', 'Im_MattDamon.png', 'Im_BenAffleck.png', 'Im_RobertDowneyJr.png', 'Im_OrlandoBloom.png'],same,1,0.41686900000058813,27,83.33333333333333,
MAEL2812,5,inv,30,pos30_id16_im19.bmp_pos30_id1_im21.bmp,['Im_BradPitt.png', 'Im_RyanReynolds.png', 'Im_LeonardoDiCaprio.png', 'Im_HughJackman.png', 'Im_RobertPattinson.png', 'Im_ElijahWood.png', 'Im_MattDamon.png', 'Im_BenAffleck.png', 'Im_RobertDowneyJr.png', 'Im_OrlandoBloom.png'],same,0,1.4333308000004763,27,83.33333333333333,
MAEL2812,5,inv,fs,posfs_id1_im4.bmp_posfs_id3_im6.bmp,['Im_BradPitt.png', 'Im_RyanReynolds.png', 'Im_LeonardoDiCaprio.png', 'Im_HughJackman.png', 'Im_RobertPattinson.png', 'Im_ElijahWood.png', 'Im_MattDamon.png', 'Im_BenAffleck.png', 'Im_RobertDowneyJr.png', 'Im_OrlandoBloom.png'],diff,1,0.6750996999999188,28,83.33333333333333,
MAEL2812,5,inv,60,pos60_id21_im17.bmp_pos60_id21_im22.bmp,['Im_BradPitt.png', 'Im_RyanReynolds.png', 'Im_LeonardoDiCaprio.png', 'Im_HughJackman.png', 'Im_RobertPattinson.png', 'Im_ElijahWood.png', 'Im_MattDamon.png', 'Im_BenAffleck.png', 'Im_RobertDowneyJr.png', 'Im_OrlandoBloom.png'],same,1,0.42504080000071554,29,83.33333333333333,
MAEL2812,5,inv,150,pos150_id6_im19.bmp_pos150_id6_im18.bmp,['Im_BradPitt.png', 'Im_RyanReynolds.png', 'Im_LeonardoDiCaprio.png', 'Im_HughJackman.png', 'Im_RobertPattinson.png', 'Im_ElijahWood.png', 'Im_MattDamon.png', 'Im_BenAffleck.png', 'Im_RobertDowneyJr.png', 'Im_OrlandoBloom.png'],same,1,0.4250775000000431,30,83.33333333333333,
MAEL2812,5,inv,0,pos0_id18_im11.bmp_pos0_id21_im22.bmp,['Im_BradPitt.png', 'Im_RyanReynolds.png', 'Im_LeonardoDiCaprio.png', 'Im_HughJackman.png', 'Im_RobertPattinson.png', 'Im_ElijahWood.png', 'Im_MattDamon.png', 'Im_BenAffleck.png', 'Im_RobertDowneyJr.png', 'Im_OrlandoBloom.png'],diff,1,0.5919516000012663,31,83.33333333333333,
MAEL2812,5,inv,fs,posfs_id3_im17.bmp_posfs_id6_im12.bmp,['Im_BradPitt.png', 'Im_RyanReynolds.png', 'Im_LeonardoDiCaprio.png', 'Im_HughJackman.png', 'Im_RobertPattinson.png', 'Im_ElijahWood.png', 'Im_MattDamon.png', 'Im_BenAffleck.png', 'Im_RobertDowneyJr.png', 'Im_OrlandoBloom.png'],diff,1,0.4250747999994928,32,83.33333333333333,
MAEL2812,5,inv,150,pos150_id3_im8.bmp_pos150_id18_im19.bmp,['Im_BradPitt.png', 'Im_RyanReynolds.png', 'Im_LeonardoDiCaprio.png', 'Im_HughJackman.png', 'Im_RobertPattinson.png', 'Im_ElijahWood.png', 'Im_MattDamon.png', 'Im_BenAffleck.png', 'Im_RobertDowneyJr.png', 'Im_OrlandoBloom.png'],same,0,0.9504477999998926,32,83.33333333333333,
MAEL2812,5,inv,120,pos120_id19_im8.bmp_pos120_id19_im4.bmp,['Im_BradPitt.png', 'Im_RyanReynolds.png', 'Im_LeonardoDiCaprio.png', 'Im_HughJackman.png', 'Im_RobertPattinson.png', 'Im_ElijahWood.png', 'Im_MattDamon.png', 'Im_BenAffleck.png', 'Im_RobertDowneyJr.png', 'Im_OrlandoBloom.png'],diff,0,1.1166307000003144,32,83.33333333333333,
MAEL2812,5,inv,0,pos0_id6_im12.bmp_pos0_id6_im18.bmp,['Im_BradPitt.png', 'Im_RyanReynolds.png', 'Im_LeonardoDiCaprio.png', 'Im_HughJackman.png', 'Im_RobertPattinson.png', 'Im_ElijahWood.png', 'Im_MattDamon.png', 'Im_BenAffleck.png', 'Im_RobertDowneyJr.png', 'Im_OrlandoBloom.png'],diff,0,0.5669392999989213,32,83.33333333333333,
MAEL2812,5,inv,90,pos90_id6_im19.bmp_pos90_id1_im24.bmp,['Im_BradPitt.png', 'Im_RyanReynolds.png', 'Im_LeonardoDiCaprio.png', 'Im_HughJackman.png', 'Im_RobertPattinson.png', 'Im_ElijahWood.png', 'Im_MattDamon.png', 'Im_BenAffleck.png', 'Im_RobertDowneyJr.png', 'Im_OrlandoBloom.png'],diff,1,1.0171320999997988,33,83.33333333333333,
MAEL2812,5,inv,90,pos90_id14_im18.bmp_pos90_id14_im16.bmp,['Im_BradPitt.png', 'Im_RyanReynolds.png', 'Im_LeonardoDiCaprio.png', 'Im_HughJackman.png', 'Im_RobertPattinson.png', 'Im_ElijahWood.png', 'Im_MattDamon.png', 'Im_BenAffleck.png', 'Im_RobertDowneyJr.png', 'Im_OrlandoBloom.png'],same,1,0.5587266999991698,34,83.33333333333333,
MAEL2812,5,inv,120,pos120_id14_im24.bmp_pos120_id13_im29.bmp,['Im_BradPitt.png', 'Im_RyanReynolds.png', 'Im_LeonardoDiCaprio.png', 'Im_HughJackman.png', 'Im_RobertPattinson.png', 'Im_ElijahWood.png', 'Im_MattDamon.png', 'Im_BenAffleck.png', 'Im_RobertDowneyJr.png', 'Im_OrlandoBloom.png'],diff,1,1.775003500000821,35,83.33333333333333,
MAEL2812,5,inv,60,pos60_id18_im19.bmp_pos60_id18_im11.bmp,['Im_BradPitt.png', 'Im_RyanReynolds.png', 'Im_LeonardoDiCaprio.png', 'Im_HughJackman.png', 'Im_RobertPattinson.png', 'Im_ElijahWood.png', 'Im_MattDamon.png', 'Im_BenAffleck.png', 'Im_RobertDowneyJr.png', 'Im_OrlandoBloom.png'],same,1,2.041997399999673,36,83.33333333333333,
MAEL2812,6,pos,120,pos120_id16_im19.bmp_pos120_id1_im21.bmp,['Im_BradPitt.png', 'Im_RyanReynolds.png', 'Im_LeonardoDiCaprio.png', 'Im_HughJackman.png', 'Im_RobertPattinson.png', 'Im_ElijahWood.png', 'Im_MattDamon.png', 'Im_BenAffleck.png', 'Im_RobertDowneyJr.png', 'Im_OrlandoBloom.png'],diff,1,0.6086155000011786,1,85.71428571428571,
MAEL2812,6,pos,fs,posfs_id14_im16.bmp_posfs_id14_im24.bmp,['Im_BradPitt.png', 'Im_RyanReynolds.png', 'Im_LeonardoDiCaprio.png', 'Im_HughJackman.png', 'Im_RobertPattinson.png', 'Im_ElijahWood.png', 'Im_MattDamon.png', 'Im_BenAffleck.png', 'Im_RobertDowneyJr.png', 'Im_OrlandoBloom.png'],same,1,0.41672920000019076,2,85.71428571428571,
MAEL2812,6,pos,fs,posfs_id6_im12.bmp_posfs_id13_im10.bmp,['Im_BradPitt.png', 'Im_RyanReynolds.png', 'Im_LeonardoDiCaprio.png', 'Im_HughJackman.png', 'Im_RobertPattinson.png', 'Im_ElijahWood.png', 'Im_MattDamon.png', 'Im_BenAffleck.png', 'Im_RobertDowneyJr.png', 'Im_OrlandoBloom.png'],diff,1,0.42509900000004563,3,85.71428571428571,
MAEL2812,6,pos,120,pos120_id1_im4.bmp_pos120_id1_im21.bmp,['Im_BradPitt.png', 'Im_RyanReynolds.png', 'Im_LeonardoDiCaprio.png', 'Im_HughJackman.png', 'Im_RobertPattinson.png', 'Im_ElijahWood.png', 'Im_MattDamon.png', 'Im_BenAffleck.png', 'Im_RobertDowneyJr.png', 'Im_OrlandoBloom.png'],same,1,0.408547400000316,4,85.71428571428571,
MAEL2812,6,pos,60,pos60_id13_im10.bmp_pos60_id21_im16.bmp,['Im_BradPitt.png', 'Im_RyanReynolds.png', 'Im_LeonardoDiCaprio.png', 'Im_HughJackman.png', 'Im_RobertPattinson.png', 'Im_ElijahWood.png', 'Im_MattDamon.png', 'Im_BenAffleck.png', 'Im_RobertDowneyJr.png', 'Im_OrlandoBloom.png'],diff,1,0.41681880000032834,5,85.71428571428571,
MAEL2812,6,pos,150,pos150_id19_im27.bmp_pos150_id3_im17.bmp,['Im_BradPitt.png', 'Im_RyanReynolds.png', 'Im_LeonardoDiCaprio.png', 'Im_HughJackman.png', 'Im_RobertPattinson.png', 'Im_ElijahWood.png', 'Im_MattDamon.png', 'Im_BenAffleck.png', 'Im_RobertDowneyJr.png', 'Im_OrlandoBloom.png'],diff,1,0.40835619999961636,6,85.71428571428571,
MAEL2812,6,pos,90,pos90_id6_im12.bmp_pos90_id6_im18.bmp,['Im_BradPitt.png', 'Im_RyanReynolds.png', 'Im_LeonardoDiCaprio.png', 'Im_HughJackman.png', 'Im_RobertPattinson.png', 'Im_ElijahWood.png', 'Im_MattDamon.png', 'Im_BenAffleck.png', 'Im_RobertDowneyJr.png', 'Im_OrlandoBloom.png'],same,1,0.41670370000065304,7,85.71428571428571,
MAEL2812,6,pos,30,pos30_id1_im4.bmp_pos30_id13_im29.bmp,['Im_BradPitt.png', 'Im_RyanReynolds.png', 'Im_LeonardoDiCaprio.png', 'Im_HughJackman.png', 'Im_RobertPattinson.png', 'Im_ElijahWood.png', 'Im_MattDamon.png', 'Im_BenAffleck.png', 'Im_RobertDowneyJr.png', 'Im_OrlandoBloom.png'],diff,1,0.408381900000677,8,85.71428571428571,
MAEL2812,6,pos,90,pos90_id21_im16.bmp_pos90_id13_im10.bmp,['Im_BradPitt.png', 'Im_RyanReynolds.png', 'Im_LeonardoDiCaprio.png', 'Im_HughJackman.png', 'Im_RobertPattinson.png', 'Im_ElijahWood.png', 'Im_MattDamon.png', 'Im_BenAffleck.png', 'Im_RobertDowneyJr.png', 'Im_OrlandoBloom.png'],diff,1,0.4166804999986198,9,85.71428571428571,
MAEL2812,6,pos,60,pos60_id21_im22.bmp_pos60_id21_im16.bmp,['Im_BradPitt.png', 'Im_RyanReynolds.png', 'Im_LeonardoDiCaprio.png', 'Im_HughJackman.png', 'Im_RobertPattinson.png', 'Im_ElijahWood.png', 'Im_MattDamon.png', 'Im_BenAffleck.png', 'Im_RobertDowneyJr.png', 'Im_OrlandoBloom.png'],same,1,0.41677660000095784,10,85.71428571428571,
MAEL2812,6,pos,150,pos150_id16_im2.bmp_pos150_id16_im19.bmp,['Im_BradPitt.png', 'Im_RyanReynolds.png', 'Im_LeonardoDiCaprio.png', 'Im_HughJackman.png', 'Im_RobertPattinson.png', 'Im_ElijahWood.png', 'Im_MattDamon.png', 'Im_BenAffleck.png', 'Im_RobertDowneyJr.png', 'Im_OrlandoBloom.png'],same,1,0.49186959999860846,11,85.71428571428571,
MAEL2812,6,pos,30,pos30_id18_im11.bmp_pos30_id18_im19.bmp,['Im_BradPitt.png', 'Im_RyanReynolds.png', 'Im_LeonardoDiCaprio.png', 'Im_HughJackman.png', 'Im_RobertPattinson.png', 'Im_ElijahWood.png', 'Im_MattDamon.png', 'Im_BenAffleck.png', 'Im_RobertDowneyJr.png', 'Im_OrlandoBloom.png'],same,1,0.42508119999911287,12,85.71428571428571,
MAEL2812,6,pos,0,pos0_id3_im6.bmp_pos0_id1_im4.bmp,['Im_BradPitt.png', 'Im_RyanReynolds.png', 'Im_LeonardoDiCaprio.png', 'Im_HughJackman.png', 'Im_RobertPattinson.png', 'Im_ElijahWood.png', 'Im_MattDamon.png', 'Im_BenAffleck.png', 'Im_RobertDowneyJr.png', 'Im_OrlandoBloom.png'],diff,1,0.4417255999996996,13,85.71428571428571,
MAEL2812,6,pos,0,pos0_id18_im19.bmp_pos0_id3_im8.bmp,['Im_BradPitt.png', 'Im_RyanReynolds.png', 'Im_LeonardoDiCaprio.png', 'Im_HughJackman.png', 'Im_RobertPattinson.png', 'Im_ElijahWood.png', 'Im_MattDamon.png', 'Im_BenAffleck.png', 'Im_RobertDowneyJr.png', 'Im_OrlandoBloom.png'],diff,1,0.5417768000006618,14,85.71428571428571,
MAEL2812,7,neg,60,neg60_id8_im20.bmp_neg60_id8_im13.bmp,['Im_BradPitt.png', 'Im_RyanReynolds.png', 'Im_LeonardoDiCaprio.png', 'Im_HughJackman.png', 'Im_RobertPattinson.png', 'Im_ElijahWood.png', 'Im_MattDamon.png', 'Im_BenAffleck.png', 'Im_RobertDowneyJr.png', 'Im_OrlandoBloom.png'],diff,0,1.033685600001263,14,85.71428571428571,
MAEL2812,7,neg,0,neg0_id21_im16.bmp_neg0_id13_im10.bmp,['Im_BradPitt.png', 'Im_RyanReynolds.png', 'Im_LeonardoDiCaprio.png', 'Im_HughJackman.png', 'Im_RobertPattinson.png', 'Im_ElijahWood.png', 'Im_MattDamon.png', 'Im_BenAffleck.png', 'Im_RobertDowneyJr.png', 'Im_OrlandoBloom.png'],diff,1,0.4418836000004376,15,85.71428571428571,
MAEL2812,7,neg,120,neg120_id3_im8.bmp_neg120_id18_im19.bmp,['Im_BradPitt.png', 'Im_RyanReynolds.png', 'Im_LeonardoDiCaprio.png', 'Im_HughJackman.png', 'Im_RobertPattinson.png', 'Im_ElijahWood.png', 'Im_MattDamon.png', 'Im_BenAffleck.png', 'Im_RobertDowneyJr.png', 'Im_OrlandoBloom.png'],diff,1,0.5917460000000574,16,85.71428571428571,
MAEL2812,7,neg,30,neg30_id21_im17.bmp_neg30_id18_im19.bmp,['Im_BradPitt.png', 'Im_RyanReynolds.png', 'Im_LeonardoDiCaprio.png', 'Im_HughJackman.png', 'Im_RobertPattinson.png', 'Im_ElijahWood.png', 'Im_MattDamon.png', 'Im_BenAffleck.png', 'Im_RobertDowneyJr.png', 'Im_OrlandoBloom.png'],diff,1,0.44187930000043707,17,85.71428571428571,
MAEL2812,7,neg,150,neg150_id1_im4.bmp_neg150_id3_im6.bmp,['Im_BradPitt.png', 'Im_RyanReynolds.png', 'Im_LeonardoDiCaprio.png', 'Im_HughJackman.png', 'Im_RobertPattinson.png', 'Im_ElijahWood.png', 'Im_MattDamon.png', 'Im_BenAffleck.png', 'Im_RobertDowneyJr.png', 'Im_OrlandoBloom.png'],diff,1,0.43341870000040217,18,85.71428571428571,
MAEL2812,7,neg,fs,negfs_id1_im4.bmp_negfs_id13_im29.bmp,['Im_BradPitt.png', 'Im_RyanReynolds.png', 'Im_LeonardoDiCaprio.png', 'Im_HughJackman.png', 'Im_RobertPattinson.png', 'Im_ElijahWood.png', 'Im_MattDamon.png', 'Im_BenAffleck.png', 'Im_RobertDowneyJr.png', 'Im_OrlandoBloom.png'],diff,1,0.4333679999999731,19,85.71428571428571,
MAEL2812,7,neg,120,neg120_id1_im24.bmp_neg120_id1_im4.bmp,['Im_BradPitt.png', 'Im_RyanReynolds.png', 'Im_LeonardoDiCaprio.png', 'Im_HughJackman.png', 'Im_RobertPattinson.png', 'Im_ElijahWood.png', 'Im_MattDamon.png', 'Im_BenAffleck.png', 'Im_RobertDowneyJr.png', 'Im_OrlandoBloom.png'],same,1,0.8170422999992297,20,85.71428571428571,
MAEL2812,7,neg,90,neg90_id13_im15.bmp_neg90_id18_im18.bmp,['Im_BradPitt.png', 'Im_RyanReynolds.png', 'Im_LeonardoDiCaprio.png', 'Im_HughJackman.png', 'Im_RobertPattinson.png', 'Im_ElijahWood.png', 'Im_MattDamon.png', 'Im_BenAffleck.png', 'Im_RobertDowneyJr.png', 'Im_OrlandoBloom.png'],diff,1,0.40842280000106257,21,85.71428571428571,
MAEL2812,7,neg,150,neg150_id1_im4.bmp_neg150_id1_im24.bmp,['Im_BradPitt.png', 'Im_RyanReynolds.png', 'Im_LeonardoDiCaprio.png', 'Im_HughJackman.png', 'Im_RobertPattinson.png', 'Im_ElijahWood.png', 'Im_MattDamon.png', 'Im_BenAffleck.png', 'Im_RobertDowneyJr.png', 'Im_OrlandoBloom.png'],same,1,0.4251041000006808,22,85.71428571428571,
MAEL2812,7,neg,fs,negfs_id19_im27.bmp_negfs_id3_im17.bmp,['Im_BradPitt.png', 'Im_RyanReynolds.png', 'Im_LeonardoDiCaprio.png', 'Im_HughJackman.png', 'Im_RobertPattinson.png', 'Im_ElijahWood.png', 'Im_MattDamon.png', 'Im_BenAffleck.png', 'Im_RobertDowneyJr.png', 'Im_OrlandoBloom.png'],diff,1,0.6083109999999579,23,85.71428571428571,
MAEL2812,7,neg,30,neg30_id1_im4.bmp_neg30_id1_im24.bmp,['Im_BradPitt.png', 'Im_RyanReynolds.png', 'Im_LeonardoDiCaprio.png', 'Im_HughJackman.png', 'Im_RobertPattinson.png', 'Im_ElijahWood.png', 'Im_MattDamon.png', 'Im_BenAffleck.png', 'Im_RobertDowneyJr.png', 'Im_OrlandoBloom.png'],same,1,0.41659160000017437,24,85.71428571428571,
MAEL2812,7,neg,60,neg60_id6_im12.bmp_neg60_id6_im19.bmp,['Im_BradPitt.png', 'Im_RyanReynolds.png', 'Im_LeonardoDiCaprio.png', 'Im_HughJackman.png', 'Im_RobertPattinson.png', 'Im_ElijahWood.png', 'Im_MattDamon.png', 'Im_BenAffleck.png', 'Im_RobertDowneyJr.png', 'Im_OrlandoBloom.png'],diff,0,0.42500980000113486,24,85.71428571428571,
MAEL2812,7,neg,0,neg0_id13_im29.bmp_neg0_id13_im15.bmp,['Im_BradPitt.png', 'Im_RyanReynolds.png', 'Im_LeonardoDiCaprio.png', 'Im_HughJackman.png', 'Im_RobertPattinson.png', 'Im_ElijahWood.png', 'Im_MattDamon.png', 'Im_BenAffleck.png', 'Im_RobertDowneyJr.png', 'Im_OrlandoBloom.png'],diff,0,0.4250685999995767,24,85.71428571428571,
MAEL2812,7,neg,90,neg90_id13_im15.bmp_neg90_id13_im29.bmp,['Im_BradPitt.png', 'Im_RyanReynolds.png', 'Im_LeonardoDiCaprio.png', 'Im_HughJackman.png', 'Im_RobertPattinson.png', 'Im_ElijahWood.png', 'Im_MattDamon.png', 'Im_BenAffleck.png', 'Im_RobertDowneyJr.png', 'Im_OrlandoBloom.png'],same,1,0.4166369000013219,25,85.71428571428571,
MAEL2812,8,inv,90,pos90_id6_im12.bmp_pos90_id6_im18.bmp,['Im_BradPitt.png', 'Im_RyanReynolds.png', 'Im_LeonardoDiCaprio.png', 'Im_HughJackman.png', 'Im_RobertPattinson.png', 'Im_ElijahWood.png', 'Im_MattDamon.png', 'Im_BenAffleck.png', 'Im_RobertDowneyJr.png', 'Im_OrlandoBloom.png'],same,1,1.083442199998899,26,85.71428571428571,
MAEL2812,8,inv,150,pos150_id19_im8.bmp_pos150_id16_im3.bmp,['Im_BradPitt.png', 'Im_RyanReynolds.png', 'Im_LeonardoDiCaprio.png', 'Im_HughJackman.png', 'Im_RobertPattinson.png', 'Im_ElijahWood.png', 'Im_MattDamon.png', 'Im_BenAffleck.png', 'Im_RobertDowneyJr.png', 'Im_OrlandoBloom.png'],same,0,0.7836401999993541,26,85.71428571428571,
MAEL2812,8,inv,30,pos30_id6_im18.bmp_pos30_id1_im24.bmp,['Im_BradPitt.png', 'Im_RyanReynolds.png', 'Im_LeonardoDiCaprio.png', 'Im_HughJackman.png', 'Im_RobertPattinson.png', 'Im_ElijahWood.png', 'Im_MattDamon.png', 'Im_BenAffleck.png', 'Im_RobertDowneyJr.png', 'Im_OrlandoBloom.png'],same,0,0.4250571000011405,26,85.71428571428571,
MAEL2812,8,inv,120,pos120_id16_im3.bmp_pos120_id16_im2.bmp,['Im_BradPitt.png', 'Im_RyanReynolds.png', 'Im_LeonardoDiCaprio.png', 'Im_HughJackman.png', 'Im_RobertPattinson.png', 'Im_ElijahWood.png', 'Im_MattDamon.png', 'Im_BenAffleck.png', 'Im_RobertDowneyJr.png', 'Im_OrlandoBloom.png'],diff,0,0.758360800000446,26,85.71428571428571,
MAEL2812,8,inv,30,pos30_id19_im4.bmp_pos30_id8_im21.bmp,['Im_BradPitt.png', 'Im_RyanReynolds.png', 'Im_LeonardoDiCaprio.png', 'Im_HughJackman.png', 'Im_RobertPattinson.png', 'Im_ElijahWood.png', 'Im_MattDamon.png', 'Im_BenAffleck.png', 'Im_RobertDowneyJr.png', 'Im_OrlandoBloom.png'],same,0,0.766927200000282,26,85.71428571428571,
MAEL2812,8,inv,120,pos120_id19_im27.bmp_pos120_id14_im18.bmp,['Im_BradPitt.png', 'Im_RyanReynolds.png', 'Im_LeonardoDiCaprio.png', 'Im_HughJackman.png', 'Im_RobertPattinson.png', 'Im_ElijahWood.png', 'Im_MattDamon.png', 'Im_BenAffleck.png', 'Im_RobertDowneyJr.png', 'Im_OrlandoBloom.png'],diff,1,0.6670396999998047,27,85.71428571428571,
MAEL2812,8,inv,fs,posfs_id8_im20.bmp_posfs_id19_im4.bmp,['Im_BradPitt.png', 'Im_RyanReynolds.png', 'Im_LeonardoDiCaprio.png', 'Im_HughJackman.png', 'Im_RobertPattinson.png', 'Im_ElijahWood.png', 'Im_MattDamon.png', 'Im_BenAffleck.png', 'Im_RobertDowneyJr.png', 'Im_OrlandoBloom.png'],same,0,1.0167399999991176,27,85.71428571428571,
MAEL2812,8,inv,90,pos90_id16_im3.bmp_pos90_id16_im2.bmp,['Im_BradPitt.png', 'Im_RyanReynolds.png', 'Im_LeonardoDiCaprio.png', 'Im_HughJackman.png', 'Im_RobertPattinson.png', 'Im_ElijahWood.png', 'Im_MattDamon.png', 'Im_BenAffleck.png', 'Im_RobertDowneyJr.png', 'Im_OrlandoBloom.png'],same,1,0.9499896999986959,28,85.71428571428571,
MAEL2812,8,inv,60,pos60_id16_im19.bmp_pos60_id1_im21.bmp,['Im_BradPitt.png', 'Im_RyanReynolds.png', 'Im_LeonardoDiCaprio.png', 'Im_HughJackman.png', 'Im_RobertPattinson.png', 'Im_ElijahWood.png', 'Im_MattDamon.png', 'Im_BenAffleck.png', 'Im_RobertDowneyJr.png', 'Im_OrlandoBloom.png'],diff,1,0.7084193999999115,29,85.71428571428571,
MAEL2812,8,inv,0,pos0_id1_im24.bmp_pos0_id1_im21.bmp,['Im_BradPitt.png', 'Im_RyanReynolds.png', 'Im_LeonardoDiCaprio.png', 'Im_HughJackman.png', 'Im_RobertPattinson.png', 'Im_ElijahWood.png', 'Im_MattDamon.png', 'Im_BenAffleck.png', 'Im_RobertDowneyJr.png', 'Im_OrlandoBloom.png'],diff,0,0.7337047000000894,29,85.71428571428571,
MAEL2812,8,inv,60,pos60_id18_im11.bmp_pos60_id21_im22.bmp,['Im_BradPitt.png', 'Im_RyanReynolds.png', 'Im_LeonardoDiCaprio.png', 'Im_HughJackman.png', 'Im_RobertPattinson.png', 'Im_ElijahWood.png', 'Im_MattDamon.png', 'Im_BenAffleck.png', 'Im_RobertDowneyJr.png', 'Im_OrlandoBloom.png'],diff,1,1.916984900000898,30,85.71428571428571,
MAEL2812,8,inv,fs,posfs_id3_im17.bmp_posfs_id3_im8.bmp,['Im_BradPitt.png', 'Im_RyanReynolds.png', 'Im_LeonardoDiCaprio.png', 'Im_HughJackman.png', 'Im_RobertPattinson.png', 'Im_ElijahWood.png', 'Im_MattDamon.png', 'Im_BenAffleck.png', 'Im_RobertDowneyJr.png', 'Im_OrlandoBloom.png'],same,1,0.40829699999994773,31,85.71428571428571,
MAEL2812,8,inv,0,pos0_id8_im21.bmp_pos0_id21_im22.bmp,['Im_BradPitt.png', 'Im_RyanReynolds.png', 'Im_LeonardoDiCaprio.png', 'Im_HughJackman.png', 'Im_RobertPattinson.png', 'Im_ElijahWood.png', 'Im_MattDamon.png', 'Im_BenAffleck.png', 'Im_RobertDowneyJr.png', 'Im_OrlandoBloom.png'],diff,1,1.025030799999513,32,85.71428571428571,
MAEL2812,8,inv,150,pos150_id16_im2.bmp_pos150_id6_im18.bmp,['Im_BradPitt.png', 'Im_RyanReynolds.png', 'Im_LeonardoDiCaprio.png', 'Im_HughJackman.png', 'Im_RobertPattinson.png', 'Im_ElijahWood.png', 'Im_MattDamon.png', 'Im_BenAffleck.png', 'Im_RobertDowneyJr.png', 'Im_OrlandoBloom.png'],diff,1,1.5336678000003303,33,85.71428571428571,
MAEL2812,9,inv,fs,posfs_id19_im27.bmp_posfs_id3_im17.bmp,['Im_BradPitt.png', 'Im_RyanReynolds.png', 'Im_LeonardoDiCaprio.png', 'Im_HughJackman.png', 'Im_RobertPattinson.png', 'Im_ElijahWood.png', 'Im_MattDamon.png', 'Im_BenAffleck.png', 'Im_RobertDowneyJr.png', 'Im_OrlandoBloom.png'],diff,1,0.5003135000006296,1,78.57142857142857,
MAEL2812,9,inv,fs,posfs_id8_im20.bmp_posfs_id1_im21.bmp,['Im_BradPitt.png', 'Im_RyanReynolds.png', 'Im_LeonardoDiCaprio.png', 'Im_HughJackman.png', 'Im_RobertPattinson.png', 'Im_ElijahWood.png', 'Im_MattDamon.png', 'Im_BenAffleck.png', 'Im_RobertDowneyJr.png', 'Im_OrlandoBloom.png'],diff,1,0.6333373999987089,2,78.57142857142857,
MAEL2812,9,inv,120,pos120_id3_im6.bmp_pos120_id8_im13.bmp,['Im_BradPitt.png', 'Im_RyanReynolds.png', 'Im_LeonardoDiCaprio.png', 'Im_HughJackman.png', 'Im_RobertPattinson.png', 'Im_ElijahWood.png', 'Im_MattDamon.png', 'Im_BenAffleck.png', 'Im_RobertDowneyJr.png', 'Im_OrlandoBloom.png'],diff,1,0.5082652000000962,3,78.57142857142857,
MAEL2812,9,inv,120,pos120_id19_im4.bmp_pos120_id19_im27.bmp,['Im_BradPitt.png', 'Im_RyanReynolds.png', 'Im_LeonardoDiCaprio.png', 'Im_HughJackman.png', 'Im_RobertPattinson.png', 'Im_ElijahWood.png', 'Im_MattDamon.png', 'Im_BenAffleck.png', 'Im_RobertDowneyJr.png', 'Im_OrlandoBloom.png'],same,1,0.4167245999997249,4,78.57142857142857,
MAEL2812,9,inv,30,pos30_id6_im12.bmp_pos30_id13_im10.bmp,['Im_BradPitt.png', 'Im_RyanReynolds.png', 'Im_LeonardoDiCaprio.png', 'Im_HughJackman.png', 'Im_RobertPattinson.png', 'Im_ElijahWood.png', 'Im_MattDamon.png', 'Im_BenAffleck.png', 'Im_RobertDowneyJr.png', 'Im_OrlandoBloom.png'],diff,1,0.8753080000005866,5,78.57142857142857,
MAEL2812,9,inv,30,pos30_id13_im15.bmp_pos30_id21_im17.bmp,['Im_BradPitt.png', 'Im_RyanReynolds.png', 'Im_LeonardoDiCaprio.png', 'Im_HughJackman.png', 'Im_RobertPattinson.png', 'Im_ElijahWood.png', 'Im_MattDamon.png', 'Im_BenAffleck.png', 'Im_RobertDowneyJr.png', 'Im_OrlandoBloom.png'],diff,1,1.7001399999990099,6,78.57142857142857,
MAEL2812,9,inv,0,pos0_id13_im10.bmp_pos0_id13_im29.bmp,['Im_BradPitt.png', 'Im_RyanReynolds.png', 'Im_LeonardoDiCaprio.png', 'Im_HughJackman.png', 'Im_RobertPattinson.png', 'Im_ElijahWood.png', 'Im_MattDamon.png', 'Im_BenAffleck.png', 'Im_RobertDowneyJr.png', 'Im_OrlandoBloom.png'],same,1,0.5918777999995655,7,78.57142857142857,
MAEL2812,9,inv,60,pos60_id6_im19.bmp_pos60_id6_im18.bmp,['Im_BradPitt.png', 'Im_RyanReynolds.png', 'Im_LeonardoDiCaprio.png', 'Im_HughJackman.png', 'Im_RobertPattinson.png', 'Im_ElijahWood.png', 'Im_MattDamon.png', 'Im_BenAffleck.png', 'Im_RobertDowneyJr.png', 'Im_OrlandoBloom.png'],same,1,0.42521279999891703,8,78.57142857142857,
MAEL2812,9,inv,60,pos60_id14_im16.bmp_pos60_id19_im8.bmp,['Im_BradPitt.png', 'Im_RyanReynolds.png', 'Im_LeonardoDiCaprio.png', 'Im_HughJackman.png', 'Im_RobertPattinson.png', 'Im_ElijahWood.png', 'Im_MattDamon.png', 'Im_BenAffleck.png', 'Im_RobertDowneyJr.png', 'Im_OrlandoBloom.png'],same,0,0.7502389000001131,8,78.57142857142857,
MAEL2812,9,inv,150,pos150_id13_im29.bmp_pos150_id14_im24.bmp,['Im_BradPitt.png', 'Im_RyanReynolds.png', 'Im_LeonardoDiCaprio.png', 'Im_HughJackman.png', 'Im_RobertPattinson.png', 'Im_ElijahWood.png', 'Im_MattDamon.png', 'Im_BenAffleck.png', 'Im_RobertDowneyJr.png', 'Im_OrlandoBloom.png'],diff,1,1.5001750999999786,9,78.57142857142857,
MAEL2812,9,inv,150,pos150_id19_im27.bmp_pos150_id19_im4.bmp,['Im_BradPitt.png', 'Im_RyanReynolds.png', 'Im_LeonardoDiCaprio.png', 'Im_HughJackman.png', 'Im_RobertPattinson.png', 'Im_ElijahWood.png', 'Im_MattDamon.png', 'Im_BenAffleck.png', 'Im_RobertDowneyJr.png', 'Im_OrlandoBloom.png'],same,1,0.5752996999999596,10,78.57142857142857,
MAEL2812,9,inv,0,pos0_id3_im8.bmp_pos0_id18_im18.bmp,['Im_BradPitt.png', 'Im_RyanReynolds.png', 'Im_LeonardoDiCaprio.png', 'Im_HughJackman.png', 'Im_RobertPattinson.png', 'Im_ElijahWood.png', 'Im_MattDamon.png', 'Im_BenAffleck.png', 'Im_RobertDowneyJr.png', 'Im_OrlandoBloom.png'],same,0,1.1167624999998225,10,78.57142857142857,
MAEL2812,9,inv,90,pos90_id19_im27.bmp_pos90_id14_im18.bmp,['Im_BradPitt.png', 'Im_RyanReynolds.png', 'Im_LeonardoDiCaprio.png', 'Im_HughJackman.png', 'Im_RobertPattinson.png', 'Im_ElijahWood.png', 'Im_MattDamon.png', 'Im_BenAffleck.png', 'Im_RobertDowneyJr.png', 'Im_OrlandoBloom.png'],diff,1,0.4333590999995067,11,78.57142857142857,
MAEL2812,9,inv,90,pos90_id13_im29.bmp_pos90_id13_im10.bmp,['Im_BradPitt.png', 'Im_RyanReynolds.png', 'Im_LeonardoDiCaprio.png', 'Im_HughJackman.png', 'Im_RobertPattinson.png', 'Im_ElijahWood.png', 'Im_MattDamon.png', 'Im_BenAffleck.png', 'Im_RobertDowneyJr.png', 'Im_OrlandoBloom.png'],same,1,0.9167109000009077,12,78.57142857142857,
MAEL2812,10,neg,120,neg120_id14_im18.bmp_neg120_id14_im16.bmp,['Im_BradPitt.png', 'Im_RyanReynolds.png', 'Im_LeonardoDiCaprio.png', 'Im_HughJackman.png', 'Im_RobertPattinson.png', 'Im_ElijahWood.png', 'Im_MattDamon.png', 'Im_BenAffleck.png', 'Im_RobertDowneyJr.png', 'Im_OrlandoBloom.png'],same,1,0.725222400000348,13,78.57142857142857,
MAEL2812,10,neg,fs,negfs_id8_im13.bmp_negfs_id8_im21.bmp,['Im_BradPitt.png', 'Im_RyanReynolds.png', 'Im_LeonardoDiCaprio.png', 'Im_HughJackman.png', 'Im_RobertPattinson.png', 'Im_ElijahWood.png', 'Im_MattDamon.png', 'Im_BenAffleck.png', 'Im_RobertDowneyJr.png', 'Im_OrlandoBloom.png'],same,1,0.4751263999987714,14,78.57142857142857,
MAEL2812,10,neg,90,neg90_id18_im11.bmp_neg90_id18_im18.bmp,['Im_BradPitt.png', 'Im_RyanReynolds.png', 'Im_LeonardoDiCaprio.png', 'Im_HughJackman.png', 'Im_RobertPattinson.png', 'Im_ElijahWood.png', 'Im_MattDamon.png', 'Im_BenAffleck.png', 'Im_RobertDowneyJr.png', 'Im_OrlandoBloom.png'],diff,0,0.4170080000003509,14,78.57142857142857,
