Sujet,Trial,Condition,Filter,Imname,Actor0,Actor1,Actor2,Actor3,Actor4,Actor5,Actor6,Actor7,Actor8,Actor9,Answer,Accu,RT,Score,Scoreperc, 
MAVI1806,train,pos,60,pos60_id10_im18.bmp_pos60_id10_im17.bmp,['Im_LeonardoDiCaprio.png', 'Im_ElijahWood.png', 'Im_MattDamon.png', 'Im_DanielRadcliffe.png', 'Im_BradPitt.png', 'Im_KeanuReeves.png', 'Im_OrlandoBloom.png', 'Im_DanielCraig.png', 'Im_JustinTimberlake.png', 'Im_BenAffleck.png'],same,1,0.408541900000273,1,0,
MAVI1806,train,pos,fs,posfs_id4_im15.bmp_posfs_id5_im1.bmp,['Im_LeonardoDiCaprio.png', 'Im_ElijahWood.png', 'Im_MattDamon.png', 'Im_DanielRadcliffe.png', 'Im_BradPitt.png', 'Im_KeanuReeves.png', 'Im_OrlandoBloom.png', 'Im_DanielCraig.png', 'Im_JustinTimberlake.png', 'Im_BenAffleck.png'],diff,1,0.5168626000013319,2,0,
MAVI1806,train,pos,60,pos60_id4_im15.bmp_pos60_id4_im7.bmp,['Im_LeonardoDiCaprio.png', 'Im_ElijahWood.png', 'Im_MattDamon.png', 'Im_DanielRadcliffe.png', 'Im_BradPitt.png', 'Im_KeanuReeves.png', 'Im_OrlandoBloom.png', 'Im_DanielCraig.png', 'Im_JustinTimberlake.png', 'Im_BenAffleck.png'],same,1,0.4166672000010294,3,0,
MAVI1806,train,pos,30,pos30_id14_im24.bmp_pos30_id14_im18.bmp,['Im_LeonardoDiCaprio.png', 'Im_ElijahWood.png', 'Im_MattDamon.png', 'Im_DanielRadcliffe.png', 'Im_BradPitt.png', 'Im_KeanuReeves.png', 'Im_OrlandoBloom.png', 'Im_DanielCraig.png', 'Im_JustinTimberlake.png', 'Im_BenAffleck.png'],same,1,0.42530039999837754,4,0,
MAVI1806,train,pos,150,pos150_id11_im10.bmp_pos150_id14_im16.bmp,['Im_LeonardoDiCaprio.png', 'Im_ElijahWood.png', 'Im_MattDamon.png', 'Im_DanielRadcliffe.png', 'Im_BradPitt.png', 'Im_KeanuReeves.png', 'Im_OrlandoBloom.png', 'Im_DanielCraig.png', 'Im_JustinTimberlake.png', 'Im_BenAffleck.png'],diff,1,0.4165845999996236,5,0,
MAVI1806,train,pos,90,pos90_id16_im19.bmp_pos90_id16_im2.bmp,['Im_LeonardoDiCaprio.png', 'Im_ElijahWood.png', 'Im_MattDamon.png', 'Im_DanielRadcliffe.png', 'Im_BradPitt.png', 'Im_KeanuReeves.png', 'Im_OrlandoBloom.png', 'Im_DanielCraig.png', 'Im_JustinTimberlake.png', 'Im_BenAffleck.png'],same,1,0.42485149999993155,6,0,
MAVI1806,train,pos,fs,posfs_id14_im24.bmp_posfs_id3_im6.bmp,['Im_LeonardoDiCaprio.png', 'Im_ElijahWood.png', 'Im_MattDamon.png', 'Im_DanielRadcliffe.png', 'Im_BradPitt.png', 'Im_KeanuReeves.png', 'Im_OrlandoBloom.png', 'Im_DanielCraig.png', 'Im_JustinTimberlake.png', 'Im_BenAffleck.png'],diff,1,0.40842780000093626,7,0,
MAVI1806,train,pos,120,pos120_id11_im2.bmp_pos120_id11_im10.bmp,['Im_LeonardoDiCaprio.png', 'Im_ElijahWood.png', 'Im_MattDamon.png', 'Im_DanielRadcliffe.png', 'Im_BradPitt.png', 'Im_KeanuReeves.png', 'Im_OrlandoBloom.png', 'Im_DanielCraig.png', 'Im_JustinTimberlake.png', 'Im_BenAffleck.png'],same,1,0.8084873000007065,8,0,
MAVI1806,train,pos,0,pos0_id13_im15.bmp_pos0_id11_im1.bmp,['Im_LeonardoDiCaprio.png', 'Im_ElijahWood.png', 'Im_MattDamon.png', 'Im_DanielRadcliffe.png', 'Im_BradPitt.png', 'Im_KeanuReeves.png', 'Im_OrlandoBloom.png', 'Im_DanielCraig.png', 'Im_JustinTimberlake.png', 'Im_BenAffleck.png'],diff,1,0.42498599999998987,9,0,
MAVI1806,train,pos,150,pos150_id13_im15.bmp_pos150_id13_im29.bmp,['Im_LeonardoDiCaprio.png', 'Im_ElijahWood.png', 'Im_MattDamon.png', 'Im_DanielRadcliffe.png', 'Im_BradPitt.png', 'Im_KeanuReeves.png', 'Im_OrlandoBloom.png', 'Im_DanielCraig.png', 'Im_JustinTimberlake.png', 'Im_BenAffleck.png'],same,1,0.5332445000003645,10,0,
MAVI1806,train,pos,120,pos120_id6_im18.bmp_pos120_id6_im19.bmp,['Im_LeonardoDiCaprio.png', 'Im_ElijahWood.png', 'Im_MattDamon.png', 'Im_DanielRadcliffe.png', 'Im_BradPitt.png', 'Im_KeanuReeves.png', 'Im_OrlandoBloom.png', 'Im_DanielCraig.png', 'Im_JustinTimberlake.png', 'Im_BenAffleck.png'],same,1,0.4250071000005846,11,0,
MAVI1806,train,pos,90,pos90_id13_im15.bmp_pos90_id5_im10.bmp,['Im_LeonardoDiCaprio.png', 'Im_ElijahWood.png', 'Im_MattDamon.png', 'Im_DanielRadcliffe.png', 'Im_BradPitt.png', 'Im_KeanuReeves.png', 'Im_OrlandoBloom.png', 'Im_DanielCraig.png', 'Im_JustinTimberlake.png', 'Im_BenAffleck.png'],diff,1,0.4333836000005249,12,0,
MAVI1806,train,pos,30,pos30_id10_im18.bmp_pos30_id1_im4.bmp,['Im_LeonardoDiCaprio.png', 'Im_ElijahWood.png', 'Im_MattDamon.png', 'Im_DanielRadcliffe.png', 'Im_BradPitt.png', 'Im_KeanuReeves.png', 'Im_OrlandoBloom.png', 'Im_DanielCraig.png', 'Im_JustinTimberlake.png', 'Im_BenAffleck.png'],diff,1,0.6836729000006017,13,0,
MAVI1806,train,pos,0,pos0_id6_im19.bmp_pos0_id6_im18.bmp,['Im_LeonardoDiCaprio.png', 'Im_ElijahWood.png', 'Im_MattDamon.png', 'Im_DanielRadcliffe.png', 'Im_BradPitt.png', 'Im_KeanuReeves.png', 'Im_OrlandoBloom.png', 'Im_DanielCraig.png', 'Im_JustinTimberlake.png', 'Im_BenAffleck.png'],same,1,0.4083712999999989,14,0,
MAVI1806,train,inv,fs,posfs_id13_im10.bmp_posfs_id1_im21.bmp,['Im_LeonardoDiCaprio.png', 'Im_ElijahWood.png', 'Im_MattDamon.png', 'Im_DanielRadcliffe.png', 'Im_BradPitt.png', 'Im_KeanuReeves.png', 'Im_OrlandoBloom.png', 'Im_DanielCraig.png', 'Im_JustinTimberlake.png', 'Im_BenAffleck.png'],diff,1,0.508582500000557,15,0,
MAVI1806,train,inv,150,pos150_id11_im1.bmp_pos150_id13_im15.bmp,['Im_LeonardoDiCaprio.png', 'Im_ElijahWood.png', 'Im_MattDamon.png', 'Im_DanielRadcliffe.png', 'Im_BradPitt.png', 'Im_KeanuReeves.png', 'Im_OrlandoBloom.png', 'Im_DanielCraig.png', 'Im_JustinTimberlake.png', 'Im_BenAffleck.png'],diff,1,0.4167518000012933,16,0,
MAVI1806,train,inv,90,pos90_id3_im17.bmp_pos90_id11_im2.bmp,['Im_LeonardoDiCaprio.png', 'Im_ElijahWood.png', 'Im_MattDamon.png', 'Im_DanielRadcliffe.png', 'Im_BradPitt.png', 'Im_KeanuReeves.png', 'Im_OrlandoBloom.png', 'Im_DanielCraig.png', 'Im_JustinTimberlake.png', 'Im_BenAffleck.png'],same,0,0.42503510000096867,16,0,
MAVI1806,train,inv,30,pos30_id14_im16.bmp_pos30_id3_im8.bmp,['Im_LeonardoDiCaprio.png', 'Im_ElijahWood.png', 'Im_MattDamon.png', 'Im_DanielRadcliffe.png', 'Im_BradPitt.png', 'Im_KeanuReeves.png', 'Im_OrlandoBloom.png', 'Im_DanielCraig.png', 'Im_JustinTimberlake.png', 'Im_BenAffleck.png'],diff,1,0.81674220000059,17,0,
MAVI1806,train,inv,0,pos0_id13_im15.bmp_pos0_id11_im1.bmp,['Im_LeonardoDiCaprio.png', 'Im_ElijahWood.png', 'Im_MattDamon.png', 'Im_DanielRadcliffe.png', 'Im_BradPitt.png', 'Im_KeanuReeves.png', 'Im_OrlandoBloom.png', 'Im_DanielCraig.png', 'Im_JustinTimberlake.png', 'Im_BenAffleck.png'],diff,1,0.41649109999889333,18,0,
MAVI1806,train,inv,fs,posfs_id5_im1.bmp_posfs_id4_im15.bmp,['Im_LeonardoDiCaprio.png', 'Im_ElijahWood.png', 'Im_MattDamon.png', 'Im_DanielRadcliffe.png', 'Im_BradPitt.png', 'Im_KeanuReeves.png', 'Im_OrlandoBloom.png', 'Im_DanielCraig.png', 'Im_JustinTimberlake.png', 'Im_BenAffleck.png'],diff,1,0.4251598000009835,19,0,
MAVI1806,train,inv,120,pos120_id1_im4.bmp_pos120_id1_im21.bmp,['Im_LeonardoDiCaprio.png', 'Im_ElijahWood.png', 'Im_MattDamon.png', 'Im_DanielRadcliffe.png', 'Im_BradPitt.png', 'Im_KeanuReeves.png', 'Im_OrlandoBloom.png', 'Im_DanielCraig.png', 'Im_JustinTimberlake.png', 'Im_BenAffleck.png'],same,1,0.42501959999935934,20,0,
MAVI1806,train,inv,60,pos60_id10_im18.bmp_pos60_id1_im4.bmp,['Im_LeonardoDiCaprio.png', 'Im_ElijahWood.png', 'Im_MattDamon.png', 'Im_DanielRadcliffe.png', 'Im_BradPitt.png', 'Im_KeanuReeves.png', 'Im_OrlandoBloom.png', 'Im_DanielCraig.png', 'Im_JustinTimberlake.png', 'Im_BenAffleck.png'],diff,1,0.6250464000004285,21,0,
MAVI1806,train,inv,60,pos60_id1_im4.bmp_pos60_id4_im20.bmp,['Im_LeonardoDiCaprio.png', 'Im_ElijahWood.png', 'Im_MattDamon.png', 'Im_DanielRadcliffe.png', 'Im_BradPitt.png', 'Im_KeanuReeves.png', 'Im_OrlandoBloom.png', 'Im_DanielCraig.png', 'Im_JustinTimberlake.png', 'Im_BenAffleck.png'],diff,1,0.42513529999996535,22,0,
MAVI1806,train,inv,30,pos30_id10_im18.bmp_pos30_id10_im17.bmp,['Im_LeonardoDiCaprio.png', 'Im_ElijahWood.png', 'Im_MattDamon.png', 'Im_DanielRadcliffe.png', 'Im_BradPitt.png', 'Im_KeanuReeves.png', 'Im_OrlandoBloom.png', 'Im_DanielCraig.png', 'Im_JustinTimberlake.png', 'Im_BenAffleck.png'],diff,0,0.4916615999991336,22,0,
MAVI1806,train,inv,90,pos90_id14_im18.bmp_pos90_id14_im16.bmp,['Im_LeonardoDiCaprio.png', 'Im_ElijahWood.png', 'Im_MattDamon.png', 'Im_DanielRadcliffe.png', 'Im_BradPitt.png', 'Im_KeanuReeves.png', 'Im_OrlandoBloom.png', 'Im_DanielCraig.png', 'Im_JustinTimberlake.png', 'Im_BenAffleck.png'],same,1,0.40842519999932847,23,0,
MAVI1806,train,inv,150,pos150_id16_im19.bmp_pos150_id16_im2.bmp,['Im_LeonardoDiCaprio.png', 'Im_ElijahWood.png', 'Im_MattDamon.png', 'Im_DanielRadcliffe.png', 'Im_BradPitt.png', 'Im_KeanuReeves.png', 'Im_OrlandoBloom.png', 'Im_DanielCraig.png', 'Im_JustinTimberlake.png', 'Im_BenAffleck.png'],same,1,0.7168419000008726,24,0,
MAVI1806,train,inv,120,pos120_id16_im2.bmp_pos120_id6_im18.bmp,['Im_LeonardoDiCaprio.png', 'Im_ElijahWood.png', 'Im_MattDamon.png', 'Im_DanielRadcliffe.png', 'Im_BradPitt.png', 'Im_KeanuReeves.png', 'Im_OrlandoBloom.png', 'Im_DanielCraig.png', 'Im_JustinTimberlake.png', 'Im_BenAffleck.png'],diff,1,0.4167001000005257,25,0,
MAVI1806,train,inv,0,pos0_id5_im10.bmp_pos0_id5_im1.bmp,['Im_LeonardoDiCaprio.png', 'Im_ElijahWood.png', 'Im_MattDamon.png', 'Im_DanielRadcliffe.png', 'Im_BradPitt.png', 'Im_KeanuReeves.png', 'Im_OrlandoBloom.png', 'Im_DanielCraig.png', 'Im_JustinTimberlake.png', 'Im_BenAffleck.png'],same,1,0.4083464000013919,26,0,
MAVI1806,train,neg,60,neg60_id10_im17.bmp_neg60_id14_im18.bmp,['Im_LeonardoDiCaprio.png', 'Im_ElijahWood.png', 'Im_MattDamon.png', 'Im_DanielRadcliffe.png', 'Im_BradPitt.png', 'Im_KeanuReeves.png', 'Im_OrlandoBloom.png', 'Im_DanielCraig.png', 'Im_JustinTimberlake.png', 'Im_BenAffleck.png'],same,0,0.9584682999993674,26,0,
MAVI1806,train,neg,30,neg30_id5_im20.bmp_neg30_id5_im10.bmp,['Im_LeonardoDiCaprio.png', 'Im_ElijahWood.png', 'Im_MattDamon.png', 'Im_DanielRadcliffe.png', 'Im_BradPitt.png', 'Im_KeanuReeves.png', 'Im_OrlandoBloom.png', 'Im_DanielCraig.png', 'Im_JustinTimberlake.png', 'Im_BenAffleck.png'],same,1,0.6333470999998099,27,0,
MAVI1806,train,neg,150,neg150_id16_im2.bmp_neg150_id16_im3.bmp,['Im_LeonardoDiCaprio.png', 'Im_ElijahWood.png', 'Im_MattDamon.png', 'Im_DanielRadcliffe.png', 'Im_BradPitt.png', 'Im_KeanuReeves.png', 'Im_OrlandoBloom.png', 'Im_DanielCraig.png', 'Im_JustinTimberlake.png', 'Im_BenAffleck.png'],diff,0,0.6000351999991835,27,0,
MAVI1806,train,neg,60,neg60_id16_im19.bmp_neg60_id11_im10.bmp,['Im_LeonardoDiCaprio.png', 'Im_ElijahWood.png', 'Im_MattDamon.png', 'Im_DanielRadcliffe.png', 'Im_BradPitt.png', 'Im_KeanuReeves.png', 'Im_OrlandoBloom.png', 'Im_DanielCraig.png', 'Im_JustinTimberlake.png', 'Im_BenAffleck.png'],diff,1,0.41662449999967066,28,0,
MAVI1806,train,neg,0,neg0_id3_im8.bmp_neg0_id3_im6.bmp,['Im_LeonardoDiCaprio.png', 'Im_ElijahWood.png', 'Im_MattDamon.png', 'Im_DanielRadcliffe.png', 'Im_BradPitt.png', 'Im_KeanuReeves.png', 'Im_OrlandoBloom.png', 'Im_DanielCraig.png', 'Im_JustinTimberlake.png', 'Im_BenAffleck.png'],same,1,0.43328350000047067,29,0,
MAVI1806,train,neg,fs,negfs_id1_im4.bmp_negfs_id1_im24.bmp,['Im_LeonardoDiCaprio.png', 'Im_ElijahWood.png', 'Im_MattDamon.png', 'Im_DanielRadcliffe.png', 'Im_BradPitt.png', 'Im_KeanuReeves.png', 'Im_OrlandoBloom.png', 'Im_DanielCraig.png', 'Im_JustinTimberlake.png', 'Im_BenAffleck.png'],diff,0,0.43330430000060005,29,0,
MAVI1806,train,neg,30,neg30_id13_im10.bmp_neg30_id13_im15.bmp,['Im_LeonardoDiCaprio.png', 'Im_ElijahWood.png', 'Im_MattDamon.png', 'Im_DanielRadcliffe.png', 'Im_BradPitt.png', 'Im_KeanuReeves.png', 'Im_OrlandoBloom.png', 'Im_DanielCraig.png', 'Im_JustinTimberlake.png', 'Im_BenAffleck.png'],same,1,0.4250384999995731,30,0,
MAVI1806,train,neg,90,neg90_id6_im12.bmp_neg90_id4_im20.bmp,['Im_LeonardoDiCaprio.png', 'Im_ElijahWood.png', 'Im_MattDamon.png', 'Im_DanielRadcliffe.png', 'Im_BradPitt.png', 'Im_KeanuReeves.png', 'Im_OrlandoBloom.png', 'Im_DanielCraig.png', 'Im_JustinTimberlake.png', 'Im_BenAffleck.png'],diff,1,0.4083754000002955,31,0,
MAVI1806,train,neg,90,neg90_id11_im2.bmp_neg90_id11_im10.bmp,['Im_LeonardoDiCaprio.png', 'Im_ElijahWood.png', 'Im_MattDamon.png', 'Im_DanielRadcliffe.png', 'Im_BradPitt.png', 'Im_KeanuReeves.png', 'Im_OrlandoBloom.png', 'Im_DanielCraig.png', 'Im_JustinTimberlake.png', 'Im_BenAffleck.png'],diff,0,0.42510439999932714,31,0,
MAVI1806,train,neg,120,neg120_id11_im1.bmp_neg120_id16_im3.bmp,['Im_LeonardoDiCaprio.png', 'Im_ElijahWood.png', 'Im_MattDamon.png', 'Im_DanielRadcliffe.png', 'Im_BradPitt.png', 'Im_KeanuReeves.png', 'Im_OrlandoBloom.png', 'Im_DanielCraig.png', 'Im_JustinTimberlake.png', 'Im_BenAffleck.png'],diff,1,0.6500715000001946,32,0,
MAVI1806,train,neg,fs,negfs_id16_im2.bmp_negfs_id6_im18.bmp,['Im_LeonardoDiCaprio.png', 'Im_ElijahWood.png', 'Im_MattDamon.png', 'Im_DanielRadcliffe.png', 'Im_BradPitt.png', 'Im_KeanuReeves.png', 'Im_OrlandoBloom.png', 'Im_DanielCraig.png', 'Im_JustinTimberlake.png', 'Im_BenAffleck.png'],diff,1,0.40829350000058184,33,0,
MAVI1806,train,neg,120,neg120_id1_im24.bmp_neg120_id5_im10.bmp,['Im_LeonardoDiCaprio.png', 'Im_ElijahWood.png', 'Im_MattDamon.png', 'Im_DanielRadcliffe.png', 'Im_BradPitt.png', 'Im_KeanuReeves.png', 'Im_OrlandoBloom.png', 'Im_DanielCraig.png', 'Im_JustinTimberlake.png', 'Im_BenAffleck.png'],diff,1,0.6916017000003194,34,0,
MAVI1806,train,neg,0,neg0_id11_im10.bmp_neg0_id14_im16.bmp,['Im_LeonardoDiCaprio.png', 'Im_ElijahWood.png', 'Im_MattDamon.png', 'Im_DanielRadcliffe.png', 'Im_BradPitt.png', 'Im_KeanuReeves.png', 'Im_OrlandoBloom.png', 'Im_DanielCraig.png', 'Im_JustinTimberlake.png', 'Im_BenAffleck.png'],diff,1,1.3916381999988516,35,0,
MAVI1806,train,neg,150,neg150_id14_im16.bmp_neg150_id11_im10.bmp,['Im_LeonardoDiCaprio.png', 'Im_ElijahWood.png', 'Im_MattDamon.png', 'Im_DanielRadcliffe.png', 'Im_BradPitt.png', 'Im_KeanuReeves.png', 'Im_OrlandoBloom.png', 'Im_DanielCraig.png', 'Im_JustinTimberlake.png', 'Im_BenAffleck.png'],diff,1,0.6082846999997855,36,0,
MAVI1806,train,pos,90,pos90_id1_im21.bmp_pos90_id1_im24.bmp,['Im_LeonardoDiCaprio.png', 'Im_ElijahWood.png', 'Im_MattDamon.png', 'Im_DanielRadcliffe.png', 'Im_BradPitt.png', 'Im_KeanuReeves.png', 'Im_OrlandoBloom.png', 'Im_DanielCraig.png', 'Im_JustinTimberlake.png', 'Im_BenAffleck.png'],same,1,0.649953899999673,1,85.71428571428571,
MAVI1806,train,pos,150,pos150_id6_im19.bmp_pos150_id6_im12.bmp,['Im_LeonardoDiCaprio.png', 'Im_ElijahWood.png', 'Im_MattDamon.png', 'Im_DanielRadcliffe.png', 'Im_BradPitt.png', 'Im_KeanuReeves.png', 'Im_OrlandoBloom.png', 'Im_DanielCraig.png', 'Im_JustinTimberlake.png', 'Im_BenAffleck.png'],same,1,0.41666369999984454,2,85.71428571428571,
MAVI1806,train,pos,90,pos90_id5_im20.bmp_pos90_id5_im10.bmp,['Im_LeonardoDiCaprio.png', 'Im_ElijahWood.png', 'Im_MattDamon.png', 'Im_DanielRadcliffe.png', 'Im_BradPitt.png', 'Im_KeanuReeves.png', 'Im_OrlandoBloom.png', 'Im_DanielCraig.png', 'Im_JustinTimberlake.png', 'Im_BenAffleck.png'],same,1,0.41673420000006445,3,85.71428571428571,
MAVI1806,train,pos,0,pos0_id10_im18.bmp_pos0_id11_im2.bmp,['Im_LeonardoDiCaprio.png', 'Im_ElijahWood.png', 'Im_MattDamon.png', 'Im_DanielRadcliffe.png', 'Im_BradPitt.png', 'Im_KeanuReeves.png', 'Im_OrlandoBloom.png', 'Im_DanielCraig.png', 'Im_JustinTimberlake.png', 'Im_BenAffleck.png'],diff,1,0.5587443000003987,4,85.71428571428571,
MAVI1806,train,pos,fs,posfs_id3_im8.bmp_posfs_id3_im6.bmp,['Im_LeonardoDiCaprio.png', 'Im_ElijahWood.png', 'Im_MattDamon.png', 'Im_DanielRadcliffe.png', 'Im_BradPitt.png', 'Im_KeanuReeves.png', 'Im_OrlandoBloom.png', 'Im_DanielCraig.png', 'Im_JustinTimberlake.png', 'Im_BenAffleck.png'],same,1,0.41676649999863,5,85.71428571428571,
MAVI1806,train,pos,150,pos150_id1_im21.bmp_pos150_id1_im24.bmp,['Im_LeonardoDiCaprio.png', 'Im_ElijahWood.png', 'Im_MattDamon.png', 'Im_DanielRadcliffe.png', 'Im_BradPitt.png', 'Im_KeanuReeves.png', 'Im_OrlandoBloom.png', 'Im_DanielCraig.png', 'Im_JustinTimberlake.png', 'Im_BenAffleck.png'],same,1,0.4917377999991004,6,85.71428571428571,
MAVI1806,train,pos,120,pos120_id5_im10.bmp_pos120_id5_im1.bmp,['Im_LeonardoDiCaprio.png', 'Im_ElijahWood.png', 'Im_MattDamon.png', 'Im_DanielRadcliffe.png', 'Im_BradPitt.png', 'Im_KeanuReeves.png', 'Im_OrlandoBloom.png', 'Im_DanielCraig.png', 'Im_JustinTimberlake.png', 'Im_BenAffleck.png'],same,1,0.4085158000016236,7,85.71428571428571,
MAVI1806,train,pos,120,pos120_id13_im15.bmp_pos120_id13_im29.bmp,['Im_LeonardoDiCaprio.png', 'Im_ElijahWood.png', 'Im_MattDamon.png', 'Im_DanielRadcliffe.png', 'Im_BradPitt.png', 'Im_KeanuReeves.png', 'Im_OrlandoBloom.png', 'Im_DanielCraig.png', 'Im_JustinTimberlake.png', 'Im_BenAffleck.png'],same,1,0.42500810000092315,8,85.71428571428571,
MAVI1806,train,pos,60,pos60_id4_im15.bmp_pos60_id4_im20.bmp,['Im_LeonardoDiCaprio.png', 'Im_ElijahWood.png', 'Im_MattDamon.png', 'Im_DanielRadcliffe.png', 'Im_BradPitt.png', 'Im_KeanuReeves.png', 'Im_OrlandoBloom.png', 'Im_DanielCraig.png', 'Im_JustinTimberlake.png', 'Im_BenAffleck.png'],same,1,0.4166207999987819,9,85.71428571428571,
MAVI1806,train,pos,60,pos60_id5_im10.bmp_pos60_id5_im20.bmp,['Im_LeonardoDiCaprio.png', 'Im_ElijahWood.png', 'Im_MattDamon.png', 'Im_DanielRadcliffe.png', 'Im_BradPitt.png', 'Im_KeanuReeves.png', 'Im_OrlandoBloom.png', 'Im_DanielCraig.png', 'Im_JustinTimberlake.png', 'Im_BenAffleck.png'],same,1,0.4167680999998993,10,85.71428571428571,
MAVI1806,train,pos,fs,posfs_id14_im16.bmp_posfs_id3_im8.bmp,['Im_LeonardoDiCaprio.png', 'Im_ElijahWood.png', 'Im_MattDamon.png', 'Im_DanielRadcliffe.png', 'Im_BradPitt.png', 'Im_KeanuReeves.png', 'Im_OrlandoBloom.png', 'Im_DanielCraig.png', 'Im_JustinTimberlake.png', 'Im_BenAffleck.png'],diff,1,0.40831040000011853,11,85.71428571428571,
MAVI1806,train,pos,30,pos30_id5_im10.bmp_pos30_id5_im20.bmp,['Im_LeonardoDiCaprio.png', 'Im_ElijahWood.png', 'Im_MattDamon.png', 'Im_DanielRadcliffe.png', 'Im_BradPitt.png', 'Im_KeanuReeves.png', 'Im_OrlandoBloom.png', 'Im_DanielCraig.png', 'Im_JustinTimberlake.png', 'Im_BenAffleck.png'],same,1,0.41692280000097526,12,85.71428571428571,
MAVI1806,train,pos,30,pos30_id6_im12.bmp_pos30_id6_im19.bmp,['Im_LeonardoDiCaprio.png', 'Im_ElijahWood.png', 'Im_MattDamon.png', 'Im_DanielRadcliffe.png', 'Im_BradPitt.png', 'Im_KeanuReeves.png', 'Im_OrlandoBloom.png', 'Im_DanielCraig.png', 'Im_JustinTimberlake.png', 'Im_BenAffleck.png'],same,1,0.41670589999921503,13,85.71428571428571,
MAVI1806,train,pos,0,pos0_id4_im7.bmp_pos0_id14_im24.bmp,['Im_LeonardoDiCaprio.png', 'Im_ElijahWood.png', 'Im_MattDamon.png', 'Im_DanielRadcliffe.png', 'Im_BradPitt.png', 'Im_KeanuReeves.png', 'Im_OrlandoBloom.png', 'Im_DanielCraig.png', 'Im_JustinTimberlake.png', 'Im_BenAffleck.png'],diff,1,0.4085357000003569,14,85.71428571428571,
MAVI1806,train,neg,0,neg0_id3_im17.bmp_neg0_id3_im8.bmp,['Im_LeonardoDiCaprio.png', 'Im_ElijahWood.png', 'Im_MattDamon.png', 'Im_DanielRadcliffe.png', 'Im_BradPitt.png', 'Im_KeanuReeves.png', 'Im_OrlandoBloom.png', 'Im_DanielCraig.png', 'Im_JustinTimberlake.png', 'Im_BenAffleck.png'],same,1,0.43337009999959264,15,85.71428571428571,
MAVI1806,train,neg,0,neg0_id3_im8.bmp_neg0_id6_im19.bmp,['Im_LeonardoDiCaprio.png', 'Im_ElijahWood.png', 'Im_MattDamon.png', 'Im_DanielRadcliffe.png', 'Im_BradPitt.png', 'Im_KeanuReeves.png', 'Im_OrlandoBloom.png', 'Im_DanielCraig.png', 'Im_JustinTimberlake.png', 'Im_BenAffleck.png'],diff,1,0.4166777999998885,16,85.71428571428571,
MAVI1806,train,neg,120,neg120_id4_im20.bmp_neg120_id4_im7.bmp,['Im_LeonardoDiCaprio.png', 'Im_ElijahWood.png', 'Im_MattDamon.png', 'Im_DanielRadcliffe.png', 'Im_BradPitt.png', 'Im_KeanuReeves.png', 'Im_OrlandoBloom.png', 'Im_DanielCraig.png', 'Im_JustinTimberlake.png', 'Im_BenAffleck.png'],same,1,0.4083721000006335,17,85.71428571428571,
MAVI1806,train,neg,60,neg60_id10_im17.bmp_neg60_id10_im1.bmp,['Im_LeonardoDiCaprio.png', 'Im_ElijahWood.png', 'Im_MattDamon.png', 'Im_DanielRadcliffe.png', 'Im_BradPitt.png', 'Im_KeanuReeves.png', 'Im_OrlandoBloom.png', 'Im_DanielCraig.png', 'Im_JustinTimberlake.png', 'Im_BenAffleck.png'],same,1,0.41668960000060906,18,85.71428571428571,
MAVI1806,train,neg,30,neg30_id10_im17.bmp_neg30_id10_im18.bmp,['Im_LeonardoDiCaprio.png', 'Im_ElijahWood.png', 'Im_MattDamon.png', 'Im_DanielRadcliffe.png', 'Im_BradPitt.png', 'Im_KeanuReeves.png', 'Im_OrlandoBloom.png', 'Im_DanielCraig.png', 'Im_JustinTimberlake.png', 'Im_BenAffleck.png'],same,1,0.42523679999976594,19,85.71428571428571,
MAVI1806,train,neg,fs,negfs_id10_im1.bmp_negfs_id10_im18.bmp,['Im_LeonardoDiCaprio.png', 'Im_ElijahWood.png', 'Im_MattDamon.png', 'Im_DanielRadcliffe.png', 'Im_BradPitt.png', 'Im_KeanuReeves.png', 'Im_OrlandoBloom.png', 'Im_DanielCraig.png', 'Im_JustinTimberlake.png', 'Im_BenAffleck.png'],same,1,0.4165895999994973,20,85.71428571428571,
MAVI1806,train,neg,fs,negfs_id6_im18.bmp_negfs_id6_im12.bmp,['Im_LeonardoDiCaprio.png', 'Im_ElijahWood.png', 'Im_MattDamon.png', 'Im_DanielRadcliffe.png', 'Im_BradPitt.png', 'Im_KeanuReeves.png', 'Im_OrlandoBloom.png', 'Im_DanielCraig.png', 'Im_JustinTimberlake.png', 'Im_BenAffleck.png'],same,1,0.4251079999994545,21,85.71428571428571,
MAVI1806,train,neg,150,neg150_id13_im15.bmp_neg150_id13_im10.bmp,['Im_LeonardoDiCaprio.png', 'Im_ElijahWood.png', 'Im_MattDamon.png', 'Im_DanielRadcliffe.png', 'Im_BradPitt.png', 'Im_KeanuReeves.png', 'Im_OrlandoBloom.png', 'Im_DanielCraig.png', 'Im_JustinTimberlake.png', 'Im_BenAffleck.png'],same,1,0.4166222000003472,22,85.71428571428571,
MAVI1806,train,neg,90,neg90_id13_im29.bmp_neg90_id6_im12.bmp,['Im_LeonardoDiCaprio.png', 'Im_ElijahWood.png', 'Im_MattDamon.png', 'Im_DanielRadcliffe.png', 'Im_BradPitt.png', 'Im_KeanuReeves.png', 'Im_OrlandoBloom.png', 'Im_DanielCraig.png', 'Im_JustinTimberlake.png', 'Im_BenAffleck.png'],diff,1,0.4166879999993398,23,85.71428571428571,
MAVI1806,train,neg,90,neg90_id4_im7.bmp_neg90_id14_im24.bmp,['Im_LeonardoDiCaprio.png', 'Im_ElijahWood.png', 'Im_MattDamon.png', 'Im_DanielRadcliffe.png', 'Im_BradPitt.png', 'Im_KeanuReeves.png', 'Im_OrlandoBloom.png', 'Im_DanielCraig.png', 'Im_JustinTimberlake.png', 'Im_BenAffleck.png'],same,0,0.42506760000105714,23,85.71428571428571,
MAVI1806,train,neg,120,neg120_id16_im3.bmp_neg120_id16_im2.bmp,['Im_LeonardoDiCaprio.png', 'Im_ElijahWood.png', 'Im_MattDamon.png', 'Im_DanielRadcliffe.png', 'Im_BradPitt.png', 'Im_KeanuReeves.png', 'Im_OrlandoBloom.png', 'Im_DanielCraig.png', 'Im_JustinTimberlake.png', 'Im_BenAffleck.png'],same,1,0.42514289999962784,24,85.71428571428571,
MAVI1806,train,neg,150,neg150_id1_im24.bmp_neg150_id5_im20.bmp,['Im_LeonardoDiCaprio.png', 'Im_ElijahWood.png', 'Im_MattDamon.png', 'Im_DanielRadcliffe.png', 'Im_BradPitt.png', 'Im_KeanuReeves.png', 'Im_OrlandoBloom.png', 'Im_DanielCraig.png', 'Im_JustinTimberlake.png', 'Im_BenAffleck.png'],diff,1,0.424841899999592,25,85.71428571428571,
MAVI1806,train,neg,30,neg30_id4_im15.bmp_neg30_id16_im19.bmp,['Im_LeonardoDiCaprio.png', 'Im_ElijahWood.png', 'Im_MattDamon.png', 'Im_DanielRadcliffe.png', 'Im_BradPitt.png', 'Im_KeanuReeves.png', 'Im_OrlandoBloom.png', 'Im_DanielCraig.png', 'Im_JustinTimberlake.png', 'Im_BenAffleck.png'],diff,1,0.42507690000093135,26,85.71428571428571,
MAVI1806,train,neg,60,neg60_id5_im1.bmp_neg60_id10_im1.bmp,['Im_LeonardoDiCaprio.png', 'Im_ElijahWood.png', 'Im_MattDamon.png', 'Im_DanielRadcliffe.png', 'Im_BradPitt.png', 'Im_KeanuReeves.png', 'Im_OrlandoBloom.png', 'Im_DanielCraig.png', 'Im_JustinTimberlake.png', 'Im_BenAffleck.png'],diff,1,0.783454399999755,27,85.71428571428571,
MAVI1806,train,inv,60,pos60_id16_im2.bmp_pos60_id6_im19.bmp,['Im_LeonardoDiCaprio.png', 'Im_ElijahWood.png', 'Im_MattDamon.png', 'Im_DanielRadcliffe.png', 'Im_BradPitt.png', 'Im_KeanuReeves.png', 'Im_OrlandoBloom.png', 'Im_DanielCraig.png', 'Im_JustinTimberlake.png', 'Im_BenAffleck.png'],diff,1,0.7250586999998632,28,85.71428571428571,
MAVI1806,train,inv,30,pos30_id16_im19.bmp_pos30_id4_im15.bmp,['Im_LeonardoDiCaprio.png', 'Im_ElijahWood.png', 'Im_MattDamon.png', 'Im_DanielRadcliffe.png', 'Im_BradPitt.png', 'Im_KeanuReeves.png', 'Im_OrlandoBloom.png', 'Im_DanielCraig.png', 'Im_JustinTimberlake.png', 'Im_BenAffleck.png'],diff,1,0.4250337000012223,29,85.71428571428571,
MAVI1806,train,inv,fs,posfs_id1_im24.bmp_posfs_id5_im20.bmp,['Im_LeonardoDiCaprio.png', 'Im_ElijahWood.png', 'Im_MattDamon.png', 'Im_DanielRadcliffe.png', 'Im_BradPitt.png', 'Im_KeanuReeves.png', 'Im_OrlandoBloom.png', 'Im_DanielCraig.png', 'Im_JustinTimberlake.png', 'Im_BenAffleck.png'],diff,1,0.4166169000000082,30,85.71428571428571,
MAVI1806,train,inv,150,pos150_id6_im19.bmp_pos150_id3_im8.bmp,['Im_LeonardoDiCaprio.png', 'Im_ElijahWood.png', 'Im_MattDamon.png', 'Im_DanielRadcliffe.png', 'Im_BradPitt.png', 'Im_KeanuReeves.png', 'Im_OrlandoBloom.png', 'Im_DanielCraig.png', 'Im_JustinTimberlake.png', 'Im_BenAffleck.png'],diff,1,1.2499463000003743,31,85.71428571428571,
MAVI1806,train,inv,30,pos30_id11_im1.bmp_pos30_id11_im10.bmp,['Im_LeonardoDiCaprio.png', 'Im_ElijahWood.png', 'Im_MattDamon.png', 'Im_DanielRadcliffe.png', 'Im_BradPitt.png', 'Im_KeanuReeves.png', 'Im_OrlandoBloom.png', 'Im_DanielCraig.png', 'Im_JustinTimberlake.png', 'Im_BenAffleck.png'],diff,0,1.1334702000003745,31,85.71428571428571,
MAVI1806,train,inv,90,pos90_id4_im20.bmp_pos90_id6_im12.bmp,['Im_LeonardoDiCaprio.png', 'Im_ElijahWood.png', 'Im_MattDamon.png', 'Im_DanielRadcliffe.png', 'Im_BradPitt.png', 'Im_KeanuReeves.png', 'Im_OrlandoBloom.png', 'Im_DanielCraig.png', 'Im_JustinTimberlake.png', 'Im_BenAffleck.png'],diff,1,0.42498560000058205,32,85.71428571428571,
MAVI1806,train,inv,150,pos150_id1_im4.bmp_pos150_id1_im21.bmp,['Im_LeonardoDiCaprio.png', 'Im_ElijahWood.png', 'Im_MattDamon.png', 'Im_DanielRadcliffe.png', 'Im_BradPitt.png', 'Im_KeanuReeves.png', 'Im_OrlandoBloom.png', 'Im_DanielCraig.png', 'Im_JustinTimberlake.png', 'Im_BenAffleck.png'],diff,0,0.642006300000503,32,85.71428571428571,
MAVI1806,train,inv,120,pos120_id4_im15.bmp_pos120_id4_im20.bmp,['Im_LeonardoDiCaprio.png', 'Im_ElijahWood.png', 'Im_MattDamon.png', 'Im_DanielRadcliffe.png', 'Im_BradPitt.png', 'Im_KeanuReeves.png', 'Im_OrlandoBloom.png', 'Im_DanielCraig.png', 'Im_JustinTimberlake.png', 'Im_BenAffleck.png'],same,1,0.4250405000002502,33,85.71428571428571,
MAVI1806,train,inv,0,pos0_id1_im24.bmp_pos0_id1_im4.bmp,['Im_LeonardoDiCaprio.png', 'Im_ElijahWood.png', 'Im_MattDamon.png', 'Im_DanielRadcliffe.png', 'Im_BradPitt.png', 'Im_KeanuReeves.png', 'Im_OrlandoBloom.png', 'Im_DanielCraig.png', 'Im_JustinTimberlake.png', 'Im_BenAffleck.png'],same,1,0.4167054999998072,34,85.71428571428571,
MAVI1806,train,inv,90,pos90_id13_im10.bmp_pos90_id1_im21.bmp,['Im_LeonardoDiCaprio.png', 'Im_ElijahWood.png', 'Im_MattDamon.png', 'Im_DanielRadcliffe.png', 'Im_BradPitt.png', 'Im_KeanuReeves.png', 'Im_OrlandoBloom.png', 'Im_DanielCraig.png', 'Im_JustinTimberlake.png', 'Im_BenAffleck.png'],diff,1,0.7251866000005975,35,85.71428571428571,
MAVI1806,train,inv,fs,posfs_id10_im1.bmp_posfs_id10_im18.bmp,['Im_LeonardoDiCaprio.png', 'Im_ElijahWood.png', 'Im_MattDamon.png', 'Im_DanielRadcliffe.png', 'Im_BradPitt.png', 'Im_KeanuReeves.png', 'Im_OrlandoBloom.png', 'Im_DanielCraig.png', 'Im_JustinTimberlake.png', 'Im_BenAffleck.png'],same,1,0.4249283999997715,36,85.71428571428571,
MAVI1806,train,inv,60,pos60_id14_im24.bmp_pos60_id14_im16.bmp,['Im_LeonardoDiCaprio.png', 'Im_ElijahWood.png', 'Im_MattDamon.png', 'Im_DanielRadcliffe.png', 'Im_BradPitt.png', 'Im_KeanuReeves.png', 'Im_OrlandoBloom.png', 'Im_DanielCraig.png', 'Im_JustinTimberlake.png', 'Im_BenAffleck.png'],same,1,0.4251162000000477,37,85.71428571428571,
MAVI1806,train,inv,0,pos0_id3_im8.bmp_pos0_id3_im6.bmp,['Im_LeonardoDiCaprio.png', 'Im_ElijahWood.png', 'Im_MattDamon.png', 'Im_DanielRadcliffe.png', 'Im_BradPitt.png', 'Im_KeanuReeves.png', 'Im_OrlandoBloom.png', 'Im_DanielCraig.png', 'Im_JustinTimberlake.png', 'Im_BenAffleck.png'],same,1,0.4250975000013568,38,85.71428571428571,
MAVI1806,train,inv,120,pos120_id5_im1.bmp_pos120_id5_im20.bmp,['Im_LeonardoDiCaprio.png', 'Im_ElijahWood.png', 'Im_MattDamon.png', 'Im_DanielRadcliffe.png', 'Im_BradPitt.png', 'Im_KeanuReeves.png', 'Im_OrlandoBloom.png', 'Im_DanielCraig.png', 'Im_JustinTimberlake.png', 'Im_BenAffleck.png'],same,1,0.4252152000008209,39,85.71428571428571,
MAVI1806,0,pos,60,pos60_id4_im7.bmp_pos60_id14_im18.bmp,['Im_LeonardoDiCaprio.png', 'Im_ElijahWood.png', 'Im_MattDamon.png', 'Im_DanielRadcliffe.png', 'Im_BradPitt.png', 'Im_KeanuReeves.png', 'Im_OrlandoBloom.png', 'Im_DanielCraig.png', 'Im_JustinTimberlake.png', 'Im_BenAffleck.png'],diff,1,0.4250580000007176,1,0,
MAVI1806,0,pos,150,pos150_id10_im1.bmp_pos150_id3_im17.bmp,['Im_LeonardoDiCaprio.png', 'Im_ElijahWood.png', 'Im_MattDamon.png', 'Im_DanielRadcliffe.png', 'Im_BradPitt.png', 'Im_KeanuReeves.png', 'Im_OrlandoBloom.png', 'Im_DanielCraig.png', 'Im_JustinTimberlake.png', 'Im_BenAffleck.png'],diff,1,0.42516600000089966,2,0,
MAVI1806,0,pos,30,pos30_id10_im1.bmp_pos30_id3_im17.bmp,['Im_LeonardoDiCaprio.png', 'Im_ElijahWood.png', 'Im_MattDamon.png', 'Im_DanielRadcliffe.png', 'Im_BradPitt.png', 'Im_KeanuReeves.png', 'Im_OrlandoBloom.png', 'Im_DanielCraig.png', 'Im_JustinTimberlake.png', 'Im_BenAffleck.png'],diff,1,0.41662390000055893,3,0,
MAVI1806,0,pos,150,pos150_id3_im17.bmp_pos150_id11_im2.bmp,['Im_LeonardoDiCaprio.png', 'Im_ElijahWood.png', 'Im_MattDamon.png', 'Im_DanielRadcliffe.png', 'Im_BradPitt.png', 'Im_KeanuReeves.png', 'Im_OrlandoBloom.png', 'Im_DanielCraig.png', 'Im_JustinTimberlake.png', 'Im_BenAffleck.png'],diff,1,0.4250107999996544,4,0,
MAVI1806,0,pos,fs,posfs_id13_im15.bmp_posfs_id13_im29.bmp,['Im_LeonardoDiCaprio.png', 'Im_ElijahWood.png', 'Im_MattDamon.png', 'Im_DanielRadcliffe.png', 'Im_BradPitt.png', 'Im_KeanuReeves.png', 'Im_OrlandoBloom.png', 'Im_DanielCraig.png', 'Im_JustinTimberlake.png', 'Im_BenAffleck.png'],same,1,0.4333888000001025,5,0,
MAVI1806,0,pos,90,pos90_id14_im16.bmp_pos90_id3_im8.bmp,['Im_LeonardoDiCaprio.png', 'Im_ElijahWood.png', 'Im_MattDamon.png', 'Im_DanielRadcliffe.png', 'Im_BradPitt.png', 'Im_KeanuReeves.png', 'Im_OrlandoBloom.png', 'Im_DanielCraig.png', 'Im_JustinTimberlake.png', 'Im_BenAffleck.png'],diff,1,0.725309900000866,6,0,
MAVI1806,0,pos,fs,posfs_id3_im6.bmp_posfs_id10_im17.bmp,['Im_LeonardoDiCaprio.png', 'Im_ElijahWood.png', 'Im_MattDamon.png', 'Im_DanielRadcliffe.png', 'Im_BradPitt.png', 'Im_KeanuReeves.png', 'Im_OrlandoBloom.png', 'Im_DanielCraig.png', 'Im_JustinTimberlake.png', 'Im_BenAffleck.png'],diff,1,0.4168915999998717,7,0,
MAVI1806,0,pos,120,pos120_id5_im20.bmp_pos120_id5_im1.bmp,['Im_LeonardoDiCaprio.png', 'Im_ElijahWood.png', 'Im_MattDamon.png', 'Im_DanielRadcliffe.png', 'Im_BradPitt.png', 'Im_KeanuReeves.png', 'Im_OrlandoBloom.png', 'Im_DanielCraig.png', 'Im_JustinTimberlake.png', 'Im_BenAffleck.png'],same,1,0.41670169999997597,8,0,
MAVI1806,0,pos,120,pos120_id16_im2.bmp_pos120_id16_im3.bmp,['Im_LeonardoDiCaprio.png', 'Im_ElijahWood.png', 'Im_MattDamon.png', 'Im_DanielRadcliffe.png', 'Im_BradPitt.png', 'Im_KeanuReeves.png', 'Im_OrlandoBloom.png', 'Im_DanielCraig.png', 'Im_JustinTimberlake.png', 'Im_BenAffleck.png'],same,1,0.4250795999996626,9,0,
MAVI1806,0,pos,30,pos30_id13_im15.bmp_pos30_id11_im1.bmp,['Im_LeonardoDiCaprio.png', 'Im_ElijahWood.png', 'Im_MattDamon.png', 'Im_DanielRadcliffe.png', 'Im_BradPitt.png', 'Im_KeanuReeves.png', 'Im_OrlandoBloom.png', 'Im_DanielCraig.png', 'Im_JustinTimberlake.png', 'Im_BenAffleck.png'],diff,1,0.42512970000097994,10,0,
MAVI1806,0,pos,0,pos0_id1_im4.bmp_pos0_id10_im18.bmp,['Im_LeonardoDiCaprio.png', 'Im_ElijahWood.png', 'Im_MattDamon.png', 'Im_DanielRadcliffe.png', 'Im_BradPitt.png', 'Im_KeanuReeves.png', 'Im_OrlandoBloom.png', 'Im_DanielCraig.png', 'Im_JustinTimberlake.png', 'Im_BenAffleck.png'],same,0,0.43341030000010505,10,0,
MAVI1806,0,pos,0,pos0_id13_im29.bmp_pos0_id13_im15.bmp,['Im_LeonardoDiCaprio.png', 'Im_ElijahWood.png', 'Im_MattDamon.png', 'Im_DanielRadcliffe.png', 'Im_BradPitt.png', 'Im_KeanuReeves.png', 'Im_OrlandoBloom.png', 'Im_DanielCraig.png', 'Im_JustinTimberlake.png', 'Im_BenAffleck.png'],same,1,0.483419899999717,11,0,
MAVI1806,0,pos,90,pos90_id6_im18.bmp_pos90_id6_im12.bmp,['Im_LeonardoDiCaprio.png', 'Im_ElijahWood.png', 'Im_MattDamon.png', 'Im_DanielRadcliffe.png', 'Im_BradPitt.png', 'Im_KeanuReeves.png', 'Im_OrlandoBloom.png', 'Im_DanielCraig.png', 'Im_JustinTimberlake.png', 'Im_BenAffleck.png'],same,1,0.4250689999989845,12,0,
MAVI1806,0,pos,60,pos60_id4_im20.bmp_pos60_id1_im4.bmp,['Im_LeonardoDiCaprio.png', 'Im_ElijahWood.png', 'Im_MattDamon.png', 'Im_DanielRadcliffe.png', 'Im_BradPitt.png', 'Im_KeanuReeves.png', 'Im_OrlandoBloom.png', 'Im_DanielCraig.png', 'Im_JustinTimberlake.png', 'Im_BenAffleck.png'],diff,1,0.41668059999938123,13,0,
MAVI1806,1,neg,120,neg120_id3_im8.bmp_neg120_id6_im19.bmp,['Im_LeonardoDiCaprio.png', 'Im_ElijahWood.png', 'Im_MattDamon.png', 'Im_DanielRadcliffe.png', 'Im_BradPitt.png', 'Im_KeanuReeves.png', 'Im_OrlandoBloom.png', 'Im_DanielCraig.png', 'Im_JustinTimberlake.png', 'Im_BenAffleck.png'],diff,1,0.43369650000022375,14,0,
MAVI1806,1,neg,fs,negfs_id14_im16.bmp_negfs_id14_im24.bmp,['Im_LeonardoDiCaprio.png', 'Im_ElijahWood.png', 'Im_MattDamon.png', 'Im_DanielRadcliffe.png', 'Im_BradPitt.png', 'Im_KeanuReeves.png', 'Im_OrlandoBloom.png', 'Im_DanielCraig.png', 'Im_JustinTimberlake.png', 'Im_BenAffleck.png'],same,1,0.4167584999995597,15,0,
MAVI1806,1,neg,30,neg30_id5_im20.bmp_neg30_id5_im1.bmp,['Im_LeonardoDiCaprio.png', 'Im_ElijahWood.png', 'Im_MattDamon.png', 'Im_DanielRadcliffe.png', 'Im_BradPitt.png', 'Im_KeanuReeves.png', 'Im_OrlandoBloom.png', 'Im_DanielCraig.png', 'Im_JustinTimberlake.png', 'Im_BenAffleck.png'],same,1,0.4332706999994116,16,0,
MAVI1806,1,neg,150,neg150_id1_im24.bmp_neg150_id1_im4.bmp,['Im_LeonardoDiCaprio.png', 'Im_ElijahWood.png', 'Im_MattDamon.png', 'Im_DanielRadcliffe.png', 'Im_BradPitt.png', 'Im_KeanuReeves.png', 'Im_OrlandoBloom.png', 'Im_DanielCraig.png', 'Im_JustinTimberlake.png', 'Im_BenAffleck.png'],same,1,0.4083929000007629,17,0,
MAVI1806,1,neg,120,neg120_id1_im21.bmp_neg120_id13_im10.bmp,['Im_LeonardoDiCaprio.png', 'Im_ElijahWood.png', 'Im_MattDamon.png', 'Im_DanielRadcliffe.png', 'Im_BradPitt.png', 'Im_KeanuReeves.png', 'Im_OrlandoBloom.png', 'Im_DanielCraig.png', 'Im_JustinTimberlake.png', 'Im_BenAffleck.png'],diff,1,0.5002318999995623,18,0,
MAVI1806,1,neg,90,neg90_id6_im19.bmp_neg90_id6_im12.bmp,['Im_LeonardoDiCaprio.png', 'Im_ElijahWood.png', 'Im_MattDamon.png', 'Im_DanielRadcliffe.png', 'Im_BradPitt.png', 'Im_KeanuReeves.png', 'Im_OrlandoBloom.png', 'Im_DanielCraig.png', 'Im_JustinTimberlake.png', 'Im_BenAffleck.png'],same,1,0.4168190999989747,19,0,
MAVI1806,1,neg,0,neg0_id10_im17.bmp_neg0_id14_im18.bmp,['Im_LeonardoDiCaprio.png', 'Im_ElijahWood.png', 'Im_MattDamon.png', 'Im_DanielRadcliffe.png', 'Im_BradPitt.png', 'Im_KeanuReeves.png', 'Im_OrlandoBloom.png', 'Im_DanielCraig.png', 'Im_JustinTimberlake.png', 'Im_BenAffleck.png'],same,0,0.42509029999928316,19,0,
MAVI1806,1,neg,150,neg150_id13_im15.bmp_neg150_id13_im29.bmp,['Im_LeonardoDiCaprio.png', 'Im_ElijahWood.png', 'Im_MattDamon.png', 'Im_DanielRadcliffe.png', 'Im_BradPitt.png', 'Im_KeanuReeves.png', 'Im_OrlandoBloom.png', 'Im_DanielCraig.png', 'Im_JustinTimberlake.png', 'Im_BenAffleck.png'],diff,0,0.4084079999993264,19,0,
MAVI1806,1,neg,30,neg30_id1_im21.bmp_neg30_id13_im10.bmp,['Im_LeonardoDiCaprio.png', 'Im_ElijahWood.png', 'Im_MattDamon.png', 'Im_DanielRadcliffe.png', 'Im_BradPitt.png', 'Im_KeanuReeves.png', 'Im_OrlandoBloom.png', 'Im_DanielCraig.png', 'Im_JustinTimberlake.png', 'Im_BenAffleck.png'],diff,1,0.6336272999997163,20,0,
MAVI1806,1,neg,0,neg0_id4_im15.bmp_neg0_id4_im20.bmp,['Im_LeonardoDiCaprio.png', 'Im_ElijahWood.png', 'Im_MattDamon.png', 'Im_DanielRadcliffe.png', 'Im_BradPitt.png', 'Im_KeanuReeves.png', 'Im_OrlandoBloom.png', 'Im_DanielCraig.png', 'Im_JustinTimberlake.png', 'Im_BenAffleck.png'],same,1,0.41673790000095323,21,0,
MAVI1806,1,neg,90,neg90_id1_im21.bmp_neg90_id1_im24.bmp,['Im_LeonardoDiCaprio.png', 'Im_ElijahWood.png', 'Im_MattDamon.png', 'Im_DanielRadcliffe.png', 'Im_BradPitt.png', 'Im_KeanuReeves.png', 'Im_OrlandoBloom.png', 'Im_DanielCraig.png', 'Im_JustinTimberlake.png', 'Im_BenAffleck.png'],diff,0,0.4750469999999041,21,0,
MAVI1806,1,neg,fs,negfs_id4_im15.bmp_negfs_id16_im19.bmp,['Im_LeonardoDiCaprio.png', 'Im_ElijahWood.png', 'Im_MattDamon.png', 'Im_DanielRadcliffe.png', 'Im_BradPitt.png', 'Im_KeanuReeves.png', 'Im_OrlandoBloom.png', 'Im_DanielCraig.png', 'Im_JustinTimberlake.png', 'Im_BenAffleck.png'],diff,1,0.6253869000011036,22,0,
MAVI1806,1,neg,60,neg60_id5_im10.bmp_neg60_id5_im1.bmp,['Im_LeonardoDiCaprio.png', 'Im_ElijahWood.png', 'Im_MattDamon.png', 'Im_DanielRadcliffe.png', 'Im_BradPitt.png', 'Im_KeanuReeves.png', 'Im_OrlandoBloom.png', 'Im_DanielCraig.png', 'Im_JustinTimberlake.png', 'Im_BenAffleck.png'],same,1,0.41673550000086834,23,0,
MAVI1806,1,neg,60,neg60_id16_im19.bmp_neg60_id16_im2.bmp,['Im_LeonardoDiCaprio.png', 'Im_ElijahWood.png', 'Im_MattDamon.png', 'Im_DanielRadcliffe.png', 'Im_BradPitt.png', 'Im_KeanuReeves.png', 'Im_OrlandoBloom.png', 'Im_DanielCraig.png', 'Im_JustinTimberlake.png', 'Im_BenAffleck.png'],same,1,0.41673740000078396,24,0,
MAVI1806,2,inv,120,pos120_id6_im12.bmp_pos120_id13_im29.bmp,['Im_LeonardoDiCaprio.png', 'Im_ElijahWood.png', 'Im_MattDamon.png', 'Im_DanielRadcliffe.png', 'Im_BradPitt.png', 'Im_KeanuReeves.png', 'Im_OrlandoBloom.png', 'Im_DanielCraig.png', 'Im_JustinTimberlake.png', 'Im_BenAffleck.png'],diff,1,0.9416662999992695,25,0,
MAVI1806,2,inv,30,pos30_id4_im20.bmp_pos30_id4_im15.bmp,['Im_LeonardoDiCaprio.png', 'Im_ElijahWood.png', 'Im_MattDamon.png', 'Im_DanielRadcliffe.png', 'Im_BradPitt.png', 'Im_KeanuReeves.png', 'Im_OrlandoBloom.png', 'Im_DanielCraig.png', 'Im_JustinTimberlake.png', 'Im_BenAffleck.png'],same,1,0.4249343999999837,26,0,
MAVI1806,2,inv,60,pos60_id1_im21.bmp_pos60_id1_im24.bmp,['Im_LeonardoDiCaprio.png', 'Im_ElijahWood.png', 'Im_MattDamon.png', 'Im_DanielRadcliffe.png', 'Im_BradPitt.png', 'Im_KeanuReeves.png', 'Im_OrlandoBloom.png', 'Im_DanielCraig.png', 'Im_JustinTimberlake.png', 'Im_BenAffleck.png'],same,1,0.5001775000000634,27,0,
MAVI1806,2,inv,90,pos90_id1_im24.bmp_pos90_id5_im10.bmp,['Im_LeonardoDiCaprio.png', 'Im_ElijahWood.png', 'Im_MattDamon.png', 'Im_DanielRadcliffe.png', 'Im_BradPitt.png', 'Im_KeanuReeves.png', 'Im_OrlandoBloom.png', 'Im_DanielCraig.png', 'Im_JustinTimberlake.png', 'Im_BenAffleck.png'],diff,1,0.416736299999684,28,0,
MAVI1806,2,inv,90,pos90_id16_im3.bmp_pos90_id16_im2.bmp,['Im_LeonardoDiCaprio.png', 'Im_ElijahWood.png', 'Im_MattDamon.png', 'Im_DanielRadcliffe.png', 'Im_BradPitt.png', 'Im_KeanuReeves.png', 'Im_OrlandoBloom.png', 'Im_DanielCraig.png', 'Im_JustinTimberlake.png', 'Im_BenAffleck.png'],same,1,0.408379700000296,29,0,
MAVI1806,2,inv,fs,posfs_id11_im2.bmp_posfs_id3_im17.bmp,['Im_LeonardoDiCaprio.png', 'Im_ElijahWood.png', 'Im_MattDamon.png', 'Im_DanielRadcliffe.png', 'Im_BradPitt.png', 'Im_KeanuReeves.png', 'Im_OrlandoBloom.png', 'Im_DanielCraig.png', 'Im_JustinTimberlake.png', 'Im_BenAffleck.png'],diff,1,0.4166986000000179,30,0,
MAVI1806,2,inv,120,pos120_id3_im6.bmp_pos120_id3_im8.bmp,['Im_LeonardoDiCaprio.png', 'Im_ElijahWood.png', 'Im_MattDamon.png', 'Im_DanielRadcliffe.png', 'Im_BradPitt.png', 'Im_KeanuReeves.png', 'Im_OrlandoBloom.png', 'Im_DanielCraig.png', 'Im_JustinTimberlake.png', 'Im_BenAffleck.png'],same,1,0.46700520000013057,31,0,
MAVI1806,2,inv,150,pos150_id13_im15.bmp_pos150_id5_im10.bmp,['Im_LeonardoDiCaprio.png', 'Im_ElijahWood.png', 'Im_MattDamon.png', 'Im_DanielRadcliffe.png', 'Im_BradPitt.png', 'Im_KeanuReeves.png', 'Im_OrlandoBloom.png', 'Im_DanielCraig.png', 'Im_JustinTimberlake.png', 'Im_BenAffleck.png'],diff,1,0.4250702999997884,32,0,
MAVI1806,2,inv,0,pos0_id4_im20.bmp_pos0_id1_im4.bmp,['Im_LeonardoDiCaprio.png', 'Im_ElijahWood.png', 'Im_MattDamon.png', 'Im_DanielRadcliffe.png', 'Im_BradPitt.png', 'Im_KeanuReeves.png', 'Im_OrlandoBloom.png', 'Im_DanielCraig.png', 'Im_JustinTimberlake.png', 'Im_BenAffleck.png'],diff,1,0.41672900000048685,33,0,
MAVI1806,2,inv,60,pos60_id1_im21.bmp_pos60_id6_im18.bmp,['Im_LeonardoDiCaprio.png', 'Im_ElijahWood.png', 'Im_MattDamon.png', 'Im_DanielRadcliffe.png', 'Im_BradPitt.png', 'Im_KeanuReeves.png', 'Im_OrlandoBloom.png', 'Im_DanielCraig.png', 'Im_JustinTimberlake.png', 'Im_BenAffleck.png'],diff,1,0.4167705999989266,34,0,
MAVI1806,2,inv,150,pos150_id4_im20.bmp_pos150_id4_im15.bmp,['Im_LeonardoDiCaprio.png', 'Im_ElijahWood.png', 'Im_MattDamon.png', 'Im_DanielRadcliffe.png', 'Im_BradPitt.png', 'Im_KeanuReeves.png', 'Im_OrlandoBloom.png', 'Im_DanielCraig.png', 'Im_JustinTimberlake.png', 'Im_BenAffleck.png'],same,1,0.4166304999998829,35,0,
MAVI1806,2,inv,fs,posfs_id16_im19.bmp_posfs_id16_im3.bmp,['Im_LeonardoDiCaprio.png', 'Im_ElijahWood.png', 'Im_MattDamon.png', 'Im_DanielRadcliffe.png', 'Im_BradPitt.png', 'Im_KeanuReeves.png', 'Im_OrlandoBloom.png', 'Im_DanielCraig.png', 'Im_JustinTimberlake.png', 'Im_BenAffleck.png'],same,1,0.4168188999992708,36,0,
MAVI1806,2,inv,30,pos30_id16_im2.bmp_pos30_id16_im3.bmp,['Im_LeonardoDiCaprio.png', 'Im_ElijahWood.png', 'Im_MattDamon.png', 'Im_DanielRadcliffe.png', 'Im_BradPitt.png', 'Im_KeanuReeves.png', 'Im_OrlandoBloom.png', 'Im_DanielCraig.png', 'Im_JustinTimberlake.png', 'Im_BenAffleck.png'],diff,0,0.40846419999979844,36,0,
MAVI1806,2,inv,0,pos0_id5_im10.bmp_pos0_id5_im20.bmp,['Im_LeonardoDiCaprio.png', 'Im_ElijahWood.png', 'Im_MattDamon.png', 'Im_DanielRadcliffe.png', 'Im_BradPitt.png', 'Im_KeanuReeves.png', 'Im_OrlandoBloom.png', 'Im_DanielCraig.png', 'Im_JustinTimberlake.png', 'Im_BenAffleck.png'],diff,0,0.4249973999994836,36,0,
MAVI1806,3,pos,60,pos60_id13_im29.bmp_pos60_id6_im12.bmp,['Im_LeonardoDiCaprio.png', 'Im_ElijahWood.png', 'Im_MattDamon.png', 'Im_DanielRadcliffe.png', 'Im_BradPitt.png', 'Im_KeanuReeves.png', 'Im_OrlandoBloom.png', 'Im_DanielCraig.png', 'Im_JustinTimberlake.png', 'Im_BenAffleck.png'],diff,1,0.4251488000008976,1,85.71428571428571,
MAVI1806,3,pos,0,pos0_id4_im7.bmp_pos0_id4_im15.bmp,['Im_LeonardoDiCaprio.png', 'Im_ElijahWood.png', 'Im_MattDamon.png', 'Im_DanielRadcliffe.png', 'Im_BradPitt.png', 'Im_KeanuReeves.png', 'Im_OrlandoBloom.png', 'Im_DanielCraig.png', 'Im_JustinTimberlake.png', 'Im_BenAffleck.png'],same,1,0.42501500000071246,2,85.71428571428571,
MAVI1806,3,pos,fs,posfs_id16_im19.bmp_posfs_id16_im2.bmp,['Im_LeonardoDiCaprio.png', 'Im_ElijahWood.png', 'Im_MattDamon.png', 'Im_DanielRadcliffe.png', 'Im_BradPitt.png', 'Im_KeanuReeves.png', 'Im_OrlandoBloom.png', 'Im_DanielCraig.png', 'Im_JustinTimberlake.png', 'Im_BenAffleck.png'],same,1,0.40835320000041975,3,85.71428571428571,
MAVI1806,3,pos,90,pos90_id10_im17.bmp_pos90_id10_im1.bmp,['Im_LeonardoDiCaprio.png', 'Im_ElijahWood.png', 'Im_MattDamon.png', 'Im_DanielRadcliffe.png', 'Im_BradPitt.png', 'Im_KeanuReeves.png', 'Im_OrlandoBloom.png', 'Im_DanielCraig.png', 'Im_JustinTimberlake.png', 'Im_BenAffleck.png'],same,1,0.41673830000036105,4,85.71428571428571,
MAVI1806,3,pos,120,pos120_id6_im19.bmp_pos120_id3_im8.bmp,['Im_LeonardoDiCaprio.png', 'Im_ElijahWood.png', 'Im_MattDamon.png', 'Im_DanielRadcliffe.png', 'Im_BradPitt.png', 'Im_KeanuReeves.png', 'Im_OrlandoBloom.png', 'Im_DanielCraig.png', 'Im_JustinTimberlake.png', 'Im_BenAffleck.png'],diff,1,0.4166929999992135,5,85.71428571428571,
MAVI1806,3,pos,120,pos120_id16_im2.bmp_pos120_id6_im18.bmp,['Im_LeonardoDiCaprio.png', 'Im_ElijahWood.png', 'Im_MattDamon.png', 'Im_DanielRadcliffe.png', 'Im_BradPitt.png', 'Im_KeanuReeves.png', 'Im_OrlandoBloom.png', 'Im_DanielCraig.png', 'Im_JustinTimberlake.png', 'Im_BenAffleck.png'],diff,1,0.42515239999920595,6,85.71428571428571,
MAVI1806,3,pos,30,pos30_id3_im6.bmp_pos30_id3_im8.bmp,['Im_LeonardoDiCaprio.png', 'Im_ElijahWood.png', 'Im_MattDamon.png', 'Im_DanielRadcliffe.png', 'Im_BradPitt.png', 'Im_KeanuReeves.png', 'Im_OrlandoBloom.png', 'Im_DanielCraig.png', 'Im_JustinTimberlake.png', 'Im_BenAffleck.png'],same,1,0.4167660999992222,7,85.71428571428571,
MAVI1806,3,pos,60,pos60_id11_im1.bmp_pos60_id11_im2.bmp,['Im_LeonardoDiCaprio.png', 'Im_ElijahWood.png', 'Im_MattDamon.png', 'Im_DanielRadcliffe.png', 'Im_BradPitt.png', 'Im_KeanuReeves.png', 'Im_OrlandoBloom.png', 'Im_DanielCraig.png', 'Im_JustinTimberlake.png', 'Im_BenAffleck.png'],same,1,0.41675709999981336,8,85.71428571428571,
MAVI1806,3,pos,0,pos0_id11_im10.bmp_pos0_id11_im1.bmp,['Im_LeonardoDiCaprio.png', 'Im_ElijahWood.png', 'Im_MattDamon.png', 'Im_DanielRadcliffe.png', 'Im_BradPitt.png', 'Im_KeanuReeves.png', 'Im_OrlandoBloom.png', 'Im_DanielCraig.png', 'Im_JustinTimberlake.png', 'Im_BenAffleck.png'],diff,0,0.5416272000002209,8,85.71428571428571,
MAVI1806,3,pos,90,pos90_id6_im18.bmp_pos90_id1_im21.bmp,['Im_LeonardoDiCaprio.png', 'Im_ElijahWood.png', 'Im_MattDamon.png', 'Im_DanielRadcliffe.png', 'Im_BradPitt.png', 'Im_KeanuReeves.png', 'Im_OrlandoBloom.png', 'Im_DanielCraig.png', 'Im_JustinTimberlake.png', 'Im_BenAffleck.png'],diff,1,0.4084158000005118,9,85.71428571428571,
MAVI1806,3,pos,150,pos150_id11_im10.bmp_pos150_id11_im1.bmp,['Im_LeonardoDiCaprio.png', 'Im_ElijahWood.png', 'Im_MattDamon.png', 'Im_DanielRadcliffe.png', 'Im_BradPitt.png', 'Im_KeanuReeves.png', 'Im_OrlandoBloom.png', 'Im_DanielCraig.png', 'Im_JustinTimberlake.png', 'Im_BenAffleck.png'],same,1,0.5749949999990349,10,85.71428571428571,
MAVI1806,3,pos,fs,posfs_id4_im7.bmp_posfs_id4_im20.bmp,['Im_LeonardoDiCaprio.png', 'Im_ElijahWood.png', 'Im_MattDamon.png', 'Im_DanielRadcliffe.png', 'Im_BradPitt.png', 'Im_KeanuReeves.png', 'Im_OrlandoBloom.png', 'Im_DanielCraig.png', 'Im_JustinTimberlake.png', 'Im_BenAffleck.png'],same,1,0.4167937999991409,11,85.71428571428571,
MAVI1806,3,pos,150,pos150_id16_im19.bmp_pos150_id16_im3.bmp,['Im_LeonardoDiCaprio.png', 'Im_ElijahWood.png', 'Im_MattDamon.png', 'Im_DanielRadcliffe.png', 'Im_BradPitt.png', 'Im_KeanuReeves.png', 'Im_OrlandoBloom.png', 'Im_DanielCraig.png', 'Im_JustinTimberlake.png', 'Im_BenAffleck.png'],same,1,0.42509529999915685,12,85.71428571428571,
MAVI1806,3,pos,30,pos30_id4_im15.bmp_pos30_id5_im1.bmp,['Im_LeonardoDiCaprio.png', 'Im_ElijahWood.png', 'Im_MattDamon.png', 'Im_DanielRadcliffe.png', 'Im_BradPitt.png', 'Im_KeanuReeves.png', 'Im_OrlandoBloom.png', 'Im_DanielCraig.png', 'Im_JustinTimberlake.png', 'Im_BenAffleck.png'],diff,1,0.4170266000000993,13,85.71428571428571,
MAVI1806,4,neg,30,neg30_id6_im12.bmp_neg30_id6_im19.bmp,['Im_LeonardoDiCaprio.png', 'Im_ElijahWood.png', 'Im_MattDamon.png', 'Im_DanielRadcliffe.png', 'Im_BradPitt.png', 'Im_KeanuReeves.png', 'Im_OrlandoBloom.png', 'Im_DanielCraig.png', 'Im_JustinTimberlake.png', 'Im_BenAffleck.png'],diff,0,0.41667679999955,13,85.71428571428571,
MAVI1806,4,neg,60,neg60_id16_im2.bmp_neg60_id6_im18.bmp,['Im_LeonardoDiCaprio.png', 'Im_ElijahWood.png', 'Im_MattDamon.png', 'Im_DanielRadcliffe.png', 'Im_BradPitt.png', 'Im_KeanuReeves.png', 'Im_OrlandoBloom.png', 'Im_DanielCraig.png', 'Im_JustinTimberlake.png', 'Im_BenAffleck.png'],same,0,0.4251946999993379,13,85.71428571428571,
MAVI1806,4,neg,120,neg120_id4_im7.bmp_neg120_id14_im24.bmp,['Im_LeonardoDiCaprio.png', 'Im_ElijahWood.png', 'Im_MattDamon.png', 'Im_DanielRadcliffe.png', 'Im_BradPitt.png', 'Im_KeanuReeves.png', 'Im_OrlandoBloom.png', 'Im_DanielCraig.png', 'Im_JustinTimberlake.png', 'Im_BenAffleck.png'],diff,1,0.4587111000000732,14,85.71428571428571,
MAVI1806,4,neg,90,neg90_id4_im15.bmp_neg90_id4_im7.bmp,['Im_LeonardoDiCaprio.png', 'Im_ElijahWood.png', 'Im_MattDamon.png', 'Im_DanielRadcliffe.png', 'Im_BradPitt.png', 'Im_KeanuReeves.png', 'Im_OrlandoBloom.png', 'Im_DanielCraig.png', 'Im_JustinTimberlake.png', 'Im_BenAffleck.png'],same,1,0.4167272000013327,15,85.71428571428571,
MAVI1806,4,neg,0,neg0_id6_im18.bmp_neg0_id1_im21.bmp,['Im_LeonardoDiCaprio.png', 'Im_ElijahWood.png', 'Im_MattDamon.png', 'Im_DanielRadcliffe.png', 'Im_BradPitt.png', 'Im_KeanuReeves.png', 'Im_OrlandoBloom.png', 'Im_DanielCraig.png', 'Im_JustinTimberlake.png', 'Im_BenAffleck.png'],diff,1,0.4166986000000179,16,85.71428571428571,
MAVI1806,4,neg,30,neg30_id3_im6.bmp_neg30_id3_im8.bmp,['Im_LeonardoDiCaprio.png', 'Im_ElijahWood.png', 'Im_MattDamon.png', 'Im_DanielRadcliffe.png', 'Im_BradPitt.png', 'Im_KeanuReeves.png', 'Im_OrlandoBloom.png', 'Im_DanielCraig.png', 'Im_JustinTimberlake.png', 'Im_BenAffleck.png'],same,1,0.4250709999996616,17,85.71428571428571,
MAVI1806,4,neg,fs,negfs_id6_im18.bmp_negfs_id6_im19.bmp,['Im_LeonardoDiCaprio.png', 'Im_ElijahWood.png', 'Im_MattDamon.png', 'Im_DanielRadcliffe.png', 'Im_BradPitt.png', 'Im_KeanuReeves.png', 'Im_OrlandoBloom.png', 'Im_DanielCraig.png', 'Im_JustinTimberlake.png', 'Im_BenAffleck.png'],same,1,0.4250525999996171,18,85.71428571428571,
MAVI1806,4,neg,90,neg90_id1_im21.bmp_neg90_id1_im4.bmp,['Im_LeonardoDiCaprio.png', 'Im_ElijahWood.png', 'Im_MattDamon.png', 'Im_DanielRadcliffe.png', 'Im_BradPitt.png', 'Im_KeanuReeves.png', 'Im_OrlandoBloom.png', 'Im_DanielCraig.png', 'Im_JustinTimberlake.png', 'Im_BenAffleck.png'],same,1,0.5250380000015866,19,85.71428571428571,
MAVI1806,4,neg,120,neg120_id13_im29.bmp_neg120_id6_im12.bmp,['Im_LeonardoDiCaprio.png', 'Im_ElijahWood.png', 'Im_MattDamon.png', 'Im_DanielRadcliffe.png', 'Im_BradPitt.png', 'Im_KeanuReeves.png', 'Im_OrlandoBloom.png', 'Im_DanielCraig.png', 'Im_JustinTimberlake.png', 'Im_BenAffleck.png'],diff,1,0.42501199999969685,20,85.71428571428571,
MAVI1806,4,neg,60,neg60_id3_im8.bmp_neg60_id6_im19.bmp,['Im_LeonardoDiCaprio.png', 'Im_ElijahWood.png', 'Im_MattDamon.png', 'Im_DanielRadcliffe.png', 'Im_BradPitt.png', 'Im_KeanuReeves.png', 'Im_OrlandoBloom.png', 'Im_DanielCraig.png', 'Im_JustinTimberlake.png', 'Im_BenAffleck.png'],diff,1,0.40844949999882374,21,85.71428571428571,
MAVI1806,4,neg,0,neg0_id1_im4.bmp_neg0_id10_im18.bmp,['Im_LeonardoDiCaprio.png', 'Im_ElijahWood.png', 'Im_MattDamon.png', 'Im_DanielRadcliffe.png', 'Im_BradPitt.png', 'Im_KeanuReeves.png', 'Im_OrlandoBloom.png', 'Im_DanielCraig.png', 'Im_JustinTimberlake.png', 'Im_BenAffleck.png'],diff,1,0.5752714999998716,22,85.71428571428571,
MAVI1806,4,neg,150,neg150_id11_im2.bmp_neg150_id11_im10.bmp,['Im_LeonardoDiCaprio.png', 'Im_ElijahWood.png', 'Im_MattDamon.png', 'Im_DanielRadcliffe.png', 'Im_BradPitt.png', 'Im_KeanuReeves.png', 'Im_OrlandoBloom.png', 'Im_DanielCraig.png', 'Im_JustinTimberlake.png', 'Im_BenAffleck.png'],same,1,0.9166726000003109,23,85.71428571428571,
MAVI1806,4,neg,fs,negfs_id11_im1.bmp_negfs_id13_im15.bmp,['Im_LeonardoDiCaprio.png', 'Im_ElijahWood.png', 'Im_MattDamon.png', 'Im_DanielRadcliffe.png', 'Im_BradPitt.png', 'Im_KeanuReeves.png', 'Im_OrlandoBloom.png', 'Im_DanielCraig.png', 'Im_JustinTimberlake.png', 'Im_BenAffleck.png'],diff,1,0.42491009999866947,24,85.71428571428571,
MAVI1806,4,neg,150,neg150_id6_im12.bmp_neg150_id4_im20.bmp,['Im_LeonardoDiCaprio.png', 'Im_ElijahWood.png', 'Im_MattDamon.png', 'Im_DanielRadcliffe.png', 'Im_BradPitt.png', 'Im_KeanuReeves.png', 'Im_OrlandoBloom.png', 'Im_DanielCraig.png', 'Im_JustinTimberlake.png', 'Im_BenAffleck.png'],diff,1,0.42517380000026606,25,85.71428571428571,
MAVI1806,5,pos,150,pos150_id5_im1.bmp_pos150_id5_im20.bmp,['Im_LeonardoDiCaprio.png', 'Im_ElijahWood.png', 'Im_MattDamon.png', 'Im_DanielRadcliffe.png', 'Im_BradPitt.png', 'Im_KeanuReeves.png', 'Im_OrlandoBloom.png', 'Im_DanielCraig.png', 'Im_JustinTimberlake.png', 'Im_BenAffleck.png'],same,1,0.5918689999998605,26,85.71428571428571,
MAVI1806,5,pos,fs,posfs_id16_im2.bmp_posfs_id6_im18.bmp,['Im_LeonardoDiCaprio.png', 'Im_ElijahWood.png', 'Im_MattDamon.png', 'Im_DanielRadcliffe.png', 'Im_BradPitt.png', 'Im_KeanuReeves.png', 'Im_OrlandoBloom.png', 'Im_DanielCraig.png', 'Im_JustinTimberlake.png', 'Im_BenAffleck.png'],diff,1,0.416747100000066,27,85.71428571428571,
MAVI1806,5,pos,30,pos30_id4_im15.bmp_pos30_id16_im19.bmp,['Im_LeonardoDiCaprio.png', 'Im_ElijahWood.png', 'Im_MattDamon.png', 'Im_DanielRadcliffe.png', 'Im_BradPitt.png', 'Im_KeanuReeves.png', 'Im_OrlandoBloom.png', 'Im_DanielCraig.png', 'Im_JustinTimberlake.png', 'Im_BenAffleck.png'],diff,1,0.4084701000010682,28,85.71428571428571,
MAVI1806,5,pos,120,pos120_id5_im10.bmp_pos120_id1_im24.bmp,['Im_LeonardoDiCaprio.png', 'Im_ElijahWood.png', 'Im_MattDamon.png', 'Im_DanielRadcliffe.png', 'Im_BradPitt.png', 'Im_KeanuReeves.png', 'Im_OrlandoBloom.png', 'Im_DanielCraig.png', 'Im_JustinTimberlake.png', 'Im_BenAffleck.png'],diff,1,0.425144699998782,29,85.71428571428571,
MAVI1806,5,pos,0,pos0_id16_im2.bmp_pos0_id6_im18.bmp,['Im_LeonardoDiCaprio.png', 'Im_ElijahWood.png', 'Im_MattDamon.png', 'Im_DanielRadcliffe.png', 'Im_BradPitt.png', 'Im_KeanuReeves.png', 'Im_OrlandoBloom.png', 'Im_DanielCraig.png', 'Im_JustinTimberlake.png', 'Im_BenAffleck.png'],diff,1,0.4252328000002308,30,85.71428571428571,
MAVI1806,5,pos,60,pos60_id14_im16.bmp_pos60_id14_im18.bmp,['Im_LeonardoDiCaprio.png', 'Im_ElijahWood.png', 'Im_MattDamon.png', 'Im_DanielRadcliffe.png', 'Im_BradPitt.png', 'Im_KeanuReeves.png', 'Im_OrlandoBloom.png', 'Im_DanielCraig.png', 'Im_JustinTimberlake.png', 'Im_BenAffleck.png'],same,1,0.41665649999958987,31,85.71428571428571,
MAVI1806,5,pos,90,pos90_id16_im3.bmp_pos90_id11_im1.bmp,['Im_LeonardoDiCaprio.png', 'Im_ElijahWood.png', 'Im_MattDamon.png', 'Im_DanielRadcliffe.png', 'Im_BradPitt.png', 'Im_KeanuReeves.png', 'Im_OrlandoBloom.png', 'Im_DanielCraig.png', 'Im_JustinTimberlake.png', 'Im_BenAffleck.png'],diff,1,0.43337269999938144,32,85.71428571428571,
MAVI1806,5,pos,150,pos150_id6_im18.bmp_pos150_id1_im21.bmp,['Im_LeonardoDiCaprio.png', 'Im_ElijahWood.png', 'Im_MattDamon.png', 'Im_DanielRadcliffe.png', 'Im_BradPitt.png', 'Im_KeanuReeves.png', 'Im_OrlandoBloom.png', 'Im_DanielCraig.png', 'Im_JustinTimberlake.png', 'Im_BenAffleck.png'],diff,1,0.4167808000001969,33,85.71428571428571,
MAVI1806,5,pos,60,pos60_id3_im17.bmp_pos60_id11_im2.bmp,['Im_LeonardoDiCaprio.png', 'Im_ElijahWood.png', 'Im_MattDamon.png', 'Im_DanielRadcliffe.png', 'Im_BradPitt.png', 'Im_KeanuReeves.png', 'Im_OrlandoBloom.png', 'Im_DanielCraig.png', 'Im_JustinTimberlake.png', 'Im_BenAffleck.png'],diff,1,0.5253759000006539,34,85.71428571428571,
MAVI1806,5,pos,fs,posfs_id10_im1.bmp_posfs_id3_im17.bmp,['Im_LeonardoDiCaprio.png', 'Im_ElijahWood.png', 'Im_MattDamon.png', 'Im_DanielRadcliffe.png', 'Im_BradPitt.png', 'Im_KeanuReeves.png', 'Im_OrlandoBloom.png', 'Im_DanielCraig.png', 'Im_JustinTimberlake.png', 'Im_BenAffleck.png'],diff,1,0.4169533999993291,35,85.71428571428571,
MAVI1806,5,pos,30,pos30_id4_im20.bmp_pos30_id1_im4.bmp,['Im_LeonardoDiCaprio.png', 'Im_ElijahWood.png', 'Im_MattDamon.png', 'Im_DanielRadcliffe.png', 'Im_BradPitt.png', 'Im_KeanuReeves.png', 'Im_OrlandoBloom.png', 'Im_DanielCraig.png', 'Im_JustinTimberlake.png', 'Im_BenAffleck.png'],diff,1,0.4168452999983856,36,85.71428571428571,
MAVI1806,5,pos,0,pos0_id3_im8.bmp_pos0_id6_im19.bmp,['Im_LeonardoDiCaprio.png', 'Im_ElijahWood.png', 'Im_MattDamon.png', 'Im_DanielRadcliffe.png', 'Im_BradPitt.png', 'Im_KeanuReeves.png', 'Im_OrlandoBloom.png', 'Im_DanielCraig.png', 'Im_JustinTimberlake.png', 'Im_BenAffleck.png'],diff,1,0.4169058999978006,37,85.71428571428571,
MAVI1806,5,pos,120,pos120_id4_im20.bmp_pos120_id4_im15.bmp,['Im_LeonardoDiCaprio.png', 'Im_ElijahWood.png', 'Im_MattDamon.png', 'Im_DanielRadcliffe.png', 'Im_BradPitt.png', 'Im_KeanuReeves.png', 'Im_OrlandoBloom.png', 'Im_DanielCraig.png', 'Im_JustinTimberlake.png', 'Im_BenAffleck.png'],same,1,0.4167240999995556,38,85.71428571428571,
MAVI1806,5,pos,90,pos90_id1_im4.bmp_pos90_id10_im18.bmp,['Im_LeonardoDiCaprio.png', 'Im_ElijahWood.png', 'Im_MattDamon.png', 'Im_DanielRadcliffe.png', 'Im_BradPitt.png', 'Im_KeanuReeves.png', 'Im_OrlandoBloom.png', 'Im_DanielCraig.png', 'Im_JustinTimberlake.png', 'Im_BenAffleck.png'],diff,1,0.4168153999999049,39,85.71428571428571,
MAVI1806,6,inv,90,pos90_id5_im20.bmp_pos90_id1_im24.bmp,['Im_LeonardoDiCaprio.png', 'Im_ElijahWood.png', 'Im_MattDamon.png', 'Im_DanielRadcliffe.png', 'Im_BradPitt.png', 'Im_KeanuReeves.png', 'Im_OrlandoBloom.png', 'Im_DanielCraig.png', 'Im_JustinTimberlake.png', 'Im_BenAffleck.png'],diff,1,0.40842800000245916,1,92.85714285714286,
MAVI1806,6,inv,30,pos30_id10_im1.bmp_pos30_id10_im17.bmp,['Im_LeonardoDiCaprio.png', 'Im_ElijahWood.png', 'Im_MattDamon.png', 'Im_DanielRadcliffe.png', 'Im_BradPitt.png', 'Im_KeanuReeves.png', 'Im_OrlandoBloom.png', 'Im_DanielCraig.png', 'Im_JustinTimberlake.png', 'Im_BenAffleck.png'],same,1,0.4169043000001693,2,92.85714285714286,
MAVI1806,6,inv,30,pos30_id16_im3.bmp_pos30_id13_im29.bmp,['Im_LeonardoDiCaprio.png', 'Im_ElijahWood.png', 'Im_MattDamon.png', 'Im_DanielRadcliffe.png', 'Im_BradPitt.png', 'Im_KeanuReeves.png', 'Im_OrlandoBloom.png', 'Im_DanielCraig.png', 'Im_JustinTimberlake.png', 'Im_BenAffleck.png'],diff,1,0.9917967000001227,3,92.85714285714286,
MAVI1806,6,inv,120,pos120_id6_im12.bmp_pos120_id6_im18.bmp,['Im_LeonardoDiCaprio.png', 'Im_ElijahWood.png', 'Im_MattDamon.png', 'Im_DanielRadcliffe.png', 'Im_BradPitt.png', 'Im_KeanuReeves.png', 'Im_OrlandoBloom.png', 'Im_DanielCraig.png', 'Im_JustinTimberlake.png', 'Im_BenAffleck.png'],diff,0,0.4250288000002911,3,92.85714285714286,
MAVI1806,6,inv,0,pos0_id6_im18.bmp_pos0_id1_im21.bmp,['Im_LeonardoDiCaprio.png', 'Im_ElijahWood.png', 'Im_MattDamon.png', 'Im_DanielRadcliffe.png', 'Im_BradPitt.png', 'Im_KeanuReeves.png', 'Im_OrlandoBloom.png', 'Im_DanielCraig.png', 'Im_JustinTimberlake.png', 'Im_BenAffleck.png'],same,0,0.41669850000107544,3,92.85714285714286,
MAVI1806,6,inv,60,pos60_id3_im6.bmp_pos60_id3_im17.bmp,['Im_LeonardoDiCaprio.png', 'Im_ElijahWood.png', 'Im_MattDamon.png', 'Im_DanielRadcliffe.png', 'Im_BradPitt.png', 'Im_KeanuReeves.png', 'Im_OrlandoBloom.png', 'Im_DanielCraig.png', 'Im_JustinTimberlake.png', 'Im_BenAffleck.png'],diff,0,0.41672380000090925,3,92.85714285714286,
MAVI1806,6,inv,150,pos150_id4_im7.bmp_pos150_id4_im20.bmp,['Im_LeonardoDiCaprio.png', 'Im_ElijahWood.png', 'Im_MattDamon.png', 'Im_DanielRadcliffe.png', 'Im_BradPitt.png', 'Im_KeanuReeves.png', 'Im_OrlandoBloom.png', 'Im_DanielCraig.png', 'Im_JustinTimberlake.png', 'Im_BenAffleck.png'],same,1,0.4166561999991245,4,92.85714285714286,
MAVI1806,6,inv,60,pos60_id5_im10.bmp_pos60_id5_im20.bmp,['Im_LeonardoDiCaprio.png', 'Im_ElijahWood.png', 'Im_MattDamon.png', 'Im_DanielRadcliffe.png', 'Im_BradPitt.png', 'Im_KeanuReeves.png', 'Im_OrlandoBloom.png', 'Im_DanielCraig.png', 'Im_JustinTimberlake.png', 'Im_BenAffleck.png'],diff,0,0.4167383999993035,4,92.85714285714286,
MAVI1806,6,inv,0,pos0_id16_im19.bmp_pos0_id4_im15.bmp,['Im_LeonardoDiCaprio.png', 'Im_ElijahWood.png', 'Im_MattDamon.png', 'Im_DanielRadcliffe.png', 'Im_BradPitt.png', 'Im_KeanuReeves.png', 'Im_OrlandoBloom.png', 'Im_DanielCraig.png', 'Im_JustinTimberlake.png', 'Im_BenAffleck.png'],diff,1,0.41668529999878956,5,92.85714285714286,
MAVI1806,6,inv,90,pos90_id13_im29.bmp_pos90_id16_im3.bmp,['Im_LeonardoDiCaprio.png', 'Im_ElijahWood.png', 'Im_MattDamon.png', 'Im_DanielRadcliffe.png', 'Im_BradPitt.png', 'Im_KeanuReeves.png', 'Im_OrlandoBloom.png', 'Im_DanielCraig.png', 'Im_JustinTimberlake.png', 'Im_BenAffleck.png'],same,0,0.43338890000086394,5,92.85714285714286,
MAVI1806,6,inv,120,pos120_id5_im1.bmp_pos120_id5_im10.bmp,['Im_LeonardoDiCaprio.png', 'Im_ElijahWood.png', 'Im_MattDamon.png', 'Im_DanielRadcliffe.png', 'Im_BradPitt.png', 'Im_KeanuReeves.png', 'Im_OrlandoBloom.png', 'Im_DanielCraig.png', 'Im_JustinTimberlake.png', 'Im_BenAffleck.png'],same,1,0.4250818000000436,6,92.85714285714286,
MAVI1806,6,inv,fs,posfs_id4_im20.bmp_posfs_id4_im15.bmp,['Im_LeonardoDiCaprio.png', 'Im_ElijahWood.png', 'Im_MattDamon.png', 'Im_DanielRadcliffe.png', 'Im_BradPitt.png', 'Im_KeanuReeves.png', 'Im_OrlandoBloom.png', 'Im_DanielCraig.png', 'Im_JustinTimberlake.png', 'Im_BenAffleck.png'],same,1,0.416741600001842,7,92.85714285714286,
MAVI1806,6,inv,150,pos150_id11_im2.bmp_pos150_id3_im17.bmp,['Im_LeonardoDiCaprio.png', 'Im_ElijahWood.png', 'Im_MattDamon.png', 'Im_DanielRadcliffe.png', 'Im_BradPitt.png', 'Im_KeanuReeves.png', 'Im_OrlandoBloom.png', 'Im_DanielCraig.png', 'Im_JustinTimberlake.png', 'Im_BenAffleck.png'],diff,1,0.433307600000262,8,92.85714285714286,
MAVI1806,6,inv,fs,posfs_id6_im12.bmp_posfs_id6_im18.bmp,['Im_LeonardoDiCaprio.png', 'Im_ElijahWood.png', 'Im_MattDamon.png', 'Im_DanielRadcliffe.png', 'Im_BradPitt.png', 'Im_KeanuReeves.png', 'Im_OrlandoBloom.png', 'Im_DanielCraig.png', 'Im_JustinTimberlake.png', 'Im_BenAffleck.png'],same,1,1.1002517999986594,9,92.85714285714286,
MAVI1806,7,inv,120,pos120_id1_im4.bmp_pos120_id10_im18.bmp,['Im_LeonardoDiCaprio.png', 'Im_ElijahWood.png', 'Im_MattDamon.png', 'Im_DanielRadcliffe.png', 'Im_BradPitt.png', 'Im_KeanuReeves.png', 'Im_OrlandoBloom.png', 'Im_DanielCraig.png', 'Im_JustinTimberlake.png', 'Im_BenAffleck.png'],same,0,0.466703599999164,9,92.85714285714286,
MAVI1806,7,inv,30,pos30_id6_im19.bmp_pos30_id6_im12.bmp,['Im_LeonardoDiCaprio.png', 'Im_ElijahWood.png', 'Im_MattDamon.png', 'Im_DanielRadcliffe.png', 'Im_BradPitt.png', 'Im_KeanuReeves.png', 'Im_OrlandoBloom.png', 'Im_DanielCraig.png', 'Im_JustinTimberlake.png', 'Im_BenAffleck.png'],diff,0,0.4250276999991911,9,92.85714285714286,
MAVI1806,7,inv,150,pos150_id14_im24.bmp_pos150_id3_im6.bmp,['Im_LeonardoDiCaprio.png', 'Im_ElijahWood.png', 'Im_MattDamon.png', 'Im_DanielRadcliffe.png', 'Im_BradPitt.png', 'Im_KeanuReeves.png', 'Im_OrlandoBloom.png', 'Im_DanielCraig.png', 'Im_JustinTimberlake.png', 'Im_BenAffleck.png'],same,0,0.4250184000011359,9,92.85714285714286,
MAVI1806,7,inv,90,pos90_id10_im1.bmp_pos90_id10_im17.bmp,['Im_LeonardoDiCaprio.png', 'Im_ElijahWood.png', 'Im_MattDamon.png', 'Im_DanielRadcliffe.png', 'Im_BradPitt.png', 'Im_KeanuReeves.png', 'Im_OrlandoBloom.png', 'Im_DanielCraig.png', 'Im_JustinTimberlake.png', 'Im_BenAffleck.png'],diff,0,0.5167991999987862,9,92.85714285714286,
MAVI1806,7,inv,60,pos60_id6_im12.bmp_pos60_id6_im18.bmp,['Im_LeonardoDiCaprio.png', 'Im_ElijahWood.png', 'Im_MattDamon.png', 'Im_DanielRadcliffe.png', 'Im_BradPitt.png', 'Im_KeanuReeves.png', 'Im_OrlandoBloom.png', 'Im_DanielCraig.png', 'Im_JustinTimberlake.png', 'Im_BenAffleck.png'],diff,0,0.41670349999913014,9,92.85714285714286,
MAVI1806,7,inv,90,pos90_id10_im17.bmp_pos90_id10_im18.bmp,['Im_LeonardoDiCaprio.png', 'Im_ElijahWood.png', 'Im_MattDamon.png', 'Im_DanielRadcliffe.png', 'Im_BradPitt.png', 'Im_KeanuReeves.png', 'Im_OrlandoBloom.png', 'Im_DanielCraig.png', 'Im_JustinTimberlake.png', 'Im_BenAffleck.png'],same,1,0.6001480999984778,10,92.85714285714286,
MAVI1806,7,inv,120,pos120_id14_im24.bmp_pos120_id14_im18.bmp,['Im_LeonardoDiCaprio.png', 'Im_ElijahWood.png', 'Im_MattDamon.png', 'Im_DanielRadcliffe.png', 'Im_BradPitt.png', 'Im_KeanuReeves.png', 'Im_OrlandoBloom.png', 'Im_DanielCraig.png', 'Im_JustinTimberlake.png', 'Im_BenAffleck.png'],same,1,0.4166612000008172,11,92.85714285714286,
MAVI1806,7,inv,150,pos150_id11_im10.bmp_pos150_id11_im2.bmp,['Im_LeonardoDiCaprio.png', 'Im_ElijahWood.png', 'Im_MattDamon.png', 'Im_DanielRadcliffe.png', 'Im_BradPitt.png', 'Im_KeanuReeves.png', 'Im_OrlandoBloom.png', 'Im_DanielCraig.png', 'Im_JustinTimberlake.png', 'Im_BenAffleck.png'],same,1,0.4084331000012753,12,92.85714285714286,
MAVI1806,7,inv,0,pos0_id11_im2.bmp_pos0_id11_im1.bmp,['Im_LeonardoDiCaprio.png', 'Im_ElijahWood.png', 'Im_MattDamon.png', 'Im_DanielRadcliffe.png', 'Im_BradPitt.png', 'Im_KeanuReeves.png', 'Im_OrlandoBloom.png', 'Im_DanielCraig.png', 'Im_JustinTimberlake.png', 'Im_BenAffleck.png'],diff,0,0.5087778000015533,12,92.85714285714286,
MAVI1806,7,inv,fs,posfs_id1_im24.bmp_posfs_id1_im4.bmp,['Im_LeonardoDiCaprio.png', 'Im_ElijahWood.png', 'Im_MattDamon.png', 'Im_DanielRadcliffe.png', 'Im_BradPitt.png', 'Im_KeanuReeves.png', 'Im_OrlandoBloom.png', 'Im_DanielCraig.png', 'Im_JustinTimberlake.png', 'Im_BenAffleck.png'],same,1,0.4166103999996267,13,92.85714285714286,
MAVI1806,7,inv,30,pos30_id3_im8.bmp_pos30_id3_im6.bmp,['Im_LeonardoDiCaprio.png', 'Im_ElijahWood.png', 'Im_MattDamon.png', 'Im_DanielRadcliffe.png', 'Im_BradPitt.png', 'Im_KeanuReeves.png', 'Im_OrlandoBloom.png', 'Im_DanielCraig.png', 'Im_JustinTimberlake.png', 'Im_BenAffleck.png'],diff,0,1.1502096000003803,13,92.85714285714286,
MAVI1806,7,inv,0,pos0_id11_im2.bmp_pos0_id11_im10.bmp,['Im_LeonardoDiCaprio.png', 'Im_ElijahWood.png', 'Im_MattDamon.png', 'Im_DanielRadcliffe.png', 'Im_BradPitt.png', 'Im_KeanuReeves.png', 'Im_OrlandoBloom.png', 'Im_DanielCraig.png', 'Im_JustinTimberlake.png', 'Im_BenAffleck.png'],same,1,0.41687569999703555,14,92.85714285714286,
MAVI1806,7,inv,fs,posfs_id16_im19.bmp_posfs_id16_im2.bmp,['Im_LeonardoDiCaprio.png', 'Im_ElijahWood.png', 'Im_MattDamon.png', 'Im_DanielRadcliffe.png', 'Im_BradPitt.png', 'Im_KeanuReeves.png', 'Im_OrlandoBloom.png', 'Im_DanielCraig.png', 'Im_JustinTimberlake.png', 'Im_BenAffleck.png'],same,1,0.4084627999982331,15,92.85714285714286,
MAVI1806,7,inv,60,pos60_id16_im3.bmp_pos60_id16_im19.bmp,['Im_LeonardoDiCaprio.png', 'Im_ElijahWood.png', 'Im_MattDamon.png', 'Im_DanielRadcliffe.png', 'Im_BradPitt.png', 'Im_KeanuReeves.png', 'Im_OrlandoBloom.png', 'Im_DanielCraig.png', 'Im_JustinTimberlake.png', 'Im_BenAffleck.png'],same,1,0.4333989000006113,16,92.85714285714286,
MAVI1806,8,neg,60,neg60_id5_im10.bmp_neg60_id5_im20.bmp,['Im_LeonardoDiCaprio.png', 'Im_ElijahWood.png', 'Im_MattDamon.png', 'Im_DanielRadcliffe.png', 'Im_BradPitt.png', 'Im_KeanuReeves.png', 'Im_OrlandoBloom.png', 'Im_DanielCraig.png', 'Im_JustinTimberlake.png', 'Im_BenAffleck.png'],same,1,0.41674699999930453,17,92.85714285714286,
MAVI1806,8,neg,90,neg90_id11_im2.bmp_neg90_id10_im18.bmp,['Im_LeonardoDiCaprio.png', 'Im_ElijahWood.png', 'Im_MattDamon.png', 'Im_DanielRadcliffe.png', 'Im_BradPitt.png', 'Im_KeanuReeves.png', 'Im_OrlandoBloom.png', 'Im_DanielCraig.png', 'Im_JustinTimberlake.png', 'Im_BenAffleck.png'],diff,1,0.4083500999986427,18,92.85714285714286,
MAVI1806,8,neg,0,neg0_id13_im15.bmp_neg0_id13_im10.bmp,['Im_LeonardoDiCaprio.png', 'Im_ElijahWood.png', 'Im_MattDamon.png', 'Im_DanielRadcliffe.png', 'Im_BradPitt.png', 'Im_KeanuReeves.png', 'Im_OrlandoBloom.png', 'Im_DanielCraig.png', 'Im_JustinTimberlake.png', 'Im_BenAffleck.png'],same,1,0.41678220000176225,19,92.85714285714286,
MAVI1806,8,neg,fs,negfs_id16_im3.bmp_negfs_id13_im29.bmp,['Im_LeonardoDiCaprio.png', 'Im_ElijahWood.png', 'Im_MattDamon.png', 'Im_DanielRadcliffe.png', 'Im_BradPitt.png', 'Im_KeanuReeves.png', 'Im_OrlandoBloom.png', 'Im_DanielCraig.png', 'Im_JustinTimberlake.png', 'Im_BenAffleck.png'],diff,1,0.41671929999938584,20,92.85714285714286,
MAVI1806,8,neg,120,neg120_id6_im19.bmp_neg120_id6_im18.bmp,['Im_LeonardoDiCaprio.png', 'Im_ElijahWood.png', 'Im_MattDamon.png', 'Im_DanielRadcliffe.png', 'Im_BradPitt.png', 'Im_KeanuReeves.png', 'Im_OrlandoBloom.png', 'Im_DanielCraig.png', 'Im_JustinTimberlake.png', 'Im_BenAffleck.png'],same,1,0.4165442000012263,21,92.85714285714286,
MAVI1806,8,neg,30,neg30_id11_im2.bmp_neg30_id10_im18.bmp,['Im_LeonardoDiCaprio.png', 'Im_ElijahWood.png', 'Im_MattDamon.png', 'Im_DanielRadcliffe.png', 'Im_BradPitt.png', 'Im_KeanuReeves.png', 'Im_OrlandoBloom.png', 'Im_DanielCraig.png', 'Im_JustinTimberlake.png', 'Im_BenAffleck.png'],diff,1,0.42504659999758587,22,92.85714285714286,
MAVI1806,8,neg,30,neg30_id3_im6.bmp_neg30_id3_im17.bmp,['Im_LeonardoDiCaprio.png', 'Im_ElijahWood.png', 'Im_MattDamon.png', 'Im_DanielRadcliffe.png', 'Im_BradPitt.png', 'Im_KeanuReeves.png', 'Im_OrlandoBloom.png', 'Im_DanielCraig.png', 'Im_JustinTimberlake.png', 'Im_BenAffleck.png'],same,1,0.5590062000010221,23,92.85714285714286,
MAVI1806,8,neg,90,neg90_id13_im10.bmp_neg90_id13_im29.bmp,['Im_LeonardoDiCaprio.png', 'Im_ElijahWood.png', 'Im_MattDamon.png', 'Im_DanielRadcliffe.png', 'Im_BradPitt.png', 'Im_KeanuReeves.png', 'Im_OrlandoBloom.png', 'Im_DanielCraig.png', 'Im_JustinTimberlake.png', 'Im_BenAffleck.png'],same,1,0.41685639999923296,24,92.85714285714286,
MAVI1806,8,neg,fs,negfs_id10_im17.bmp_negfs_id3_im6.bmp,['Im_LeonardoDiCaprio.png', 'Im_ElijahWood.png', 'Im_MattDamon.png', 'Im_DanielRadcliffe.png', 'Im_BradPitt.png', 'Im_KeanuReeves.png', 'Im_OrlandoBloom.png', 'Im_DanielCraig.png', 'Im_JustinTimberlake.png', 'Im_BenAffleck.png'],diff,1,0.4168998000022839,25,92.85714285714286,
MAVI1806,8,neg,150,neg150_id4_im7.bmp_neg150_id14_im18.bmp,['Im_LeonardoDiCaprio.png', 'Im_ElijahWood.png', 'Im_MattDamon.png', 'Im_DanielRadcliffe.png', 'Im_BradPitt.png', 'Im_KeanuReeves.png', 'Im_OrlandoBloom.png', 'Im_DanielCraig.png', 'Im_JustinTimberlake.png', 'Im_BenAffleck.png'],diff,1,0.4332942000000912,26,92.85714285714286,
MAVI1806,8,neg,150,neg150_id11_im1.bmp_neg150_id11_im2.bmp,['Im_LeonardoDiCaprio.png', 'Im_ElijahWood.png', 'Im_MattDamon.png', 'Im_DanielRadcliffe.png', 'Im_BradPitt.png', 'Im_KeanuReeves.png', 'Im_OrlandoBloom.png', 'Im_DanielCraig.png', 'Im_JustinTimberlake.png', 'Im_BenAffleck.png'],diff,0,0.4167420999983733,26,92.85714285714286,
MAVI1806,8,neg,60,neg60_id13_im10.bmp_neg60_id5_im20.bmp,['Im_LeonardoDiCaprio.png', 'Im_ElijahWood.png', 'Im_MattDamon.png', 'Im_DanielRadcliffe.png', 'Im_BradPitt.png', 'Im_KeanuReeves.png', 'Im_OrlandoBloom.png', 'Im_DanielCraig.png', 'Im_JustinTimberlake.png', 'Im_BenAffleck.png'],same,0,0.416651900002762,26,92.85714285714286,
MAVI1806,8,neg,120,neg120_id14_im18.bmp_neg120_id4_im7.bmp,['Im_LeonardoDiCaprio.png', 'Im_ElijahWood.png', 'Im_MattDamon.png', 'Im_DanielRadcliffe.png', 'Im_BradPitt.png', 'Im_KeanuReeves.png', 'Im_OrlandoBloom.png', 'Im_DanielCraig.png', 'Im_JustinTimberlake.png', 'Im_BenAffleck.png'],diff,1,0.6502607000002172,27,92.85714285714286,
MAVI1806,8,neg,0,neg0_id11_im2.bmp_neg0_id11_im1.bmp,['Im_LeonardoDiCaprio.png', 'Im_ElijahWood.png', 'Im_MattDamon.png', 'Im_DanielRadcliffe.png', 'Im_BradPitt.png', 'Im_KeanuReeves.png', 'Im_OrlandoBloom.png', 'Im_DanielCraig.png', 'Im_JustinTimberlake.png', 'Im_BenAffleck.png'],same,1,0.8583677000024181,28,92.85714285714286,
MAVI1806,9,pos,fs,posfs_id5_im20.bmp_posfs_id5_im10.bmp,['Im_LeonardoDiCaprio.png', 'Im_ElijahWood.png', 'Im_MattDamon.png', 'Im_DanielRadcliffe.png', 'Im_BradPitt.png', 'Im_KeanuReeves.png', 'Im_OrlandoBloom.png', 'Im_DanielCraig.png', 'Im_JustinTimberlake.png', 'Im_BenAffleck.png'],same,1,0.42503560000113794,1,66.66666666666667,
MAVI1806,9,pos,0,pos0_id11_im2.bmp_pos0_id11_im10.bmp,['Im_LeonardoDiCaprio.png', 'Im_ElijahWood.png', 'Im_MattDamon.png', 'Im_DanielRadcliffe.png', 'Im_BradPitt.png', 'Im_KeanuReeves.png', 'Im_OrlandoBloom.png', 'Im_DanielCraig.png', 'Im_JustinTimberlake.png', 'Im_BenAffleck.png'],same,1,0.41675559999930556,2,66.66666666666667,
MAVI1806,9,pos,60,pos60_id14_im24.bmp_pos60_id4_im7.bmp,['Im_LeonardoDiCaprio.png', 'Im_ElijahWood.png', 'Im_MattDamon.png', 'Im_DanielRadcliffe.png', 'Im_BradPitt.png', 'Im_KeanuReeves.png', 'Im_OrlandoBloom.png', 'Im_DanielCraig.png', 'Im_JustinTimberlake.png', 'Im_BenAffleck.png'],diff,1,0.42492789999960223,3,66.66666666666667,
MAVI1806,9,pos,150,pos150_id3_im6.bmp_pos150_id14_im24.bmp,['Im_LeonardoDiCaprio.png', 'Im_ElijahWood.png', 'Im_MattDamon.png', 'Im_DanielRadcliffe.png', 'Im_BradPitt.png', 'Im_KeanuReeves.png', 'Im_OrlandoBloom.png', 'Im_DanielCraig.png', 'Im_JustinTimberlake.png', 'Im_BenAffleck.png'],diff,1,0.4334904000024835,4,66.66666666666667,
MAVI1806,9,pos,150,pos150_id6_im19.bmp_pos150_id16_im2.bmp,['Im_LeonardoDiCaprio.png', 'Im_ElijahWood.png', 'Im_MattDamon.png', 'Im_DanielRadcliffe.png', 'Im_BradPitt.png', 'Im_KeanuReeves.png', 'Im_OrlandoBloom.png', 'Im_DanielCraig.png', 'Im_JustinTimberlake.png', 'Im_BenAffleck.png'],diff,1,0.9666469000003417,5,66.66666666666667,
MAVI1806,9,pos,60,pos60_id3_im17.bmp_pos60_id3_im6.bmp,['Im_LeonardoDiCaprio.png', 'Im_ElijahWood.png', 'Im_MattDamon.png', 'Im_DanielRadcliffe.png', 'Im_BradPitt.png', 'Im_KeanuReeves.png', 'Im_OrlandoBloom.png', 'Im_DanielCraig.png', 'Im_JustinTimberlake.png', 'Im_BenAffleck.png'],same,1,0.4334677000006195,6,66.66666666666667,
MAVI1806,9,pos,fs,posfs_id13_im15.bmp_posfs_id5_im10.bmp,['Im_LeonardoDiCaprio.png', 'Im_ElijahWood.png', 'Im_MattDamon.png', 'Im_DanielRadcliffe.png', 'Im_BradPitt.png', 'Im_KeanuReeves.png', 'Im_OrlandoBloom.png', 'Im_DanielCraig.png', 'Im_JustinTimberlake.png', 'Im_BenAffleck.png'],diff,1,0.4166203000022506,7,66.66666666666667,
MAVI1806,9,pos,120,pos120_id1_im21.bmp_pos120_id1_im4.bmp,['Im_LeonardoDiCaprio.png', 'Im_ElijahWood.png', 'Im_MattDamon.png', 'Im_DanielRadcliffe.png', 'Im_BradPitt.png', 'Im_KeanuReeves.png', 'Im_OrlandoBloom.png', 'Im_DanielCraig.png', 'Im_JustinTimberlake.png', 'Im_BenAffleck.png'],same,1,0.41682009999931324,8,66.66666666666667,
MAVI1806,9,pos,120,pos120_id16_im3.bmp_pos120_id13_im29.bmp,['Im_LeonardoDiCaprio.png', 'Im_ElijahWood.png', 'Im_MattDamon.png', 'Im_DanielRadcliffe.png', 'Im_BradPitt.png', 'Im_KeanuReeves.png', 'Im_OrlandoBloom.png', 'Im_DanielCraig.png', 'Im_JustinTimberlake.png', 'Im_BenAffleck.png'],diff,1,0.4250753000014811,9,66.66666666666667,
MAVI1806,9,pos,90,pos90_id3_im8.bmp_pos90_id3_im17.bmp,['Im_LeonardoDiCaprio.png', 'Im_ElijahWood.png', 'Im_MattDamon.png', 'Im_DanielRadcliffe.png', 'Im_BradPitt.png', 'Im_KeanuReeves.png', 'Im_OrlandoBloom.png', 'Im_DanielCraig.png', 'Im_JustinTimberlake.png', 'Im_BenAffleck.png'],same,1,0.41679109999677166,10,66.66666666666667,
MAVI1806,9,pos,30,pos30_id6_im12.bmp_pos30_id4_im20.bmp,['Im_LeonardoDiCaprio.png', 'Im_ElijahWood.png', 'Im_MattDamon.png', 'Im_DanielRadcliffe.png', 'Im_BradPitt.png', 'Im_KeanuReeves.png', 'Im_OrlandoBloom.png', 'Im_DanielCraig.png', 'Im_JustinTimberlake.png', 'Im_BenAffleck.png'],diff,1,0.4249364000024798,11,66.66666666666667,
MAVI1806,9,pos,0,pos0_id11_im2.bmp_pos0_id11_im1.bmp,['Im_LeonardoDiCaprio.png', 'Im_ElijahWood.png', 'Im_MattDamon.png', 'Im_DanielRadcliffe.png', 'Im_BradPitt.png', 'Im_KeanuReeves.png', 'Im_OrlandoBloom.png', 'Im_DanielCraig.png', 'Im_JustinTimberlake.png', 'Im_BenAffleck.png'],diff,0,0.4166107999990345,11,66.66666666666667,
MAVI1806,9,pos,90,pos90_id4_im15.bmp_pos90_id4_im20.bmp,['Im_LeonardoDiCaprio.png', 'Im_ElijahWood.png', 'Im_MattDamon.png', 'Im_DanielRadcliffe.png', 'Im_BradPitt.png', 'Im_KeanuReeves.png', 'Im_OrlandoBloom.png', 'Im_DanielCraig.png', 'Im_JustinTimberlake.png', 'Im_BenAffleck.png'],same,1,0.42505940000046394,12,66.66666666666667,
MAVI1806,9,pos,30,pos30_id4_im7.bmp_pos30_id4_im15.bmp,['Im_LeonardoDiCaprio.png', 'Im_ElijahWood.png', 'Im_MattDamon.png', 'Im_DanielRadcliffe.png', 'Im_BradPitt.png', 'Im_KeanuReeves.png', 'Im_OrlandoBloom.png', 'Im_DanielCraig.png', 'Im_JustinTimberlake.png', 'Im_BenAffleck.png'],same,1,0.41687129999991157,13,66.66666666666667,
MAVI1806,10,neg,150,neg150_id5_im20.bmp_neg150_id13_im10.bmp,['Im_LeonardoDiCaprio.png', 'Im_ElijahWood.png', 'Im_MattDamon.png', 'Im_DanielRadcliffe.png', 'Im_BradPitt.png', 'Im_KeanuReeves.png', 'Im_OrlandoBloom.png', 'Im_DanielCraig.png', 'Im_JustinTimberlake.png', 'Im_BenAffleck.png'],same,0,0.4502152999993996,13,66.66666666666667,
MAVI1806,10,neg,60,neg60_id4_im15.bmp_neg60_id16_im19.bmp,['Im_LeonardoDiCaprio.png', 'Im_ElijahWood.png', 'Im_MattDamon.png', 'Im_DanielRadcliffe.png', 'Im_BradPitt.png', 'Im_KeanuReeves.png', 'Im_OrlandoBloom.png', 'Im_DanielCraig.png', 'Im_JustinTimberlake.png', 'Im_BenAffleck.png'],diff,1,0.5000203999989026,14,66.66666666666667,
MAVI1806,10,neg,fs,negfs_id10_im1.bmp_negfs_id3_im17.bmp,['Im_LeonardoDiCaprio.png', 'Im_ElijahWood.png', 'Im_MattDamon.png', 'Im_DanielRadcliffe.png', 'Im_BradPitt.png', 'Im_KeanuReeves.png', 'Im_OrlandoBloom.png', 'Im_DanielCraig.png', 'Im_JustinTimberlake.png', 'Im_BenAffleck.png'],diff,1,0.4250401999997848,15,66.66666666666667,
MAVI1806,10,neg,60,neg60_id5_im10.bmp_neg60_id1_im24.bmp,['Im_LeonardoDiCaprio.png', 'Im_ElijahWood.png', 'Im_MattDamon.png', 'Im_DanielRadcliffe.png', 'Im_BradPitt.png', 'Im_KeanuReeves.png', 'Im_OrlandoBloom.png', 'Im_DanielCraig.png', 'Im_JustinTimberlake.png', 'Im_BenAffleck.png'],diff,1,0.4250169000006281,16,66.66666666666667,
MAVI1806,10,neg,fs,negfs_id16_im19.bmp_negfs_id16_im2.bmp,['Im_LeonardoDiCaprio.png', 'Im_ElijahWood.png', 'Im_MattDamon.png', 'Im_DanielRadcliffe.png', 'Im_BradPitt.png', 'Im_KeanuReeves.png', 'Im_OrlandoBloom.png', 'Im_DanielCraig.png', 'Im_JustinTimberlake.png', 'Im_BenAffleck.png'],same,1,0.41671209999913117,17,66.66666666666667,
MAVI1806,10,neg,90,neg90_id11_im1.bmp_neg90_id16_im3.bmp,['Im_LeonardoDiCaprio.png', 'Im_ElijahWood.png', 'Im_MattDamon.png', 'Im_DanielRadcliffe.png', 'Im_BradPitt.png', 'Im_KeanuReeves.png', 'Im_OrlandoBloom.png', 'Im_DanielCraig.png', 'Im_JustinTimberlake.png', 'Im_BenAffleck.png'],same,0,0.42501199999969685,17,66.66666666666667,
MAVI1806,10,neg,0,neg0_id4_im15.bmp_neg0_id5_im1.bmp,['Im_LeonardoDiCaprio.png', 'Im_ElijahWood.png', 'Im_MattDamon.png', 'Im_DanielRadcliffe.png', 'Im_BradPitt.png', 'Im_KeanuReeves.png', 'Im_OrlandoBloom.png', 'Im_DanielCraig.png', 'Im_JustinTimberlake.png', 'Im_BenAffleck.png'],diff,1,0.7835900999998557,18,66.66666666666667,
MAVI1806,10,neg,120,neg120_id3_im17.bmp_neg120_id3_im6.bmp,['Im_LeonardoDiCaprio.png', 'Im_ElijahWood.png', 'Im_MattDamon.png', 'Im_DanielRadcliffe.png', 'Im_BradPitt.png', 'Im_KeanuReeves.png', 'Im_OrlandoBloom.png', 'Im_DanielCraig.png', 'Im_JustinTimberlake.png', 'Im_BenAffleck.png'],same,1,0.7253479999999399,19,66.66666666666667,
MAVI1806,10,neg,120,neg120_id5_im10.bmp_neg120_id13_im15.bmp,['Im_LeonardoDiCaprio.png', 'Im_ElijahWood.png', 'Im_MattDamon.png', 'Im_DanielRadcliffe.png', 'Im_BradPitt.png', 'Im_KeanuReeves.png', 'Im_OrlandoBloom.png', 'Im_DanielCraig.png', 'Im_JustinTimberlake.png', 'Im_BenAffleck.png'],diff,1,0.4252501000009943,20,66.66666666666667,
MAVI1806,10,neg,30,neg30_id13_im10.bmp_neg30_id13_im29.bmp,['Im_LeonardoDiCaprio.png', 'Im_ElijahWood.png', 'Im_MattDamon.png', 'Im_DanielRadcliffe.png', 'Im_BradPitt.png', 'Im_KeanuReeves.png', 'Im_OrlandoBloom.png', 'Im_DanielCraig.png', 'Im_JustinTimberlake.png', 'Im_BenAffleck.png'],diff,0,0.7510840000031749,20,66.66666666666667,
MAVI1806,10,neg,150,neg150_id5_im10.bmp_neg150_id5_im20.bmp,['Im_LeonardoDiCaprio.png', 'Im_ElijahWood.png', 'Im_MattDamon.png', 'Im_DanielRadcliffe.png', 'Im_BradPitt.png', 'Im_KeanuReeves.png', 'Im_OrlandoBloom.png', 'Im_DanielCraig.png', 'Im_JustinTimberlake.png', 'Im_BenAffleck.png'],same,1,0.4249822999991011,21,66.66666666666667,
MAVI1806,10,neg,0,neg0_id13_im29.bmp_neg0_id16_im3.bmp,['Im_LeonardoDiCaprio.png', 'Im_ElijahWood.png', 'Im_MattDamon.png', 'Im_DanielRadcliffe.png', 'Im_BradPitt.png', 'Im_KeanuReeves.png', 'Im_OrlandoBloom.png', 'Im_DanielCraig.png', 'Im_JustinTimberlake.png', 'Im_BenAffleck.png'],diff,1,0.4084696999998414,22,66.66666666666667,
MAVI1806,10,neg,90,neg90_id5_im10.bmp_neg90_id5_im20.bmp,['Im_LeonardoDiCaprio.png', 'Im_ElijahWood.png', 'Im_MattDamon.png', 'Im_DanielRadcliffe.png', 'Im_BradPitt.png', 'Im_KeanuReeves.png', 'Im_OrlandoBloom.png', 'Im_DanielCraig.png', 'Im_JustinTimberlake.png', 'Im_BenAffleck.png'],same,1,0.8416142000023683,23,66.66666666666667,
MAVI1806,10,neg,30,neg30_id3_im6.bmp_neg30_id10_im17.bmp,['Im_LeonardoDiCaprio.png', 'Im_ElijahWood.png', 'Im_MattDamon.png', 'Im_DanielRadcliffe.png', 'Im_BradPitt.png', 'Im_KeanuReeves.png', 'Im_OrlandoBloom.png', 'Im_DanielCraig.png', 'Im_JustinTimberlake.png', 'Im_BenAffleck.png'],diff,1,0.5833672000007937,24,66.66666666666667,
MAVI1806,11,pos,90,pos90_id11_im1.bmp_pos90_id11_im10.bmp,['Im_LeonardoDiCaprio.png', 'Im_ElijahWood.png', 'Im_MattDamon.png', 'Im_DanielRadcliffe.png', 'Im_BradPitt.png', 'Im_KeanuReeves.png', 'Im_OrlandoBloom.png', 'Im_DanielCraig.png', 'Im_JustinTimberlake.png', 'Im_BenAffleck.png'],same,1,1.4417269000005035,25,66.66666666666667,
MAVI1806,11,pos,0,pos0_id6_im19.bmp_pos0_id16_im2.bmp,['Im_LeonardoDiCaprio.png', 'Im_ElijahWood.png', 'Im_MattDamon.png', 'Im_DanielRadcliffe.png', 'Im_BradPitt.png', 'Im_KeanuReeves.png', 'Im_OrlandoBloom.png', 'Im_DanielCraig.png', 'Im_JustinTimberlake.png', 'Im_BenAffleck.png'],diff,1,0.4249290000007022,26,66.66666666666667,
MAVI1806,11,pos,30,pos30_id16_im19.bmp_pos30_id16_im3.bmp,['Im_LeonardoDiCaprio.png', 'Im_ElijahWood.png', 'Im_MattDamon.png', 'Im_DanielRadcliffe.png', 'Im_BradPitt.png', 'Im_KeanuReeves.png', 'Im_OrlandoBloom.png', 'Im_DanielCraig.png', 'Im_JustinTimberlake.png', 'Im_BenAffleck.png'],same,1,0.9498413000001165,27,66.66666666666667,
MAVI1806,11,pos,120,pos120_id4_im20.bmp_pos120_id1_im4.bmp,['Im_LeonardoDiCaprio.png', 'Im_ElijahWood.png', 'Im_MattDamon.png', 'Im_DanielRadcliffe.png', 'Im_BradPitt.png', 'Im_KeanuReeves.png', 'Im_OrlandoBloom.png', 'Im_DanielCraig.png', 'Im_JustinTimberlake.png', 'Im_BenAffleck.png'],diff,1,0.4166289000022516,28,66.66666666666667,
MAVI1806,11,pos,30,pos30_id16_im2.bmp_pos30_id6_im19.bmp,['Im_LeonardoDiCaprio.png', 'Im_ElijahWood.png', 'Im_MattDamon.png', 'Im_DanielRadcliffe.png', 'Im_BradPitt.png', 'Im_KeanuReeves.png', 'Im_OrlandoBloom.png', 'Im_DanielCraig.png', 'Im_JustinTimberlake.png', 'Im_BenAffleck.png'],diff,1,0.43373820000124397,29,66.66666666666667,
MAVI1806,11,pos,fs,posfs_id13_im10.bmp_posfs_id13_im15.bmp,['Im_LeonardoDiCaprio.png', 'Im_ElijahWood.png', 'Im_MattDamon.png', 'Im_DanielRadcliffe.png', 'Im_BradPitt.png', 'Im_KeanuReeves.png', 'Im_OrlandoBloom.png', 'Im_DanielCraig.png', 'Im_JustinTimberlake.png', 'Im_BenAffleck.png'],same,1,0.43328309999924386,30,66.66666666666667,
MAVI1806,11,pos,60,pos60_id13_im15.bmp_pos60_id13_im29.bmp,['Im_LeonardoDiCaprio.png', 'Im_ElijahWood.png', 'Im_MattDamon.png', 'Im_DanielRadcliffe.png', 'Im_BradPitt.png', 'Im_KeanuReeves.png', 'Im_OrlandoBloom.png', 'Im_DanielCraig.png', 'Im_JustinTimberlake.png', 'Im_BenAffleck.png'],same,1,0.41667690000031143,31,66.66666666666667,
MAVI1806,11,pos,120,pos120_id4_im7.bmp_pos120_id14_im18.bmp,['Im_LeonardoDiCaprio.png', 'Im_ElijahWood.png', 'Im_MattDamon.png', 'Im_DanielRadcliffe.png', 'Im_BradPitt.png', 'Im_KeanuReeves.png', 'Im_OrlandoBloom.png', 'Im_DanielCraig.png', 'Im_JustinTimberlake.png', 'Im_BenAffleck.png'],diff,1,0.433508800000709,32,66.66666666666667,
MAVI1806,11,pos,90,pos90_id11_im10.bmp_pos90_id14_im16.bmp,['Im_LeonardoDiCaprio.png', 'Im_ElijahWood.png', 'Im_MattDamon.png', 'Im_DanielRadcliffe.png', 'Im_BradPitt.png', 'Im_KeanuReeves.png', 'Im_OrlandoBloom.png', 'Im_DanielCraig.png', 'Im_JustinTimberlake.png', 'Im_BenAffleck.png'],diff,1,1.1832864999996673,33,66.66666666666667,
MAVI1806,11,pos,fs,posfs_id1_im21.bmp_posfs_id6_im18.bmp,['Im_LeonardoDiCaprio.png', 'Im_ElijahWood.png', 'Im_MattDamon.png', 'Im_DanielRadcliffe.png', 'Im_BradPitt.png', 'Im_KeanuReeves.png', 'Im_OrlandoBloom.png', 'Im_DanielCraig.png', 'Im_JustinTimberlake.png', 'Im_BenAffleck.png'],diff,1,0.4168454999999085,34,66.66666666666667,
MAVI1806,11,pos,150,pos150_id3_im8.bmp_pos150_id3_im17.bmp,['Im_LeonardoDiCaprio.png', 'Im_ElijahWood.png', 'Im_MattDamon.png', 'Im_DanielRadcliffe.png', 'Im_BradPitt.png', 'Im_KeanuReeves.png', 'Im_OrlandoBloom.png', 'Im_DanielCraig.png', 'Im_JustinTimberlake.png', 'Im_BenAffleck.png'],same,1,0.41663450000123703,35,66.66666666666667,
MAVI1806,11,pos,60,pos60_id1_im4.bmp_pos60_id1_im24.bmp,['Im_LeonardoDiCaprio.png', 'Im_ElijahWood.png', 'Im_MattDamon.png', 'Im_DanielRadcliffe.png', 'Im_BradPitt.png', 'Im_KeanuReeves.png', 'Im_OrlandoBloom.png', 'Im_DanielCraig.png', 'Im_JustinTimberlake.png', 'Im_BenAffleck.png'],diff,0,0.4248446999990847,35,66.66666666666667,
MAVI1806,11,pos,150,pos150_id14_im24.bmp_pos150_id14_im18.bmp,['Im_LeonardoDiCaprio.png', 'Im_ElijahWood.png', 'Im_MattDamon.png', 'Im_DanielRadcliffe.png', 'Im_BradPitt.png', 'Im_KeanuReeves.png', 'Im_OrlandoBloom.png', 'Im_DanielCraig.png', 'Im_JustinTimberlake.png', 'Im_BenAffleck.png'],same,1,0.5999604999997246,36,66.66666666666667,
MAVI1806,11,pos,0,pos0_id11_im1.bmp_pos0_id16_im3.bmp,['Im_LeonardoDiCaprio.png', 'Im_ElijahWood.png', 'Im_MattDamon.png', 'Im_DanielRadcliffe.png', 'Im_BradPitt.png', 'Im_KeanuReeves.png', 'Im_OrlandoBloom.png', 'Im_DanielCraig.png', 'Im_JustinTimberlake.png', 'Im_BenAffleck.png'],diff,1,0.6920007999979134,37,66.66666666666667,
MAVI1806,12,inv,30,pos30_id4_im20.bmp_pos30_id6_im12.bmp,['Im_LeonardoDiCaprio.png', 'Im_ElijahWood.png', 'Im_MattDamon.png', 'Im_DanielRadcliffe.png', 'Im_BradPitt.png', 'Im_KeanuReeves.png', 'Im_OrlandoBloom.png', 'Im_DanielCraig.png', 'Im_JustinTimberlake.png', 'Im_BenAffleck.png'],diff,1,0.4169142000027932,1,88.0952380952381,
MAVI1806,12,inv,120,pos120_id6_im19.bmp_pos120_id3_im8.bmp,['Im_LeonardoDiCaprio.png', 'Im_ElijahWood.png', 'Im_MattDamon.png', 'Im_DanielRadcliffe.png', 'Im_BradPitt.png', 'Im_KeanuReeves.png', 'Im_OrlandoBloom.png', 'Im_DanielCraig.png', 'Im_JustinTimberlake.png', 'Im_BenAffleck.png'],same,0,0.49191630000132136,1,88.0952380952381,
MAVI1806,12,inv,150,pos150_id10_im18.bmp_pos150_id10_im17.bmp,['Im_LeonardoDiCaprio.png', 'Im_ElijahWood.png', 'Im_MattDamon.png', 'Im_DanielRadcliffe.png', 'Im_BradPitt.png', 'Im_KeanuReeves.png', 'Im_OrlandoBloom.png', 'Im_DanielCraig.png', 'Im_JustinTimberlake.png', 'Im_BenAffleck.png'],same,1,0.4334890999998606,2,88.0952380952381,
MAVI1806,12,inv,60,pos60_id10_im17.bmp_pos60_id10_im18.bmp,['Im_LeonardoDiCaprio.png', 'Im_ElijahWood.png', 'Im_MattDamon.png', 'Im_DanielRadcliffe.png', 'Im_BradPitt.png', 'Im_KeanuReeves.png', 'Im_OrlandoBloom.png', 'Im_DanielCraig.png', 'Im_JustinTimberlake.png', 'Im_BenAffleck.png'],same,1,0.4251320000003034,3,88.0952380952381,
MAVI1806,12,inv,fs,posfs_id11_im2.bmp_posfs_id11_im1.bmp,['Im_LeonardoDiCaprio.png', 'Im_ElijahWood.png', 'Im_MattDamon.png', 'Im_DanielRadcliffe.png', 'Im_BradPitt.png', 'Im_KeanuReeves.png', 'Im_OrlandoBloom.png', 'Im_DanielCraig.png', 'Im_JustinTimberlake.png', 'Im_BenAffleck.png'],same,1,0.4500246999996307,4,88.0952380952381,
MAVI1806,12,inv,90,pos90_id13_im15.bmp_pos90_id13_im29.bmp,['Im_LeonardoDiCaprio.png', 'Im_ElijahWood.png', 'Im_MattDamon.png', 'Im_DanielRadcliffe.png', 'Im_BradPitt.png', 'Im_KeanuReeves.png', 'Im_OrlandoBloom.png', 'Im_DanielCraig.png', 'Im_JustinTimberlake.png', 'Im_BenAffleck.png'],same,1,0.4167090000009921,5,88.0952380952381,
MAVI1806,12,inv,fs,posfs_id1_im21.bmp_posfs_id6_im18.bmp,['Im_LeonardoDiCaprio.png', 'Im_ElijahWood.png', 'Im_MattDamon.png', 'Im_DanielRadcliffe.png', 'Im_BradPitt.png', 'Im_KeanuReeves.png', 'Im_OrlandoBloom.png', 'Im_DanielCraig.png', 'Im_JustinTimberlake.png', 'Im_BenAffleck.png'],diff,1,0.424994400000287,6,88.0952380952381,
MAVI1806,12,inv,90,pos90_id10_im18.bmp_pos90_id1_im4.bmp,['Im_LeonardoDiCaprio.png', 'Im_ElijahWood.png', 'Im_MattDamon.png', 'Im_DanielRadcliffe.png', 'Im_BradPitt.png', 'Im_KeanuReeves.png', 'Im_OrlandoBloom.png', 'Im_DanielCraig.png', 'Im_JustinTimberlake.png', 'Im_BenAffleck.png'],same,0,0.8834100999993098,6,88.0952380952381,
MAVI1806,12,inv,60,pos60_id10_im18.bmp_pos60_id11_im2.bmp,['Im_LeonardoDiCaprio.png', 'Im_ElijahWood.png', 'Im_MattDamon.png', 'Im_DanielRadcliffe.png', 'Im_BradPitt.png', 'Im_KeanuReeves.png', 'Im_OrlandoBloom.png', 'Im_DanielCraig.png', 'Im_JustinTimberlake.png', 'Im_BenAffleck.png'],diff,1,0.4084188999986509,7,88.0952380952381,
MAVI1806,12,inv,120,pos120_id1_im4.bmp_pos120_id4_im20.bmp,['Im_LeonardoDiCaprio.png', 'Im_ElijahWood.png', 'Im_MattDamon.png', 'Im_DanielRadcliffe.png', 'Im_BradPitt.png', 'Im_KeanuReeves.png', 'Im_OrlandoBloom.png', 'Im_DanielCraig.png', 'Im_JustinTimberlake.png', 'Im_BenAffleck.png'],diff,1,0.41677550000167685,8,88.0952380952381,
MAVI1806,12,inv,30,pos30_id4_im7.bmp_pos30_id4_im15.bmp,['Im_LeonardoDiCaprio.png', 'Im_ElijahWood.png', 'Im_MattDamon.png', 'Im_DanielRadcliffe.png', 'Im_BradPitt.png', 'Im_KeanuReeves.png', 'Im_OrlandoBloom.png', 'Im_DanielCraig.png', 'Im_JustinTimberlake.png', 'Im_BenAffleck.png'],diff,0,0.4333781000023009,8,88.0952380952381,
MAVI1806,12,inv,0,pos0_id13_im15.bmp_pos0_id13_im29.bmp,['Im_LeonardoDiCaprio.png', 'Im_ElijahWood.png', 'Im_MattDamon.png', 'Im_DanielRadcliffe.png', 'Im_BradPitt.png', 'Im_KeanuReeves.png', 'Im_OrlandoBloom.png', 'Im_DanielCraig.png', 'Im_JustinTimberlake.png', 'Im_BenAffleck.png'],same,1,0.7833209000018542,9,88.0952380952381,
MAVI1806,12,inv,0,pos0_id6_im19.bmp_pos0_id6_im12.bmp,['Im_LeonardoDiCaprio.png', 'Im_ElijahWood.png', 'Im_MattDamon.png', 'Im_DanielRadcliffe.png', 'Im_BradPitt.png', 'Im_KeanuReeves.png', 'Im_OrlandoBloom.png', 'Im_DanielCraig.png', 'Im_JustinTimberlake.png', 'Im_BenAffleck.png'],same,1,0.4249493000024813,10,88.0952380952381,
MAVI1806,12,inv,150,pos150_id6_im19.bmp_pos150_id6_im12.bmp,['Im_LeonardoDiCaprio.png', 'Im_ElijahWood.png', 'Im_MattDamon.png', 'Im_DanielRadcliffe.png', 'Im_BradPitt.png', 'Im_KeanuReeves.png', 'Im_OrlandoBloom.png', 'Im_DanielCraig.png', 'Im_JustinTimberlake.png', 'Im_BenAffleck.png'],same,1,0.41687199999796576,11,88.0952380952381,
MAVI1806,13,pos,30,pos30_id13_im29.bmp_pos30_id13_im10.bmp,['Im_LeonardoDiCaprio.png', 'Im_ElijahWood.png', 'Im_MattDamon.png', 'Im_DanielRadcliffe.png', 'Im_BradPitt.png', 'Im_KeanuReeves.png', 'Im_OrlandoBloom.png', 'Im_DanielCraig.png', 'Im_JustinTimberlake.png', 'Im_BenAffleck.png'],same,1,0.40835259999948903,12,88.0952380952381,
MAVI1806,13,pos,fs,posfs_id11_im10.bmp_posfs_id16_im19.bmp,['Im_LeonardoDiCaprio.png', 'Im_ElijahWood.png', 'Im_MattDamon.png', 'Im_DanielRadcliffe.png', 'Im_BradPitt.png', 'Im_KeanuReeves.png', 'Im_OrlandoBloom.png', 'Im_DanielCraig.png', 'Im_JustinTimberlake.png', 'Im_BenAffleck.png'],diff,1,0.6083926999999676,13,88.0952380952381,
MAVI1806,13,pos,60,pos60_id5_im1.bmp_pos60_id5_im10.bmp,['Im_LeonardoDiCaprio.png', 'Im_ElijahWood.png', 'Im_MattDamon.png', 'Im_DanielRadcliffe.png', 'Im_BradPitt.png', 'Im_KeanuReeves.png', 'Im_OrlandoBloom.png', 'Im_DanielCraig.png', 'Im_JustinTimberlake.png', 'Im_BenAffleck.png'],same,1,0.41667230000166455,14,88.0952380952381,
MAVI1806,13,pos,90,pos90_id5_im10.bmp_pos90_id5_im1.bmp,['Im_LeonardoDiCaprio.png', 'Im_ElijahWood.png', 'Im_MattDamon.png', 'Im_DanielRadcliffe.png', 'Im_BradPitt.png', 'Im_KeanuReeves.png', 'Im_OrlandoBloom.png', 'Im_DanielCraig.png', 'Im_JustinTimberlake.png', 'Im_BenAffleck.png'],same,1,0.41673959999752697,15,88.0952380952381,
MAVI1806,13,pos,90,pos90_id3_im6.bmp_pos90_id3_im8.bmp,['Im_LeonardoDiCaprio.png', 'Im_ElijahWood.png', 'Im_MattDamon.png', 'Im_DanielRadcliffe.png', 'Im_BradPitt.png', 'Im_KeanuReeves.png', 'Im_OrlandoBloom.png', 'Im_DanielCraig.png', 'Im_JustinTimberlake.png', 'Im_BenAffleck.png'],same,1,0.41680279999854974,16,88.0952380952381,
MAVI1806,13,pos,150,pos150_id6_im12.bmp_pos150_id4_im20.bmp,['Im_LeonardoDiCaprio.png', 'Im_ElijahWood.png', 'Im_MattDamon.png', 'Im_DanielRadcliffe.png', 'Im_BradPitt.png', 'Im_KeanuReeves.png', 'Im_OrlandoBloom.png', 'Im_DanielCraig.png', 'Im_JustinTimberlake.png', 'Im_BenAffleck.png'],diff,1,0.4165337000013096,17,88.0952380952381,
MAVI1806,13,pos,120,pos120_id10_im18.bmp_pos120_id11_im2.bmp,['Im_LeonardoDiCaprio.png', 'Im_ElijahWood.png', 'Im_MattDamon.png', 'Im_DanielRadcliffe.png', 'Im_BradPitt.png', 'Im_KeanuReeves.png', 'Im_OrlandoBloom.png', 'Im_DanielCraig.png', 'Im_JustinTimberlake.png', 'Im_BenAffleck.png'],diff,1,0.7085765999981959,18,88.0952380952381,
MAVI1806,13,pos,150,pos150_id10_im18.bmp_pos150_id10_im1.bmp,['Im_LeonardoDiCaprio.png', 'Im_ElijahWood.png', 'Im_MattDamon.png', 'Im_DanielRadcliffe.png', 'Im_BradPitt.png', 'Im_KeanuReeves.png', 'Im_OrlandoBloom.png', 'Im_DanielCraig.png', 'Im_JustinTimberlake.png', 'Im_BenAffleck.png'],same,1,0.4250027999987651,19,88.0952380952381,
MAVI1806,13,pos,fs,posfs_id6_im12.bmp_posfs_id4_im20.bmp,['Im_LeonardoDiCaprio.png', 'Im_ElijahWood.png', 'Im_MattDamon.png', 'Im_DanielRadcliffe.png', 'Im_BradPitt.png', 'Im_KeanuReeves.png', 'Im_OrlandoBloom.png', 'Im_DanielCraig.png', 'Im_JustinTimberlake.png', 'Im_BenAffleck.png'],diff,1,0.41671430000133114,20,88.0952380952381,
MAVI1806,13,pos,120,pos120_id6_im18.bmp_pos120_id6_im12.bmp,['Im_LeonardoDiCaprio.png', 'Im_ElijahWood.png', 'Im_MattDamon.png', 'Im_DanielRadcliffe.png', 'Im_BradPitt.png', 'Im_KeanuReeves.png', 'Im_OrlandoBloom.png', 'Im_DanielCraig.png', 'Im_JustinTimberlake.png', 'Im_BenAffleck.png'],same,1,0.4083316999967792,21,88.0952380952381,
MAVI1806,13,pos,60,pos60_id5_im1.bmp_pos60_id10_im1.bmp,['Im_LeonardoDiCaprio.png', 'Im_ElijahWood.png', 'Im_MattDamon.png', 'Im_DanielRadcliffe.png', 'Im_BradPitt.png', 'Im_KeanuReeves.png', 'Im_OrlandoBloom.png', 'Im_DanielCraig.png', 'Im_JustinTimberlake.png', 'Im_BenAffleck.png'],diff,1,0.4250802999995358,22,88.0952380952381,
MAVI1806,13,pos,0,pos0_id10_im18.bmp_pos0_id10_im1.bmp,['Im_LeonardoDiCaprio.png', 'Im_ElijahWood.png', 'Im_MattDamon.png', 'Im_DanielRadcliffe.png', 'Im_BradPitt.png', 'Im_KeanuReeves.png', 'Im_OrlandoBloom.png', 'Im_DanielCraig.png', 'Im_JustinTimberlake.png', 'Im_BenAffleck.png'],same,1,0.4250714000008884,23,88.0952380952381,
MAVI1806,13,pos,0,pos0_id3_im6.bmp_pos0_id3_im17.bmp,['Im_LeonardoDiCaprio.png', 'Im_ElijahWood.png', 'Im_MattDamon.png', 'Im_DanielRadcliffe.png', 'Im_BradPitt.png', 'Im_KeanuReeves.png', 'Im_OrlandoBloom.png', 'Im_DanielCraig.png', 'Im_JustinTimberlake.png', 'Im_BenAffleck.png'],same,1,0.41658579999784706,24,88.0952380952381,
MAVI1806,13,pos,30,pos30_id14_im16.bmp_pos30_id14_im24.bmp,['Im_LeonardoDiCaprio.png', 'Im_ElijahWood.png', 'Im_MattDamon.png', 'Im_DanielRadcliffe.png', 'Im_BradPitt.png', 'Im_KeanuReeves.png', 'Im_OrlandoBloom.png', 'Im_DanielCraig.png', 'Im_JustinTimberlake.png', 'Im_BenAffleck.png'],same,1,0.41668270000081975,25,88.0952380952381,
MAVI1806,14,neg,60,neg60_id3_im6.bmp_neg60_id14_im24.bmp,['Im_LeonardoDiCaprio.png', 'Im_ElijahWood.png', 'Im_MattDamon.png', 'Im_DanielRadcliffe.png', 'Im_BradPitt.png', 'Im_KeanuReeves.png', 'Im_OrlandoBloom.png', 'Im_DanielCraig.png', 'Im_JustinTimberlake.png', 'Im_BenAffleck.png'],diff,1,0.42516840000098455,26,88.0952380952381,
MAVI1806,14,neg,0,neg0_id10_im17.bmp_neg0_id10_im1.bmp,['Im_LeonardoDiCaprio.png', 'Im_ElijahWood.png', 'Im_MattDamon.png', 'Im_DanielRadcliffe.png', 'Im_BradPitt.png', 'Im_KeanuReeves.png', 'Im_OrlandoBloom.png', 'Im_DanielCraig.png', 'Im_JustinTimberlake.png', 'Im_BenAffleck.png'],same,1,0.4168473999998241,27,88.0952380952381,
MAVI1806,14,neg,120,neg120_id13_im15.bmp_neg120_id13_im10.bmp,['Im_LeonardoDiCaprio.png', 'Im_ElijahWood.png', 'Im_MattDamon.png', 'Im_DanielRadcliffe.png', 'Im_BradPitt.png', 'Im_KeanuReeves.png', 'Im_OrlandoBloom.png', 'Im_DanielCraig.png', 'Im_JustinTimberlake.png', 'Im_BenAffleck.png'],same,1,0.44178980000287993,28,88.0952380952381,
MAVI1806,14,neg,0,neg0_id6_im18.bmp_neg0_id16_im2.bmp,['Im_LeonardoDiCaprio.png', 'Im_ElijahWood.png', 'Im_MattDamon.png', 'Im_DanielRadcliffe.png', 'Im_BradPitt.png', 'Im_KeanuReeves.png', 'Im_OrlandoBloom.png', 'Im_DanielCraig.png', 'Im_JustinTimberlake.png', 'Im_BenAffleck.png'],same,0,0.6998831999990216,28,88.0952380952381,
MAVI1806,14,neg,90,neg90_id1_im4.bmp_neg90_id4_im20.bmp,['Im_LeonardoDiCaprio.png', 'Im_ElijahWood.png', 'Im_MattDamon.png', 'Im_DanielRadcliffe.png', 'Im_BradPitt.png', 'Im_KeanuReeves.png', 'Im_OrlandoBloom.png', 'Im_DanielCraig.png', 'Im_JustinTimberlake.png', 'Im_BenAffleck.png'],diff,1,0.4084863999996742,29,88.0952380952381,
MAVI1806,14,neg,30,neg30_id6_im18.bmp_neg30_id6_im12.bmp,['Im_LeonardoDiCaprio.png', 'Im_ElijahWood.png', 'Im_MattDamon.png', 'Im_DanielRadcliffe.png', 'Im_BradPitt.png', 'Im_KeanuReeves.png', 'Im_OrlandoBloom.png', 'Im_DanielCraig.png', 'Im_JustinTimberlake.png', 'Im_BenAffleck.png'],same,1,0.43323769999915385,30,88.0952380952381,
MAVI1806,14,neg,150,neg150_id11_im2.bmp_neg150_id3_im17.bmp,['Im_LeonardoDiCaprio.png', 'Im_ElijahWood.png', 'Im_MattDamon.png', 'Im_DanielRadcliffe.png', 'Im_BradPitt.png', 'Im_KeanuReeves.png', 'Im_OrlandoBloom.png', 'Im_DanielCraig.png', 'Im_JustinTimberlake.png', 'Im_BenAffleck.png'],diff,1,1.0500360000005458,31,88.0952380952381,
MAVI1806,14,neg,90,neg90_id16_im19.bmp_neg90_id16_im2.bmp,['Im_LeonardoDiCaprio.png', 'Im_ElijahWood.png', 'Im_MattDamon.png', 'Im_DanielRadcliffe.png', 'Im_BradPitt.png', 'Im_KeanuReeves.png', 'Im_OrlandoBloom.png', 'Im_DanielCraig.png', 'Im_JustinTimberlake.png', 'Im_BenAffleck.png'],same,1,0.40822320000006584,32,88.0952380952381,
MAVI1806,14,neg,120,neg120_id13_im15.bmp_neg120_id13_im29.bmp,['Im_LeonardoDiCaprio.png', 'Im_ElijahWood.png', 'Im_MattDamon.png', 'Im_DanielRadcliffe.png', 'Im_BradPitt.png', 'Im_KeanuReeves.png', 'Im_OrlandoBloom.png', 'Im_DanielCraig.png', 'Im_JustinTimberlake.png', 'Im_BenAffleck.png'],same,1,0.7502046000008704,33,88.0952380952381,
MAVI1806,14,neg,150,neg150_id1_im4.bmp_neg150_id10_im18.bmp,['Im_LeonardoDiCaprio.png', 'Im_ElijahWood.png', 'Im_MattDamon.png', 'Im_DanielRadcliffe.png', 'Im_BradPitt.png', 'Im_KeanuReeves.png', 'Im_OrlandoBloom.png', 'Im_DanielCraig.png', 'Im_JustinTimberlake.png', 'Im_BenAffleck.png'],diff,1,0.5258427999979176,34,88.0952380952381,
MAVI1806,14,neg,fs,negfs_id16_im3.bmp_negfs_id16_im2.bmp,['Im_LeonardoDiCaprio.png', 'Im_ElijahWood.png', 'Im_MattDamon.png', 'Im_DanielRadcliffe.png', 'Im_BradPitt.png', 'Im_KeanuReeves.png', 'Im_OrlandoBloom.png', 'Im_DanielCraig.png', 'Im_JustinTimberlake.png', 'Im_BenAffleck.png'],same,1,0.40834219999669585,35,88.0952380952381,
MAVI1806,14,neg,60,neg60_id14_im18.bmp_neg60_id4_im7.bmp,['Im_LeonardoDiCaprio.png', 'Im_ElijahWood.png', 'Im_MattDamon.png', 'Im_DanielRadcliffe.png', 'Im_BradPitt.png', 'Im_KeanuReeves.png', 'Im_OrlandoBloom.png', 'Im_DanielCraig.png', 'Im_JustinTimberlake.png', 'Im_BenAffleck.png'],diff,1,0.4167859999979555,36,88.0952380952381,
MAVI1806,14,neg,30,neg30_id10_im17.bmp_neg30_id10_im1.bmp,['Im_LeonardoDiCaprio.png', 'Im_ElijahWood.png', 'Im_MattDamon.png', 'Im_DanielRadcliffe.png', 'Im_BradPitt.png', 'Im_KeanuReeves.png', 'Im_OrlandoBloom.png', 'Im_DanielCraig.png', 'Im_JustinTimberlake.png', 'Im_BenAffleck.png'],same,1,0.4167282000016712,37,88.0952380952381,
MAVI1806,14,neg,fs,negfs_id13_im29.bmp_negfs_id13_im15.bmp,['Im_LeonardoDiCaprio.png', 'Im_ElijahWood.png', 'Im_MattDamon.png', 'Im_DanielRadcliffe.png', 'Im_BradPitt.png', 'Im_KeanuReeves.png', 'Im_OrlandoBloom.png', 'Im_DanielCraig.png', 'Im_JustinTimberlake.png', 'Im_BenAffleck.png'],same,1,0.41664529999980005,38,88.0952380952381,
MAVI1806,15,inv,150,pos150_id11_im10.bmp_pos150_id11_im1.bmp,['Im_LeonardoDiCaprio.png', 'Im_ElijahWood.png', 'Im_MattDamon.png', 'Im_DanielRadcliffe.png', 'Im_BradPitt.png', 'Im_KeanuReeves.png', 'Im_OrlandoBloom.png', 'Im_DanielCraig.png', 'Im_JustinTimberlake.png', 'Im_BenAffleck.png'],same,1,0.4835343999984616,1,90.47619047619048,
MAVI1806,15,inv,fs,posfs_id14_im16.bmp_posfs_id11_im10.bmp,['Im_LeonardoDiCaprio.png', 'Im_ElijahWood.png', 'Im_MattDamon.png', 'Im_DanielRadcliffe.png', 'Im_BradPitt.png', 'Im_KeanuReeves.png', 'Im_OrlandoBloom.png', 'Im_DanielCraig.png', 'Im_JustinTimberlake.png', 'Im_BenAffleck.png'],diff,1,0.4161400999983016,2,90.47619047619048,
MAVI1806,15,inv,0,pos0_id16_im19.bmp_pos0_id16_im2.bmp,['Im_LeonardoDiCaprio.png', 'Im_ElijahWood.png', 'Im_MattDamon.png', 'Im_DanielRadcliffe.png', 'Im_BradPitt.png', 'Im_KeanuReeves.png', 'Im_OrlandoBloom.png', 'Im_DanielCraig.png', 'Im_JustinTimberlake.png', 'Im_BenAffleck.png'],same,1,0.40836960000160616,3,90.47619047619048,
MAVI1806,15,inv,60,pos60_id13_im29.bmp_pos60_id13_im15.bmp,['Im_LeonardoDiCaprio.png', 'Im_ElijahWood.png', 'Im_MattDamon.png', 'Im_DanielRadcliffe.png', 'Im_BradPitt.png', 'Im_KeanuReeves.png', 'Im_OrlandoBloom.png', 'Im_DanielCraig.png', 'Im_JustinTimberlake.png', 'Im_BenAffleck.png'],same,1,0.4167745000013383,4,90.47619047619048,
MAVI1806,15,inv,120,pos120_id16_im19.bmp_pos120_id4_im15.bmp,['Im_LeonardoDiCaprio.png', 'Im_ElijahWood.png', 'Im_MattDamon.png', 'Im_DanielRadcliffe.png', 'Im_BradPitt.png', 'Im_KeanuReeves.png', 'Im_OrlandoBloom.png', 'Im_DanielCraig.png', 'Im_JustinTimberlake.png', 'Im_BenAffleck.png'],diff,1,0.41673090000040247,5,90.47619047619048,
MAVI1806,15,inv,90,pos90_id11_im10.bmp_pos90_id14_im16.bmp,['Im_LeonardoDiCaprio.png', 'Im_ElijahWood.png', 'Im_MattDamon.png', 'Im_DanielRadcliffe.png', 'Im_BradPitt.png', 'Im_KeanuReeves.png', 'Im_OrlandoBloom.png', 'Im_DanielCraig.png', 'Im_JustinTimberlake.png', 'Im_BenAffleck.png'],same,0,0.5749498000004678,5,90.47619047619048,
MAVI1806,15,inv,150,pos150_id13_im15.bmp_pos150_id13_im29.bmp,['Im_LeonardoDiCaprio.png', 'Im_ElijahWood.png', 'Im_MattDamon.png', 'Im_DanielRadcliffe.png', 'Im_BradPitt.png', 'Im_KeanuReeves.png', 'Im_OrlandoBloom.png', 'Im_DanielCraig.png', 'Im_JustinTimberlake.png', 'Im_BenAffleck.png'],diff,0,0.4166041000025871,5,90.47619047619048,
