Sujet,Trial,Condition,Filter,Imname,Actor0,Actor1,Actor2,Actor3,Actor4,Actor5,Actor6,Actor7,Actor8,Actor9,Answer,Accu,RT,Score,Scoreperc, 
MAVI1806,_,posfs_DanielRadcliffe_im1.bmp,DanielRadcliffe,BradPitt,BradPitt,LeonardoDiCaprio,BenStiller,RobertPattinson,,,,,posfs_DanielRadcliffe_im1.bmp,1.5841022999993584,
MAVI1806,_,posfs_RyanReynolds_im16.bmp,RyanReynolds,OrlandoBloom,OrlandoBloom,RobertPattinson,RyanGosling,LeonardoDiCaprio,,,,,posfs_RyanReynolds_im16.bmp,2.7348522000011144,
MAVI1806,_,posfs_LeonardoDiCaprio_im15.bmp,LeonardoDiCaprio,RobertPattinson,RobertPattinson,DanielCraig,BradPitt,DanielRadcliffe,,,,,posfs_LeonardoDiCaprio_im15.bmp,2.3023333999990427,
MAVI1806,_,posfs_RobertPattinson_im8.bmp,RobertPattinson,DanielRadcliffe,DanielRadcliffe,OrlandoBloom,MattDamon,RyanGosling,,,,,posfs_RobertPattinson_im8.bmp,1.6074511000006169,
MAVI1806,_,posfs_DanielCraig_im7.bmp,DanielCraig,BenAffleck,BenAffleck,KeanuReeves,PatrickDempsey,DanielRadcliffe,,,,,posfs_DanielCraig_im7.bmp,1.5797185999999783,
MAVI1806,_,posfs_BenStiller_im3.bmp,BenStiller,ElijahWood,ElijahWood,JustinTimberlake,BradPitt,RobertDowneyJr,,,,,posfs_BenStiller_im3.bmp,2.754125000001295,
MAVI1806,_,posfs_PatrickDempsey_im8.bmp,PatrickDempsey,BenStiller,BenStiller,MattDamon,BradPitt,RyanGosling,,,,,posfs_PatrickDempsey_im8.bmp,4.265910800000711,
MAVI1806,_,posfs_DanielRadcliffe_im20.bmp,DanielRadcliffe,GeorgeClooney,GeorgeClooney,ElijahWood,RobertPattinson,KeanuReeves,,,,,posfs_DanielRadcliffe_im20.bmp,2.5875892999993084,
MAVI1806,_,posfs_PatrickDempsey_im14.bmp,PatrickDempsey,KeanuReeves,KeanuReeves,RobertDowneyJr,HughJackman,RyanReynolds,,,,,posfs_PatrickDempsey_im14.bmp,2.400922400000127,
MAVI1806,_,posfs_GeorgeClooney_im15.bmp,GeorgeClooney,JustinTimberlake,JustinTimberlake,DanielRadcliffe,DanielCraig,BenAffleck,,,,,posfs_GeorgeClooney_im15.bmp,2.1748445999983232,
MAVI1806,_,posfs_ElijahWood_im18.bmp,ElijahWood,PatrickDempsey,PatrickDempsey,JustinTimberlake,RobertPattinson,RobertDowneyJr,,,,,posfs_ElijahWood_im18.bmp,1.133202799999708,
MAVI1806,_,posfs_RobertDowneyJr_im11.bmp,RobertDowneyJr,HughJackman,HughJackman,RyanGosling,JustinTimberlake,BenStiller,,,,,posfs_RobertDowneyJr_im11.bmp,1.6526852999995754,
MAVI1806,_,posfs_RyanGosling_im3.bmp,RyanGosling,RobertPattinson,RobertPattinson,PatrickDempsey,DanielCraig,JustinTimberlake,,,,,posfs_RyanGosling_im3.bmp,4.153503600000477,
MAVI1806,_,posfs_BenStiller_im7.bmp,BenStiller,LeonardoDiCaprio,LeonardoDiCaprio,RyanGosling,DanielCraig,PatrickDempsey,,,,,posfs_BenStiller_im7.bmp,1.864110200000141,
MAVI1806,_,posfs_KeanuReeves_im2.bmp,KeanuReeves,HughJackman,HughJackman,GeorgeClooney,RobertPattinson,BenStiller,,,,,posfs_KeanuReeves_im2.bmp,2.4766485999989527,
MAVI1806,_,posfs_HughJackman_im13.bmp,HughJackman,BradPitt,BradPitt,PatrickDempsey,MattDamon,RobertPattinson,,,,,posfs_HughJackman_im13.bmp,0.9744365000005928,
MAVI1806,_,posfs_OrlandoBloom_im2.bmp,OrlandoBloom,BenAffleck,BenAffleck,RyanGosling,MattDamon,RobertDowneyJr,,,,,posfs_OrlandoBloom_im2.bmp,0.9164858000003733,
MAVI1806,_,posfs_RyanReynolds_im3.bmp,RyanReynolds,BenAffleck,BenAffleck,DanielCraig,MattDamon,OrlandoBloom,,,,,posfs_RyanReynolds_im3.bmp,2.180822899999839,
MAVI1806,_,posfs_DanielRadcliffe_im10.bmp,DanielRadcliffe,LeonardoDiCaprio,LeonardoDiCaprio,KeanuReeves,ElijahWood,MattDamon,,,,,posfs_DanielRadcliffe_im10.bmp,1.5880674,
MAVI1806,_,posfs_OrlandoBloom_im19.bmp,OrlandoBloom,ElijahWood,ElijahWood,DanielCraig,PatrickDempsey,LeonardoDiCaprio,,,,,posfs_OrlandoBloom_im19.bmp,1.3622742999996262,
MAVI1806,_,posfs_GeorgeClooney_im23.bmp,GeorgeClooney,BenAffleck,BenAffleck,MattDamon,OrlandoBloom,KeanuReeves,,,,,posfs_GeorgeClooney_im23.bmp,2.05772689999867,
MAVI1806,_,posfs_RyanReynolds_im22.bmp,RyanReynolds,JustinTimberlake,JustinTimberlake,BradPitt,KeanuReeves,LeonardoDiCaprio,,,,,posfs_RyanReynolds_im22.bmp,2.7724394999986544,
MAVI1806,_,posfs_BenAffleck_im8.bmp,BenAffleck,OrlandoBloom,OrlandoBloom,RobertPattinson,RyanReynolds,MattDamon,,,,,posfs_BenAffleck_im8.bmp,1.555579800000487,
MAVI1806,_,posfs_KeanuReeves_im1.bmp,KeanuReeves,LeonardoDiCaprio,LeonardoDiCaprio,BradPitt,JustinTimberlake,RobertPattinson,,,,,posfs_KeanuReeves_im1.bmp,1.5302587999995012,
MAVI1806,_,posfs_OrlandoBloom_im30.bmp,OrlandoBloom,JustinTimberlake,JustinTimberlake,BradPitt,KeanuReeves,RyanGosling,,,,,posfs_OrlandoBloom_im30.bmp,1.9618678000006184,
MAVI1806,_,posfs_DanielCraig_im15.bmp,DanielCraig,BenAffleck,BenAffleck,MattDamon,BenStiller,HughJackman,,,,,posfs_DanielCraig_im15.bmp,2.0582355999995343,
MAVI1806,_,posfs_HughJackman_im20.bmp,HughJackman,JustinTimberlake,JustinTimberlake,RyanReynolds,DanielCraig,OrlandoBloom,,,,,posfs_HughJackman_im20.bmp,1.7800939999997354,
MAVI1806,_,posfs_JustinTimberlake_im17.bmp,JustinTimberlake,MattDamon,MattDamon,LeonardoDiCaprio,ElijahWood,GeorgeClooney,,,,,posfs_JustinTimberlake_im17.bmp,1.5304307000005792,
MAVI1806,_,posfs_DanielRadcliffe_im8.bmp,DanielRadcliffe,MattDamon,MattDamon,PatrickDempsey,RyanReynolds,RobertDowneyJr,,,,,posfs_DanielRadcliffe_im8.bmp,1.9871456000000762,
MAVI1806,_,posfs_BradPitt_im8.bmp,BradPitt,BenStiller,BenStiller,BenAffleck,OrlandoBloom,RobertPattinson,,,,,posfs_BradPitt_im8.bmp,1.2734478000002127,
MAVI1806,_,posfs_MattDamon_im24.bmp,MattDamon,RobertDowneyJr,RobertDowneyJr,BradPitt,HughJackman,RobertPattinson,,,,,posfs_MattDamon_im24.bmp,2.365364600000248,
MAVI1806,_,posfs_RobertPattinson_im4.bmp,RobertPattinson,DanielRadcliffe,DanielRadcliffe,RyanGosling,MattDamon,ElijahWood,,,,,posfs_RobertPattinson_im4.bmp,2.5000283000008494,
MAVI1806,_,posfs_HughJackman_im21.bmp,HughJackman,OrlandoBloom,OrlandoBloom,GeorgeClooney,RyanGosling,BradPitt,,,,,4,2.4626184000007925,
MAVI1806,_,posfs_RyanGosling_im12.bmp,RyanGosling,PatrickDempsey,PatrickDempsey,RyanReynolds,BradPitt,DanielCraig,,,,,posfs_RyanGosling_im12.bmp,1.9288398000007874,
MAVI1806,_,posfs_MattDamon_im16.bmp,MattDamon,LeonardoDiCaprio,LeonardoDiCaprio,RyanGosling,KeanuReeves,BenStiller,,,,,posfs_MattDamon_im16.bmp,2.3363267999993695,
MAVI1806,_,posfs_RobertDowneyJr_im4.bmp,RobertDowneyJr,RyanGosling,RyanGosling,BradPitt,HughJackman,ElijahWood,,,,,posfs_RobertDowneyJr_im4.bmp,1.2487123999999312,
MAVI1806,_,posfs_BenAffleck_im4.bmp,BenAffleck,BenStiller,BenStiller,KeanuReeves,ElijahWood,PatrickDempsey,,,,,posfs_BenAffleck_im4.bmp,2.1077103999996325,
MAVI1806,_,posfs_LeonardoDiCaprio_im10.bmp,LeonardoDiCaprio,BenStiller,BenStiller,RyanGosling,PatrickDempsey,RobertPattinson,,,,,posfs_LeonardoDiCaprio_im10.bmp,0.7724870999991253,
MAVI1806,_,posfs_BenStiller_im16.bmp,BenStiller,KeanuReeves,KeanuReeves,MattDamon,JustinTimberlake,BenAffleck,,,,,posfs_BenStiller_im16.bmp,0.9481926000007661,
MAVI1806,_,posfs_PatrickDempsey_im16.bmp,PatrickDempsey,BradPitt,BradPitt,DanielCraig,DanielRadcliffe,LeonardoDiCaprio,,,,,posfs_PatrickDempsey_im16.bmp,1.8037065000007715,
MAVI1806,_,posfs_RobertDowneyJr_im19.bmp,RobertDowneyJr,DanielRadcliffe,DanielRadcliffe,DanielCraig,PatrickDempsey,BenStiller,,,,,posfs_RobertDowneyJr_im19.bmp,1.0646265000013955,
MAVI1806,_,posfs_RobertPattinson_im30.bmp,RobertPattinson,DanielRadcliffe,DanielRadcliffe,DanielCraig,BenAffleck,JustinTimberlake,,,,,posfs_RobertPattinson_im30.bmp,3.140491899999688,
MAVI1806,_,posfs_RobertDowneyJr_im18.bmp,RobertDowneyJr,MattDamon,MattDamon,BradPitt,GeorgeClooney,JustinTimberlake,,,,,posfs_RobertDowneyJr_im18.bmp,1.3317133000000467,
MAVI1806,_,posfs_BenStiller_im2.bmp,BenStiller,RobertDowneyJr,RobertDowneyJr,GeorgeClooney,DanielCraig,RyanReynolds,,,,,posfs_BenStiller_im2.bmp,2.4833340999994107,
MAVI1806,_,posfs_HughJackman_im18.bmp,HughJackman,LeonardoDiCaprio,LeonardoDiCaprio,BradPitt,RyanGosling,DanielRadcliffe,,,,,4,3.341599400000632,
MAVI1806,_,posfs_RyanReynolds_im17.bmp,RyanReynolds,PatrickDempsey,PatrickDempsey,ElijahWood,BenStiller,BradPitt,,,,,posfs_RyanReynolds_im17.bmp,2.40555520000089,
MAVI1806,_,posfs_BenAffleck_im24.bmp,BenAffleck,OrlandoBloom,OrlandoBloom,DanielRadcliffe,MattDamon,GeorgeClooney,,,,,posfs_BenAffleck_im24.bmp,1.0431358000005275,
MAVI1806,_,posfs_BradPitt_im17.bmp,BradPitt,PatrickDempsey,PatrickDempsey,LeonardoDiCaprio,JustinTimberlake,HughJackman,,,,,posfs_BradPitt_im17.bmp,0.6158524000002217,
MAVI1806,_,posfs_JustinTimberlake_im1.bmp,JustinTimberlake,BenAffleck,BenAffleck,ElijahWood,PatrickDempsey,HughJackman,,,,,posfs_JustinTimberlake_im1.bmp,0.7168395999997301,
MAVI1806,_,posfs_LeonardoDiCaprio_im29.bmp,LeonardoDiCaprio,RobertDowneyJr,RobertDowneyJr,PatrickDempsey,OrlandoBloom,DanielCraig,,,,,posfs_LeonardoDiCaprio_im29.bmp,1.7339375999999902,
MAVI1806,_,posfs_ElijahWood_im12.bmp,ElijahWood,DanielRadcliffe,DanielRadcliffe,RobertDowneyJr,GeorgeClooney,BenStiller,,,,,posfs_ElijahWood_im12.bmp,1.5186054999994667,
MAVI1806,_,posfs_GeorgeClooney_im14.bmp,GeorgeClooney,KeanuReeves,KeanuReeves,LeonardoDiCaprio,PatrickDempsey,RobertPattinson,,,,,posfs_GeorgeClooney_im14.bmp,0.975000700000237,
MAVI1806,_,posfs_MattDamon_im18.bmp,MattDamon,DanielCraig,DanielCraig,PatrickDempsey,DanielRadcliffe,ElijahWood,,,,,posfs_MattDamon_im18.bmp,4.470400800000789,
MAVI1806,_,posfs_BenAffleck_im21.bmp,BenAffleck,RyanGosling,RyanGosling,GeorgeClooney,ElijahWood,BradPitt,,,,,posfs_BenAffleck_im21.bmp,1.6087492999995447,
MAVI1806,_,posfs_JustinTimberlake_im4.bmp,JustinTimberlake,BenStiller,BenStiller,RobertDowneyJr,OrlandoBloom,PatrickDempsey,,,,,posfs_JustinTimberlake_im4.bmp,1.798059500000818,
MAVI1806,_,posfs_GeorgeClooney_im26.bmp,GeorgeClooney,LeonardoDiCaprio,LeonardoDiCaprio,RobertPattinson,BenAffleck,ElijahWood,,,,,posfs_GeorgeClooney_im26.bmp,1.5548168000004807,
MAVI1806,_,posfs_DanielCraig_im20.bmp,DanielCraig,BenStiller,BenStiller,BradPitt,LeonardoDiCaprio,OrlandoBloom,,,,,posfs_DanielCraig_im20.bmp,0.882713099999819,
MAVI1806,_,posfs_LeonardoDiCaprio_im24.bmp,LeonardoDiCaprio,DanielCraig,DanielCraig,BradPitt,PatrickDempsey,RyanGosling,,,,,posfs_LeonardoDiCaprio_im24.bmp,1.269010400001207,
MAVI1806,_,posfs_PatrickDempsey_im9.bmp,PatrickDempsey,HughJackman,HughJackman,RobertDowneyJr,KeanuReeves,BenAffleck,,,,,posfs_PatrickDempsey_im9.bmp,1.1370744000014383,
MAVI1806,_,posfs_BradPitt_im14.bmp,BradPitt,MattDamon,MattDamon,DanielCraig,OrlandoBloom,LeonardoDiCaprio,,,,,posfs_BradPitt_im14.bmp,0.7052348999986862,
MAVI1806,_,posfs_KeanuReeves_im10.bmp,KeanuReeves,MattDamon,MattDamon,OrlandoBloom,PatrickDempsey,LeonardoDiCaprio,,,,,posfs_KeanuReeves_im10.bmp,1.3711956999995891,
MAVI1806,_,posfs_DanielCraig_im8.bmp,DanielCraig,RobertPattinson,RobertPattinson,BenAffleck,BenStiller,LeonardoDiCaprio,,,,,posfs_DanielCraig_im8.bmp,1.1207348000007187,
MAVI1806,_,posfs_RyanGosling_im25.bmp,RyanGosling,DanielCraig,DanielCraig,KeanuReeves,BradPitt,MattDamon,,,,,posfs_RyanGosling_im25.bmp,2.242238799999541,
MAVI1806,_,posfs_JustinTimberlake_im18.bmp,JustinTimberlake,ElijahWood,ElijahWood,RyanGosling,DanielRadcliffe,LeonardoDiCaprio,,,,,posfs_JustinTimberlake_im18.bmp,2.574344500000734,
MAVI1806,_,posfs_ElijahWood_im19.bmp,ElijahWood,PatrickDempsey,PatrickDempsey,RyanReynolds,BenAffleck,OrlandoBloom,,,,,posfs_ElijahWood_im19.bmp,1.7811746999996103,
MAVI1806,_,posfs_RyanGosling_im30.bmp,RyanGosling,RyanReynolds,RyanReynolds,DanielCraig,PatrickDempsey,RobertPattinson,,,,,posfs_RyanGosling_im30.bmp,4.595761599999605,
MAVI1806,_,posfs_BradPitt_im6.bmp,BradPitt,RyanGosling,RyanGosling,RobertDowneyJr,OrlandoBloom,HughJackman,,,,,posfs_BradPitt_im6.bmp,2.7461026000000857,
MAVI1806,_,posfs_KeanuReeves_im8.bmp,KeanuReeves,BenAffleck,BenAffleck,LeonardoDiCaprio,RyanGosling,GeorgeClooney,,,,,posfs_KeanuReeves_im8.bmp,2.1941908999997395,
MAVI1806,_,posfs_OrlandoBloom_im3.bmp,OrlandoBloom,RobertPattinson,RobertPattinson,RyanReynolds,RyanGosling,RobertDowneyJr,,,,,posfs_OrlandoBloom_im3.bmp,1.60022570000001,
MAVI1806,_,posfs_ElijahWood_im23.bmp,ElijahWood,BenAffleck,BenAffleck,RyanGosling,BenStiller,RobertDowneyJr,,,,,posfs_ElijahWood_im23.bmp,1.0298953000001347,
MAVI1806,_,posfs_MattDamon_im9.bmp,MattDamon,BradPitt,BradPitt,HughJackman,DanielCraig,LeonardoDiCaprio,,,,,posfs_MattDamon_im9.bmp,1.5784819000000425,
MAVI1806,_,posfs_RobertPattinson_im27.bmp,RobertPattinson,RyanReynolds,RyanReynolds,OrlandoBloom,MattDamon,KeanuReeves,,,,,posfs_RobertPattinson_im27.bmp,2.169540099999722,
MAVI1806,train,pos,fs,posfs_id14_im18.bmp_posfs_id14_im16.bmp,['Im_ElijahWood.png', 'Im_MattDamon.png', 'Im_BenAffleck.png', 'Im_DanielCraig.png', 'Im_JustinTimberlake.png', 'Im_DanielRadcliffe.png', 'Im_KeanuReeves.png', 'Im_OrlandoBloom.png', 'Im_LeonardoDiCaprio.png', 'Im_BradPitt.png'],same,1,0.7251329000009719,1,0,
MAVI1806,train,pos,fs,posfs_id13_im29.bmp_posfs_id13_im10.bmp,['Im_ElijahWood.png', 'Im_MattDamon.png', 'Im_BenAffleck.png', 'Im_DanielCraig.png', 'Im_JustinTimberlake.png', 'Im_DanielRadcliffe.png', 'Im_KeanuReeves.png', 'Im_OrlandoBloom.png', 'Im_LeonardoDiCaprio.png', 'Im_BradPitt.png'],same,1,0.8749865999998292,2,0,
MAVI1806,train,pos,fs,posfs_id6_im19.bmp_posfs_id3_im8.bmp,['Im_ElijahWood.png', 'Im_MattDamon.png', 'Im_BenAffleck.png', 'Im_DanielCraig.png', 'Im_JustinTimberlake.png', 'Im_DanielRadcliffe.png', 'Im_KeanuReeves.png', 'Im_OrlandoBloom.png', 'Im_LeonardoDiCaprio.png', 'Im_BradPitt.png'],diff,1,0.9920481999997719,3,0,
MAVI1806,train,pos,fs,posfs_id6_im12.bmp_posfs_id6_im19.bmp,['Im_ElijahWood.png', 'Im_MattDamon.png', 'Im_BenAffleck.png', 'Im_DanielCraig.png', 'Im_JustinTimberlake.png', 'Im_DanielRadcliffe.png', 'Im_KeanuReeves.png', 'Im_OrlandoBloom.png', 'Im_LeonardoDiCaprio.png', 'Im_BradPitt.png'],same,1,0.9669852000006358,4,0,
MAVI1806,train,pos,fs,posfs_id11_im10.bmp_posfs_id11_im1.bmp,['Im_ElijahWood.png', 'Im_MattDamon.png', 'Im_BenAffleck.png', 'Im_DanielCraig.png', 'Im_JustinTimberlake.png', 'Im_DanielRadcliffe.png', 'Im_KeanuReeves.png', 'Im_OrlandoBloom.png', 'Im_LeonardoDiCaprio.png', 'Im_BradPitt.png'],same,1,0.816620999999941,5,0,
MAVI1806,train,pos,fs,posfs_id16_im2.bmp_posfs_id16_im3.bmp,['Im_ElijahWood.png', 'Im_MattDamon.png', 'Im_BenAffleck.png', 'Im_DanielCraig.png', 'Im_JustinTimberlake.png', 'Im_DanielRadcliffe.png', 'Im_KeanuReeves.png', 'Im_OrlandoBloom.png', 'Im_LeonardoDiCaprio.png', 'Im_BradPitt.png'],same,1,0.6333455000003596,6,0,
MAVI1806,train,pos,fs,posfs_id13_im29.bmp_posfs_id13_im15.bmp,['Im_ElijahWood.png', 'Im_MattDamon.png', 'Im_BenAffleck.png', 'Im_DanielCraig.png', 'Im_JustinTimberlake.png', 'Im_DanielRadcliffe.png', 'Im_KeanuReeves.png', 'Im_OrlandoBloom.png', 'Im_LeonardoDiCaprio.png', 'Im_BradPitt.png'],same,1,0.6665991000008944,7,0,
MAVI1806,train,pos,fs,posfs_id10_im17.bmp_posfs_id3_im6.bmp,['Im_ElijahWood.png', 'Im_MattDamon.png', 'Im_BenAffleck.png', 'Im_DanielCraig.png', 'Im_JustinTimberlake.png', 'Im_DanielRadcliffe.png', 'Im_KeanuReeves.png', 'Im_OrlandoBloom.png', 'Im_LeonardoDiCaprio.png', 'Im_BradPitt.png'],diff,1,1.5000254000005953,8,0,
MAVI1806,train,pos,fs,posfs_id16_im19.bmp_posfs_id16_im2.bmp,['Im_ElijahWood.png', 'Im_MattDamon.png', 'Im_BenAffleck.png', 'Im_DanielCraig.png', 'Im_JustinTimberlake.png', 'Im_DanielRadcliffe.png', 'Im_KeanuReeves.png', 'Im_OrlandoBloom.png', 'Im_LeonardoDiCaprio.png', 'Im_BradPitt.png'],same,1,0.7498888999998599,9,0,
MAVI1806,train,pos,fs,posfs_id4_im7.bmp_posfs_id4_im20.bmp,['Im_ElijahWood.png', 'Im_MattDamon.png', 'Im_BenAffleck.png', 'Im_DanielCraig.png', 'Im_JustinTimberlake.png', 'Im_DanielRadcliffe.png', 'Im_KeanuReeves.png', 'Im_OrlandoBloom.png', 'Im_LeonardoDiCaprio.png', 'Im_BradPitt.png'],same,1,0.6416348999991897,10,0,
MAVI1806,train,pos,fs,posfs_id10_im1.bmp_posfs_id3_im17.bmp,['Im_ElijahWood.png', 'Im_MattDamon.png', 'Im_BenAffleck.png', 'Im_DanielCraig.png', 'Im_JustinTimberlake.png', 'Im_DanielRadcliffe.png', 'Im_KeanuReeves.png', 'Im_OrlandoBloom.png', 'Im_LeonardoDiCaprio.png', 'Im_BradPitt.png'],same,0,0.6750394999999116,10,0,
MAVI1806,train,pos,fs,posfs_id16_im2.bmp_posfs_id6_im18.bmp,['Im_ElijahWood.png', 'Im_MattDamon.png', 'Im_BenAffleck.png', 'Im_DanielCraig.png', 'Im_JustinTimberlake.png', 'Im_DanielRadcliffe.png', 'Im_KeanuReeves.png', 'Im_OrlandoBloom.png', 'Im_LeonardoDiCaprio.png', 'Im_BradPitt.png'],diff,1,0.8582396000001609,11,0,
MAVI1806,train,pos,fs,posfs_id5_im20.bmp_posfs_id5_im10.bmp,['Im_ElijahWood.png', 'Im_MattDamon.png', 'Im_BenAffleck.png', 'Im_DanielCraig.png', 'Im_JustinTimberlake.png', 'Im_DanielRadcliffe.png', 'Im_KeanuReeves.png', 'Im_OrlandoBloom.png', 'Im_LeonardoDiCaprio.png', 'Im_BradPitt.png'],same,1,0.7749693000005209,12,0,
MAVI1806,train,pos,fs,posfs_id5_im10.bmp_posfs_id13_im15.bmp,['Im_ElijahWood.png', 'Im_MattDamon.png', 'Im_BenAffleck.png', 'Im_DanielCraig.png', 'Im_JustinTimberlake.png', 'Im_DanielRadcliffe.png', 'Im_KeanuReeves.png', 'Im_OrlandoBloom.png', 'Im_LeonardoDiCaprio.png', 'Im_BradPitt.png'],diff,1,1.208307999999306,13,0,
MAVI1806,train,pos,fs,posfs_id13_im10.bmp_posfs_id13_im15.bmp,['Im_ElijahWood.png', 'Im_MattDamon.png', 'Im_BenAffleck.png', 'Im_DanielCraig.png', 'Im_JustinTimberlake.png', 'Im_DanielRadcliffe.png', 'Im_KeanuReeves.png', 'Im_OrlandoBloom.png', 'Im_LeonardoDiCaprio.png', 'Im_BradPitt.png'],same,1,0.8915705999988859,14,0,
MAVI1806,train,pos,fs,posfs_id1_im21.bmp_posfs_id6_im18.bmp,['Im_ElijahWood.png', 'Im_MattDamon.png', 'Im_BenAffleck.png', 'Im_DanielCraig.png', 'Im_JustinTimberlake.png', 'Im_DanielRadcliffe.png', 'Im_KeanuReeves.png', 'Im_OrlandoBloom.png', 'Im_LeonardoDiCaprio.png', 'Im_BradPitt.png'],diff,1,1.566596099999515,15,0,
MAVI1806,train,pos,fs,posfs_id4_im20.bmp_posfs_id6_im12.bmp,['Im_ElijahWood.png', 'Im_MattDamon.png', 'Im_BenAffleck.png', 'Im_DanielCraig.png', 'Im_JustinTimberlake.png', 'Im_DanielRadcliffe.png', 'Im_KeanuReeves.png', 'Im_OrlandoBloom.png', 'Im_LeonardoDiCaprio.png', 'Im_BradPitt.png'],diff,1,1.641828700001497,16,0,
MAVI1806,train,pos,fs,posfs_id11_im10.bmp_posfs_id16_im19.bmp,['Im_ElijahWood.png', 'Im_MattDamon.png', 'Im_BenAffleck.png', 'Im_DanielCraig.png', 'Im_JustinTimberlake.png', 'Im_DanielRadcliffe.png', 'Im_KeanuReeves.png', 'Im_OrlandoBloom.png', 'Im_LeonardoDiCaprio.png', 'Im_BradPitt.png'],none,1,4.416643500000646,16,0,
MAVI1806,train,pos,fs,posfs_id1_im21.bmp_posfs_id13_im10.bmp,['Im_ElijahWood.png', 'Im_MattDamon.png', 'Im_BenAffleck.png', 'Im_DanielCraig.png', 'Im_JustinTimberlake.png', 'Im_DanielRadcliffe.png', 'Im_KeanuReeves.png', 'Im_OrlandoBloom.png', 'Im_LeonardoDiCaprio.png', 'Im_BradPitt.png'],diff,1,2.7249831999997696,17,0,
MAVI1806,train,pos,fs,posfs_id14_im24.bmp_posfs_id14_im18.bmp,['Im_ElijahWood.png', 'Im_MattDamon.png', 'Im_BenAffleck.png', 'Im_DanielCraig.png', 'Im_JustinTimberlake.png', 'Im_DanielRadcliffe.png', 'Im_KeanuReeves.png', 'Im_OrlandoBloom.png', 'Im_LeonardoDiCaprio.png', 'Im_BradPitt.png'],same,1,0.624958999998853,18,0,
MAVI1806,train,neg,fs,negfs_id1_im21.bmp_negfs_id1_im4.bmp,['Im_ElijahWood.png', 'Im_MattDamon.png', 'Im_BenAffleck.png', 'Im_DanielCraig.png', 'Im_JustinTimberlake.png', 'Im_DanielRadcliffe.png', 'Im_KeanuReeves.png', 'Im_OrlandoBloom.png', 'Im_LeonardoDiCaprio.png', 'Im_BradPitt.png'],same,1,0.41674309999871184,1,0,
MAVI1806,train,neg,fs,negfs_id1_im24.bmp_negfs_id1_im21.bmp,['Im_ElijahWood.png', 'Im_MattDamon.png', 'Im_BenAffleck.png', 'Im_DanielCraig.png', 'Im_JustinTimberlake.png', 'Im_DanielRadcliffe.png', 'Im_KeanuReeves.png', 'Im_OrlandoBloom.png', 'Im_LeonardoDiCaprio.png', 'Im_BradPitt.png'],same,1,0.4083492000008846,2,0,
MAVI1806,train,neg,fs,negfs_id13_im29.bmp_negfs_id13_im15.bmp,['Im_ElijahWood.png', 'Im_MattDamon.png', 'Im_BenAffleck.png', 'Im_DanielCraig.png', 'Im_JustinTimberlake.png', 'Im_DanielRadcliffe.png', 'Im_KeanuReeves.png', 'Im_OrlandoBloom.png', 'Im_LeonardoDiCaprio.png', 'Im_BradPitt.png'],same,1,0.5000655999992887,3,0,
MAVI1806,train,inv,fs,posfs_id11_im1.bmp_posfs_id11_im2.bmp,['Im_ElijahWood.png', 'Im_MattDamon.png', 'Im_BenAffleck.png', 'Im_DanielCraig.png', 'Im_JustinTimberlake.png', 'Im_DanielRadcliffe.png', 'Im_KeanuReeves.png', 'Im_OrlandoBloom.png', 'Im_LeonardoDiCaprio.png', 'Im_BradPitt.png'],same,1,0.4334302999995998,4,0,
MAVI1806,train,inv,fs,posfs_id10_im17.bmp_posfs_id10_im1.bmp,['Im_ElijahWood.png', 'Im_MattDamon.png', 'Im_BenAffleck.png', 'Im_DanielCraig.png', 'Im_JustinTimberlake.png', 'Im_DanielRadcliffe.png', 'Im_KeanuReeves.png', 'Im_OrlandoBloom.png', 'Im_LeonardoDiCaprio.png', 'Im_BradPitt.png'],same,1,0.4167357999995147,5,0,
MAVI1806,train,neg,fs,negfs_id1_im24.bmp_negfs_id1_im4.bmp,['Im_ElijahWood.png', 'Im_MattDamon.png', 'Im_BenAffleck.png', 'Im_DanielCraig.png', 'Im_JustinTimberlake.png', 'Im_DanielRadcliffe.png', 'Im_KeanuReeves.png', 'Im_OrlandoBloom.png', 'Im_LeonardoDiCaprio.png', 'Im_BradPitt.png'],same,1,0.416769800000111,6,0,
MAVI1806,train,inv,fs,posfs_id1_im24.bmp_posfs_id1_im21.bmp,['Im_ElijahWood.png', 'Im_MattDamon.png', 'Im_BenAffleck.png', 'Im_DanielCraig.png', 'Im_JustinTimberlake.png', 'Im_DanielRadcliffe.png', 'Im_KeanuReeves.png', 'Im_OrlandoBloom.png', 'Im_LeonardoDiCaprio.png', 'Im_BradPitt.png'],same,1,0.4166915000005247,7,0,
MAVI1806,train,inv,fs,posfs_id4_im15.bmp_posfs_id4_im7.bmp,['Im_ElijahWood.png', 'Im_MattDamon.png', 'Im_BenAffleck.png', 'Im_DanielCraig.png', 'Im_JustinTimberlake.png', 'Im_DanielRadcliffe.png', 'Im_KeanuReeves.png', 'Im_OrlandoBloom.png', 'Im_LeonardoDiCaprio.png', 'Im_BradPitt.png'],same,1,0.42503229999965697,8,0,
MAVI1806,train,inv,fs,posfs_id11_im1.bmp_posfs_id13_im15.bmp,['Im_ElijahWood.png', 'Im_MattDamon.png', 'Im_BenAffleck.png', 'Im_DanielCraig.png', 'Im_JustinTimberlake.png', 'Im_DanielRadcliffe.png', 'Im_KeanuReeves.png', 'Im_OrlandoBloom.png', 'Im_LeonardoDiCaprio.png', 'Im_BradPitt.png'],diff,1,0.41685310000139,9,0,
MAVI1806,train,pos,fs,posfs_id14_im16.bmp_posfs_id14_im18.bmp,['Im_ElijahWood.png', 'Im_MattDamon.png', 'Im_BenAffleck.png', 'Im_DanielCraig.png', 'Im_JustinTimberlake.png', 'Im_DanielRadcliffe.png', 'Im_KeanuReeves.png', 'Im_OrlandoBloom.png', 'Im_LeonardoDiCaprio.png', 'Im_BradPitt.png'],same,1,0.4168554999996559,10,0,
MAVI1806,train,pos,fs,posfs_id6_im19.bmp_posfs_id3_im8.bmp,['Im_ElijahWood.png', 'Im_MattDamon.png', 'Im_BenAffleck.png', 'Im_DanielCraig.png', 'Im_JustinTimberlake.png', 'Im_DanielRadcliffe.png', 'Im_KeanuReeves.png', 'Im_OrlandoBloom.png', 'Im_LeonardoDiCaprio.png', 'Im_BradPitt.png'],diff,1,0.7583520000007411,11,0,
MAVI1806,train,pos,fs,posfs_id11_im1.bmp_posfs_id11_im10.bmp,['Im_ElijahWood.png', 'Im_MattDamon.png', 'Im_BenAffleck.png', 'Im_DanielCraig.png', 'Im_JustinTimberlake.png', 'Im_DanielRadcliffe.png', 'Im_KeanuReeves.png', 'Im_OrlandoBloom.png', 'Im_LeonardoDiCaprio.png', 'Im_BradPitt.png'],same,1,0.5584966000005807,12,0,
MAVI1806,train,neg,fs,negfs_id4_im20.bmp_negfs_id4_im7.bmp,['Im_ElijahWood.png', 'Im_MattDamon.png', 'Im_BenAffleck.png', 'Im_DanielCraig.png', 'Im_JustinTimberlake.png', 'Im_DanielRadcliffe.png', 'Im_KeanuReeves.png', 'Im_OrlandoBloom.png', 'Im_LeonardoDiCaprio.png', 'Im_BradPitt.png'],same,1,0.4250011000003724,13,0,
MAVI1806,train,neg,fs,negfs_id6_im19.bmp_negfs_id16_im2.bmp,['Im_ElijahWood.png', 'Im_MattDamon.png', 'Im_BenAffleck.png', 'Im_DanielCraig.png', 'Im_JustinTimberlake.png', 'Im_DanielRadcliffe.png', 'Im_KeanuReeves.png', 'Im_OrlandoBloom.png', 'Im_LeonardoDiCaprio.png', 'Im_BradPitt.png'],diff,1,0.900201599999491,14,0,
MAVI1806,train,neg,fs,negfs_id5_im1.bmp_negfs_id10_im1.bmp,['Im_ElijahWood.png', 'Im_MattDamon.png', 'Im_BenAffleck.png', 'Im_DanielCraig.png', 'Im_JustinTimberlake.png', 'Im_DanielRadcliffe.png', 'Im_KeanuReeves.png', 'Im_OrlandoBloom.png', 'Im_LeonardoDiCaprio.png', 'Im_BradPitt.png'],diff,1,1.2333946999988257,15,0,
MAVI1806,train,inv,fs,posfs_id10_im1.bmp_posfs_id3_im17.bmp,['Im_ElijahWood.png', 'Im_MattDamon.png', 'Im_BenAffleck.png', 'Im_DanielCraig.png', 'Im_JustinTimberlake.png', 'Im_DanielRadcliffe.png', 'Im_KeanuReeves.png', 'Im_OrlandoBloom.png', 'Im_LeonardoDiCaprio.png', 'Im_BradPitt.png'],diff,1,0.40845179999996617,16,0,
MAVI1806,train,inv,fs,posfs_id11_im1.bmp_posfs_id11_im10.bmp,['Im_ElijahWood.png', 'Im_MattDamon.png', 'Im_BenAffleck.png', 'Im_DanielCraig.png', 'Im_JustinTimberlake.png', 'Im_DanielRadcliffe.png', 'Im_KeanuReeves.png', 'Im_OrlandoBloom.png', 'Im_LeonardoDiCaprio.png', 'Im_BradPitt.png'],same,1,0.4915772000003926,17,0,
MAVI1806,train,inv,fs,posfs_id16_im19.bmp_posfs_id16_im2.bmp,['Im_ElijahWood.png', 'Im_MattDamon.png', 'Im_BenAffleck.png', 'Im_DanielCraig.png', 'Im_JustinTimberlake.png', 'Im_DanielRadcliffe.png', 'Im_KeanuReeves.png', 'Im_OrlandoBloom.png', 'Im_LeonardoDiCaprio.png', 'Im_BradPitt.png'],same,1,0.4168234000007942,18,0,
MAVI1806,train,pos,fs,posfs_id14_im24.bmp_posfs_id3_im6.bmp,['Im_ElijahWood.png', 'Im_MattDamon.png', 'Im_BenAffleck.png', 'Im_DanielCraig.png', 'Im_JustinTimberlake.png', 'Im_DanielRadcliffe.png', 'Im_KeanuReeves.png', 'Im_OrlandoBloom.png', 'Im_LeonardoDiCaprio.png', 'Im_BradPitt.png'],diff,1,0.6586343999988458,19,0,
MAVI1806,train,neg,fs,negfs_id14_im16.bmp_negfs_id11_im10.bmp,['Im_ElijahWood.png', 'Im_MattDamon.png', 'Im_BenAffleck.png', 'Im_DanielCraig.png', 'Im_JustinTimberlake.png', 'Im_DanielRadcliffe.png', 'Im_KeanuReeves.png', 'Im_OrlandoBloom.png', 'Im_LeonardoDiCaprio.png', 'Im_BradPitt.png'],diff,1,0.5250097999996797,20,0,
MAVI1806,train,pos,30,pos30_id13_im10.bmp_pos30_id13_im29.bmp,['Im_ElijahWood.png', 'Im_MattDamon.png', 'Im_BenAffleck.png', 'Im_DanielCraig.png', 'Im_JustinTimberlake.png', 'Im_DanielRadcliffe.png', 'Im_KeanuReeves.png', 'Im_OrlandoBloom.png', 'Im_LeonardoDiCaprio.png', 'Im_BradPitt.png'],diff,0,0.41674240000065765,0,0,
MAVI1806,train,pos,fs,posfs_id11_im10.bmp_posfs_id16_im19.bmp,['Im_ElijahWood.png', 'Im_MattDamon.png', 'Im_BenAffleck.png', 'Im_DanielCraig.png', 'Im_JustinTimberlake.png', 'Im_DanielRadcliffe.png', 'Im_KeanuReeves.png', 'Im_OrlandoBloom.png', 'Im_LeonardoDiCaprio.png', 'Im_BradPitt.png'],diff,1,0.6084672000015416,1,0,
MAVI1806,train,pos,60,pos60_id5_im1.bmp_pos60_id5_im10.bmp,['Im_ElijahWood.png', 'Im_MattDamon.png', 'Im_BenAffleck.png', 'Im_DanielCraig.png', 'Im_JustinTimberlake.png', 'Im_DanielRadcliffe.png', 'Im_KeanuReeves.png', 'Im_OrlandoBloom.png', 'Im_LeonardoDiCaprio.png', 'Im_BradPitt.png'],same,1,0.4249184000000241,2,0,
MAVI1806,train,pos,90,pos90_id5_im1.bmp_pos90_id5_im10.bmp,['Im_ElijahWood.png', 'Im_MattDamon.png', 'Im_BenAffleck.png', 'Im_DanielCraig.png', 'Im_JustinTimberlake.png', 'Im_DanielRadcliffe.png', 'Im_KeanuReeves.png', 'Im_OrlandoBloom.png', 'Im_LeonardoDiCaprio.png', 'Im_BradPitt.png'],same,1,0.4166647000001831,3,0,
MAVI1806,train,pos,90,pos90_id3_im8.bmp_pos90_id3_im6.bmp,['Im_ElijahWood.png', 'Im_MattDamon.png', 'Im_BenAffleck.png', 'Im_DanielCraig.png', 'Im_JustinTimberlake.png', 'Im_DanielRadcliffe.png', 'Im_KeanuReeves.png', 'Im_OrlandoBloom.png', 'Im_LeonardoDiCaprio.png', 'Im_BradPitt.png'],same,1,0.4250474000000395,4,0,
MAVI1806,train,pos,150,pos150_id4_im20.bmp_pos150_id6_im12.bmp,['Im_ElijahWood.png', 'Im_MattDamon.png', 'Im_BenAffleck.png', 'Im_DanielCraig.png', 'Im_JustinTimberlake.png', 'Im_DanielRadcliffe.png', 'Im_KeanuReeves.png', 'Im_OrlandoBloom.png', 'Im_LeonardoDiCaprio.png', 'Im_BradPitt.png'],diff,1,0.4166414999999688,5,0,
MAVI1806,train,pos,120,pos120_id10_im18.bmp_pos120_id11_im2.bmp,['Im_ElijahWood.png', 'Im_MattDamon.png', 'Im_BenAffleck.png', 'Im_DanielCraig.png', 'Im_JustinTimberlake.png', 'Im_DanielRadcliffe.png', 'Im_KeanuReeves.png', 'Im_OrlandoBloom.png', 'Im_LeonardoDiCaprio.png', 'Im_BradPitt.png'],diff,1,0.40840709999974933,6,0,
MAVI1806,train,pos,150,pos150_id10_im18.bmp_pos150_id10_im1.bmp,['Im_ElijahWood.png', 'Im_MattDamon.png', 'Im_BenAffleck.png', 'Im_DanielCraig.png', 'Im_JustinTimberlake.png', 'Im_DanielRadcliffe.png', 'Im_KeanuReeves.png', 'Im_OrlandoBloom.png', 'Im_LeonardoDiCaprio.png', 'Im_BradPitt.png'],same,1,0.5750539000000572,7,0,
MAVI1806,train,pos,fs,posfs_id4_im20.bmp_posfs_id6_im12.bmp,['Im_ElijahWood.png', 'Im_MattDamon.png', 'Im_BenAffleck.png', 'Im_DanielCraig.png', 'Im_JustinTimberlake.png', 'Im_DanielRadcliffe.png', 'Im_KeanuReeves.png', 'Im_OrlandoBloom.png', 'Im_LeonardoDiCaprio.png', 'Im_BradPitt.png'],diff,1,0.42512639999949897,8,0,
MAVI1806,train,pos,120,pos120_id6_im12.bmp_pos120_id6_im18.bmp,['Im_ElijahWood.png', 'Im_MattDamon.png', 'Im_BenAffleck.png', 'Im_DanielCraig.png', 'Im_JustinTimberlake.png', 'Im_DanielRadcliffe.png', 'Im_KeanuReeves.png', 'Im_OrlandoBloom.png', 'Im_LeonardoDiCaprio.png', 'Im_BradPitt.png'],same,1,0.49195899999904213,9,0,
MAVI1806,train,pos,60,pos60_id5_im1.bmp_pos60_id10_im1.bmp,['Im_ElijahWood.png', 'Im_MattDamon.png', 'Im_BenAffleck.png', 'Im_DanielCraig.png', 'Im_JustinTimberlake.png', 'Im_DanielRadcliffe.png', 'Im_KeanuReeves.png', 'Im_OrlandoBloom.png', 'Im_LeonardoDiCaprio.png', 'Im_BradPitt.png'],diff,1,0.425074400000085,10,0,
MAVI1806,train,pos,0,pos0_id10_im1.bmp_pos0_id10_im18.bmp,['Im_ElijahWood.png', 'Im_MattDamon.png', 'Im_BenAffleck.png', 'Im_DanielCraig.png', 'Im_JustinTimberlake.png', 'Im_DanielRadcliffe.png', 'Im_KeanuReeves.png', 'Im_OrlandoBloom.png', 'Im_LeonardoDiCaprio.png', 'Im_BradPitt.png'],same,1,0.4083981000003405,11,0,
MAVI1806,train,pos,0,pos0_id3_im17.bmp_pos0_id3_im6.bmp,['Im_ElijahWood.png', 'Im_MattDamon.png', 'Im_BenAffleck.png', 'Im_DanielCraig.png', 'Im_JustinTimberlake.png', 'Im_DanielRadcliffe.png', 'Im_KeanuReeves.png', 'Im_OrlandoBloom.png', 'Im_LeonardoDiCaprio.png', 'Im_BradPitt.png'],diff,0,0.40838090000033844,11,0,
MAVI1806,train,pos,30,pos30_id14_im24.bmp_pos30_id14_im16.bmp,['Im_ElijahWood.png', 'Im_MattDamon.png', 'Im_BenAffleck.png', 'Im_DanielCraig.png', 'Im_JustinTimberlake.png', 'Im_DanielRadcliffe.png', 'Im_KeanuReeves.png', 'Im_OrlandoBloom.png', 'Im_LeonardoDiCaprio.png', 'Im_BradPitt.png'],same,1,0.858658999999534,12,0,
MAVI1806,train,neg,60,neg60_id14_im24.bmp_neg60_id3_im6.bmp,['Im_ElijahWood.png', 'Im_MattDamon.png', 'Im_BenAffleck.png', 'Im_DanielCraig.png', 'Im_JustinTimberlake.png', 'Im_DanielRadcliffe.png', 'Im_KeanuReeves.png', 'Im_OrlandoBloom.png', 'Im_LeonardoDiCaprio.png', 'Im_BradPitt.png'],diff,1,1.4917229000002408,13,0,
MAVI1806,train,neg,0,neg0_id10_im1.bmp_neg0_id10_im17.bmp,['Im_ElijahWood.png', 'Im_MattDamon.png', 'Im_BenAffleck.png', 'Im_DanielCraig.png', 'Im_JustinTimberlake.png', 'Im_DanielRadcliffe.png', 'Im_KeanuReeves.png', 'Im_OrlandoBloom.png', 'Im_LeonardoDiCaprio.png', 'Im_BradPitt.png'],diff,0,0.47539920000053826,13,0,
MAVI1806,train,neg,120,neg120_id13_im15.bmp_neg120_id13_im10.bmp,['Im_ElijahWood.png', 'Im_MattDamon.png', 'Im_BenAffleck.png', 'Im_DanielCraig.png', 'Im_JustinTimberlake.png', 'Im_DanielRadcliffe.png', 'Im_KeanuReeves.png', 'Im_OrlandoBloom.png', 'Im_LeonardoDiCaprio.png', 'Im_BradPitt.png'],same,1,0.708498399999371,14,0,
MAVI1806,train,neg,0,neg0_id16_im2.bmp_neg0_id6_im18.bmp,['Im_ElijahWood.png', 'Im_MattDamon.png', 'Im_BenAffleck.png', 'Im_DanielCraig.png', 'Im_JustinTimberlake.png', 'Im_DanielRadcliffe.png', 'Im_KeanuReeves.png', 'Im_OrlandoBloom.png', 'Im_LeonardoDiCaprio.png', 'Im_BradPitt.png'],diff,1,0.45836879999842495,15,0,
MAVI1806,train,neg,90,neg90_id1_im4.bmp_neg90_id4_im20.bmp,['Im_ElijahWood.png', 'Im_MattDamon.png', 'Im_BenAffleck.png', 'Im_DanielCraig.png', 'Im_JustinTimberlake.png', 'Im_DanielRadcliffe.png', 'Im_KeanuReeves.png', 'Im_OrlandoBloom.png', 'Im_LeonardoDiCaprio.png', 'Im_BradPitt.png'],diff,1,0.45831640000142215,16,0,
MAVI1806,train,neg,30,neg30_id6_im18.bmp_neg30_id6_im12.bmp,['Im_ElijahWood.png', 'Im_MattDamon.png', 'Im_BenAffleck.png', 'Im_DanielCraig.png', 'Im_JustinTimberlake.png', 'Im_DanielRadcliffe.png', 'Im_KeanuReeves.png', 'Im_OrlandoBloom.png', 'Im_LeonardoDiCaprio.png', 'Im_BradPitt.png'],same,1,0.6504920999996102,17,0,
MAVI1806,train,neg,150,neg150_id11_im2.bmp_neg150_id3_im17.bmp,['Im_ElijahWood.png', 'Im_MattDamon.png', 'Im_BenAffleck.png', 'Im_DanielCraig.png', 'Im_JustinTimberlake.png', 'Im_DanielRadcliffe.png', 'Im_KeanuReeves.png', 'Im_OrlandoBloom.png', 'Im_LeonardoDiCaprio.png', 'Im_BradPitt.png'],diff,1,0.42522699999972247,18,0,
MAVI1806,train,neg,90,neg90_id16_im19.bmp_neg90_id16_im2.bmp,['Im_ElijahWood.png', 'Im_MattDamon.png', 'Im_BenAffleck.png', 'Im_DanielCraig.png', 'Im_JustinTimberlake.png', 'Im_DanielRadcliffe.png', 'Im_KeanuReeves.png', 'Im_OrlandoBloom.png', 'Im_LeonardoDiCaprio.png', 'Im_BradPitt.png'],same,1,0.9917924000001221,19,0,
MAVI1806,train,neg,120,neg120_id13_im29.bmp_neg120_id13_im15.bmp,['Im_ElijahWood.png', 'Im_MattDamon.png', 'Im_BenAffleck.png', 'Im_DanielCraig.png', 'Im_JustinTimberlake.png', 'Im_DanielRadcliffe.png', 'Im_KeanuReeves.png', 'Im_OrlandoBloom.png', 'Im_LeonardoDiCaprio.png', 'Im_BradPitt.png'],same,1,0.4166824000003544,20,0,
MAVI1806,train,neg,150,neg150_id1_im4.bmp_neg150_id10_im18.bmp,['Im_ElijahWood.png', 'Im_MattDamon.png', 'Im_BenAffleck.png', 'Im_DanielCraig.png', 'Im_JustinTimberlake.png', 'Im_DanielRadcliffe.png', 'Im_KeanuReeves.png', 'Im_OrlandoBloom.png', 'Im_LeonardoDiCaprio.png', 'Im_BradPitt.png'],diff,1,0.5837885000000824,21,0,
MAVI1806,train,neg,fs,negfs_id16_im3.bmp_negfs_id16_im2.bmp,['Im_ElijahWood.png', 'Im_MattDamon.png', 'Im_BenAffleck.png', 'Im_DanielCraig.png', 'Im_JustinTimberlake.png', 'Im_DanielRadcliffe.png', 'Im_KeanuReeves.png', 'Im_OrlandoBloom.png', 'Im_LeonardoDiCaprio.png', 'Im_BradPitt.png'],same,1,0.42495379999854777,22,0,
MAVI1806,train,neg,60,neg60_id14_im18.bmp_neg60_id4_im7.bmp,['Im_ElijahWood.png', 'Im_MattDamon.png', 'Im_BenAffleck.png', 'Im_DanielCraig.png', 'Im_JustinTimberlake.png', 'Im_DanielRadcliffe.png', 'Im_KeanuReeves.png', 'Im_OrlandoBloom.png', 'Im_LeonardoDiCaprio.png', 'Im_BradPitt.png'],diff,1,0.43342239999947196,23,0,
MAVI1806,train,neg,30,neg30_id10_im1.bmp_neg30_id10_im17.bmp,['Im_ElijahWood.png', 'Im_MattDamon.png', 'Im_BenAffleck.png', 'Im_DanielCraig.png', 'Im_JustinTimberlake.png', 'Im_DanielRadcliffe.png', 'Im_KeanuReeves.png', 'Im_OrlandoBloom.png', 'Im_LeonardoDiCaprio.png', 'Im_BradPitt.png'],diff,0,0.46675820000018575,23,0,
MAVI1806,train,neg,fs,negfs_id13_im15.bmp_negfs_id13_im29.bmp,['Im_ElijahWood.png', 'Im_MattDamon.png', 'Im_BenAffleck.png', 'Im_DanielCraig.png', 'Im_JustinTimberlake.png', 'Im_DanielRadcliffe.png', 'Im_KeanuReeves.png', 'Im_OrlandoBloom.png', 'Im_LeonardoDiCaprio.png', 'Im_BradPitt.png'],same,1,0.5667384000007587,24,0,
MAVI1806,train,inv,150,pos150_id11_im10.bmp_pos150_id11_im1.bmp,['Im_ElijahWood.png', 'Im_MattDamon.png', 'Im_BenAffleck.png', 'Im_DanielCraig.png', 'Im_JustinTimberlake.png', 'Im_DanielRadcliffe.png', 'Im_KeanuReeves.png', 'Im_OrlandoBloom.png', 'Im_LeonardoDiCaprio.png', 'Im_BradPitt.png'],diff,0,0.4583641000008356,24,0,
MAVI1806,train,inv,fs,posfs_id11_im10.bmp_posfs_id14_im16.bmp,['Im_ElijahWood.png', 'Im_MattDamon.png', 'Im_BenAffleck.png', 'Im_DanielCraig.png', 'Im_JustinTimberlake.png', 'Im_DanielRadcliffe.png', 'Im_KeanuReeves.png', 'Im_OrlandoBloom.png', 'Im_LeonardoDiCaprio.png', 'Im_BradPitt.png'],diff,1,0.79193419999865,25,0,
MAVI1806,train,inv,0,pos0_id16_im19.bmp_pos0_id16_im2.bmp,['Im_ElijahWood.png', 'Im_MattDamon.png', 'Im_BenAffleck.png', 'Im_DanielCraig.png', 'Im_JustinTimberlake.png', 'Im_DanielRadcliffe.png', 'Im_KeanuReeves.png', 'Im_OrlandoBloom.png', 'Im_LeonardoDiCaprio.png', 'Im_BradPitt.png'],same,1,1.0750814999992144,26,0,
MAVI1806,train,inv,60,pos60_id13_im15.bmp_pos60_id13_im29.bmp,['Im_ElijahWood.png', 'Im_MattDamon.png', 'Im_BenAffleck.png', 'Im_DanielCraig.png', 'Im_JustinTimberlake.png', 'Im_DanielRadcliffe.png', 'Im_KeanuReeves.png', 'Im_OrlandoBloom.png', 'Im_LeonardoDiCaprio.png', 'Im_BradPitt.png'],same,1,0.7919416000004276,27,0,
MAVI1806,train,inv,120,pos120_id16_im19.bmp_pos120_id4_im15.bmp,['Im_ElijahWood.png', 'Im_MattDamon.png', 'Im_BenAffleck.png', 'Im_DanielCraig.png', 'Im_JustinTimberlake.png', 'Im_DanielRadcliffe.png', 'Im_KeanuReeves.png', 'Im_OrlandoBloom.png', 'Im_LeonardoDiCaprio.png', 'Im_BradPitt.png'],diff,1,0.40831819999948493,28,0,
MAVI1806,train,inv,90,pos90_id14_im16.bmp_pos90_id11_im10.bmp,['Im_ElijahWood.png', 'Im_MattDamon.png', 'Im_BenAffleck.png', 'Im_DanielCraig.png', 'Im_JustinTimberlake.png', 'Im_DanielRadcliffe.png', 'Im_KeanuReeves.png', 'Im_OrlandoBloom.png', 'Im_LeonardoDiCaprio.png', 'Im_BradPitt.png'],diff,1,0.5920764999991661,29,0,
MAVI1806,train,inv,150,pos150_id13_im15.bmp_pos150_id13_im29.bmp,['Im_ElijahWood.png', 'Im_MattDamon.png', 'Im_BenAffleck.png', 'Im_DanielCraig.png', 'Im_JustinTimberlake.png', 'Im_DanielRadcliffe.png', 'Im_KeanuReeves.png', 'Im_OrlandoBloom.png', 'Im_LeonardoDiCaprio.png', 'Im_BradPitt.png'],diff,0,1.3583501000011893,29,0,
MAVI1806,train,inv,0,pos0_id10_im1.bmp_pos0_id10_im17.bmp,['Im_ElijahWood.png', 'Im_MattDamon.png', 'Im_BenAffleck.png', 'Im_DanielCraig.png', 'Im_JustinTimberlake.png', 'Im_DanielRadcliffe.png', 'Im_KeanuReeves.png', 'Im_OrlandoBloom.png', 'Im_LeonardoDiCaprio.png', 'Im_BradPitt.png'],same,1,0.4250400000000809,30,0,
MAVI1806,train,inv,fs,posfs_id1_im24.bmp_posfs_id1_im21.bmp,['Im_ElijahWood.png', 'Im_MattDamon.png', 'Im_BenAffleck.png', 'Im_DanielCraig.png', 'Im_JustinTimberlake.png', 'Im_DanielRadcliffe.png', 'Im_KeanuReeves.png', 'Im_OrlandoBloom.png', 'Im_LeonardoDiCaprio.png', 'Im_BradPitt.png'],same,1,0.4083553000000393,31,0,
MAVI1806,train,inv,30,pos30_id14_im18.bmp_pos30_id14_im24.bmp,['Im_ElijahWood.png', 'Im_MattDamon.png', 'Im_BenAffleck.png', 'Im_DanielCraig.png', 'Im_JustinTimberlake.png', 'Im_DanielRadcliffe.png', 'Im_KeanuReeves.png', 'Im_OrlandoBloom.png', 'Im_LeonardoDiCaprio.png', 'Im_BradPitt.png'],same,1,0.40848929999992833,32,0,
MAVI1806,train,inv,90,pos90_id3_im6.bmp_pos90_id3_im8.bmp,['Im_ElijahWood.png', 'Im_MattDamon.png', 'Im_BenAffleck.png', 'Im_DanielCraig.png', 'Im_JustinTimberlake.png', 'Im_DanielRadcliffe.png', 'Im_KeanuReeves.png', 'Im_OrlandoBloom.png', 'Im_LeonardoDiCaprio.png', 'Im_BradPitt.png'],same,1,0.40841749999890453,33,0,
MAVI1806,train,inv,60,pos60_id1_im21.bmp_pos60_id1_im4.bmp,['Im_ElijahWood.png', 'Im_MattDamon.png', 'Im_BenAffleck.png', 'Im_DanielCraig.png', 'Im_JustinTimberlake.png', 'Im_DanielRadcliffe.png', 'Im_KeanuReeves.png', 'Im_OrlandoBloom.png', 'Im_LeonardoDiCaprio.png', 'Im_BradPitt.png'],diff,0,0.40879949999907694,33,0,
MAVI1806,train,inv,120,pos120_id5_im1.bmp_pos120_id4_im15.bmp,['Im_ElijahWood.png', 'Im_MattDamon.png', 'Im_BenAffleck.png', 'Im_DanielCraig.png', 'Im_JustinTimberlake.png', 'Im_DanielRadcliffe.png', 'Im_KeanuReeves.png', 'Im_OrlandoBloom.png', 'Im_LeonardoDiCaprio.png', 'Im_BradPitt.png'],diff,1,0.566808100000344,34,0,
MAVI1806,train,inv,30,pos30_id13_im10.bmp_pos30_id13_im29.bmp,['Im_ElijahWood.png', 'Im_MattDamon.png', 'Im_BenAffleck.png', 'Im_DanielCraig.png', 'Im_JustinTimberlake.png', 'Im_DanielRadcliffe.png', 'Im_KeanuReeves.png', 'Im_OrlandoBloom.png', 'Im_LeonardoDiCaprio.png', 'Im_BradPitt.png'],same,1,1.233615799999825,35,0,
MAVI1806,train,inv,150,pos150_id4_im7.bmp_pos150_id4_im15.bmp,['Im_ElijahWood.png', 'Im_MattDamon.png', 'Im_BenAffleck.png', 'Im_DanielCraig.png', 'Im_JustinTimberlake.png', 'Im_DanielRadcliffe.png', 'Im_KeanuReeves.png', 'Im_OrlandoBloom.png', 'Im_LeonardoDiCaprio.png', 'Im_BradPitt.png'],same,1,0.42499119999956747,1,83.33333333333333,
MAVI1806,train,inv,0,pos0_id4_im15.bmp_pos0_id5_im1.bmp,['Im_ElijahWood.png', 'Im_MattDamon.png', 'Im_BenAffleck.png', 'Im_DanielCraig.png', 'Im_JustinTimberlake.png', 'Im_DanielRadcliffe.png', 'Im_KeanuReeves.png', 'Im_OrlandoBloom.png', 'Im_LeonardoDiCaprio.png', 'Im_BradPitt.png'],diff,1,0.4166970999995101,2,83.33333333333333,
MAVI1806,train,inv,150,pos150_id3_im6.bmp_pos150_id10_im17.bmp,['Im_ElijahWood.png', 'Im_MattDamon.png', 'Im_BenAffleck.png', 'Im_DanielCraig.png', 'Im_JustinTimberlake.png', 'Im_DanielRadcliffe.png', 'Im_KeanuReeves.png', 'Im_OrlandoBloom.png', 'Im_LeonardoDiCaprio.png', 'Im_BradPitt.png'],diff,1,0.833613000000696,3,83.33333333333333,
MAVI1806,train,inv,60,pos60_id4_im15.bmp_pos60_id4_im20.bmp,['Im_ElijahWood.png', 'Im_MattDamon.png', 'Im_BenAffleck.png', 'Im_DanielCraig.png', 'Im_JustinTimberlake.png', 'Im_DanielRadcliffe.png', 'Im_KeanuReeves.png', 'Im_OrlandoBloom.png', 'Im_LeonardoDiCaprio.png', 'Im_BradPitt.png'],same,1,0.4250601999992796,4,83.33333333333333,
MAVI1806,train,inv,90,pos90_id16_im2.bmp_pos90_id6_im19.bmp,['Im_ElijahWood.png', 'Im_MattDamon.png', 'Im_BenAffleck.png', 'Im_DanielCraig.png', 'Im_JustinTimberlake.png', 'Im_DanielRadcliffe.png', 'Im_KeanuReeves.png', 'Im_OrlandoBloom.png', 'Im_LeonardoDiCaprio.png', 'Im_BradPitt.png'],diff,1,0.4251502999995864,5,83.33333333333333,
MAVI1806,train,inv,fs,posfs_id1_im4.bmp_posfs_id10_im18.bmp,['Im_ElijahWood.png', 'Im_MattDamon.png', 'Im_BenAffleck.png', 'Im_DanielCraig.png', 'Im_JustinTimberlake.png', 'Im_DanielRadcliffe.png', 'Im_KeanuReeves.png', 'Im_OrlandoBloom.png', 'Im_LeonardoDiCaprio.png', 'Im_BradPitt.png'],diff,1,0.416817399998763,6,83.33333333333333,
MAVI1806,train,inv,120,pos120_id13_im10.bmp_pos120_id13_im15.bmp,['Im_ElijahWood.png', 'Im_MattDamon.png', 'Im_BenAffleck.png', 'Im_DanielCraig.png', 'Im_JustinTimberlake.png', 'Im_DanielRadcliffe.png', 'Im_KeanuReeves.png', 'Im_OrlandoBloom.png', 'Im_LeonardoDiCaprio.png', 'Im_BradPitt.png'],same,1,0.4166936999990867,7,83.33333333333333,
MAVI1806,train,inv,120,pos120_id4_im7.bmp_pos120_id14_im18.bmp,['Im_ElijahWood.png', 'Im_MattDamon.png', 'Im_BenAffleck.png', 'Im_DanielCraig.png', 'Im_JustinTimberlake.png', 'Im_DanielRadcliffe.png', 'Im_KeanuReeves.png', 'Im_OrlandoBloom.png', 'Im_LeonardoDiCaprio.png', 'Im_BradPitt.png'],diff,1,0.7418871999998373,8,83.33333333333333,
MAVI1806,train,inv,fs,posfs_id13_im15.bmp_posfs_id13_im29.bmp,['Im_ElijahWood.png', 'Im_MattDamon.png', 'Im_BenAffleck.png', 'Im_DanielCraig.png', 'Im_JustinTimberlake.png', 'Im_DanielRadcliffe.png', 'Im_KeanuReeves.png', 'Im_OrlandoBloom.png', 'Im_LeonardoDiCaprio.png', 'Im_BradPitt.png'],same,1,0.4250587999995332,9,83.33333333333333,
MAVI1806,train,inv,30,pos30_id5_im1.bmp_pos30_id5_im20.bmp,['Im_ElijahWood.png', 'Im_MattDamon.png', 'Im_BenAffleck.png', 'Im_DanielCraig.png', 'Im_JustinTimberlake.png', 'Im_DanielRadcliffe.png', 'Im_KeanuReeves.png', 'Im_OrlandoBloom.png', 'Im_LeonardoDiCaprio.png', 'Im_BradPitt.png'],diff,0,0.4083349999982602,9,83.33333333333333,
MAVI1806,train,inv,60,pos60_id10_im1.bmp_pos60_id10_im18.bmp,['Im_ElijahWood.png', 'Im_MattDamon.png', 'Im_BenAffleck.png', 'Im_DanielCraig.png', 'Im_JustinTimberlake.png', 'Im_DanielRadcliffe.png', 'Im_KeanuReeves.png', 'Im_OrlandoBloom.png', 'Im_LeonardoDiCaprio.png', 'Im_BradPitt.png'],same,1,1.241687899999306,10,83.33333333333333,
MAVI1806,train,inv,0,pos0_id14_im18.bmp_pos0_id14_im24.bmp,['Im_ElijahWood.png', 'Im_MattDamon.png', 'Im_BenAffleck.png', 'Im_DanielCraig.png', 'Im_JustinTimberlake.png', 'Im_DanielRadcliffe.png', 'Im_KeanuReeves.png', 'Im_OrlandoBloom.png', 'Im_LeonardoDiCaprio.png', 'Im_BradPitt.png'],same,1,0.5416086000004725,11,83.33333333333333,
MAVI1806,train,inv,90,pos90_id11_im2.bmp_pos90_id11_im1.bmp,['Im_ElijahWood.png', 'Im_MattDamon.png', 'Im_BenAffleck.png', 'Im_DanielCraig.png', 'Im_JustinTimberlake.png', 'Im_DanielRadcliffe.png', 'Im_KeanuReeves.png', 'Im_OrlandoBloom.png', 'Im_LeonardoDiCaprio.png', 'Im_BradPitt.png'],same,1,0.558669899999586,12,83.33333333333333,
MAVI1806,train,inv,30,pos30_id1_im4.bmp_pos30_id1_im24.bmp,['Im_ElijahWood.png', 'Im_MattDamon.png', 'Im_BenAffleck.png', 'Im_DanielCraig.png', 'Im_JustinTimberlake.png', 'Im_DanielRadcliffe.png', 'Im_KeanuReeves.png', 'Im_OrlandoBloom.png', 'Im_LeonardoDiCaprio.png', 'Im_BradPitt.png'],same,1,0.4583521999993536,13,83.33333333333333,
MAVI1806,train,pos,fs,posfs_id13_im10.bmp_posfs_id1_im21.bmp,['Im_ElijahWood.png', 'Im_MattDamon.png', 'Im_BenAffleck.png', 'Im_DanielCraig.png', 'Im_JustinTimberlake.png', 'Im_DanielRadcliffe.png', 'Im_KeanuReeves.png', 'Im_OrlandoBloom.png', 'Im_LeonardoDiCaprio.png', 'Im_BradPitt.png'],diff,1,0.43330579999928887,14,83.33333333333333,
MAVI1806,train,pos,90,pos90_id10_im1.bmp_pos90_id10_im18.bmp,['Im_ElijahWood.png', 'Im_MattDamon.png', 'Im_BenAffleck.png', 'Im_DanielCraig.png', 'Im_JustinTimberlake.png', 'Im_DanielRadcliffe.png', 'Im_KeanuReeves.png', 'Im_OrlandoBloom.png', 'Im_LeonardoDiCaprio.png', 'Im_BradPitt.png'],same,1,0.491668300001038,15,83.33333333333333,
MAVI1806,train,pos,150,pos150_id1_im4.bmp_pos150_id4_im20.bmp,['Im_ElijahWood.png', 'Im_MattDamon.png', 'Im_BenAffleck.png', 'Im_DanielCraig.png', 'Im_JustinTimberlake.png', 'Im_DanielRadcliffe.png', 'Im_KeanuReeves.png', 'Im_OrlandoBloom.png', 'Im_LeonardoDiCaprio.png', 'Im_BradPitt.png'],diff,1,0.4250061000002461,16,83.33333333333333,
MAVI1806,train,pos,150,pos150_id3_im8.bmp_pos150_id3_im6.bmp,['Im_ElijahWood.png', 'Im_MattDamon.png', 'Im_BenAffleck.png', 'Im_DanielCraig.png', 'Im_JustinTimberlake.png', 'Im_DanielRadcliffe.png', 'Im_KeanuReeves.png', 'Im_OrlandoBloom.png', 'Im_LeonardoDiCaprio.png', 'Im_BradPitt.png'],same,1,0.4585967000002711,17,83.33333333333333,
MAVI1806,train,pos,60,pos60_id13_im10.bmp_pos60_id1_im21.bmp,['Im_ElijahWood.png', 'Im_MattDamon.png', 'Im_BenAffleck.png', 'Im_DanielCraig.png', 'Im_JustinTimberlake.png', 'Im_DanielRadcliffe.png', 'Im_KeanuReeves.png', 'Im_OrlandoBloom.png', 'Im_LeonardoDiCaprio.png', 'Im_BradPitt.png'],diff,1,0.41676209999968705,18,83.33333333333333,
MAVI1806,train,pos,30,pos30_id10_im17.bmp_pos30_id14_im18.bmp,['Im_ElijahWood.png', 'Im_MattDamon.png', 'Im_BenAffleck.png', 'Im_DanielCraig.png', 'Im_JustinTimberlake.png', 'Im_DanielRadcliffe.png', 'Im_KeanuReeves.png', 'Im_OrlandoBloom.png', 'Im_LeonardoDiCaprio.png', 'Im_BradPitt.png'],same,0,0.49187050000000454,18,83.33333333333333,
MAVI1806,train,pos,120,pos120_id6_im19.bmp_pos120_id6_im12.bmp,['Im_ElijahWood.png', 'Im_MattDamon.png', 'Im_BenAffleck.png', 'Im_DanielCraig.png', 'Im_JustinTimberlake.png', 'Im_DanielRadcliffe.png', 'Im_KeanuReeves.png', 'Im_OrlandoBloom.png', 'Im_LeonardoDiCaprio.png', 'Im_BradPitt.png'],diff,0,0.8836945999992167,18,83.33333333333333,
MAVI1806,train,pos,0,pos0_id4_im20.bmp_pos0_id4_im7.bmp,['Im_ElijahWood.png', 'Im_MattDamon.png', 'Im_BenAffleck.png', 'Im_DanielCraig.png', 'Im_JustinTimberlake.png', 'Im_DanielRadcliffe.png', 'Im_KeanuReeves.png', 'Im_OrlandoBloom.png', 'Im_LeonardoDiCaprio.png', 'Im_BradPitt.png'],same,1,0.4167736999988847,19,83.33333333333333,
MAVI1806,train,pos,0,pos0_id4_im20.bmp_pos0_id6_im12.bmp,['Im_ElijahWood.png', 'Im_MattDamon.png', 'Im_BenAffleck.png', 'Im_DanielCraig.png', 'Im_JustinTimberlake.png', 'Im_DanielRadcliffe.png', 'Im_KeanuReeves.png', 'Im_OrlandoBloom.png', 'Im_LeonardoDiCaprio.png', 'Im_BradPitt.png'],diff,1,0.4417631000014808,20,83.33333333333333,
MAVI1806,train,pos,fs,posfs_id14_im24.bmp_posfs_id14_im18.bmp,['Im_ElijahWood.png', 'Im_MattDamon.png', 'Im_BenAffleck.png', 'Im_DanielCraig.png', 'Im_JustinTimberlake.png', 'Im_DanielRadcliffe.png', 'Im_KeanuReeves.png', 'Im_OrlandoBloom.png', 'Im_LeonardoDiCaprio.png', 'Im_BradPitt.png'],same,1,0.5914750000010827,21,83.33333333333333,
MAVI1806,train,pos,60,pos60_id16_im19.bmp_pos60_id16_im3.bmp,['Im_ElijahWood.png', 'Im_MattDamon.png', 'Im_BenAffleck.png', 'Im_DanielCraig.png', 'Im_JustinTimberlake.png', 'Im_DanielRadcliffe.png', 'Im_KeanuReeves.png', 'Im_OrlandoBloom.png', 'Im_LeonardoDiCaprio.png', 'Im_BradPitt.png'],same,1,0.5920114999989892,22,83.33333333333333,
MAVI1806,train,pos,90,pos90_id6_im12.bmp_pos90_id4_im20.bmp,['Im_ElijahWood.png', 'Im_MattDamon.png', 'Im_BenAffleck.png', 'Im_DanielCraig.png', 'Im_JustinTimberlake.png', 'Im_DanielRadcliffe.png', 'Im_KeanuReeves.png', 'Im_OrlandoBloom.png', 'Im_LeonardoDiCaprio.png', 'Im_BradPitt.png'],diff,1,0.4167810999988433,23,83.33333333333333,
MAVI1806,train,pos,120,pos120_id6_im12.bmp_pos120_id4_im20.bmp,['Im_ElijahWood.png', 'Im_MattDamon.png', 'Im_BenAffleck.png', 'Im_DanielCraig.png', 'Im_JustinTimberlake.png', 'Im_DanielRadcliffe.png', 'Im_KeanuReeves.png', 'Im_OrlandoBloom.png', 'Im_LeonardoDiCaprio.png', 'Im_BradPitt.png'],diff,1,0.6421058999985689,24,83.33333333333333,
MAVI1806,train,pos,30,pos30_id6_im18.bmp_pos30_id6_im19.bmp,['Im_ElijahWood.png', 'Im_MattDamon.png', 'Im_BenAffleck.png', 'Im_DanielCraig.png', 'Im_JustinTimberlake.png', 'Im_DanielRadcliffe.png', 'Im_KeanuReeves.png', 'Im_OrlandoBloom.png', 'Im_LeonardoDiCaprio.png', 'Im_BradPitt.png'],same,1,0.45866170000044804,25,83.33333333333333,
MAVI1806,train,neg,fs,negfs_id16_im2.bmp_negfs_id6_im19.bmp,['Im_ElijahWood.png', 'Im_MattDamon.png', 'Im_BenAffleck.png', 'Im_DanielCraig.png', 'Im_JustinTimberlake.png', 'Im_DanielRadcliffe.png', 'Im_KeanuReeves.png', 'Im_OrlandoBloom.png', 'Im_LeonardoDiCaprio.png', 'Im_BradPitt.png'],diff,1,1.291722399999344,26,83.33333333333333,
MAVI1806,train,neg,60,neg60_id1_im4.bmp_neg60_id4_im20.bmp,['Im_ElijahWood.png', 'Im_MattDamon.png', 'Im_BenAffleck.png', 'Im_DanielCraig.png', 'Im_JustinTimberlake.png', 'Im_DanielRadcliffe.png', 'Im_KeanuReeves.png', 'Im_OrlandoBloom.png', 'Im_LeonardoDiCaprio.png', 'Im_BradPitt.png'],diff,1,0.40842890000021725,27,83.33333333333333,
MAVI1806,train,neg,0,neg0_id1_im21.bmp_neg0_id1_im24.bmp,['Im_ElijahWood.png', 'Im_MattDamon.png', 'Im_BenAffleck.png', 'Im_DanielCraig.png', 'Im_JustinTimberlake.png', 'Im_DanielRadcliffe.png', 'Im_KeanuReeves.png', 'Im_OrlandoBloom.png', 'Im_LeonardoDiCaprio.png', 'Im_BradPitt.png'],same,1,0.4083192999987659,28,83.33333333333333,
MAVI1806,train,neg,90,neg90_id13_im15.bmp_neg90_id13_im29.bmp,['Im_ElijahWood.png', 'Im_MattDamon.png', 'Im_BenAffleck.png', 'Im_DanielCraig.png', 'Im_JustinTimberlake.png', 'Im_DanielRadcliffe.png', 'Im_KeanuReeves.png', 'Im_OrlandoBloom.png', 'Im_LeonardoDiCaprio.png', 'Im_BradPitt.png'],same,1,0.4084212999987358,29,83.33333333333333,
MAVI1806,train,neg,120,neg120_id16_im19.bmp_neg120_id11_im10.bmp,['Im_ElijahWood.png', 'Im_MattDamon.png', 'Im_BenAffleck.png', 'Im_DanielCraig.png', 'Im_JustinTimberlake.png', 'Im_DanielRadcliffe.png', 'Im_KeanuReeves.png', 'Im_OrlandoBloom.png', 'Im_LeonardoDiCaprio.png', 'Im_BradPitt.png'],diff,1,0.558569399998305,30,83.33333333333333,
MAVI1806,train,neg,150,neg150_id4_im7.bmp_neg150_id4_im20.bmp,['Im_ElijahWood.png', 'Im_MattDamon.png', 'Im_BenAffleck.png', 'Im_DanielCraig.png', 'Im_JustinTimberlake.png', 'Im_DanielRadcliffe.png', 'Im_KeanuReeves.png', 'Im_OrlandoBloom.png', 'Im_LeonardoDiCaprio.png', 'Im_BradPitt.png'],same,1,0.42513599999983853,31,83.33333333333333,
MAVI1806,train,neg,0,neg0_id4_im7.bmp_neg0_id14_im18.bmp,['Im_ElijahWood.png', 'Im_MattDamon.png', 'Im_BenAffleck.png', 'Im_DanielCraig.png', 'Im_JustinTimberlake.png', 'Im_DanielRadcliffe.png', 'Im_KeanuReeves.png', 'Im_OrlandoBloom.png', 'Im_LeonardoDiCaprio.png', 'Im_BradPitt.png'],same,0,0.4246796000006725,31,83.33333333333333,
MAVI1806,train,neg,30,neg30_id13_im10.bmp_neg30_id5_im20.bmp,['Im_ElijahWood.png', 'Im_MattDamon.png', 'Im_BenAffleck.png', 'Im_DanielCraig.png', 'Im_JustinTimberlake.png', 'Im_DanielRadcliffe.png', 'Im_KeanuReeves.png', 'Im_OrlandoBloom.png', 'Im_LeonardoDiCaprio.png', 'Im_BradPitt.png'],same,0,0.6002628999995068,31,83.33333333333333,
MAVI1806,train,neg,120,neg120_id6_im19.bmp_neg120_id6_im12.bmp,['Im_ElijahWood.png', 'Im_MattDamon.png', 'Im_BenAffleck.png', 'Im_DanielCraig.png', 'Im_JustinTimberlake.png', 'Im_DanielRadcliffe.png', 'Im_KeanuReeves.png', 'Im_OrlandoBloom.png', 'Im_LeonardoDiCaprio.png', 'Im_BradPitt.png'],same,1,0.4333898999993835,32,83.33333333333333,
MAVI1806,train,neg,fs,negfs_id11_im2.bmp_negfs_id11_im10.bmp,['Im_ElijahWood.png', 'Im_MattDamon.png', 'Im_BenAffleck.png', 'Im_DanielCraig.png', 'Im_JustinTimberlake.png', 'Im_DanielRadcliffe.png', 'Im_KeanuReeves.png', 'Im_OrlandoBloom.png', 'Im_LeonardoDiCaprio.png', 'Im_BradPitt.png'],same,1,0.6163701000004949,33,83.33333333333333,
MAVI1806,train,neg,60,neg60_id13_im29.bmp_neg60_id13_im10.bmp,['Im_ElijahWood.png', 'Im_MattDamon.png', 'Im_BenAffleck.png', 'Im_DanielCraig.png', 'Im_JustinTimberlake.png', 'Im_DanielRadcliffe.png', 'Im_KeanuReeves.png', 'Im_OrlandoBloom.png', 'Im_LeonardoDiCaprio.png', 'Im_BradPitt.png'],same,1,0.9334053000002314,34,83.33333333333333,
MAVI1806,train,neg,30,neg30_id1_im4.bmp_neg30_id1_im21.bmp,['Im_ElijahWood.png', 'Im_MattDamon.png', 'Im_BenAffleck.png', 'Im_DanielCraig.png', 'Im_JustinTimberlake.png', 'Im_DanielRadcliffe.png', 'Im_KeanuReeves.png', 'Im_OrlandoBloom.png', 'Im_LeonardoDiCaprio.png', 'Im_BradPitt.png'],same,1,0.6419072999997297,35,83.33333333333333,
MAVI1806,train,neg,150,neg150_id16_im2.bmp_neg150_id6_im19.bmp,['Im_ElijahWood.png', 'Im_MattDamon.png', 'Im_BenAffleck.png', 'Im_DanielCraig.png', 'Im_JustinTimberlake.png', 'Im_DanielRadcliffe.png', 'Im_KeanuReeves.png', 'Im_OrlandoBloom.png', 'Im_LeonardoDiCaprio.png', 'Im_BradPitt.png'],diff,1,0.4168797000002087,36,83.33333333333333,
MAVI1806,train,neg,90,neg90_id11_im2.bmp_neg90_id3_im17.bmp,['Im_ElijahWood.png', 'Im_MattDamon.png', 'Im_BenAffleck.png', 'Im_DanielCraig.png', 'Im_JustinTimberlake.png', 'Im_DanielRadcliffe.png', 'Im_KeanuReeves.png', 'Im_OrlandoBloom.png', 'Im_LeonardoDiCaprio.png', 'Im_BradPitt.png'],same,0,0.44181120000030205,36,83.33333333333333,
MAVI1806,0,inv,30,pos30_id4_im7.bmp_pos30_id4_im20.bmp,['Im_ElijahWood.png', 'Im_MattDamon.png', 'Im_BenAffleck.png', 'Im_DanielCraig.png', 'Im_JustinTimberlake.png', 'Im_DanielRadcliffe.png', 'Im_KeanuReeves.png', 'Im_OrlandoBloom.png', 'Im_LeonardoDiCaprio.png', 'Im_BradPitt.png'],same,1,0.4750932999995712,1,0,
MAVI1806,0,inv,30,pos30_id10_im17.bmp_pos30_id14_im18.bmp,['Im_ElijahWood.png', 'Im_MattDamon.png', 'Im_BenAffleck.png', 'Im_DanielCraig.png', 'Im_JustinTimberlake.png', 'Im_DanielRadcliffe.png', 'Im_KeanuReeves.png', 'Im_OrlandoBloom.png', 'Im_LeonardoDiCaprio.png', 'Im_BradPitt.png'],same,0,0.42446299999937764,1,0,
MAVI1806,0,inv,0,pos0_id14_im16.bmp_pos0_id11_im10.bmp,['Im_ElijahWood.png', 'Im_MattDamon.png', 'Im_BenAffleck.png', 'Im_DanielCraig.png', 'Im_JustinTimberlake.png', 'Im_DanielRadcliffe.png', 'Im_KeanuReeves.png', 'Im_OrlandoBloom.png', 'Im_LeonardoDiCaprio.png', 'Im_BradPitt.png'],same,0,0.425145800001701,1,0,
MAVI1806,0,inv,90,pos90_id5_im1.bmp_pos90_id5_im20.bmp,['Im_ElijahWood.png', 'Im_MattDamon.png', 'Im_BenAffleck.png', 'Im_DanielCraig.png', 'Im_JustinTimberlake.png', 'Im_DanielRadcliffe.png', 'Im_KeanuReeves.png', 'Im_OrlandoBloom.png', 'Im_LeonardoDiCaprio.png', 'Im_BradPitt.png'],same,1,0.5419316999996227,2,0,
MAVI1806,0,inv,fs,posfs_id6_im18.bmp_posfs_id16_im2.bmp,['Im_ElijahWood.png', 'Im_MattDamon.png', 'Im_BenAffleck.png', 'Im_DanielCraig.png', 'Im_JustinTimberlake.png', 'Im_DanielRadcliffe.png', 'Im_KeanuReeves.png', 'Im_OrlandoBloom.png', 'Im_LeonardoDiCaprio.png', 'Im_BradPitt.png'],diff,1,1.9586892000006628,3,0,
MAVI1806,0,inv,60,pos60_id13_im15.bmp_pos60_id5_im10.bmp,['Im_ElijahWood.png', 'Im_MattDamon.png', 'Im_BenAffleck.png', 'Im_DanielCraig.png', 'Im_JustinTimberlake.png', 'Im_DanielRadcliffe.png', 'Im_KeanuReeves.png', 'Im_OrlandoBloom.png', 'Im_LeonardoDiCaprio.png', 'Im_BradPitt.png'],diff,1,0.416804399999819,4,0,
MAVI1806,0,inv,120,pos120_id5_im20.bmp_pos120_id5_im10.bmp,['Im_ElijahWood.png', 'Im_MattDamon.png', 'Im_BenAffleck.png', 'Im_DanielCraig.png', 'Im_JustinTimberlake.png', 'Im_DanielRadcliffe.png', 'Im_KeanuReeves.png', 'Im_OrlandoBloom.png', 'Im_LeonardoDiCaprio.png', 'Im_BradPitt.png'],same,1,0.41681709999829764,5,0,
MAVI1806,0,inv,60,pos60_id1_im24.bmp_pos60_id5_im20.bmp,['Im_ElijahWood.png', 'Im_MattDamon.png', 'Im_BenAffleck.png', 'Im_DanielCraig.png', 'Im_JustinTimberlake.png', 'Im_DanielRadcliffe.png', 'Im_KeanuReeves.png', 'Im_OrlandoBloom.png', 'Im_LeonardoDiCaprio.png', 'Im_BradPitt.png'],same,0,0.5084795000002487,5,0,
MAVI1806,0,inv,150,pos150_id14_im24.bmp_pos150_id14_im18.bmp,['Im_ElijahWood.png', 'Im_MattDamon.png', 'Im_BenAffleck.png', 'Im_DanielCraig.png', 'Im_JustinTimberlake.png', 'Im_DanielRadcliffe.png', 'Im_KeanuReeves.png', 'Im_OrlandoBloom.png', 'Im_LeonardoDiCaprio.png', 'Im_BradPitt.png'],same,1,0.4919644999990851,6,0,
MAVI1806,0,inv,150,pos150_id4_im7.bmp_pos150_id14_im18.bmp,['Im_ElijahWood.png', 'Im_MattDamon.png', 'Im_BenAffleck.png', 'Im_DanielCraig.png', 'Im_JustinTimberlake.png', 'Im_DanielRadcliffe.png', 'Im_KeanuReeves.png', 'Im_OrlandoBloom.png', 'Im_LeonardoDiCaprio.png', 'Im_BradPitt.png'],same,0,0.49162059999980556,6,0,
MAVI1806,0,inv,120,pos120_id5_im10.bmp_pos120_id1_im24.bmp,['Im_ElijahWood.png', 'Im_MattDamon.png', 'Im_BenAffleck.png', 'Im_DanielCraig.png', 'Im_JustinTimberlake.png', 'Im_DanielRadcliffe.png', 'Im_KeanuReeves.png', 'Im_OrlandoBloom.png', 'Im_LeonardoDiCaprio.png', 'Im_BradPitt.png'],diff,1,0.4583674000004976,7,0,
MAVI1806,0,inv,90,pos90_id16_im3.bmp_pos90_id16_im19.bmp,['Im_ElijahWood.png', 'Im_MattDamon.png', 'Im_BenAffleck.png', 'Im_DanielCraig.png', 'Im_JustinTimberlake.png', 'Im_DanielRadcliffe.png', 'Im_KeanuReeves.png', 'Im_OrlandoBloom.png', 'Im_LeonardoDiCaprio.png', 'Im_BradPitt.png'],diff,0,0.5335405999994691,7,0,
MAVI1806,0,inv,fs,posfs_id10_im1.bmp_posfs_id5_im1.bmp,['Im_ElijahWood.png', 'Im_MattDamon.png', 'Im_BenAffleck.png', 'Im_DanielCraig.png', 'Im_JustinTimberlake.png', 'Im_DanielRadcliffe.png', 'Im_KeanuReeves.png', 'Im_OrlandoBloom.png', 'Im_LeonardoDiCaprio.png', 'Im_BradPitt.png'],diff,1,0.41685940000024857,8,0,
MAVI1806,0,inv,0,pos0_id3_im17.bmp_pos0_id11_im2.bmp,['Im_ElijahWood.png', 'Im_MattDamon.png', 'Im_BenAffleck.png', 'Im_DanielCraig.png', 'Im_JustinTimberlake.png', 'Im_DanielRadcliffe.png', 'Im_KeanuReeves.png', 'Im_OrlandoBloom.png', 'Im_LeonardoDiCaprio.png', 'Im_BradPitt.png'],diff,1,0.43343600000116567,9,0,
MAVI1806,1,neg,30,neg30_id11_im10.bmp_neg30_id11_im1.bmp,['Im_ElijahWood.png', 'Im_MattDamon.png', 'Im_BenAffleck.png', 'Im_DanielCraig.png', 'Im_JustinTimberlake.png', 'Im_DanielRadcliffe.png', 'Im_KeanuReeves.png', 'Im_OrlandoBloom.png', 'Im_LeonardoDiCaprio.png', 'Im_BradPitt.png'],same,1,0.6584650000004331,10,0,
MAVI1806,1,neg,0,neg0_id6_im19.bmp_neg0_id16_im2.bmp,['Im_ElijahWood.png', 'Im_MattDamon.png', 'Im_BenAffleck.png', 'Im_DanielCraig.png', 'Im_JustinTimberlake.png', 'Im_DanielRadcliffe.png', 'Im_KeanuReeves.png', 'Im_OrlandoBloom.png', 'Im_LeonardoDiCaprio.png', 'Im_BradPitt.png'],diff,1,0.5918975000004139,11,0,
MAVI1806,1,neg,90,neg90_id6_im12.bmp_neg90_id6_im18.bmp,['Im_ElijahWood.png', 'Im_MattDamon.png', 'Im_BenAffleck.png', 'Im_DanielCraig.png', 'Im_JustinTimberlake.png', 'Im_DanielRadcliffe.png', 'Im_KeanuReeves.png', 'Im_OrlandoBloom.png', 'Im_LeonardoDiCaprio.png', 'Im_BradPitt.png'],same,1,0.5338851000014984,12,0,
MAVI1806,1,neg,60,neg60_id1_im21.bmp_neg60_id1_im4.bmp,['Im_ElijahWood.png', 'Im_MattDamon.png', 'Im_BenAffleck.png', 'Im_DanielCraig.png', 'Im_JustinTimberlake.png', 'Im_DanielRadcliffe.png', 'Im_KeanuReeves.png', 'Im_OrlandoBloom.png', 'Im_LeonardoDiCaprio.png', 'Im_BradPitt.png'],same,1,0.41674280000006547,13,0,
MAVI1806,1,neg,150,neg150_id3_im8.bmp_neg150_id14_im16.bmp,['Im_ElijahWood.png', 'Im_MattDamon.png', 'Im_BenAffleck.png', 'Im_DanielCraig.png', 'Im_JustinTimberlake.png', 'Im_DanielRadcliffe.png', 'Im_KeanuReeves.png', 'Im_OrlandoBloom.png', 'Im_LeonardoDiCaprio.png', 'Im_BradPitt.png'],diff,1,0.4167230999992171,14,0,
MAVI1806,1,neg,150,neg150_id10_im18.bmp_neg150_id10_im17.bmp,['Im_ElijahWood.png', 'Im_MattDamon.png', 'Im_BenAffleck.png', 'Im_DanielCraig.png', 'Im_JustinTimberlake.png', 'Im_DanielRadcliffe.png', 'Im_KeanuReeves.png', 'Im_OrlandoBloom.png', 'Im_LeonardoDiCaprio.png', 'Im_BradPitt.png'],same,1,0.47526659999857657,15,0,
MAVI1806,1,neg,120,neg120_id11_im1.bmp_neg120_id11_im10.bmp,['Im_ElijahWood.png', 'Im_MattDamon.png', 'Im_BenAffleck.png', 'Im_DanielCraig.png', 'Im_JustinTimberlake.png', 'Im_DanielRadcliffe.png', 'Im_KeanuReeves.png', 'Im_OrlandoBloom.png', 'Im_LeonardoDiCaprio.png', 'Im_BradPitt.png'],diff,0,0.574927800000296,15,0,
MAVI1806,1,neg,120,neg120_id11_im10.bmp_neg120_id14_im16.bmp,['Im_ElijahWood.png', 'Im_MattDamon.png', 'Im_BenAffleck.png', 'Im_DanielCraig.png', 'Im_JustinTimberlake.png', 'Im_DanielRadcliffe.png', 'Im_KeanuReeves.png', 'Im_OrlandoBloom.png', 'Im_LeonardoDiCaprio.png', 'Im_BradPitt.png'],same,0,0.8167766999995365,15,0,
MAVI1806,1,neg,30,neg30_id11_im2.bmp_neg30_id11_im10.bmp,['Im_ElijahWood.png', 'Im_MattDamon.png', 'Im_BenAffleck.png', 'Im_DanielCraig.png', 'Im_JustinTimberlake.png', 'Im_DanielRadcliffe.png', 'Im_KeanuReeves.png', 'Im_OrlandoBloom.png', 'Im_LeonardoDiCaprio.png', 'Im_BradPitt.png'],same,1,0.4250195000004169,16,0,
MAVI1806,1,neg,0,neg0_id13_im15.bmp_neg0_id5_im10.bmp,['Im_ElijahWood.png', 'Im_MattDamon.png', 'Im_BenAffleck.png', 'Im_DanielCraig.png', 'Im_JustinTimberlake.png', 'Im_DanielRadcliffe.png', 'Im_KeanuReeves.png', 'Im_OrlandoBloom.png', 'Im_LeonardoDiCaprio.png', 'Im_BradPitt.png'],diff,1,0.9927138999992167,17,0,
MAVI1806,1,neg,60,neg60_id4_im7.bmp_neg60_id4_im15.bmp,['Im_ElijahWood.png', 'Im_MattDamon.png', 'Im_BenAffleck.png', 'Im_DanielCraig.png', 'Im_JustinTimberlake.png', 'Im_DanielRadcliffe.png', 'Im_KeanuReeves.png', 'Im_OrlandoBloom.png', 'Im_LeonardoDiCaprio.png', 'Im_BradPitt.png'],same,1,0.42500660000041535,18,0,
MAVI1806,1,neg,90,neg90_id10_im1.bmp_neg90_id5_im1.bmp,['Im_ElijahWood.png', 'Im_MattDamon.png', 'Im_BenAffleck.png', 'Im_DanielCraig.png', 'Im_JustinTimberlake.png', 'Im_DanielRadcliffe.png', 'Im_KeanuReeves.png', 'Im_OrlandoBloom.png', 'Im_LeonardoDiCaprio.png', 'Im_BradPitt.png'],diff,1,0.6166970000012952,19,0,
MAVI1806,1,neg,fs,negfs_id11_im1.bmp_negfs_id11_im2.bmp,['Im_ElijahWood.png', 'Im_MattDamon.png', 'Im_BenAffleck.png', 'Im_DanielCraig.png', 'Im_JustinTimberlake.png', 'Im_DanielRadcliffe.png', 'Im_KeanuReeves.png', 'Im_OrlandoBloom.png', 'Im_LeonardoDiCaprio.png', 'Im_BradPitt.png'],diff,0,0.4167397000001074,19,0,
MAVI1806,1,neg,fs,negfs_id5_im1.bmp_negfs_id5_im20.bmp,['Im_ElijahWood.png', 'Im_MattDamon.png', 'Im_BenAffleck.png', 'Im_DanielCraig.png', 'Im_JustinTimberlake.png', 'Im_DanielRadcliffe.png', 'Im_KeanuReeves.png', 'Im_OrlandoBloom.png', 'Im_LeonardoDiCaprio.png', 'Im_BradPitt.png'],same,1,1.7665870000000723,20,0,
MAVI1806,2,pos,0,pos0_id6_im12.bmp_pos0_id6_im19.bmp,['Im_ElijahWood.png', 'Im_MattDamon.png', 'Im_BenAffleck.png', 'Im_DanielCraig.png', 'Im_JustinTimberlake.png', 'Im_DanielRadcliffe.png', 'Im_KeanuReeves.png', 'Im_OrlandoBloom.png', 'Im_LeonardoDiCaprio.png', 'Im_BradPitt.png'],same,1,0.4167385999990074,21,0,
MAVI1806,2,pos,60,pos60_id5_im1.bmp_pos60_id4_im15.bmp,['Im_ElijahWood.png', 'Im_MattDamon.png', 'Im_BenAffleck.png', 'Im_DanielCraig.png', 'Im_JustinTimberlake.png', 'Im_DanielRadcliffe.png', 'Im_KeanuReeves.png', 'Im_OrlandoBloom.png', 'Im_LeonardoDiCaprio.png', 'Im_BradPitt.png'],diff,1,0.41681419999986247,22,0,
MAVI1806,2,pos,120,pos120_id14_im18.bmp_pos120_id10_im17.bmp,['Im_ElijahWood.png', 'Im_MattDamon.png', 'Im_BenAffleck.png', 'Im_DanielCraig.png', 'Im_JustinTimberlake.png', 'Im_DanielRadcliffe.png', 'Im_KeanuReeves.png', 'Im_OrlandoBloom.png', 'Im_LeonardoDiCaprio.png', 'Im_BradPitt.png'],diff,1,0.4250415000005887,23,0,
MAVI1806,2,pos,90,pos90_id14_im24.bmp_pos90_id14_im18.bmp,['Im_ElijahWood.png', 'Im_MattDamon.png', 'Im_BenAffleck.png', 'Im_DanielCraig.png', 'Im_JustinTimberlake.png', 'Im_DanielRadcliffe.png', 'Im_KeanuReeves.png', 'Im_OrlandoBloom.png', 'Im_LeonardoDiCaprio.png', 'Im_BradPitt.png'],same,1,0.42497780000121566,24,0,
MAVI1806,2,pos,30,pos30_id13_im15.bmp_pos30_id5_im10.bmp,['Im_ElijahWood.png', 'Im_MattDamon.png', 'Im_BenAffleck.png', 'Im_DanielCraig.png', 'Im_JustinTimberlake.png', 'Im_DanielRadcliffe.png', 'Im_KeanuReeves.png', 'Im_OrlandoBloom.png', 'Im_LeonardoDiCaprio.png', 'Im_BradPitt.png'],diff,1,0.40838930000063556,25,0,
MAVI1806,2,pos,fs,posfs_id14_im18.bmp_posfs_id14_im16.bmp,['Im_ElijahWood.png', 'Im_MattDamon.png', 'Im_BenAffleck.png', 'Im_DanielCraig.png', 'Im_JustinTimberlake.png', 'Im_DanielRadcliffe.png', 'Im_KeanuReeves.png', 'Im_OrlandoBloom.png', 'Im_LeonardoDiCaprio.png', 'Im_BradPitt.png'],same,1,0.8000449000010121,26,0,
MAVI1806,2,pos,fs,posfs_id13_im29.bmp_posfs_id13_im10.bmp,['Im_ElijahWood.png', 'Im_MattDamon.png', 'Im_BenAffleck.png', 'Im_DanielCraig.png', 'Im_JustinTimberlake.png', 'Im_DanielRadcliffe.png', 'Im_KeanuReeves.png', 'Im_OrlandoBloom.png', 'Im_LeonardoDiCaprio.png', 'Im_BradPitt.png'],same,1,0.41677010000057635,27,0,
MAVI1806,2,pos,90,pos90_id11_im2.bmp_pos90_id10_im18.bmp,['Im_ElijahWood.png', 'Im_MattDamon.png', 'Im_BenAffleck.png', 'Im_DanielCraig.png', 'Im_JustinTimberlake.png', 'Im_DanielRadcliffe.png', 'Im_KeanuReeves.png', 'Im_OrlandoBloom.png', 'Im_LeonardoDiCaprio.png', 'Im_BradPitt.png'],diff,1,0.7666510999988532,28,0,
MAVI1806,2,pos,0,pos0_id5_im1.bmp_pos0_id10_im1.bmp,['Im_ElijahWood.png', 'Im_MattDamon.png', 'Im_BenAffleck.png', 'Im_DanielCraig.png', 'Im_JustinTimberlake.png', 'Im_DanielRadcliffe.png', 'Im_KeanuReeves.png', 'Im_OrlandoBloom.png', 'Im_LeonardoDiCaprio.png', 'Im_BradPitt.png'],diff,1,0.4670153000006394,29,0,
MAVI1806,2,pos,150,pos150_id3_im17.bmp_pos150_id3_im6.bmp,['Im_ElijahWood.png', 'Im_MattDamon.png', 'Im_BenAffleck.png', 'Im_DanielCraig.png', 'Im_JustinTimberlake.png', 'Im_DanielRadcliffe.png', 'Im_KeanuReeves.png', 'Im_OrlandoBloom.png', 'Im_LeonardoDiCaprio.png', 'Im_BradPitt.png'],same,1,0.42506690000118397,30,0,
MAVI1806,2,pos,150,pos150_id4_im15.bmp_pos150_id4_im20.bmp,['Im_ElijahWood.png', 'Im_MattDamon.png', 'Im_BenAffleck.png', 'Im_DanielCraig.png', 'Im_JustinTimberlake.png', 'Im_DanielRadcliffe.png', 'Im_KeanuReeves.png', 'Im_OrlandoBloom.png', 'Im_LeonardoDiCaprio.png', 'Im_BradPitt.png'],same,1,0.4250596999991103,31,0,
MAVI1806,2,pos,60,pos60_id1_im4.bmp_pos60_id10_im18.bmp,['Im_ElijahWood.png', 'Im_MattDamon.png', 'Im_BenAffleck.png', 'Im_DanielCraig.png', 'Im_JustinTimberlake.png', 'Im_DanielRadcliffe.png', 'Im_KeanuReeves.png', 'Im_OrlandoBloom.png', 'Im_LeonardoDiCaprio.png', 'Im_BradPitt.png'],diff,1,0.641687200000888,32,0,
MAVI1806,2,pos,120,pos120_id10_im1.bmp_pos120_id5_im1.bmp,['Im_ElijahWood.png', 'Im_MattDamon.png', 'Im_BenAffleck.png', 'Im_DanielCraig.png', 'Im_JustinTimberlake.png', 'Im_DanielRadcliffe.png', 'Im_KeanuReeves.png', 'Im_OrlandoBloom.png', 'Im_LeonardoDiCaprio.png', 'Im_BradPitt.png'],diff,1,0.4168050000007497,33,0,
MAVI1806,2,pos,30,pos30_id16_im19.bmp_pos30_id11_im10.bmp,['Im_ElijahWood.png', 'Im_MattDamon.png', 'Im_BenAffleck.png', 'Im_DanielCraig.png', 'Im_JustinTimberlake.png', 'Im_DanielRadcliffe.png', 'Im_KeanuReeves.png', 'Im_OrlandoBloom.png', 'Im_LeonardoDiCaprio.png', 'Im_BradPitt.png'],diff,1,0.4169942999997147,34,0,
MAVI1806,3,inv,90,pos90_id6_im18.bmp_pos90_id6_im19.bmp,['Im_ElijahWood.png', 'Im_MattDamon.png', 'Im_BenAffleck.png', 'Im_DanielCraig.png', 'Im_JustinTimberlake.png', 'Im_DanielRadcliffe.png', 'Im_KeanuReeves.png', 'Im_OrlandoBloom.png', 'Im_LeonardoDiCaprio.png', 'Im_BradPitt.png'],same,1,0.40840059999936784,1,80.95238095238095,
MAVI1806,3,inv,120,pos120_id1_im24.bmp_pos120_id5_im20.bmp,['Im_ElijahWood.png', 'Im_MattDamon.png', 'Im_BenAffleck.png', 'Im_DanielCraig.png', 'Im_JustinTimberlake.png', 'Im_DanielRadcliffe.png', 'Im_KeanuReeves.png', 'Im_OrlandoBloom.png', 'Im_LeonardoDiCaprio.png', 'Im_BradPitt.png'],same,0,0.5086883000003581,1,80.95238095238095,
MAVI1806,3,inv,150,pos150_id5_im1.bmp_pos150_id10_im1.bmp,['Im_ElijahWood.png', 'Im_MattDamon.png', 'Im_BenAffleck.png', 'Im_DanielCraig.png', 'Im_JustinTimberlake.png', 'Im_DanielRadcliffe.png', 'Im_KeanuReeves.png', 'Im_OrlandoBloom.png', 'Im_LeonardoDiCaprio.png', 'Im_BradPitt.png'],diff,1,0.41672339999968244,2,80.95238095238095,
MAVI1806,3,inv,60,pos60_id16_im19.bmp_pos60_id4_im15.bmp,['Im_ElijahWood.png', 'Im_MattDamon.png', 'Im_BenAffleck.png', 'Im_DanielCraig.png', 'Im_JustinTimberlake.png', 'Im_DanielRadcliffe.png', 'Im_KeanuReeves.png', 'Im_OrlandoBloom.png', 'Im_LeonardoDiCaprio.png', 'Im_BradPitt.png'],diff,1,0.41671129999849654,3,80.95238095238095,
MAVI1806,3,inv,150,pos150_id11_im10.bmp_pos150_id16_im19.bmp,['Im_ElijahWood.png', 'Im_MattDamon.png', 'Im_BenAffleck.png', 'Im_DanielCraig.png', 'Im_JustinTimberlake.png', 'Im_DanielRadcliffe.png', 'Im_KeanuReeves.png', 'Im_OrlandoBloom.png', 'Im_LeonardoDiCaprio.png', 'Im_BradPitt.png'],same,0,0.41673529999934544,3,80.95238095238095,
MAVI1806,3,inv,fs,posfs_id14_im16.bmp_posfs_id14_im18.bmp,['Im_ElijahWood.png', 'Im_MattDamon.png', 'Im_BenAffleck.png', 'Im_DanielCraig.png', 'Im_JustinTimberlake.png', 'Im_DanielRadcliffe.png', 'Im_KeanuReeves.png', 'Im_OrlandoBloom.png', 'Im_LeonardoDiCaprio.png', 'Im_BradPitt.png'],same,1,0.42512859999987995,4,80.95238095238095,
MAVI1806,3,inv,fs,posfs_id4_im15.bmp_posfs_id4_im7.bmp,['Im_ElijahWood.png', 'Im_MattDamon.png', 'Im_BenAffleck.png', 'Im_DanielCraig.png', 'Im_JustinTimberlake.png', 'Im_DanielRadcliffe.png', 'Im_KeanuReeves.png', 'Im_OrlandoBloom.png', 'Im_LeonardoDiCaprio.png', 'Im_BradPitt.png'],same,1,0.4166970999995101,5,80.95238095238095,
MAVI1806,3,inv,0,pos0_id14_im24.bmp_pos0_id14_im16.bmp,['Im_ElijahWood.png', 'Im_MattDamon.png', 'Im_BenAffleck.png', 'Im_DanielCraig.png', 'Im_JustinTimberlake.png', 'Im_DanielRadcliffe.png', 'Im_KeanuReeves.png', 'Im_OrlandoBloom.png', 'Im_LeonardoDiCaprio.png', 'Im_BradPitt.png'],same,1,0.42507859999932407,6,80.95238095238095,
MAVI1806,3,inv,120,pos120_id13_im29.bmp_pos120_id16_im3.bmp,['Im_ElijahWood.png', 'Im_MattDamon.png', 'Im_BenAffleck.png', 'Im_DanielCraig.png', 'Im_JustinTimberlake.png', 'Im_DanielRadcliffe.png', 'Im_KeanuReeves.png', 'Im_OrlandoBloom.png', 'Im_LeonardoDiCaprio.png', 'Im_BradPitt.png'],same,0,0.4250815999985207,6,80.95238095238095,
MAVI1806,3,inv,30,pos30_id16_im3.bmp_pos30_id16_im19.bmp,['Im_ElijahWood.png', 'Im_MattDamon.png', 'Im_BenAffleck.png', 'Im_DanielCraig.png', 'Im_JustinTimberlake.png', 'Im_DanielRadcliffe.png', 'Im_KeanuReeves.png', 'Im_OrlandoBloom.png', 'Im_LeonardoDiCaprio.png', 'Im_BradPitt.png'],same,1,0.4333760000008624,7,80.95238095238095,
MAVI1806,3,inv,60,pos60_id11_im1.bmp_pos60_id13_im15.bmp,['Im_ElijahWood.png', 'Im_MattDamon.png', 'Im_BenAffleck.png', 'Im_DanielCraig.png', 'Im_JustinTimberlake.png', 'Im_DanielRadcliffe.png', 'Im_KeanuReeves.png', 'Im_OrlandoBloom.png', 'Im_LeonardoDiCaprio.png', 'Im_BradPitt.png'],diff,1,0.42500810000092315,8,80.95238095238095,
MAVI1806,3,inv,0,pos0_id16_im2.bmp_pos0_id16_im3.bmp,['Im_ElijahWood.png', 'Im_MattDamon.png', 'Im_BenAffleck.png', 'Im_DanielCraig.png', 'Im_JustinTimberlake.png', 'Im_DanielRadcliffe.png', 'Im_KeanuReeves.png', 'Im_OrlandoBloom.png', 'Im_LeonardoDiCaprio.png', 'Im_BradPitt.png'],diff,0,0.43344600000091305,8,80.95238095238095,
MAVI1806,3,inv,30,pos30_id4_im15.bmp_pos30_id5_im1.bmp,['Im_ElijahWood.png', 'Im_MattDamon.png', 'Im_BenAffleck.png', 'Im_DanielCraig.png', 'Im_JustinTimberlake.png', 'Im_DanielRadcliffe.png', 'Im_KeanuReeves.png', 'Im_OrlandoBloom.png', 'Im_LeonardoDiCaprio.png', 'Im_BradPitt.png'],diff,1,0.4167003000002296,9,80.95238095238095,
MAVI1806,3,inv,90,pos90_id1_im4.bmp_pos90_id1_im21.bmp,['Im_ElijahWood.png', 'Im_MattDamon.png', 'Im_BenAffleck.png', 'Im_DanielCraig.png', 'Im_JustinTimberlake.png', 'Im_DanielRadcliffe.png', 'Im_KeanuReeves.png', 'Im_OrlandoBloom.png', 'Im_LeonardoDiCaprio.png', 'Im_BradPitt.png'],diff,0,0.41669630000069446,9,80.95238095238095,
MAVI1806,4,neg,0,neg0_id5_im1.bmp_neg0_id5_im20.bmp,['Im_ElijahWood.png', 'Im_MattDamon.png', 'Im_BenAffleck.png', 'Im_DanielCraig.png', 'Im_JustinTimberlake.png', 'Im_DanielRadcliffe.png', 'Im_KeanuReeves.png', 'Im_OrlandoBloom.png', 'Im_LeonardoDiCaprio.png', 'Im_BradPitt.png'],same,1,0.40836119999949005,10,80.95238095238095,
MAVI1806,4,neg,30,neg30_id6_im18.bmp_neg30_id16_im2.bmp,['Im_ElijahWood.png', 'Im_MattDamon.png', 'Im_BenAffleck.png', 'Im_DanielCraig.png', 'Im_JustinTimberlake.png', 'Im_DanielRadcliffe.png', 'Im_KeanuReeves.png', 'Im_OrlandoBloom.png', 'Im_LeonardoDiCaprio.png', 'Im_BradPitt.png'],same,0,0.4419008999993821,10,80.95238095238095,
MAVI1806,4,neg,30,neg30_id13_im29.bmp_neg30_id13_im15.bmp,['Im_ElijahWood.png', 'Im_MattDamon.png', 'Im_BenAffleck.png', 'Im_DanielCraig.png', 'Im_JustinTimberlake.png', 'Im_DanielRadcliffe.png', 'Im_KeanuReeves.png', 'Im_OrlandoBloom.png', 'Im_LeonardoDiCaprio.png', 'Im_BradPitt.png'],same,1,0.5169465000017226,11,80.95238095238095,
MAVI1806,4,neg,150,neg150_id14_im24.bmp_neg150_id3_im6.bmp,['Im_ElijahWood.png', 'Im_MattDamon.png', 'Im_BenAffleck.png', 'Im_DanielCraig.png', 'Im_JustinTimberlake.png', 'Im_DanielRadcliffe.png', 'Im_KeanuReeves.png', 'Im_OrlandoBloom.png', 'Im_LeonardoDiCaprio.png', 'Im_BradPitt.png'],diff,1,1.283503999999084,12,80.95238095238095,
MAVI1806,4,neg,90,neg90_id14_im16.bmp_neg90_id14_im18.bmp,['Im_ElijahWood.png', 'Im_MattDamon.png', 'Im_BenAffleck.png', 'Im_DanielCraig.png', 'Im_JustinTimberlake.png', 'Im_DanielRadcliffe.png', 'Im_KeanuReeves.png', 'Im_OrlandoBloom.png', 'Im_LeonardoDiCaprio.png', 'Im_BradPitt.png'],same,1,0.4249875000004977,13,80.95238095238095,
MAVI1806,4,neg,fs,negfs_id1_im21.bmp_negfs_id13_im10.bmp,['Im_ElijahWood.png', 'Im_MattDamon.png', 'Im_BenAffleck.png', 'Im_DanielCraig.png', 'Im_JustinTimberlake.png', 'Im_DanielRadcliffe.png', 'Im_KeanuReeves.png', 'Im_OrlandoBloom.png', 'Im_LeonardoDiCaprio.png', 'Im_BradPitt.png'],diff,1,0.42492719999972905,14,80.95238095238095,
MAVI1806,4,neg,60,neg60_id11_im10.bmp_neg60_id14_im16.bmp,['Im_ElijahWood.png', 'Im_MattDamon.png', 'Im_BenAffleck.png', 'Im_DanielCraig.png', 'Im_JustinTimberlake.png', 'Im_DanielRadcliffe.png', 'Im_KeanuReeves.png', 'Im_OrlandoBloom.png', 'Im_LeonardoDiCaprio.png', 'Im_BradPitt.png'],diff,1,0.6001839000000473,15,80.95238095238095,
MAVI1806,4,neg,150,neg150_id10_im1.bmp_neg150_id10_im17.bmp,['Im_ElijahWood.png', 'Im_MattDamon.png', 'Im_BenAffleck.png', 'Im_DanielCraig.png', 'Im_JustinTimberlake.png', 'Im_DanielRadcliffe.png', 'Im_KeanuReeves.png', 'Im_OrlandoBloom.png', 'Im_LeonardoDiCaprio.png', 'Im_BradPitt.png'],same,1,0.4167505000004894,16,80.95238095238095,
MAVI1806,4,neg,90,neg90_id5_im20.bmp_neg90_id5_im1.bmp,['Im_ElijahWood.png', 'Im_MattDamon.png', 'Im_BenAffleck.png', 'Im_DanielCraig.png', 'Im_JustinTimberlake.png', 'Im_DanielRadcliffe.png', 'Im_KeanuReeves.png', 'Im_OrlandoBloom.png', 'Im_LeonardoDiCaprio.png', 'Im_BradPitt.png'],same,1,0.4166817000004812,17,80.95238095238095,
MAVI1806,4,neg,fs,negfs_id3_im6.bmp_negfs_id3_im17.bmp,['Im_ElijahWood.png', 'Im_MattDamon.png', 'Im_BenAffleck.png', 'Im_DanielCraig.png', 'Im_JustinTimberlake.png', 'Im_DanielRadcliffe.png', 'Im_KeanuReeves.png', 'Im_OrlandoBloom.png', 'Im_LeonardoDiCaprio.png', 'Im_BradPitt.png'],same,1,0.42514250000022,18,80.95238095238095,
MAVI1806,4,neg,60,neg60_id16_im3.bmp_neg60_id16_im2.bmp,['Im_ElijahWood.png', 'Im_MattDamon.png', 'Im_BenAffleck.png', 'Im_DanielCraig.png', 'Im_JustinTimberlake.png', 'Im_DanielRadcliffe.png', 'Im_KeanuReeves.png', 'Im_OrlandoBloom.png', 'Im_LeonardoDiCaprio.png', 'Im_BradPitt.png'],same,1,0.4334134000000631,19,80.95238095238095,
MAVI1806,4,neg,0,neg0_id16_im19.bmp_neg0_id16_im2.bmp,['Im_ElijahWood.png', 'Im_MattDamon.png', 'Im_BenAffleck.png', 'Im_DanielCraig.png', 'Im_JustinTimberlake.png', 'Im_DanielRadcliffe.png', 'Im_KeanuReeves.png', 'Im_OrlandoBloom.png', 'Im_LeonardoDiCaprio.png', 'Im_BradPitt.png'],same,1,0.4167149999993853,20,80.95238095238095,
MAVI1806,4,neg,120,neg120_id3_im6.bmp_neg120_id10_im17.bmp,['Im_ElijahWood.png', 'Im_MattDamon.png', 'Im_BenAffleck.png', 'Im_DanielCraig.png', 'Im_JustinTimberlake.png', 'Im_DanielRadcliffe.png', 'Im_KeanuReeves.png', 'Im_OrlandoBloom.png', 'Im_LeonardoDiCaprio.png', 'Im_BradPitt.png'],diff,1,0.6085977000002458,21,80.95238095238095,
MAVI1806,4,neg,120,neg120_id13_im29.bmp_neg120_id16_im3.bmp,['Im_ElijahWood.png', 'Im_MattDamon.png', 'Im_BenAffleck.png', 'Im_DanielCraig.png', 'Im_JustinTimberlake.png', 'Im_DanielRadcliffe.png', 'Im_KeanuReeves.png', 'Im_OrlandoBloom.png', 'Im_LeonardoDiCaprio.png', 'Im_BradPitt.png'],diff,1,1.1916820000005828,22,80.95238095238095,
MAVI1806,5,pos,fs,posfs_id6_im12.bmp_posfs_id6_im19.bmp,['Im_ElijahWood.png', 'Im_MattDamon.png', 'Im_BenAffleck.png', 'Im_DanielCraig.png', 'Im_JustinTimberlake.png', 'Im_DanielRadcliffe.png', 'Im_KeanuReeves.png', 'Im_OrlandoBloom.png', 'Im_LeonardoDiCaprio.png', 'Im_BradPitt.png'],same,1,0.40850769999997283,23,80.95238095238095,
MAVI1806,5,pos,30,pos30_id16_im2.bmp_pos30_id6_im18.bmp,['Im_ElijahWood.png', 'Im_MattDamon.png', 'Im_BenAffleck.png', 'Im_DanielCraig.png', 'Im_JustinTimberlake.png', 'Im_DanielRadcliffe.png', 'Im_KeanuReeves.png', 'Im_OrlandoBloom.png', 'Im_LeonardoDiCaprio.png', 'Im_BradPitt.png'],diff,1,0.6249451000003319,24,80.95238095238095,
MAVI1806,5,pos,60,pos60_id11_im10.bmp_pos60_id11_im1.bmp,['Im_ElijahWood.png', 'Im_MattDamon.png', 'Im_BenAffleck.png', 'Im_DanielCraig.png', 'Im_JustinTimberlake.png', 'Im_DanielRadcliffe.png', 'Im_KeanuReeves.png', 'Im_OrlandoBloom.png', 'Im_LeonardoDiCaprio.png', 'Im_BradPitt.png'],same,1,0.4333464000010281,25,80.95238095238095,
MAVI1806,5,pos,90,pos90_id6_im12.bmp_pos90_id13_im29.bmp,['Im_ElijahWood.png', 'Im_MattDamon.png', 'Im_BenAffleck.png', 'Im_DanielCraig.png', 'Im_JustinTimberlake.png', 'Im_DanielRadcliffe.png', 'Im_KeanuReeves.png', 'Im_OrlandoBloom.png', 'Im_LeonardoDiCaprio.png', 'Im_BradPitt.png'],diff,1,0.4167245000007824,26,80.95238095238095,
MAVI1806,5,pos,fs,posfs_id6_im19.bmp_posfs_id3_im8.bmp,['Im_ElijahWood.png', 'Im_MattDamon.png', 'Im_BenAffleck.png', 'Im_DanielCraig.png', 'Im_JustinTimberlake.png', 'Im_DanielRadcliffe.png', 'Im_KeanuReeves.png', 'Im_OrlandoBloom.png', 'Im_LeonardoDiCaprio.png', 'Im_BradPitt.png'],diff,1,0.4086975000009261,27,80.95238095238095,
MAVI1806,5,pos,30,pos30_id11_im10.bmp_pos30_id14_im16.bmp,['Im_ElijahWood.png', 'Im_MattDamon.png', 'Im_BenAffleck.png', 'Im_DanielCraig.png', 'Im_JustinTimberlake.png', 'Im_DanielRadcliffe.png', 'Im_KeanuReeves.png', 'Im_OrlandoBloom.png', 'Im_LeonardoDiCaprio.png', 'Im_BradPitt.png'],diff,1,0.5584105999987514,28,80.95238095238095,
MAVI1806,5,pos,150,pos150_id14_im18.bmp_pos150_id14_im16.bmp,['Im_ElijahWood.png', 'Im_MattDamon.png', 'Im_BenAffleck.png', 'Im_DanielCraig.png', 'Im_JustinTimberlake.png', 'Im_DanielRadcliffe.png', 'Im_KeanuReeves.png', 'Im_OrlandoBloom.png', 'Im_LeonardoDiCaprio.png', 'Im_BradPitt.png'],same,1,0.4250401999997848,29,80.95238095238095,
MAVI1806,5,pos,150,pos150_id6_im18.bmp_pos150_id6_im19.bmp,['Im_ElijahWood.png', 'Im_MattDamon.png', 'Im_BenAffleck.png', 'Im_DanielCraig.png', 'Im_JustinTimberlake.png', 'Im_DanielRadcliffe.png', 'Im_KeanuReeves.png', 'Im_OrlandoBloom.png', 'Im_LeonardoDiCaprio.png', 'Im_BradPitt.png'],same,1,0.41693930000110413,30,80.95238095238095,
MAVI1806,5,pos,90,pos90_id11_im2.bmp_pos90_id3_im17.bmp,['Im_ElijahWood.png', 'Im_MattDamon.png', 'Im_BenAffleck.png', 'Im_DanielCraig.png', 'Im_JustinTimberlake.png', 'Im_DanielRadcliffe.png', 'Im_KeanuReeves.png', 'Im_OrlandoBloom.png', 'Im_LeonardoDiCaprio.png', 'Im_BradPitt.png'],diff,1,0.4166867000003549,31,80.95238095238095,
MAVI1806,5,pos,120,pos120_id14_im16.bmp_pos120_id14_im24.bmp,['Im_ElijahWood.png', 'Im_MattDamon.png', 'Im_BenAffleck.png', 'Im_DanielCraig.png', 'Im_JustinTimberlake.png', 'Im_DanielRadcliffe.png', 'Im_KeanuReeves.png', 'Im_OrlandoBloom.png', 'Im_LeonardoDiCaprio.png', 'Im_BradPitt.png'],same,1,0.6418786000012915,32,80.95238095238095,
MAVI1806,5,pos,0,pos0_id3_im17.bmp_pos0_id11_im2.bmp,['Im_ElijahWood.png', 'Im_MattDamon.png', 'Im_BenAffleck.png', 'Im_DanielCraig.png', 'Im_JustinTimberlake.png', 'Im_DanielRadcliffe.png', 'Im_KeanuReeves.png', 'Im_OrlandoBloom.png', 'Im_LeonardoDiCaprio.png', 'Im_BradPitt.png'],diff,1,0.42518939999899885,33,80.95238095238095,
MAVI1806,5,pos,0,pos0_id16_im2.bmp_pos0_id16_im3.bmp,['Im_ElijahWood.png', 'Im_MattDamon.png', 'Im_BenAffleck.png', 'Im_DanielCraig.png', 'Im_JustinTimberlake.png', 'Im_DanielRadcliffe.png', 'Im_KeanuReeves.png', 'Im_OrlandoBloom.png', 'Im_LeonardoDiCaprio.png', 'Im_BradPitt.png'],same,1,0.5749923999992461,34,80.95238095238095,
MAVI1806,5,pos,60,pos60_id16_im19.bmp_pos60_id16_im2.bmp,['Im_ElijahWood.png', 'Im_MattDamon.png', 'Im_BenAffleck.png', 'Im_DanielCraig.png', 'Im_JustinTimberlake.png', 'Im_DanielRadcliffe.png', 'Im_KeanuReeves.png', 'Im_OrlandoBloom.png', 'Im_LeonardoDiCaprio.png', 'Im_BradPitt.png'],same,1,0.4167529000005743,35,80.95238095238095,
MAVI1806,5,pos,120,pos120_id11_im1.bmp_pos120_id11_im10.bmp,['Im_ElijahWood.png', 'Im_MattDamon.png', 'Im_BenAffleck.png', 'Im_DanielCraig.png', 'Im_JustinTimberlake.png', 'Im_DanielRadcliffe.png', 'Im_KeanuReeves.png', 'Im_OrlandoBloom.png', 'Im_LeonardoDiCaprio.png', 'Im_BradPitt.png'],same,1,0.4167462000004889,36,80.95238095238095,
MAVI1806,6,neg,120,neg120_id5_im20.bmp_neg120_id1_im24.bmp,['Im_ElijahWood.png', 'Im_MattDamon.png', 'Im_BenAffleck.png', 'Im_DanielCraig.png', 'Im_JustinTimberlake.png', 'Im_DanielRadcliffe.png', 'Im_KeanuReeves.png', 'Im_OrlandoBloom.png', 'Im_LeonardoDiCaprio.png', 'Im_BradPitt.png'],diff,1,0.4250604000008025,1,85.71428571428571,
MAVI1806,6,neg,0,neg0_id10_im1.bmp_neg0_id10_im18.bmp,['Im_ElijahWood.png', 'Im_MattDamon.png', 'Im_BenAffleck.png', 'Im_DanielCraig.png', 'Im_JustinTimberlake.png', 'Im_DanielRadcliffe.png', 'Im_KeanuReeves.png', 'Im_OrlandoBloom.png', 'Im_LeonardoDiCaprio.png', 'Im_BradPitt.png'],same,1,0.4165714000009757,2,85.71428571428571,
MAVI1806,6,neg,150,neg150_id6_im12.bmp_neg150_id6_im19.bmp,['Im_ElijahWood.png', 'Im_MattDamon.png', 'Im_BenAffleck.png', 'Im_DanielCraig.png', 'Im_JustinTimberlake.png', 'Im_DanielRadcliffe.png', 'Im_KeanuReeves.png', 'Im_OrlandoBloom.png', 'Im_LeonardoDiCaprio.png', 'Im_BradPitt.png'],same,1,0.6166470999996818,3,85.71428571428571,
MAVI1806,6,neg,90,neg90_id10_im18.bmp_neg90_id1_im4.bmp,['Im_ElijahWood.png', 'Im_MattDamon.png', 'Im_BenAffleck.png', 'Im_DanielCraig.png', 'Im_JustinTimberlake.png', 'Im_DanielRadcliffe.png', 'Im_KeanuReeves.png', 'Im_OrlandoBloom.png', 'Im_LeonardoDiCaprio.png', 'Im_BradPitt.png'],same,0,0.43365300000004936,3,85.71428571428571,
MAVI1806,6,neg,60,neg60_id10_im1.bmp_neg60_id10_im18.bmp,['Im_ElijahWood.png', 'Im_MattDamon.png', 'Im_BenAffleck.png', 'Im_DanielCraig.png', 'Im_JustinTimberlake.png', 'Im_DanielRadcliffe.png', 'Im_KeanuReeves.png', 'Im_OrlandoBloom.png', 'Im_LeonardoDiCaprio.png', 'Im_BradPitt.png'],same,1,0.40847170000051847,4,85.71428571428571,
MAVI1806,6,neg,60,neg60_id13_im15.bmp_neg60_id5_im10.bmp,['Im_ElijahWood.png', 'Im_MattDamon.png', 'Im_BenAffleck.png', 'Im_DanielCraig.png', 'Im_JustinTimberlake.png', 'Im_DanielRadcliffe.png', 'Im_KeanuReeves.png', 'Im_OrlandoBloom.png', 'Im_LeonardoDiCaprio.png', 'Im_BradPitt.png'],diff,1,0.43338330000005953,5,85.71428571428571,
MAVI1806,6,neg,fs,negfs_id5_im20.bmp_negfs_id1_im24.bmp,['Im_ElijahWood.png', 'Im_MattDamon.png', 'Im_BenAffleck.png', 'Im_DanielCraig.png', 'Im_JustinTimberlake.png', 'Im_DanielRadcliffe.png', 'Im_KeanuReeves.png', 'Im_OrlandoBloom.png', 'Im_LeonardoDiCaprio.png', 'Im_BradPitt.png'],diff,1,0.4250523000009707,6,85.71428571428571,
MAVI1806,6,neg,150,neg150_id3_im17.bmp_neg150_id3_im8.bmp,['Im_ElijahWood.png', 'Im_MattDamon.png', 'Im_BenAffleck.png', 'Im_DanielCraig.png', 'Im_JustinTimberlake.png', 'Im_DanielRadcliffe.png', 'Im_KeanuReeves.png', 'Im_OrlandoBloom.png', 'Im_LeonardoDiCaprio.png', 'Im_BradPitt.png'],same,1,0.4333337999996729,7,85.71428571428571,
MAVI1806,6,neg,fs,negfs_id4_im15.bmp_negfs_id5_im1.bmp,['Im_ElijahWood.png', 'Im_MattDamon.png', 'Im_BenAffleck.png', 'Im_DanielCraig.png', 'Im_JustinTimberlake.png', 'Im_DanielRadcliffe.png', 'Im_KeanuReeves.png', 'Im_OrlandoBloom.png', 'Im_LeonardoDiCaprio.png', 'Im_BradPitt.png'],diff,1,0.4666514000000461,8,85.71428571428571,
MAVI1806,6,neg,90,neg90_id10_im1.bmp_neg90_id10_im17.bmp,['Im_ElijahWood.png', 'Im_MattDamon.png', 'Im_BenAffleck.png', 'Im_DanielCraig.png', 'Im_JustinTimberlake.png', 'Im_DanielRadcliffe.png', 'Im_KeanuReeves.png', 'Im_OrlandoBloom.png', 'Im_LeonardoDiCaprio.png', 'Im_BradPitt.png'],diff,0,0.5668646000012814,8,85.71428571428571,
MAVI1806,6,neg,30,neg30_id4_im20.bmp_neg30_id1_im4.bmp,['Im_ElijahWood.png', 'Im_MattDamon.png', 'Im_BenAffleck.png', 'Im_DanielCraig.png', 'Im_JustinTimberlake.png', 'Im_DanielRadcliffe.png', 'Im_KeanuReeves.png', 'Im_OrlandoBloom.png', 'Im_LeonardoDiCaprio.png', 'Im_BradPitt.png'],diff,1,0.42500599999948463,9,85.71428571428571,
MAVI1806,6,neg,30,neg30_id4_im7.bmp_neg30_id14_im18.bmp,['Im_ElijahWood.png', 'Im_MattDamon.png', 'Im_BenAffleck.png', 'Im_DanielCraig.png', 'Im_JustinTimberlake.png', 'Im_DanielRadcliffe.png', 'Im_KeanuReeves.png', 'Im_OrlandoBloom.png', 'Im_LeonardoDiCaprio.png', 'Im_BradPitt.png'],same,0,0.40854159999980766,9,85.71428571428571,
MAVI1806,6,neg,120,neg120_id16_im2.bmp_neg120_id6_im19.bmp,['Im_ElijahWood.png', 'Im_MattDamon.png', 'Im_BenAffleck.png', 'Im_DanielCraig.png', 'Im_JustinTimberlake.png', 'Im_DanielRadcliffe.png', 'Im_KeanuReeves.png', 'Im_OrlandoBloom.png', 'Im_LeonardoDiCaprio.png', 'Im_BradPitt.png'],diff,1,0.41665070000090054,10,85.71428571428571,
MAVI1806,6,neg,0,neg0_id4_im7.bmp_neg0_id4_im15.bmp,['Im_ElijahWood.png', 'Im_MattDamon.png', 'Im_BenAffleck.png', 'Im_DanielCraig.png', 'Im_JustinTimberlake.png', 'Im_DanielRadcliffe.png', 'Im_KeanuReeves.png', 'Im_OrlandoBloom.png', 'Im_LeonardoDiCaprio.png', 'Im_BradPitt.png'],same,1,0.4170873999992182,11,85.71428571428571,
MAVI1806,7,pos,0,pos0_id1_im4.bmp_pos0_id1_im21.bmp,['Im_ElijahWood.png', 'Im_MattDamon.png', 'Im_BenAffleck.png', 'Im_DanielCraig.png', 'Im_JustinTimberlake.png', 'Im_DanielRadcliffe.png', 'Im_KeanuReeves.png', 'Im_OrlandoBloom.png', 'Im_LeonardoDiCaprio.png', 'Im_BradPitt.png'],same,1,0.4166504000004352,12,85.71428571428571,
MAVI1806,7,pos,60,pos60_id11_im10.bmp_pos60_id16_im19.bmp,['Im_ElijahWood.png', 'Im_MattDamon.png', 'Im_BenAffleck.png', 'Im_DanielCraig.png', 'Im_JustinTimberlake.png', 'Im_DanielRadcliffe.png', 'Im_KeanuReeves.png', 'Im_OrlandoBloom.png', 'Im_LeonardoDiCaprio.png', 'Im_BradPitt.png'],same,0,1.5584742999999435,12,85.71428571428571,
MAVI1806,7,pos,fs,posfs_id16_im2.bmp_posfs_id16_im3.bmp,['Im_ElijahWood.png', 'Im_MattDamon.png', 'Im_BenAffleck.png', 'Im_DanielCraig.png', 'Im_JustinTimberlake.png', 'Im_DanielRadcliffe.png', 'Im_KeanuReeves.png', 'Im_OrlandoBloom.png', 'Im_LeonardoDiCaprio.png', 'Im_BradPitt.png'],same,1,0.4250947000000451,13,85.71428571428571,
MAVI1806,7,pos,60,pos60_id3_im6.bmp_pos60_id3_im8.bmp,['Im_ElijahWood.png', 'Im_MattDamon.png', 'Im_BenAffleck.png', 'Im_DanielCraig.png', 'Im_JustinTimberlake.png', 'Im_DanielRadcliffe.png', 'Im_KeanuReeves.png', 'Im_OrlandoBloom.png', 'Im_LeonardoDiCaprio.png', 'Im_BradPitt.png'],same,1,0.4166912999990018,14,85.71428571428571,
MAVI1806,7,pos,30,pos30_id1_im4.bmp_pos30_id1_im21.bmp,['Im_ElijahWood.png', 'Im_MattDamon.png', 'Im_BenAffleck.png', 'Im_DanielCraig.png', 'Im_JustinTimberlake.png', 'Im_DanielRadcliffe.png', 'Im_KeanuReeves.png', 'Im_OrlandoBloom.png', 'Im_LeonardoDiCaprio.png', 'Im_BradPitt.png'],same,1,0.41667620000043826,15,85.71428571428571,
MAVI1806,7,pos,30,pos30_id13_im29.bmp_pos30_id16_im3.bmp,['Im_ElijahWood.png', 'Im_MattDamon.png', 'Im_BenAffleck.png', 'Im_DanielCraig.png', 'Im_JustinTimberlake.png', 'Im_DanielRadcliffe.png', 'Im_KeanuReeves.png', 'Im_OrlandoBloom.png', 'Im_LeonardoDiCaprio.png', 'Im_BradPitt.png'],diff,1,0.4167412000006152,16,85.71428571428571,
MAVI1806,7,pos,fs,posfs_id11_im1.bmp_posfs_id11_im10.bmp,['Im_ElijahWood.png', 'Im_MattDamon.png', 'Im_BenAffleck.png', 'Im_DanielCraig.png', 'Im_JustinTimberlake.png', 'Im_DanielRadcliffe.png', 'Im_KeanuReeves.png', 'Im_OrlandoBloom.png', 'Im_LeonardoDiCaprio.png', 'Im_BradPitt.png'],same,1,0.4166975000007369,17,85.71428571428571,
MAVI1806,7,pos,150,pos150_id10_im17.bmp_pos150_id10_im1.bmp,['Im_ElijahWood.png', 'Im_MattDamon.png', 'Im_BenAffleck.png', 'Im_DanielCraig.png', 'Im_JustinTimberlake.png', 'Im_DanielRadcliffe.png', 'Im_KeanuReeves.png', 'Im_OrlandoBloom.png', 'Im_LeonardoDiCaprio.png', 'Im_BradPitt.png'],same,1,0.42502019999847107,18,85.71428571428571,
MAVI1806,7,pos,90,pos90_id11_im1.bmp_pos90_id11_im2.bmp,['Im_ElijahWood.png', 'Im_MattDamon.png', 'Im_BenAffleck.png', 'Im_DanielCraig.png', 'Im_JustinTimberlake.png', 'Im_DanielRadcliffe.png', 'Im_KeanuReeves.png', 'Im_OrlandoBloom.png', 'Im_LeonardoDiCaprio.png', 'Im_BradPitt.png'],same,1,0.42505170000004,19,85.71428571428571,
MAVI1806,7,pos,120,pos120_id13_im29.bmp_pos120_id13_im10.bmp,['Im_ElijahWood.png', 'Im_MattDamon.png', 'Im_BenAffleck.png', 'Im_DanielCraig.png', 'Im_JustinTimberlake.png', 'Im_DanielRadcliffe.png', 'Im_KeanuReeves.png', 'Im_OrlandoBloom.png', 'Im_LeonardoDiCaprio.png', 'Im_BradPitt.png'],same,1,0.43340639999951236,20,85.71428571428571,
MAVI1806,7,pos,120,pos120_id5_im20.bmp_pos120_id1_im24.bmp,['Im_ElijahWood.png', 'Im_MattDamon.png', 'Im_BenAffleck.png', 'Im_DanielCraig.png', 'Im_JustinTimberlake.png', 'Im_DanielRadcliffe.png', 'Im_KeanuReeves.png', 'Im_OrlandoBloom.png', 'Im_LeonardoDiCaprio.png', 'Im_BradPitt.png'],diff,1,0.4167098999987502,21,85.71428571428571,
MAVI1806,7,pos,0,pos0_id14_im16.bmp_pos0_id3_im8.bmp,['Im_ElijahWood.png', 'Im_MattDamon.png', 'Im_BenAffleck.png', 'Im_DanielCraig.png', 'Im_JustinTimberlake.png', 'Im_DanielRadcliffe.png', 'Im_KeanuReeves.png', 'Im_OrlandoBloom.png', 'Im_LeonardoDiCaprio.png', 'Im_BradPitt.png'],diff,1,0.4168100000006234,22,85.71428571428571,
MAVI1806,7,pos,90,pos90_id6_im12.bmp_pos90_id6_im19.bmp,['Im_ElijahWood.png', 'Im_MattDamon.png', 'Im_BenAffleck.png', 'Im_DanielCraig.png', 'Im_JustinTimberlake.png', 'Im_DanielRadcliffe.png', 'Im_KeanuReeves.png', 'Im_OrlandoBloom.png', 'Im_LeonardoDiCaprio.png', 'Im_BradPitt.png'],same,1,0.42507599999953527,23,85.71428571428571,
MAVI1806,7,pos,150,pos150_id16_im3.bmp_pos150_id16_im2.bmp,['Im_ElijahWood.png', 'Im_MattDamon.png', 'Im_BenAffleck.png', 'Im_DanielCraig.png', 'Im_JustinTimberlake.png', 'Im_DanielRadcliffe.png', 'Im_KeanuReeves.png', 'Im_OrlandoBloom.png', 'Im_LeonardoDiCaprio.png', 'Im_BradPitt.png'],same,1,0.41672530000141705,24,85.71428571428571,
MAVI1806,8,inv,90,pos90_id4_im15.bmp_pos90_id4_im7.bmp,['Im_ElijahWood.png', 'Im_MattDamon.png', 'Im_BenAffleck.png', 'Im_DanielCraig.png', 'Im_JustinTimberlake.png', 'Im_DanielRadcliffe.png', 'Im_KeanuReeves.png', 'Im_OrlandoBloom.png', 'Im_LeonardoDiCaprio.png', 'Im_BradPitt.png'],same,1,0.42524129999947036,25,85.71428571428571,
MAVI1806,8,inv,120,pos120_id4_im20.bmp_pos120_id4_im7.bmp,['Im_ElijahWood.png', 'Im_MattDamon.png', 'Im_BenAffleck.png', 'Im_DanielCraig.png', 'Im_JustinTimberlake.png', 'Im_DanielRadcliffe.png', 'Im_KeanuReeves.png', 'Im_OrlandoBloom.png', 'Im_LeonardoDiCaprio.png', 'Im_BradPitt.png'],same,1,0.4583449000001565,26,85.71428571428571,
MAVI1806,8,inv,150,pos150_id13_im29.bmp_pos150_id6_im12.bmp,['Im_ElijahWood.png', 'Im_MattDamon.png', 'Im_BenAffleck.png', 'Im_DanielCraig.png', 'Im_JustinTimberlake.png', 'Im_DanielRadcliffe.png', 'Im_KeanuReeves.png', 'Im_OrlandoBloom.png', 'Im_LeonardoDiCaprio.png', 'Im_BradPitt.png'],diff,1,0.5001923999989231,27,85.71428571428571,
MAVI1806,8,inv,150,pos150_id13_im15.bmp_pos150_id13_im10.bmp,['Im_ElijahWood.png', 'Im_MattDamon.png', 'Im_BenAffleck.png', 'Im_DanielCraig.png', 'Im_JustinTimberlake.png', 'Im_DanielRadcliffe.png', 'Im_KeanuReeves.png', 'Im_OrlandoBloom.png', 'Im_LeonardoDiCaprio.png', 'Im_BradPitt.png'],same,1,0.42504790000020876,28,85.71428571428571,
MAVI1806,8,inv,fs,posfs_id3_im6.bmp_posfs_id3_im8.bmp,['Im_ElijahWood.png', 'Im_MattDamon.png', 'Im_BenAffleck.png', 'Im_DanielCraig.png', 'Im_JustinTimberlake.png', 'Im_DanielRadcliffe.png', 'Im_KeanuReeves.png', 'Im_OrlandoBloom.png', 'Im_LeonardoDiCaprio.png', 'Im_BradPitt.png'],same,1,0.4500303000004351,29,85.71428571428571,
MAVI1806,8,inv,120,pos120_id5_im20.bmp_pos120_id13_im10.bmp,['Im_ElijahWood.png', 'Im_MattDamon.png', 'Im_BenAffleck.png', 'Im_DanielCraig.png', 'Im_JustinTimberlake.png', 'Im_DanielRadcliffe.png', 'Im_KeanuReeves.png', 'Im_OrlandoBloom.png', 'Im_LeonardoDiCaprio.png', 'Im_BradPitt.png'],diff,1,0.4167488000002777,30,85.71428571428571,
MAVI1806,8,inv,0,pos0_id1_im21.bmp_pos0_id1_im4.bmp,['Im_ElijahWood.png', 'Im_MattDamon.png', 'Im_BenAffleck.png', 'Im_DanielCraig.png', 'Im_JustinTimberlake.png', 'Im_DanielRadcliffe.png', 'Im_KeanuReeves.png', 'Im_OrlandoBloom.png', 'Im_LeonardoDiCaprio.png', 'Im_BradPitt.png'],same,1,0.4250779000012699,31,85.71428571428571,
MAVI1806,8,inv,90,pos90_id1_im21.bmp_pos90_id6_im18.bmp,['Im_ElijahWood.png', 'Im_MattDamon.png', 'Im_BenAffleck.png', 'Im_DanielCraig.png', 'Im_JustinTimberlake.png', 'Im_DanielRadcliffe.png', 'Im_KeanuReeves.png', 'Im_OrlandoBloom.png', 'Im_LeonardoDiCaprio.png', 'Im_BradPitt.png'],diff,1,0.5667453999994905,32,85.71428571428571,
MAVI1806,8,inv,0,pos0_id16_im19.bmp_pos0_id11_im10.bmp,['Im_ElijahWood.png', 'Im_MattDamon.png', 'Im_BenAffleck.png', 'Im_DanielCraig.png', 'Im_JustinTimberlake.png', 'Im_DanielRadcliffe.png', 'Im_KeanuReeves.png', 'Im_OrlandoBloom.png', 'Im_LeonardoDiCaprio.png', 'Im_BradPitt.png'],diff,1,0.41676879999977245,33,85.71428571428571,
MAVI1806,8,inv,60,pos60_id3_im6.bmp_pos60_id14_im24.bmp,['Im_ElijahWood.png', 'Im_MattDamon.png', 'Im_BenAffleck.png', 'Im_DanielCraig.png', 'Im_JustinTimberlake.png', 'Im_DanielRadcliffe.png', 'Im_KeanuReeves.png', 'Im_OrlandoBloom.png', 'Im_LeonardoDiCaprio.png', 'Im_BradPitt.png'],diff,1,0.4250908999983949,34,85.71428571428571,
MAVI1806,8,inv,fs,posfs_id11_im2.bmp_posfs_id11_im10.bmp,['Im_ElijahWood.png', 'Im_MattDamon.png', 'Im_BenAffleck.png', 'Im_DanielCraig.png', 'Im_JustinTimberlake.png', 'Im_DanielRadcliffe.png', 'Im_KeanuReeves.png', 'Im_OrlandoBloom.png', 'Im_LeonardoDiCaprio.png', 'Im_BradPitt.png'],same,1,0.41669759999967937,35,85.71428571428571,
MAVI1806,8,inv,60,pos60_id4_im20.bmp_pos60_id6_im12.bmp,['Im_ElijahWood.png', 'Im_MattDamon.png', 'Im_BenAffleck.png', 'Im_DanielCraig.png', 'Im_JustinTimberlake.png', 'Im_DanielRadcliffe.png', 'Im_KeanuReeves.png', 'Im_OrlandoBloom.png', 'Im_LeonardoDiCaprio.png', 'Im_BradPitt.png'],diff,1,0.4252180000003136,36,85.71428571428571,
MAVI1806,8,inv,30,pos30_id16_im2.bmp_pos30_id6_im18.bmp,['Im_ElijahWood.png', 'Im_MattDamon.png', 'Im_BenAffleck.png', 'Im_DanielCraig.png', 'Im_JustinTimberlake.png', 'Im_DanielRadcliffe.png', 'Im_KeanuReeves.png', 'Im_OrlandoBloom.png', 'Im_LeonardoDiCaprio.png', 'Im_BradPitt.png'],diff,1,0.8085897999990266,37,85.71428571428571,
MAVI1806,8,inv,30,pos30_id6_im12.bmp_pos30_id6_im18.bmp,['Im_ElijahWood.png', 'Im_MattDamon.png', 'Im_BenAffleck.png', 'Im_DanielCraig.png', 'Im_JustinTimberlake.png', 'Im_DanielRadcliffe.png', 'Im_KeanuReeves.png', 'Im_OrlandoBloom.png', 'Im_LeonardoDiCaprio.png', 'Im_BradPitt.png'],same,1,0.5089465999990352,38,85.71428571428571,
MAVI1806,9,inv,60,pos60_id11_im10.bmp_pos60_id11_im2.bmp,['Im_ElijahWood.png', 'Im_MattDamon.png', 'Im_BenAffleck.png', 'Im_DanielCraig.png', 'Im_JustinTimberlake.png', 'Im_DanielRadcliffe.png', 'Im_KeanuReeves.png', 'Im_OrlandoBloom.png', 'Im_LeonardoDiCaprio.png', 'Im_BradPitt.png'],same,1,0.43338720000065223,1,90.47619047619048,
MAVI1806,9,inv,120,pos120_id10_im18.bmp_pos120_id11_im2.bmp,['Im_ElijahWood.png', 'Im_MattDamon.png', 'Im_BenAffleck.png', 'Im_DanielCraig.png', 'Im_JustinTimberlake.png', 'Im_DanielRadcliffe.png', 'Im_KeanuReeves.png', 'Im_OrlandoBloom.png', 'Im_LeonardoDiCaprio.png', 'Im_BradPitt.png'],diff,1,0.7668297999989591,2,90.47619047619048,
MAVI1806,9,inv,0,pos0_id1_im4.bmp_pos0_id10_im18.bmp,['Im_ElijahWood.png', 'Im_MattDamon.png', 'Im_BenAffleck.png', 'Im_DanielCraig.png', 'Im_JustinTimberlake.png', 'Im_DanielRadcliffe.png', 'Im_KeanuReeves.png', 'Im_OrlandoBloom.png', 'Im_LeonardoDiCaprio.png', 'Im_BradPitt.png'],diff,1,0.550076600000466,3,90.47619047619048,
MAVI1806,9,inv,150,pos150_id4_im7.bmp_pos150_id14_im24.bmp,['Im_ElijahWood.png', 'Im_MattDamon.png', 'Im_BenAffleck.png', 'Im_DanielCraig.png', 'Im_JustinTimberlake.png', 'Im_DanielRadcliffe.png', 'Im_KeanuReeves.png', 'Im_OrlandoBloom.png', 'Im_LeonardoDiCaprio.png', 'Im_BradPitt.png'],diff,1,0.758387899999434,4,90.47619047619048,
MAVI1806,9,inv,90,pos90_id10_im17.bmp_pos90_id14_im18.bmp,['Im_ElijahWood.png', 'Im_MattDamon.png', 'Im_BenAffleck.png', 'Im_DanielCraig.png', 'Im_JustinTimberlake.png', 'Im_DanielRadcliffe.png', 'Im_KeanuReeves.png', 'Im_OrlandoBloom.png', 'Im_LeonardoDiCaprio.png', 'Im_BradPitt.png'],same,0,0.591904799999611,4,90.47619047619048,
MAVI1806,9,inv,90,pos90_id16_im2.bmp_pos90_id6_im18.bmp,['Im_ElijahWood.png', 'Im_MattDamon.png', 'Im_BenAffleck.png', 'Im_DanielCraig.png', 'Im_JustinTimberlake.png', 'Im_DanielRadcliffe.png', 'Im_KeanuReeves.png', 'Im_OrlandoBloom.png', 'Im_LeonardoDiCaprio.png', 'Im_BradPitt.png'],same,0,0.5506605000009586,4,90.47619047619048,
MAVI1806,9,inv,0,pos0_id4_im7.bmp_pos0_id4_im20.bmp,['Im_ElijahWood.png', 'Im_MattDamon.png', 'Im_BenAffleck.png', 'Im_DanielCraig.png', 'Im_JustinTimberlake.png', 'Im_DanielRadcliffe.png', 'Im_KeanuReeves.png', 'Im_OrlandoBloom.png', 'Im_LeonardoDiCaprio.png', 'Im_BradPitt.png'],same,1,0.4167875000002823,5,90.47619047619048,
MAVI1806,9,inv,30,pos30_id16_im19.bmp_pos30_id11_im10.bmp,['Im_ElijahWood.png', 'Im_MattDamon.png', 'Im_BenAffleck.png', 'Im_DanielCraig.png', 'Im_JustinTimberlake.png', 'Im_DanielRadcliffe.png', 'Im_KeanuReeves.png', 'Im_OrlandoBloom.png', 'Im_LeonardoDiCaprio.png', 'Im_BradPitt.png'],diff,1,0.5337857000013173,6,90.47619047619048,
MAVI1806,9,inv,30,pos30_id13_im10.bmp_pos30_id5_im20.bmp,['Im_ElijahWood.png', 'Im_MattDamon.png', 'Im_BenAffleck.png', 'Im_DanielCraig.png', 'Im_JustinTimberlake.png', 'Im_DanielRadcliffe.png', 'Im_KeanuReeves.png', 'Im_OrlandoBloom.png', 'Im_LeonardoDiCaprio.png', 'Im_BradPitt.png'],diff,1,0.5753367999986949,7,90.47619047619048,
MAVI1806,9,inv,120,pos120_id11_im2.bmp_pos120_id3_im17.bmp,['Im_ElijahWood.png', 'Im_MattDamon.png', 'Im_BenAffleck.png', 'Im_DanielCraig.png', 'Im_JustinTimberlake.png', 'Im_DanielRadcliffe.png', 'Im_KeanuReeves.png', 'Im_OrlandoBloom.png', 'Im_LeonardoDiCaprio.png', 'Im_BradPitt.png'],diff,1,0.43343950000053155,8,90.47619047619048,
MAVI1806,9,inv,fs,posfs_id6_im18.bmp_posfs_id6_im19.bmp,['Im_ElijahWood.png', 'Im_MattDamon.png', 'Im_BenAffleck.png', 'Im_DanielCraig.png', 'Im_JustinTimberlake.png', 'Im_DanielRadcliffe.png', 'Im_KeanuReeves.png', 'Im_OrlandoBloom.png', 'Im_LeonardoDiCaprio.png', 'Im_BradPitt.png'],same,1,0.4167921000007482,9,90.47619047619048,
MAVI1806,9,inv,fs,posfs_id5_im20.bmp_posfs_id5_im10.bmp,['Im_ElijahWood.png', 'Im_MattDamon.png', 'Im_BenAffleck.png', 'Im_DanielCraig.png', 'Im_JustinTimberlake.png', 'Im_DanielRadcliffe.png', 'Im_KeanuReeves.png', 'Im_OrlandoBloom.png', 'Im_LeonardoDiCaprio.png', 'Im_BradPitt.png'],same,1,0.42514329999903566,10,90.47619047619048,
MAVI1806,9,inv,60,pos60_id10_im17.bmp_pos60_id10_im1.bmp,['Im_ElijahWood.png', 'Im_MattDamon.png', 'Im_BenAffleck.png', 'Im_DanielCraig.png', 'Im_JustinTimberlake.png', 'Im_DanielRadcliffe.png', 'Im_KeanuReeves.png', 'Im_OrlandoBloom.png', 'Im_LeonardoDiCaprio.png', 'Im_BradPitt.png'],same,1,0.4168853000010131,11,90.47619047619048,
MAVI1806,9,inv,150,pos150_id4_im20.bmp_pos150_id6_im12.bmp,['Im_ElijahWood.png', 'Im_MattDamon.png', 'Im_BenAffleck.png', 'Im_DanielCraig.png', 'Im_JustinTimberlake.png', 'Im_DanielRadcliffe.png', 'Im_KeanuReeves.png', 'Im_OrlandoBloom.png', 'Im_LeonardoDiCaprio.png', 'Im_BradPitt.png'],diff,1,0.4251375999992888,12,90.47619047619048,
MAVI1806,10,neg,120,neg120_id13_im15.bmp_neg120_id11_im1.bmp,['Im_ElijahWood.png', 'Im_MattDamon.png', 'Im_BenAffleck.png', 'Im_DanielCraig.png', 'Im_JustinTimberlake.png', 'Im_DanielRadcliffe.png', 'Im_KeanuReeves.png', 'Im_OrlandoBloom.png', 'Im_LeonardoDiCaprio.png', 'Im_BradPitt.png'],diff,1,0.42511609999928623,13,90.47619047619048,
MAVI1806,10,neg,30,neg30_id14_im18.bmp_neg30_id14_im16.bmp,['Im_ElijahWood.png', 'Im_MattDamon.png', 'Im_BenAffleck.png', 'Im_DanielCraig.png', 'Im_JustinTimberlake.png', 'Im_DanielRadcliffe.png', 'Im_KeanuReeves.png', 'Im_OrlandoBloom.png', 'Im_LeonardoDiCaprio.png', 'Im_BradPitt.png'],same,1,0.4082546000008733,14,90.47619047619048,
