Sujet,Trial,Condition,Filter,Imname,Actor0,Actor1,Actor2,Actor3,Actor4,Actor5,Actor6,Actor7,Actor8,Actor9,Answer,Accu,RT,Score,Scoreperc, 
MIFA1204,train,inv,120,pos120_id17_im9.bmp_pos120_id3_im8.bmp,['Im_BradPitt.png', 'Im_PatrickDempsey.png', 'Im_ElijahWood.png', 'Im_RyanGosling.png', 'Im_LeonardoDiCaprio.png', 'Im_RobertDowneyJr.png', 'Im_RobertPattinson.png', 'Im_JustinTimberlake.png', 'Im_DanielCraig.png', 'Im_MattDamon.png'],diff,1,1.0166551000002073,1,0,
MIFA1204,train,inv,fs,posfs_id20_im3.bmp_posfs_id17_im9.bmp,['Im_BradPitt.png', 'Im_PatrickDempsey.png', 'Im_ElijahWood.png', 'Im_RyanGosling.png', 'Im_LeonardoDiCaprio.png', 'Im_RobertDowneyJr.png', 'Im_RobertPattinson.png', 'Im_JustinTimberlake.png', 'Im_DanielCraig.png', 'Im_MattDamon.png'],same,0,0.6755331999993359,1,0,
MIFA1204,train,inv,0,pos0_id17_im14.bmp_pos0_id20_im30.bmp,['Im_BradPitt.png', 'Im_PatrickDempsey.png', 'Im_ElijahWood.png', 'Im_RyanGosling.png', 'Im_LeonardoDiCaprio.png', 'Im_RobertDowneyJr.png', 'Im_RobertPattinson.png', 'Im_JustinTimberlake.png', 'Im_DanielCraig.png', 'Im_MattDamon.png'],diff,1,3.008396499999435,2,0,
MIFA1204,train,inv,90,pos90_id18_im18.bmp_pos90_id6_im19.bmp,['Im_BradPitt.png', 'Im_PatrickDempsey.png', 'Im_ElijahWood.png', 'Im_RyanGosling.png', 'Im_LeonardoDiCaprio.png', 'Im_RobertDowneyJr.png', 'Im_RobertPattinson.png', 'Im_JustinTimberlake.png', 'Im_DanielCraig.png', 'Im_MattDamon.png'],diff,1,1.1333919999997306,3,0,
MIFA1204,train,inv,90,pos90_id10_im18.bmp_pos90_id13_im29.bmp,['Im_BradPitt.png', 'Im_PatrickDempsey.png', 'Im_ElijahWood.png', 'Im_RyanGosling.png', 'Im_LeonardoDiCaprio.png', 'Im_RobertDowneyJr.png', 'Im_RobertPattinson.png', 'Im_JustinTimberlake.png', 'Im_DanielCraig.png', 'Im_MattDamon.png'],same,0,0.98333349999848,3,0,
MIFA1204,train,inv,30,pos30_id19_im8.bmp_pos30_id10_im18.bmp,['Im_BradPitt.png', 'Im_PatrickDempsey.png', 'Im_ElijahWood.png', 'Im_RyanGosling.png', 'Im_LeonardoDiCaprio.png', 'Im_RobertDowneyJr.png', 'Im_RobertPattinson.png', 'Im_JustinTimberlake.png', 'Im_DanielCraig.png', 'Im_MattDamon.png'],same,0,1.3832246999991185,3,0,
MIFA1204,train,inv,150,pos150_id18_im18.bmp_pos150_id6_im19.bmp,['Im_BradPitt.png', 'Im_PatrickDempsey.png', 'Im_ElijahWood.png', 'Im_RyanGosling.png', 'Im_LeonardoDiCaprio.png', 'Im_RobertDowneyJr.png', 'Im_RobertPattinson.png', 'Im_JustinTimberlake.png', 'Im_DanielCraig.png', 'Im_MattDamon.png'],same,0,1.5417176999999356,3,0,
MIFA1204,train,inv,fs,posfs_id14_im18.bmp_posfs_id14_im16.bmp,['Im_BradPitt.png', 'Im_PatrickDempsey.png', 'Im_ElijahWood.png', 'Im_RyanGosling.png', 'Im_LeonardoDiCaprio.png', 'Im_RobertDowneyJr.png', 'Im_RobertPattinson.png', 'Im_JustinTimberlake.png', 'Im_DanielCraig.png', 'Im_MattDamon.png'],diff,0,0.9587000999999873,3,0,
MIFA1204,train,inv,120,pos120_id4_im15.bmp_pos120_id4_im7.bmp,['Im_BradPitt.png', 'Im_PatrickDempsey.png', 'Im_ElijahWood.png', 'Im_RyanGosling.png', 'Im_LeonardoDiCaprio.png', 'Im_RobertDowneyJr.png', 'Im_RobertPattinson.png', 'Im_JustinTimberlake.png', 'Im_DanielCraig.png', 'Im_MattDamon.png'],same,1,1.416956900000514,4,0,
MIFA1204,train,inv,60,pos60_id10_im1.bmp_pos60_id20_im12.bmp,['Im_BradPitt.png', 'Im_PatrickDempsey.png', 'Im_ElijahWood.png', 'Im_RyanGosling.png', 'Im_LeonardoDiCaprio.png', 'Im_RobertDowneyJr.png', 'Im_RobertPattinson.png', 'Im_JustinTimberlake.png', 'Im_DanielCraig.png', 'Im_MattDamon.png'],same,0,0.8085498999989795,4,0,
MIFA1204,train,inv,0,pos0_id20_im3.bmp_pos0_id17_im9.bmp,['Im_BradPitt.png', 'Im_PatrickDempsey.png', 'Im_ElijahWood.png', 'Im_RyanGosling.png', 'Im_LeonardoDiCaprio.png', 'Im_RobertDowneyJr.png', 'Im_RobertPattinson.png', 'Im_JustinTimberlake.png', 'Im_DanielCraig.png', 'Im_MattDamon.png'],same,0,0.8000499000008858,4,0,
MIFA1204,train,inv,60,pos60_id19_im4.bmp_pos60_id19_im27.bmp,['Im_BradPitt.png', 'Im_PatrickDempsey.png', 'Im_ElijahWood.png', 'Im_RyanGosling.png', 'Im_LeonardoDiCaprio.png', 'Im_RobertDowneyJr.png', 'Im_RobertPattinson.png', 'Im_JustinTimberlake.png', 'Im_DanielCraig.png', 'Im_MattDamon.png'],same,1,3.325143100000787,5,0,
MIFA1204,train,inv,30,pos30_id17_im8.bmp_pos30_id17_im14.bmp,['Im_BradPitt.png', 'Im_PatrickDempsey.png', 'Im_ElijahWood.png', 'Im_RyanGosling.png', 'Im_LeonardoDiCaprio.png', 'Im_RobertDowneyJr.png', 'Im_RobertPattinson.png', 'Im_JustinTimberlake.png', 'Im_DanielCraig.png', 'Im_MattDamon.png'],same,1,0.8750211999995372,6,0,
MIFA1204,train,inv,150,pos150_id17_im14.bmp_pos150_id17_im8.bmp,['Im_BradPitt.png', 'Im_PatrickDempsey.png', 'Im_ElijahWood.png', 'Im_RyanGosling.png', 'Im_LeonardoDiCaprio.png', 'Im_RobertDowneyJr.png', 'Im_RobertPattinson.png', 'Im_JustinTimberlake.png', 'Im_DanielCraig.png', 'Im_MattDamon.png'],diff,0,1.091785799999343,6,0,
MIFA1204,train,neg,30,neg30_id17_im8.bmp_neg30_id3_im8.bmp,['Im_BradPitt.png', 'Im_PatrickDempsey.png', 'Im_ElijahWood.png', 'Im_RyanGosling.png', 'Im_LeonardoDiCaprio.png', 'Im_RobertDowneyJr.png', 'Im_RobertPattinson.png', 'Im_JustinTimberlake.png', 'Im_DanielCraig.png', 'Im_MattDamon.png'],same,0,1.3832968000006076,6,0,
MIFA1204,train,neg,60,neg60_id20_im30.bmp_neg60_id20_im3.bmp,['Im_BradPitt.png', 'Im_PatrickDempsey.png', 'Im_ElijahWood.png', 'Im_RyanGosling.png', 'Im_LeonardoDiCaprio.png', 'Im_RobertDowneyJr.png', 'Im_RobertPattinson.png', 'Im_JustinTimberlake.png', 'Im_DanielCraig.png', 'Im_MattDamon.png'],same,1,1.0084918000011385,7,0,
MIFA1204,train,neg,90,neg90_id19_im4.bmp_neg90_id4_im7.bmp,['Im_BradPitt.png', 'Im_PatrickDempsey.png', 'Im_ElijahWood.png', 'Im_RyanGosling.png', 'Im_LeonardoDiCaprio.png', 'Im_RobertDowneyJr.png', 'Im_RobertPattinson.png', 'Im_JustinTimberlake.png', 'Im_DanielCraig.png', 'Im_MattDamon.png'],same,0,2.8749889000009716,7,0,
MIFA1204,train,neg,0,neg0_id17_im14.bmp_neg0_id17_im9.bmp,['Im_BradPitt.png', 'Im_PatrickDempsey.png', 'Im_ElijahWood.png', 'Im_RyanGosling.png', 'Im_LeonardoDiCaprio.png', 'Im_RobertDowneyJr.png', 'Im_RobertPattinson.png', 'Im_JustinTimberlake.png', 'Im_DanielCraig.png', 'Im_MattDamon.png'],same,1,1.1752284999984113,8,0,
MIFA1204,train,neg,60,neg60_id20_im3.bmp_neg60_id17_im9.bmp,['Im_BradPitt.png', 'Im_PatrickDempsey.png', 'Im_ElijahWood.png', 'Im_RyanGosling.png', 'Im_LeonardoDiCaprio.png', 'Im_RobertDowneyJr.png', 'Im_RobertPattinson.png', 'Im_JustinTimberlake.png', 'Im_DanielCraig.png', 'Im_MattDamon.png'],same,0,1.6420011999998678,8,0,
MIFA1204,train,neg,150,neg150_id20_im3.bmp_neg150_id10_im17.bmp,['Im_BradPitt.png', 'Im_PatrickDempsey.png', 'Im_ElijahWood.png', 'Im_RyanGosling.png', 'Im_LeonardoDiCaprio.png', 'Im_RobertDowneyJr.png', 'Im_RobertPattinson.png', 'Im_JustinTimberlake.png', 'Im_DanielCraig.png', 'Im_MattDamon.png'],same,0,1.1583122000010917,8,0,
MIFA1204,train,neg,0,neg0_id4_im20.bmp_neg0_id19_im4.bmp,['Im_BradPitt.png', 'Im_PatrickDempsey.png', 'Im_ElijahWood.png', 'Im_RyanGosling.png', 'Im_LeonardoDiCaprio.png', 'Im_RobertDowneyJr.png', 'Im_RobertPattinson.png', 'Im_JustinTimberlake.png', 'Im_DanielCraig.png', 'Im_MattDamon.png'],same,0,2.4165658999991138,8,0,
MIFA1204,train,neg,fs,negfs_id10_im1.bmp_negfs_id10_im18.bmp,['Im_BradPitt.png', 'Im_PatrickDempsey.png', 'Im_ElijahWood.png', 'Im_RyanGosling.png', 'Im_LeonardoDiCaprio.png', 'Im_RobertDowneyJr.png', 'Im_RobertPattinson.png', 'Im_JustinTimberlake.png', 'Im_DanielCraig.png', 'Im_MattDamon.png'],same,1,1.0500902000003407,9,0,
MIFA1204,train,neg,120,neg120_id14_im18.bmp_neg120_id14_im24.bmp,['Im_BradPitt.png', 'Im_PatrickDempsey.png', 'Im_ElijahWood.png', 'Im_RyanGosling.png', 'Im_LeonardoDiCaprio.png', 'Im_RobertDowneyJr.png', 'Im_RobertPattinson.png', 'Im_JustinTimberlake.png', 'Im_DanielCraig.png', 'Im_MattDamon.png'],diff,0,2.325055799999973,9,0,
MIFA1204,train,neg,fs,negfs_id4_im20.bmp_negfs_id4_im15.bmp,['Im_BradPitt.png', 'Im_PatrickDempsey.png', 'Im_ElijahWood.png', 'Im_RyanGosling.png', 'Im_LeonardoDiCaprio.png', 'Im_RobertDowneyJr.png', 'Im_RobertPattinson.png', 'Im_JustinTimberlake.png', 'Im_DanielCraig.png', 'Im_MattDamon.png'],same,1,1.049916400001166,10,0,
MIFA1204,train,neg,150,neg150_id17_im9.bmp_neg150_id20_im3.bmp,['Im_BradPitt.png', 'Im_PatrickDempsey.png', 'Im_ElijahWood.png', 'Im_RyanGosling.png', 'Im_LeonardoDiCaprio.png', 'Im_RobertDowneyJr.png', 'Im_RobertPattinson.png', 'Im_JustinTimberlake.png', 'Im_DanielCraig.png', 'Im_MattDamon.png'],diff,1,2.2083898999990197,11,0,
MIFA1204,train,neg,120,neg120_id20_im30.bmp_neg120_id6_im19.bmp,['Im_BradPitt.png', 'Im_PatrickDempsey.png', 'Im_ElijahWood.png', 'Im_RyanGosling.png', 'Im_LeonardoDiCaprio.png', 'Im_RobertDowneyJr.png', 'Im_RobertPattinson.png', 'Im_JustinTimberlake.png', 'Im_DanielCraig.png', 'Im_MattDamon.png'],same,0,2.7581310999994457,11,0,
MIFA1204,train,neg,30,neg30_id20_im3.bmp_neg30_id20_im30.bmp,['Im_BradPitt.png', 'Im_PatrickDempsey.png', 'Im_ElijahWood.png', 'Im_RyanGosling.png', 'Im_LeonardoDiCaprio.png', 'Im_RobertDowneyJr.png', 'Im_RobertPattinson.png', 'Im_JustinTimberlake.png', 'Im_DanielCraig.png', 'Im_MattDamon.png'],same,1,0.7418597000014415,12,0,
MIFA1204,train,neg,90,neg90_id19_im8.bmp_neg90_id3_im6.bmp,['Im_BradPitt.png', 'Im_PatrickDempsey.png', 'Im_ElijahWood.png', 'Im_RyanGosling.png', 'Im_LeonardoDiCaprio.png', 'Im_RobertDowneyJr.png', 'Im_RobertPattinson.png', 'Im_JustinTimberlake.png', 'Im_DanielCraig.png', 'Im_MattDamon.png'],same,0,0.9178203000010399,12,0,
MIFA1204,train,inv,0,pos0_id19_im4.bmp_pos0_id19_im27.bmp,['Im_BradPitt.png', 'Im_PatrickDempsey.png', 'Im_ElijahWood.png', 'Im_RyanGosling.png', 'Im_LeonardoDiCaprio.png', 'Im_RobertDowneyJr.png', 'Im_RobertPattinson.png', 'Im_JustinTimberlake.png', 'Im_DanielCraig.png', 'Im_MattDamon.png'],same,1,1.0253592999997636,13,0,
MIFA1204,train,inv,0,pos0_id3_im6.bmp_pos0_id19_im8.bmp,['Im_BradPitt.png', 'Im_PatrickDempsey.png', 'Im_ElijahWood.png', 'Im_RyanGosling.png', 'Im_LeonardoDiCaprio.png', 'Im_RobertDowneyJr.png', 'Im_RobertPattinson.png', 'Im_JustinTimberlake.png', 'Im_DanielCraig.png', 'Im_MattDamon.png'],diff,1,0.9833061999997881,14,0,
MIFA1204,train,inv,60,pos60_id13_im15.bmp_pos60_id17_im14.bmp,['Im_BradPitt.png', 'Im_PatrickDempsey.png', 'Im_ElijahWood.png', 'Im_RyanGosling.png', 'Im_LeonardoDiCaprio.png', 'Im_RobertDowneyJr.png', 'Im_RobertPattinson.png', 'Im_JustinTimberlake.png', 'Im_DanielCraig.png', 'Im_MattDamon.png'],diff,1,1.0083783000009134,15,0,
MIFA1204,train,inv,90,pos90_id3_im17.bmp_pos90_id4_im15.bmp,['Im_BradPitt.png', 'Im_PatrickDempsey.png', 'Im_ElijahWood.png', 'Im_RyanGosling.png', 'Im_LeonardoDiCaprio.png', 'Im_RobertDowneyJr.png', 'Im_RobertPattinson.png', 'Im_JustinTimberlake.png', 'Im_DanielCraig.png', 'Im_MattDamon.png'],diff,1,1.4165780000002997,16,0,
MIFA1204,train,inv,120,pos120_id6_im18.bmp_pos120_id19_im27.bmp,['Im_BradPitt.png', 'Im_PatrickDempsey.png', 'Im_ElijahWood.png', 'Im_RyanGosling.png', 'Im_LeonardoDiCaprio.png', 'Im_RobertDowneyJr.png', 'Im_RobertPattinson.png', 'Im_JustinTimberlake.png', 'Im_DanielCraig.png', 'Im_MattDamon.png'],same,0,1.033390699998563,16,0,
MIFA1204,train,inv,90,pos90_id20_im30.bmp_pos90_id20_im12.bmp,['Im_BradPitt.png', 'Im_PatrickDempsey.png', 'Im_ElijahWood.png', 'Im_RyanGosling.png', 'Im_LeonardoDiCaprio.png', 'Im_RobertDowneyJr.png', 'Im_RobertPattinson.png', 'Im_JustinTimberlake.png', 'Im_DanielCraig.png', 'Im_MattDamon.png'],diff,0,1.5833892000009655,16,0,
MIFA1204,train,inv,120,pos120_id18_im11.bmp_pos120_id18_im19.bmp,['Im_BradPitt.png', 'Im_PatrickDempsey.png', 'Im_ElijahWood.png', 'Im_RyanGosling.png', 'Im_LeonardoDiCaprio.png', 'Im_RobertDowneyJr.png', 'Im_RobertPattinson.png', 'Im_JustinTimberlake.png', 'Im_DanielCraig.png', 'Im_MattDamon.png'],same,1,0.6085511999990558,17,0,
MIFA1204,train,inv,150,pos150_id14_im24.bmp_pos150_id14_im18.bmp,['Im_BradPitt.png', 'Im_PatrickDempsey.png', 'Im_ElijahWood.png', 'Im_RyanGosling.png', 'Im_LeonardoDiCaprio.png', 'Im_RobertDowneyJr.png', 'Im_RobertPattinson.png', 'Im_JustinTimberlake.png', 'Im_DanielCraig.png', 'Im_MattDamon.png'],same,1,0.6669803999993746,18,0,
MIFA1204,train,inv,150,pos150_id10_im17.bmp_pos150_id10_im1.bmp,['Im_BradPitt.png', 'Im_PatrickDempsey.png', 'Im_ElijahWood.png', 'Im_RyanGosling.png', 'Im_LeonardoDiCaprio.png', 'Im_RobertDowneyJr.png', 'Im_RobertPattinson.png', 'Im_JustinTimberlake.png', 'Im_DanielCraig.png', 'Im_MattDamon.png'],diff,0,1.1590452000000369,18,0,
MIFA1204,train,inv,30,pos30_id14_im16.bmp_pos30_id14_im24.bmp,['Im_BradPitt.png', 'Im_PatrickDempsey.png', 'Im_ElijahWood.png', 'Im_RyanGosling.png', 'Im_LeonardoDiCaprio.png', 'Im_RobertDowneyJr.png', 'Im_RobertPattinson.png', 'Im_JustinTimberlake.png', 'Im_DanielCraig.png', 'Im_MattDamon.png'],same,1,0.933399699999427,19,0,
MIFA1204,train,inv,fs,posfs_id17_im8.bmp_posfs_id10_im17.bmp,['Im_BradPitt.png', 'Im_PatrickDempsey.png', 'Im_ElijahWood.png', 'Im_RyanGosling.png', 'Im_LeonardoDiCaprio.png', 'Im_RobertDowneyJr.png', 'Im_RobertPattinson.png', 'Im_JustinTimberlake.png', 'Im_DanielCraig.png', 'Im_MattDamon.png'],diff,1,0.933416899999429,20,0,
MIFA1204,train,inv,fs,posfs_id10_im17.bmp_posfs_id10_im18.bmp,['Im_BradPitt.png', 'Im_PatrickDempsey.png', 'Im_ElijahWood.png', 'Im_RyanGosling.png', 'Im_LeonardoDiCaprio.png', 'Im_RobertDowneyJr.png', 'Im_RobertPattinson.png', 'Im_JustinTimberlake.png', 'Im_DanielCraig.png', 'Im_MattDamon.png'],same,1,1.8252408000007563,21,0,
MIFA1204,train,inv,60,pos60_id10_im17.bmp_pos60_id10_im18.bmp,['Im_BradPitt.png', 'Im_PatrickDempsey.png', 'Im_ElijahWood.png', 'Im_RyanGosling.png', 'Im_LeonardoDiCaprio.png', 'Im_RobertDowneyJr.png', 'Im_RobertPattinson.png', 'Im_JustinTimberlake.png', 'Im_DanielCraig.png', 'Im_MattDamon.png'],diff,0,2.491621600000144,21,0,
MIFA1204,train,inv,30,pos30_id10_im17.bmp_pos30_id10_im1.bmp,['Im_BradPitt.png', 'Im_PatrickDempsey.png', 'Im_ElijahWood.png', 'Im_RyanGosling.png', 'Im_LeonardoDiCaprio.png', 'Im_RobertDowneyJr.png', 'Im_RobertPattinson.png', 'Im_JustinTimberlake.png', 'Im_DanielCraig.png', 'Im_MattDamon.png'],same,1,0.7836086000006617,22,0,
MIFA1204,train,pos,150,pos150_id17_im14.bmp_pos150_id13_im15.bmp,['Im_BradPitt.png', 'Im_PatrickDempsey.png', 'Im_ElijahWood.png', 'Im_RyanGosling.png', 'Im_LeonardoDiCaprio.png', 'Im_RobertDowneyJr.png', 'Im_RobertPattinson.png', 'Im_JustinTimberlake.png', 'Im_DanielCraig.png', 'Im_MattDamon.png'],same,0,0.9502173000000766,0,52.38095238095238,
MIFA1204,train,pos,fs,posfs_id17_im9.bmp_posfs_id17_im14.bmp,['Im_BradPitt.png', 'Im_PatrickDempsey.png', 'Im_ElijahWood.png', 'Im_RyanGosling.png', 'Im_LeonardoDiCaprio.png', 'Im_RobertDowneyJr.png', 'Im_RobertPattinson.png', 'Im_JustinTimberlake.png', 'Im_DanielCraig.png', 'Im_MattDamon.png'],same,1,0.7416418999982852,1,52.38095238095238,
MIFA1204,train,pos,0,pos0_id6_im12.bmp_pos0_id14_im24.bmp,['Im_BradPitt.png', 'Im_PatrickDempsey.png', 'Im_ElijahWood.png', 'Im_RyanGosling.png', 'Im_LeonardoDiCaprio.png', 'Im_RobertDowneyJr.png', 'Im_RobertPattinson.png', 'Im_JustinTimberlake.png', 'Im_DanielCraig.png', 'Im_MattDamon.png'],diff,1,0.5835387000006449,2,52.38095238095238,
MIFA1204,train,pos,120,pos120_id3_im6.bmp_pos120_id19_im8.bmp,['Im_BradPitt.png', 'Im_PatrickDempsey.png', 'Im_ElijahWood.png', 'Im_RyanGosling.png', 'Im_LeonardoDiCaprio.png', 'Im_RobertDowneyJr.png', 'Im_RobertPattinson.png', 'Im_JustinTimberlake.png', 'Im_DanielCraig.png', 'Im_MattDamon.png'],diff,1,0.7335492000001977,3,52.38095238095238,
MIFA1204,train,pos,120,pos120_id19_im4.bmp_pos120_id4_im20.bmp,['Im_BradPitt.png', 'Im_PatrickDempsey.png', 'Im_ElijahWood.png', 'Im_RyanGosling.png', 'Im_LeonardoDiCaprio.png', 'Im_RobertDowneyJr.png', 'Im_RobertPattinson.png', 'Im_JustinTimberlake.png', 'Im_DanielCraig.png', 'Im_MattDamon.png'],diff,1,0.583671599999434,4,52.38095238095238,
MIFA1204,train,pos,0,pos0_id13_im10.bmp_pos0_id13_im29.bmp,['Im_BradPitt.png', 'Im_PatrickDempsey.png', 'Im_ElijahWood.png', 'Im_RyanGosling.png', 'Im_LeonardoDiCaprio.png', 'Im_RobertDowneyJr.png', 'Im_RobertPattinson.png', 'Im_JustinTimberlake.png', 'Im_DanielCraig.png', 'Im_MattDamon.png'],diff,0,0.7334931999994296,4,52.38095238095238,
MIFA1204,train,pos,90,pos90_id13_im15.bmp_pos90_id13_im10.bmp,['Im_BradPitt.png', 'Im_PatrickDempsey.png', 'Im_ElijahWood.png', 'Im_RyanGosling.png', 'Im_LeonardoDiCaprio.png', 'Im_RobertDowneyJr.png', 'Im_RobertPattinson.png', 'Im_JustinTimberlake.png', 'Im_DanielCraig.png', 'Im_MattDamon.png'],same,1,0.7668049000003521,5,52.38095238095238,
MIFA1204,train,pos,150,pos150_id6_im18.bmp_pos150_id6_im19.bmp,['Im_BradPitt.png', 'Im_PatrickDempsey.png', 'Im_ElijahWood.png', 'Im_RyanGosling.png', 'Im_LeonardoDiCaprio.png', 'Im_RobertDowneyJr.png', 'Im_RobertPattinson.png', 'Im_JustinTimberlake.png', 'Im_DanielCraig.png', 'Im_MattDamon.png'],same,1,0.5584468999986711,6,52.38095238095238,
MIFA1204,train,pos,30,pos30_id3_im6.bmp_pos30_id19_im8.bmp,['Im_BradPitt.png', 'Im_PatrickDempsey.png', 'Im_ElijahWood.png', 'Im_RyanGosling.png', 'Im_LeonardoDiCaprio.png', 'Im_RobertDowneyJr.png', 'Im_RobertPattinson.png', 'Im_JustinTimberlake.png', 'Im_DanielCraig.png', 'Im_MattDamon.png'],diff,1,1.3166356000001542,7,52.38095238095238,
MIFA1204,train,pos,60,pos60_id6_im12.bmp_pos60_id6_im19.bmp,['Im_BradPitt.png', 'Im_PatrickDempsey.png', 'Im_ElijahWood.png', 'Im_RyanGosling.png', 'Im_LeonardoDiCaprio.png', 'Im_RobertDowneyJr.png', 'Im_RobertPattinson.png', 'Im_JustinTimberlake.png', 'Im_DanielCraig.png', 'Im_MattDamon.png'],same,1,0.7333860999988246,8,52.38095238095238,
MIFA1204,train,pos,30,pos30_id3_im17.bmp_pos30_id3_im8.bmp,['Im_BradPitt.png', 'Im_PatrickDempsey.png', 'Im_ElijahWood.png', 'Im_RyanGosling.png', 'Im_LeonardoDiCaprio.png', 'Im_RobertDowneyJr.png', 'Im_RobertPattinson.png', 'Im_JustinTimberlake.png', 'Im_DanielCraig.png', 'Im_MattDamon.png'],same,1,0.8416651000006823,9,52.38095238095238,
MIFA1204,train,pos,90,pos90_id19_im4.bmp_pos90_id19_im27.bmp,['Im_BradPitt.png', 'Im_PatrickDempsey.png', 'Im_ElijahWood.png', 'Im_RyanGosling.png', 'Im_LeonardoDiCaprio.png', 'Im_RobertDowneyJr.png', 'Im_RobertPattinson.png', 'Im_JustinTimberlake.png', 'Im_DanielCraig.png', 'Im_MattDamon.png'],same,1,0.43355569999948784,10,52.38095238095238,
MIFA1204,train,pos,60,pos60_id3_im6.bmp_pos60_id3_im17.bmp,['Im_BradPitt.png', 'Im_PatrickDempsey.png', 'Im_ElijahWood.png', 'Im_RyanGosling.png', 'Im_LeonardoDiCaprio.png', 'Im_RobertDowneyJr.png', 'Im_RobertPattinson.png', 'Im_JustinTimberlake.png', 'Im_DanielCraig.png', 'Im_MattDamon.png'],same,1,1.275062300001082,11,52.38095238095238,
MIFA1204,train,pos,fs,posfs_id20_im3.bmp_posfs_id10_im17.bmp,['Im_BradPitt.png', 'Im_PatrickDempsey.png', 'Im_ElijahWood.png', 'Im_RyanGosling.png', 'Im_LeonardoDiCaprio.png', 'Im_RobertDowneyJr.png', 'Im_RobertPattinson.png', 'Im_JustinTimberlake.png', 'Im_DanielCraig.png', 'Im_MattDamon.png'],diff,1,0.5253413999998884,12,52.38095238095238,
MIFA1204,train,neg,30,neg30_id18_im18.bmp_neg30_id6_im18.bmp,['Im_BradPitt.png', 'Im_PatrickDempsey.png', 'Im_ElijahWood.png', 'Im_RyanGosling.png', 'Im_LeonardoDiCaprio.png', 'Im_RobertDowneyJr.png', 'Im_RobertPattinson.png', 'Im_JustinTimberlake.png', 'Im_DanielCraig.png', 'Im_MattDamon.png'],diff,1,0.683440700000574,13,52.38095238095238,
MIFA1204,train,neg,90,neg90_id14_im16.bmp_neg90_id19_im27.bmp,['Im_BradPitt.png', 'Im_PatrickDempsey.png', 'Im_ElijahWood.png', 'Im_RyanGosling.png', 'Im_LeonardoDiCaprio.png', 'Im_RobertDowneyJr.png', 'Im_RobertPattinson.png', 'Im_JustinTimberlake.png', 'Im_DanielCraig.png', 'Im_MattDamon.png'],same,0,0.7250671999991027,13,52.38095238095238,
MIFA1204,train,neg,30,neg30_id10_im17.bmp_neg30_id17_im8.bmp,['Im_BradPitt.png', 'Im_PatrickDempsey.png', 'Im_ElijahWood.png', 'Im_RyanGosling.png', 'Im_LeonardoDiCaprio.png', 'Im_RobertDowneyJr.png', 'Im_RobertPattinson.png', 'Im_JustinTimberlake.png', 'Im_DanielCraig.png', 'Im_MattDamon.png'],diff,1,0.5749908999987383,14,52.38095238095238,
MIFA1204,train,neg,fs,negfs_id4_im20.bmp_negfs_id19_im4.bmp,['Im_BradPitt.png', 'Im_PatrickDempsey.png', 'Im_ElijahWood.png', 'Im_RyanGosling.png', 'Im_LeonardoDiCaprio.png', 'Im_RobertDowneyJr.png', 'Im_RobertPattinson.png', 'Im_JustinTimberlake.png', 'Im_DanielCraig.png', 'Im_MattDamon.png'],diff,1,0.43353100000058475,15,52.38095238095238,
MIFA1204,train,neg,120,neg120_id18_im19.bmp_neg120_id18_im11.bmp,['Im_BradPitt.png', 'Im_PatrickDempsey.png', 'Im_ElijahWood.png', 'Im_RyanGosling.png', 'Im_LeonardoDiCaprio.png', 'Im_RobertDowneyJr.png', 'Im_RobertPattinson.png', 'Im_JustinTimberlake.png', 'Im_DanielCraig.png', 'Im_MattDamon.png'],same,1,0.4249439999985043,16,52.38095238095238,
MIFA1204,train,neg,fs,negfs_id4_im15.bmp_negfs_id10_im1.bmp,['Im_BradPitt.png', 'Im_PatrickDempsey.png', 'Im_ElijahWood.png', 'Im_RyanGosling.png', 'Im_LeonardoDiCaprio.png', 'Im_RobertDowneyJr.png', 'Im_RobertPattinson.png', 'Im_JustinTimberlake.png', 'Im_DanielCraig.png', 'Im_MattDamon.png'],diff,1,0.5917391999992105,17,52.38095238095238,
MIFA1204,train,neg,150,neg150_id4_im7.bmp_neg150_id4_im20.bmp,['Im_BradPitt.png', 'Im_PatrickDempsey.png', 'Im_ElijahWood.png', 'Im_RyanGosling.png', 'Im_LeonardoDiCaprio.png', 'Im_RobertDowneyJr.png', 'Im_RobertPattinson.png', 'Im_JustinTimberlake.png', 'Im_DanielCraig.png', 'Im_MattDamon.png'],diff,0,1.0669417999997677,17,52.38095238095238,
MIFA1204,train,neg,60,neg60_id19_im4.bmp_neg60_id4_im7.bmp,['Im_BradPitt.png', 'Im_PatrickDempsey.png', 'Im_ElijahWood.png', 'Im_RyanGosling.png', 'Im_LeonardoDiCaprio.png', 'Im_RobertDowneyJr.png', 'Im_RobertPattinson.png', 'Im_JustinTimberlake.png', 'Im_DanielCraig.png', 'Im_MattDamon.png'],same,0,0.6251164999994216,17,52.38095238095238,
MIFA1204,train,neg,120,neg120_id13_im15.bmp_neg120_id18_im11.bmp,['Im_BradPitt.png', 'Im_PatrickDempsey.png', 'Im_ElijahWood.png', 'Im_RyanGosling.png', 'Im_LeonardoDiCaprio.png', 'Im_RobertDowneyJr.png', 'Im_RobertPattinson.png', 'Im_JustinTimberlake.png', 'Im_DanielCraig.png', 'Im_MattDamon.png'],same,0,1.8165422000001854,17,52.38095238095238,
MIFA1204,train,neg,150,neg150_id17_im8.bmp_neg150_id17_im14.bmp,['Im_BradPitt.png', 'Im_PatrickDempsey.png', 'Im_ElijahWood.png', 'Im_RyanGosling.png', 'Im_LeonardoDiCaprio.png', 'Im_RobertDowneyJr.png', 'Im_RobertPattinson.png', 'Im_JustinTimberlake.png', 'Im_DanielCraig.png', 'Im_MattDamon.png'],same,1,0.7750285000001895,18,52.38095238095238,
MIFA1204,train,neg,0,neg0_id4_im15.bmp_neg0_id4_im20.bmp,['Im_BradPitt.png', 'Im_PatrickDempsey.png', 'Im_ElijahWood.png', 'Im_RyanGosling.png', 'Im_LeonardoDiCaprio.png', 'Im_RobertDowneyJr.png', 'Im_RobertPattinson.png', 'Im_JustinTimberlake.png', 'Im_DanielCraig.png', 'Im_MattDamon.png'],same,1,0.5252153999990696,19,52.38095238095238,
MIFA1204,train,neg,60,neg60_id13_im10.bmp_neg60_id14_im18.bmp,['Im_BradPitt.png', 'Im_PatrickDempsey.png', 'Im_ElijahWood.png', 'Im_RyanGosling.png', 'Im_LeonardoDiCaprio.png', 'Im_RobertDowneyJr.png', 'Im_RobertPattinson.png', 'Im_JustinTimberlake.png', 'Im_DanielCraig.png', 'Im_MattDamon.png'],same,0,0.716690599998401,19,52.38095238095238,
MIFA1204,train,neg,90,neg90_id18_im18.bmp_neg90_id18_im19.bmp,['Im_BradPitt.png', 'Im_PatrickDempsey.png', 'Im_ElijahWood.png', 'Im_RyanGosling.png', 'Im_LeonardoDiCaprio.png', 'Im_RobertDowneyJr.png', 'Im_RobertPattinson.png', 'Im_JustinTimberlake.png', 'Im_DanielCraig.png', 'Im_MattDamon.png'],same,1,0.6002609999995911,20,52.38095238095238,
MIFA1204,train,neg,0,neg0_id19_im4.bmp_neg0_id4_im7.bmp,['Im_BradPitt.png', 'Im_PatrickDempsey.png', 'Im_ElijahWood.png', 'Im_RyanGosling.png', 'Im_LeonardoDiCaprio.png', 'Im_RobertDowneyJr.png', 'Im_RobertPattinson.png', 'Im_JustinTimberlake.png', 'Im_DanielCraig.png', 'Im_MattDamon.png'],diff,1,0.6170750000001135,21,52.38095238095238,
MIFA1204,train,pos,90,pos90_id19_im8.bmp_pos90_id19_im27.bmp,['Im_BradPitt.png', 'Im_PatrickDempsey.png', 'Im_ElijahWood.png', 'Im_RyanGosling.png', 'Im_LeonardoDiCaprio.png', 'Im_RobertDowneyJr.png', 'Im_RobertPattinson.png', 'Im_JustinTimberlake.png', 'Im_DanielCraig.png', 'Im_MattDamon.png'],same,1,0.642107899999246,22,52.38095238095238,
MIFA1204,train,pos,30,pos30_id18_im19.bmp_pos30_id13_im10.bmp,['Im_BradPitt.png', 'Im_PatrickDempsey.png', 'Im_ElijahWood.png', 'Im_RyanGosling.png', 'Im_LeonardoDiCaprio.png', 'Im_RobertDowneyJr.png', 'Im_RobertPattinson.png', 'Im_JustinTimberlake.png', 'Im_DanielCraig.png', 'Im_MattDamon.png'],diff,1,0.5250672000001941,23,52.38095238095238,
MIFA1204,train,pos,0,pos0_id18_im18.bmp_pos0_id6_im18.bmp,['Im_BradPitt.png', 'Im_PatrickDempsey.png', 'Im_ElijahWood.png', 'Im_RyanGosling.png', 'Im_LeonardoDiCaprio.png', 'Im_RobertDowneyJr.png', 'Im_RobertPattinson.png', 'Im_JustinTimberlake.png', 'Im_DanielCraig.png', 'Im_MattDamon.png'],diff,1,1.6665623000008054,24,52.38095238095238,
MIFA1204,train,pos,fs,posfs_id10_im17.bmp_posfs_id10_im1.bmp,['Im_BradPitt.png', 'Im_PatrickDempsey.png', 'Im_ElijahWood.png', 'Im_RyanGosling.png', 'Im_LeonardoDiCaprio.png', 'Im_RobertDowneyJr.png', 'Im_RobertPattinson.png', 'Im_JustinTimberlake.png', 'Im_DanielCraig.png', 'Im_MattDamon.png'],same,1,0.6418044000001828,25,52.38095238095238,
MIFA1204,train,pos,150,pos150_id17_im9.bmp_pos150_id20_im3.bmp,['Im_BradPitt.png', 'Im_PatrickDempsey.png', 'Im_ElijahWood.png', 'Im_RyanGosling.png', 'Im_LeonardoDiCaprio.png', 'Im_RobertDowneyJr.png', 'Im_RobertPattinson.png', 'Im_JustinTimberlake.png', 'Im_DanielCraig.png', 'Im_MattDamon.png'],diff,1,0.758398699999816,26,52.38095238095238,
MIFA1204,train,pos,150,pos150_id4_im7.bmp_pos150_id19_im4.bmp,['Im_BradPitt.png', 'Im_PatrickDempsey.png', 'Im_ElijahWood.png', 'Im_RyanGosling.png', 'Im_LeonardoDiCaprio.png', 'Im_RobertDowneyJr.png', 'Im_RobertPattinson.png', 'Im_JustinTimberlake.png', 'Im_DanielCraig.png', 'Im_MattDamon.png'],diff,1,0.6668503000000783,27,52.38095238095238,
MIFA1204,train,pos,60,pos60_id17_im14.bmp_pos60_id20_im30.bmp,['Im_BradPitt.png', 'Im_PatrickDempsey.png', 'Im_ElijahWood.png', 'Im_RyanGosling.png', 'Im_LeonardoDiCaprio.png', 'Im_RobertDowneyJr.png', 'Im_RobertPattinson.png', 'Im_JustinTimberlake.png', 'Im_DanielCraig.png', 'Im_MattDamon.png'],diff,1,0.7918618000003335,28,52.38095238095238,
MIFA1204,train,pos,120,pos120_id10_im1.bmp_pos120_id10_im18.bmp,['Im_BradPitt.png', 'Im_PatrickDempsey.png', 'Im_ElijahWood.png', 'Im_RyanGosling.png', 'Im_LeonardoDiCaprio.png', 'Im_RobertDowneyJr.png', 'Im_RobertPattinson.png', 'Im_JustinTimberlake.png', 'Im_DanielCraig.png', 'Im_MattDamon.png'],same,1,0.7416419000001042,29,52.38095238095238,
MIFA1204,train,pos,120,pos120_id20_im12.bmp_pos120_id20_im30.bmp,['Im_BradPitt.png', 'Im_PatrickDempsey.png', 'Im_ElijahWood.png', 'Im_RyanGosling.png', 'Im_LeonardoDiCaprio.png', 'Im_RobertDowneyJr.png', 'Im_RobertPattinson.png', 'Im_JustinTimberlake.png', 'Im_DanielCraig.png', 'Im_MattDamon.png'],same,1,0.558561900001223,30,52.38095238095238,
MIFA1204,train,pos,fs,posfs_id17_im9.bmp_posfs_id17_im8.bmp,['Im_BradPitt.png', 'Im_PatrickDempsey.png', 'Im_ElijahWood.png', 'Im_RyanGosling.png', 'Im_LeonardoDiCaprio.png', 'Im_RobertDowneyJr.png', 'Im_RobertPattinson.png', 'Im_JustinTimberlake.png', 'Im_DanielCraig.png', 'Im_MattDamon.png'],same,1,1.1999801000001753,31,52.38095238095238,
MIFA1204,train,pos,0,pos0_id6_im12.bmp_pos0_id6_im18.bmp,['Im_BradPitt.png', 'Im_PatrickDempsey.png', 'Im_ElijahWood.png', 'Im_RyanGosling.png', 'Im_LeonardoDiCaprio.png', 'Im_RobertDowneyJr.png', 'Im_RobertPattinson.png', 'Im_JustinTimberlake.png', 'Im_DanielCraig.png', 'Im_MattDamon.png'],same,1,0.42526729999917734,32,52.38095238095238,
MIFA1204,train,pos,90,pos90_id3_im17.bmp_pos90_id4_im15.bmp,['Im_BradPitt.png', 'Im_PatrickDempsey.png', 'Im_ElijahWood.png', 'Im_RyanGosling.png', 'Im_LeonardoDiCaprio.png', 'Im_RobertDowneyJr.png', 'Im_RobertPattinson.png', 'Im_JustinTimberlake.png', 'Im_DanielCraig.png', 'Im_MattDamon.png'],diff,1,0.5170532000011008,33,52.38095238095238,
MIFA1204,train,pos,30,pos30_id14_im16.bmp_pos30_id14_im24.bmp,['Im_BradPitt.png', 'Im_PatrickDempsey.png', 'Im_ElijahWood.png', 'Im_RyanGosling.png', 'Im_LeonardoDiCaprio.png', 'Im_RobertDowneyJr.png', 'Im_RobertPattinson.png', 'Im_JustinTimberlake.png', 'Im_DanielCraig.png', 'Im_MattDamon.png'],same,1,0.4251733000000968,34,52.38095238095238,
MIFA1204,train,pos,60,pos60_id3_im8.bmp_pos60_id17_im8.bmp,['Im_BradPitt.png', 'Im_PatrickDempsey.png', 'Im_ElijahWood.png', 'Im_RyanGosling.png', 'Im_LeonardoDiCaprio.png', 'Im_RobertDowneyJr.png', 'Im_RobertPattinson.png', 'Im_JustinTimberlake.png', 'Im_DanielCraig.png', 'Im_MattDamon.png'],diff,1,1.6416776000005484,35,52.38095238095238,
MIFA1204,train,inv,60,pos60_id6_im18.bmp_pos60_id6_im12.bmp,['Im_BradPitt.png', 'Im_PatrickDempsey.png', 'Im_ElijahWood.png', 'Im_RyanGosling.png', 'Im_LeonardoDiCaprio.png', 'Im_RobertDowneyJr.png', 'Im_RobertPattinson.png', 'Im_JustinTimberlake.png', 'Im_DanielCraig.png', 'Im_MattDamon.png'],same,1,1.5083836000012525,1,83.33333333333333,
MIFA1204,train,inv,150,pos150_id3_im17.bmp_pos150_id18_im11.bmp,['Im_BradPitt.png', 'Im_PatrickDempsey.png', 'Im_ElijahWood.png', 'Im_RyanGosling.png', 'Im_LeonardoDiCaprio.png', 'Im_RobertDowneyJr.png', 'Im_RobertPattinson.png', 'Im_JustinTimberlake.png', 'Im_DanielCraig.png', 'Im_MattDamon.png'],diff,1,3.6919906999992236,2,83.33333333333333,
MIFA1204,train,inv,30,pos30_id17_im8.bmp_pos30_id10_im17.bmp,['Im_BradPitt.png', 'Im_PatrickDempsey.png', 'Im_ElijahWood.png', 'Im_RyanGosling.png', 'Im_LeonardoDiCaprio.png', 'Im_RobertDowneyJr.png', 'Im_RobertPattinson.png', 'Im_JustinTimberlake.png', 'Im_DanielCraig.png', 'Im_MattDamon.png'],diff,1,0.8417066000001796,3,83.33333333333333,
MIFA1204,train,inv,60,pos60_id6_im18.bmp_pos60_id19_im27.bmp,['Im_BradPitt.png', 'Im_PatrickDempsey.png', 'Im_ElijahWood.png', 'Im_RyanGosling.png', 'Im_LeonardoDiCaprio.png', 'Im_RobertDowneyJr.png', 'Im_RobertPattinson.png', 'Im_JustinTimberlake.png', 'Im_DanielCraig.png', 'Im_MattDamon.png'],diff,1,2.5083799000003637,4,83.33333333333333,
MIFA1204,train,inv,0,pos0_id10_im1.bmp_pos0_id10_im17.bmp,['Im_BradPitt.png', 'Im_PatrickDempsey.png', 'Im_ElijahWood.png', 'Im_RyanGosling.png', 'Im_LeonardoDiCaprio.png', 'Im_RobertDowneyJr.png', 'Im_RobertPattinson.png', 'Im_JustinTimberlake.png', 'Im_DanielCraig.png', 'Im_MattDamon.png'],same,1,0.7665501000010408,5,83.33333333333333,
MIFA1204,train,inv,fs,posfs_id19_im4.bmp_posfs_id4_im7.bmp,['Im_BradPitt.png', 'Im_PatrickDempsey.png', 'Im_ElijahWood.png', 'Im_RyanGosling.png', 'Im_LeonardoDiCaprio.png', 'Im_RobertDowneyJr.png', 'Im_RobertPattinson.png', 'Im_JustinTimberlake.png', 'Im_DanielCraig.png', 'Im_MattDamon.png'],diff,1,0.5171322999995027,6,83.33333333333333,
MIFA1204,train,inv,0,pos0_id13_im15.bmp_pos0_id13_im10.bmp,['Im_BradPitt.png', 'Im_PatrickDempsey.png', 'Im_ElijahWood.png', 'Im_RyanGosling.png', 'Im_LeonardoDiCaprio.png', 'Im_RobertDowneyJr.png', 'Im_RobertPattinson.png', 'Im_JustinTimberlake.png', 'Im_DanielCraig.png', 'Im_MattDamon.png'],same,1,1.0168284999999742,7,83.33333333333333,
MIFA1204,train,inv,120,pos120_id20_im12.bmp_pos120_id13_im29.bmp,['Im_BradPitt.png', 'Im_PatrickDempsey.png', 'Im_ElijahWood.png', 'Im_RyanGosling.png', 'Im_LeonardoDiCaprio.png', 'Im_RobertDowneyJr.png', 'Im_RobertPattinson.png', 'Im_JustinTimberlake.png', 'Im_DanielCraig.png', 'Im_MattDamon.png'],diff,1,0.7419762000008632,8,83.33333333333333,
MIFA1204,train,inv,150,pos150_id18_im19.bmp_pos150_id13_im10.bmp,['Im_BradPitt.png', 'Im_PatrickDempsey.png', 'Im_ElijahWood.png', 'Im_RyanGosling.png', 'Im_LeonardoDiCaprio.png', 'Im_RobertDowneyJr.png', 'Im_RobertPattinson.png', 'Im_JustinTimberlake.png', 'Im_DanielCraig.png', 'Im_MattDamon.png'],diff,1,0.7169831999999587,9,83.33333333333333,
MIFA1204,train,inv,90,pos90_id18_im19.bmp_pos90_id13_im10.bmp,['Im_BradPitt.png', 'Im_PatrickDempsey.png', 'Im_ElijahWood.png', 'Im_RyanGosling.png', 'Im_LeonardoDiCaprio.png', 'Im_RobertDowneyJr.png', 'Im_RobertPattinson.png', 'Im_JustinTimberlake.png', 'Im_DanielCraig.png', 'Im_MattDamon.png'],same,0,0.7923749000001408,9,83.33333333333333,
MIFA1204,train,inv,30,pos30_id13_im10.bmp_pos30_id13_im15.bmp,['Im_BradPitt.png', 'Im_PatrickDempsey.png', 'Im_ElijahWood.png', 'Im_RyanGosling.png', 'Im_LeonardoDiCaprio.png', 'Im_RobertDowneyJr.png', 'Im_RobertPattinson.png', 'Im_JustinTimberlake.png', 'Im_DanielCraig.png', 'Im_MattDamon.png'],diff,0,0.7832581999991817,9,83.33333333333333,
MIFA1204,train,inv,fs,posfs_id14_im18.bmp_posfs_id4_im20.bmp,['Im_BradPitt.png', 'Im_PatrickDempsey.png', 'Im_ElijahWood.png', 'Im_RyanGosling.png', 'Im_LeonardoDiCaprio.png', 'Im_RobertDowneyJr.png', 'Im_RobertPattinson.png', 'Im_JustinTimberlake.png', 'Im_DanielCraig.png', 'Im_MattDamon.png'],diff,1,0.5167192999997496,10,83.33333333333333,
MIFA1204,train,inv,120,pos120_id18_im18.bmp_pos120_id6_im19.bmp,['Im_BradPitt.png', 'Im_PatrickDempsey.png', 'Im_ElijahWood.png', 'Im_RyanGosling.png', 'Im_LeonardoDiCaprio.png', 'Im_RobertDowneyJr.png', 'Im_RobertPattinson.png', 'Im_JustinTimberlake.png', 'Im_DanielCraig.png', 'Im_MattDamon.png'],same,0,0.5002155999991373,10,83.33333333333333,
MIFA1204,train,inv,90,pos90_id6_im18.bmp_pos90_id6_im19.bmp,['Im_BradPitt.png', 'Im_PatrickDempsey.png', 'Im_ElijahWood.png', 'Im_RyanGosling.png', 'Im_LeonardoDiCaprio.png', 'Im_RobertDowneyJr.png', 'Im_RobertPattinson.png', 'Im_JustinTimberlake.png', 'Im_DanielCraig.png', 'Im_MattDamon.png'],same,1,1.73325769999974,11,83.33333333333333,
MIFA1204,train,inv,120,pos120_id17_im14.bmp_pos120_id20_im30.bmp,['Im_BradPitt.png', 'Im_PatrickDempsey.png', 'Im_ElijahWood.png', 'Im_RyanGosling.png', 'Im_LeonardoDiCaprio.png', 'Im_RobertDowneyJr.png', 'Im_RobertPattinson.png', 'Im_JustinTimberlake.png', 'Im_DanielCraig.png', 'Im_MattDamon.png'],same,0,0.8668918000003032,11,83.33333333333333,
MIFA1204,train,inv,fs,posfs_id6_im18.bmp_posfs_id6_im12.bmp,['Im_BradPitt.png', 'Im_PatrickDempsey.png', 'Im_ElijahWood.png', 'Im_RyanGosling.png', 'Im_LeonardoDiCaprio.png', 'Im_RobertDowneyJr.png', 'Im_RobertPattinson.png', 'Im_JustinTimberlake.png', 'Im_DanielCraig.png', 'Im_MattDamon.png'],same,1,0.9251280999997107,12,83.33333333333333,
MIFA1204,train,inv,fs,posfs_id18_im19.bmp_posfs_id18_im18.bmp,['Im_BradPitt.png', 'Im_PatrickDempsey.png', 'Im_ElijahWood.png', 'Im_RyanGosling.png', 'Im_LeonardoDiCaprio.png', 'Im_RobertDowneyJr.png', 'Im_RobertPattinson.png', 'Im_JustinTimberlake.png', 'Im_DanielCraig.png', 'Im_MattDamon.png'],same,1,1.0083602999984578,13,83.33333333333333,
MIFA1204,train,inv,60,pos60_id17_im9.bmp_pos60_id3_im8.bmp,['Im_BradPitt.png', 'Im_PatrickDempsey.png', 'Im_ElijahWood.png', 'Im_RyanGosling.png', 'Im_LeonardoDiCaprio.png', 'Im_RobertDowneyJr.png', 'Im_RobertPattinson.png', 'Im_JustinTimberlake.png', 'Im_DanielCraig.png', 'Im_MattDamon.png'],diff,1,1.0833297000008315,14,83.33333333333333,
MIFA1204,train,inv,60,pos60_id4_im7.bmp_pos60_id4_im20.bmp,['Im_BradPitt.png', 'Im_PatrickDempsey.png', 'Im_ElijahWood.png', 'Im_RyanGosling.png', 'Im_LeonardoDiCaprio.png', 'Im_RobertDowneyJr.png', 'Im_RobertPattinson.png', 'Im_JustinTimberlake.png', 'Im_DanielCraig.png', 'Im_MattDamon.png'],same,1,0.783575399998881,15,83.33333333333333,
MIFA1204,train,inv,90,pos90_id6_im12.bmp_pos90_id3_im6.bmp,['Im_BradPitt.png', 'Im_PatrickDempsey.png', 'Im_ElijahWood.png', 'Im_RyanGosling.png', 'Im_LeonardoDiCaprio.png', 'Im_RobertDowneyJr.png', 'Im_RobertPattinson.png', 'Im_JustinTimberlake.png', 'Im_DanielCraig.png', 'Im_MattDamon.png'],diff,1,0.7334961000015028,16,83.33333333333333,
MIFA1204,train,inv,90,pos90_id14_im16.bmp_pos90_id4_im7.bmp,['Im_BradPitt.png', 'Im_PatrickDempsey.png', 'Im_ElijahWood.png', 'Im_RyanGosling.png', 'Im_LeonardoDiCaprio.png', 'Im_RobertDowneyJr.png', 'Im_RobertPattinson.png', 'Im_JustinTimberlake.png', 'Im_DanielCraig.png', 'Im_MattDamon.png'],diff,1,2.2670134999989386,17,83.33333333333333,
MIFA1204,train,inv,0,pos0_id10_im18.bmp_pos0_id10_im17.bmp,['Im_BradPitt.png', 'Im_PatrickDempsey.png', 'Im_ElijahWood.png', 'Im_RyanGosling.png', 'Im_LeonardoDiCaprio.png', 'Im_RobertDowneyJr.png', 'Im_RobertPattinson.png', 'Im_JustinTimberlake.png', 'Im_DanielCraig.png', 'Im_MattDamon.png'],same,1,0.8833604999999807,18,83.33333333333333,
MIFA1204,train,inv,120,pos120_id10_im18.bmp_pos120_id19_im8.bmp,['Im_BradPitt.png', 'Im_PatrickDempsey.png', 'Im_ElijahWood.png', 'Im_RyanGosling.png', 'Im_LeonardoDiCaprio.png', 'Im_RobertDowneyJr.png', 'Im_RobertPattinson.png', 'Im_JustinTimberlake.png', 'Im_DanielCraig.png', 'Im_MattDamon.png'],diff,1,0.9334066000010353,19,83.33333333333333,
MIFA1204,train,inv,150,pos150_id17_im9.bmp_pos150_id20_im3.bmp,['Im_BradPitt.png', 'Im_PatrickDempsey.png', 'Im_ElijahWood.png', 'Im_RyanGosling.png', 'Im_LeonardoDiCaprio.png', 'Im_RobertDowneyJr.png', 'Im_RobertPattinson.png', 'Im_JustinTimberlake.png', 'Im_DanielCraig.png', 'Im_MattDamon.png'],same,0,0.7500442000000476,19,83.33333333333333,
MIFA1204,train,inv,0,pos0_id18_im11.bmp_pos0_id13_im15.bmp,['Im_BradPitt.png', 'Im_PatrickDempsey.png', 'Im_ElijahWood.png', 'Im_RyanGosling.png', 'Im_LeonardoDiCaprio.png', 'Im_RobertDowneyJr.png', 'Im_RobertPattinson.png', 'Im_JustinTimberlake.png', 'Im_DanielCraig.png', 'Im_MattDamon.png'],same,0,0.6751141000004282,19,83.33333333333333,
MIFA1204,train,inv,30,pos30_id19_im27.bmp_pos30_id19_im4.bmp,['Im_BradPitt.png', 'Im_PatrickDempsey.png', 'Im_ElijahWood.png', 'Im_RyanGosling.png', 'Im_LeonardoDiCaprio.png', 'Im_RobertDowneyJr.png', 'Im_RobertPattinson.png', 'Im_JustinTimberlake.png', 'Im_DanielCraig.png', 'Im_MattDamon.png'],diff,0,0.42510779999975057,19,83.33333333333333,
MIFA1204,train,inv,150,pos150_id6_im12.bmp_pos150_id3_im6.bmp,['Im_BradPitt.png', 'Im_PatrickDempsey.png', 'Im_ElijahWood.png', 'Im_RyanGosling.png', 'Im_LeonardoDiCaprio.png', 'Im_RobertDowneyJr.png', 'Im_RobertPattinson.png', 'Im_JustinTimberlake.png', 'Im_DanielCraig.png', 'Im_MattDamon.png'],diff,1,0.7087431999989349,20,83.33333333333333,
MIFA1204,train,inv,30,pos30_id20_im3.bmp_pos30_id20_im30.bmp,['Im_BradPitt.png', 'Im_PatrickDempsey.png', 'Im_ElijahWood.png', 'Im_RyanGosling.png', 'Im_LeonardoDiCaprio.png', 'Im_RobertDowneyJr.png', 'Im_RobertPattinson.png', 'Im_JustinTimberlake.png', 'Im_DanielCraig.png', 'Im_MattDamon.png'],same,1,0.5752618000005896,21,83.33333333333333,
MIFA1204,train,pos,60,pos60_id18_im19.bmp_pos60_id18_im18.bmp,['Im_BradPitt.png', 'Im_PatrickDempsey.png', 'Im_ElijahWood.png', 'Im_RyanGosling.png', 'Im_LeonardoDiCaprio.png', 'Im_RobertDowneyJr.png', 'Im_RobertPattinson.png', 'Im_JustinTimberlake.png', 'Im_DanielCraig.png', 'Im_MattDamon.png'],same,1,0.5502923000003648,22,83.33333333333333,
MIFA1204,train,pos,120,pos120_id3_im17.bmp_pos120_id3_im8.bmp,['Im_BradPitt.png', 'Im_PatrickDempsey.png', 'Im_ElijahWood.png', 'Im_RyanGosling.png', 'Im_LeonardoDiCaprio.png', 'Im_RobertDowneyJr.png', 'Im_RobertPattinson.png', 'Im_JustinTimberlake.png', 'Im_DanielCraig.png', 'Im_MattDamon.png'],same,1,0.4167308999985835,23,83.33333333333333,
MIFA1204,train,pos,0,pos0_id14_im16.bmp_pos0_id14_im18.bmp,['Im_BradPitt.png', 'Im_PatrickDempsey.png', 'Im_ElijahWood.png', 'Im_RyanGosling.png', 'Im_LeonardoDiCaprio.png', 'Im_RobertDowneyJr.png', 'Im_RobertPattinson.png', 'Im_JustinTimberlake.png', 'Im_DanielCraig.png', 'Im_MattDamon.png'],same,1,0.4166341999989527,24,83.33333333333333,
MIFA1204,train,pos,fs,posfs_id19_im4.bmp_posfs_id19_im27.bmp,['Im_BradPitt.png', 'Im_PatrickDempsey.png', 'Im_ElijahWood.png', 'Im_RyanGosling.png', 'Im_LeonardoDiCaprio.png', 'Im_RobertDowneyJr.png', 'Im_RobertPattinson.png', 'Im_JustinTimberlake.png', 'Im_DanielCraig.png', 'Im_MattDamon.png'],same,1,0.4165964999992866,25,83.33333333333333,
MIFA1204,train,pos,90,pos90_id17_im9.bmp_pos90_id17_im8.bmp,['Im_BradPitt.png', 'Im_PatrickDempsey.png', 'Im_ElijahWood.png', 'Im_RyanGosling.png', 'Im_LeonardoDiCaprio.png', 'Im_RobertDowneyJr.png', 'Im_RobertPattinson.png', 'Im_JustinTimberlake.png', 'Im_DanielCraig.png', 'Im_MattDamon.png'],same,1,0.9081944000008662,26,83.33333333333333,
MIFA1204,train,pos,90,pos90_id20_im3.bmp_pos90_id20_im12.bmp,['Im_BradPitt.png', 'Im_PatrickDempsey.png', 'Im_ElijahWood.png', 'Im_RyanGosling.png', 'Im_LeonardoDiCaprio.png', 'Im_RobertDowneyJr.png', 'Im_RobertPattinson.png', 'Im_JustinTimberlake.png', 'Im_DanielCraig.png', 'Im_MattDamon.png'],same,1,0.9333317999989958,27,83.33333333333333,
MIFA1204,train,pos,120,pos120_id13_im10.bmp_pos120_id13_im29.bmp,['Im_BradPitt.png', 'Im_PatrickDempsey.png', 'Im_ElijahWood.png', 'Im_RyanGosling.png', 'Im_LeonardoDiCaprio.png', 'Im_RobertDowneyJr.png', 'Im_RobertPattinson.png', 'Im_JustinTimberlake.png', 'Im_DanielCraig.png', 'Im_MattDamon.png'],diff,0,0.8665768000009848,27,83.33333333333333,
MIFA1204,train,pos,30,pos30_id4_im15.bmp_pos30_id3_im17.bmp,['Im_BradPitt.png', 'Im_PatrickDempsey.png', 'Im_ElijahWood.png', 'Im_RyanGosling.png', 'Im_LeonardoDiCaprio.png', 'Im_RobertDowneyJr.png', 'Im_RobertPattinson.png', 'Im_JustinTimberlake.png', 'Im_DanielCraig.png', 'Im_MattDamon.png'],diff,1,0.7167764000005263,28,83.33333333333333,
MIFA1204,train,pos,0,pos0_id6_im12.bmp_pos0_id6_im19.bmp,['Im_BradPitt.png', 'Im_PatrickDempsey.png', 'Im_ElijahWood.png', 'Im_RyanGosling.png', 'Im_LeonardoDiCaprio.png', 'Im_RobertDowneyJr.png', 'Im_RobertPattinson.png', 'Im_JustinTimberlake.png', 'Im_DanielCraig.png', 'Im_MattDamon.png'],same,1,1.491932099999758,29,83.33333333333333,
MIFA1204,train,pos,30,pos30_id20_im3.bmp_pos30_id20_im12.bmp,['Im_BradPitt.png', 'Im_PatrickDempsey.png', 'Im_ElijahWood.png', 'Im_RyanGosling.png', 'Im_LeonardoDiCaprio.png', 'Im_RobertDowneyJr.png', 'Im_RobertPattinson.png', 'Im_JustinTimberlake.png', 'Im_DanielCraig.png', 'Im_MattDamon.png'],same,1,0.9499856000002183,30,83.33333333333333,
MIFA1204,train,pos,150,pos150_id4_im15.bmp_pos150_id10_im1.bmp,['Im_BradPitt.png', 'Im_PatrickDempsey.png', 'Im_ElijahWood.png', 'Im_RyanGosling.png', 'Im_LeonardoDiCaprio.png', 'Im_RobertDowneyJr.png', 'Im_RobertPattinson.png', 'Im_JustinTimberlake.png', 'Im_DanielCraig.png', 'Im_MattDamon.png'],diff,1,0.7413435999987996,31,83.33333333333333,
MIFA1204,train,pos,fs,posfs_id6_im19.bmp_posfs_id20_im30.bmp,['Im_BradPitt.png', 'Im_PatrickDempsey.png', 'Im_ElijahWood.png', 'Im_RyanGosling.png', 'Im_LeonardoDiCaprio.png', 'Im_RobertDowneyJr.png', 'Im_RobertPattinson.png', 'Im_JustinTimberlake.png', 'Im_DanielCraig.png', 'Im_MattDamon.png'],diff,1,0.6834546999998565,32,83.33333333333333,
MIFA1204,train,pos,60,pos60_id4_im15.bmp_pos60_id3_im17.bmp,['Im_BradPitt.png', 'Im_PatrickDempsey.png', 'Im_ElijahWood.png', 'Im_RyanGosling.png', 'Im_LeonardoDiCaprio.png', 'Im_RobertDowneyJr.png', 'Im_RobertPattinson.png', 'Im_JustinTimberlake.png', 'Im_DanielCraig.png', 'Im_MattDamon.png'],diff,1,0.7169111000002886,33,83.33333333333333,
MIFA1204,train,pos,150,pos150_id3_im17.bmp_pos150_id3_im6.bmp,['Im_BradPitt.png', 'Im_PatrickDempsey.png', 'Im_ElijahWood.png', 'Im_RyanGosling.png', 'Im_LeonardoDiCaprio.png', 'Im_RobertDowneyJr.png', 'Im_RobertPattinson.png', 'Im_JustinTimberlake.png', 'Im_DanielCraig.png', 'Im_MattDamon.png'],same,1,1.0082468000000517,34,83.33333333333333,
MIFA1204,0,inv,150,pos150_id13_im29.bmp_pos150_id13_im10.bmp,['Im_BradPitt.png', 'Im_PatrickDempsey.png', 'Im_ElijahWood.png', 'Im_RyanGosling.png', 'Im_LeonardoDiCaprio.png', 'Im_RobertDowneyJr.png', 'Im_RobertPattinson.png', 'Im_JustinTimberlake.png', 'Im_DanielCraig.png', 'Im_MattDamon.png'],diff,0,0.7917280999990908,0,0,
MIFA1204,0,inv,150,pos150_id18_im19.bmp_pos150_id18_im11.bmp,['Im_BradPitt.png', 'Im_PatrickDempsey.png', 'Im_ElijahWood.png', 'Im_RyanGosling.png', 'Im_LeonardoDiCaprio.png', 'Im_RobertDowneyJr.png', 'Im_RobertPattinson.png', 'Im_JustinTimberlake.png', 'Im_DanielCraig.png', 'Im_MattDamon.png'],diff,0,0.9253098999997746,0,0,
MIFA1204,0,inv,30,pos30_id4_im7.bmp_pos30_id4_im15.bmp,['Im_BradPitt.png', 'Im_PatrickDempsey.png', 'Im_ElijahWood.png', 'Im_RyanGosling.png', 'Im_LeonardoDiCaprio.png', 'Im_RobertDowneyJr.png', 'Im_RobertPattinson.png', 'Im_JustinTimberlake.png', 'Im_DanielCraig.png', 'Im_MattDamon.png'],same,1,0.4251887999998871,1,0,
MIFA1204,0,inv,fs,posfs_id18_im11.bmp_posfs_id13_im15.bmp,['Im_BradPitt.png', 'Im_PatrickDempsey.png', 'Im_ElijahWood.png', 'Im_RyanGosling.png', 'Im_LeonardoDiCaprio.png', 'Im_RobertDowneyJr.png', 'Im_RobertPattinson.png', 'Im_JustinTimberlake.png', 'Im_DanielCraig.png', 'Im_MattDamon.png'],diff,1,0.6755619000014121,2,0,
MIFA1204,0,inv,120,pos120_id13_im10.bmp_pos120_id14_im18.bmp,['Im_BradPitt.png', 'Im_PatrickDempsey.png', 'Im_ElijahWood.png', 'Im_RyanGosling.png', 'Im_LeonardoDiCaprio.png', 'Im_RobertDowneyJr.png', 'Im_RobertPattinson.png', 'Im_JustinTimberlake.png', 'Im_DanielCraig.png', 'Im_MattDamon.png'],same,0,1.43339399999968,2,0,
MIFA1204,0,inv,60,pos60_id10_im17.bmp_pos60_id10_im1.bmp,['Im_BradPitt.png', 'Im_PatrickDempsey.png', 'Im_ElijahWood.png', 'Im_RyanGosling.png', 'Im_LeonardoDiCaprio.png', 'Im_RobertDowneyJr.png', 'Im_RobertPattinson.png', 'Im_JustinTimberlake.png', 'Im_DanielCraig.png', 'Im_MattDamon.png'],same,1,0.5500931000005949,3,0,
MIFA1204,0,inv,90,pos90_id6_im18.bmp_pos90_id19_im27.bmp,['Im_BradPitt.png', 'Im_PatrickDempsey.png', 'Im_ElijahWood.png', 'Im_RyanGosling.png', 'Im_LeonardoDiCaprio.png', 'Im_RobertDowneyJr.png', 'Im_RobertPattinson.png', 'Im_JustinTimberlake.png', 'Im_DanielCraig.png', 'Im_MattDamon.png'],same,0,0.9086111999986315,3,0,
MIFA1204,0,inv,60,pos60_id18_im18.bmp_pos60_id6_im18.bmp,['Im_BradPitt.png', 'Im_PatrickDempsey.png', 'Im_ElijahWood.png', 'Im_RyanGosling.png', 'Im_LeonardoDiCaprio.png', 'Im_RobertDowneyJr.png', 'Im_RobertPattinson.png', 'Im_JustinTimberlake.png', 'Im_DanielCraig.png', 'Im_MattDamon.png'],diff,1,0.5416754999987461,4,0,
MIFA1204,0,inv,90,pos90_id20_im3.bmp_pos90_id10_im17.bmp,['Im_BradPitt.png', 'Im_PatrickDempsey.png', 'Im_ElijahWood.png', 'Im_RyanGosling.png', 'Im_LeonardoDiCaprio.png', 'Im_RobertDowneyJr.png', 'Im_RobertPattinson.png', 'Im_JustinTimberlake.png', 'Im_DanielCraig.png', 'Im_MattDamon.png'],diff,1,0.4753043999990041,5,0,
MIFA1204,0,inv,fs,posfs_id19_im27.bmp_posfs_id14_im16.bmp,['Im_BradPitt.png', 'Im_PatrickDempsey.png', 'Im_ElijahWood.png', 'Im_RyanGosling.png', 'Im_LeonardoDiCaprio.png', 'Im_RobertDowneyJr.png', 'Im_RobertPattinson.png', 'Im_JustinTimberlake.png', 'Im_DanielCraig.png', 'Im_MattDamon.png'],diff,1,0.9834337000011146,6,0,
MIFA1204,0,inv,120,pos120_id13_im29.bmp_pos120_id13_im15.bmp,['Im_BradPitt.png', 'Im_PatrickDempsey.png', 'Im_ElijahWood.png', 'Im_RyanGosling.png', 'Im_LeonardoDiCaprio.png', 'Im_RobertDowneyJr.png', 'Im_RobertPattinson.png', 'Im_JustinTimberlake.png', 'Im_DanielCraig.png', 'Im_MattDamon.png'],same,1,0.42495940000117116,7,0,
MIFA1204,0,inv,30,pos30_id20_im30.bmp_pos30_id6_im19.bmp,['Im_BradPitt.png', 'Im_PatrickDempsey.png', 'Im_ElijahWood.png', 'Im_RyanGosling.png', 'Im_LeonardoDiCaprio.png', 'Im_RobertDowneyJr.png', 'Im_RobertPattinson.png', 'Im_JustinTimberlake.png', 'Im_DanielCraig.png', 'Im_MattDamon.png'],diff,1,0.41708900000048743,8,0,
MIFA1204,0,inv,0,pos0_id18_im19.bmp_pos0_id14_im24.bmp,['Im_BradPitt.png', 'Im_PatrickDempsey.png', 'Im_ElijahWood.png', 'Im_RyanGosling.png', 'Im_LeonardoDiCaprio.png', 'Im_RobertDowneyJr.png', 'Im_RobertPattinson.png', 'Im_JustinTimberlake.png', 'Im_DanielCraig.png', 'Im_MattDamon.png'],same,0,1.0084759999990638,8,0,
MIFA1204,0,inv,0,pos0_id3_im8.bmp_pos0_id17_im8.bmp,['Im_BradPitt.png', 'Im_PatrickDempsey.png', 'Im_ElijahWood.png', 'Im_RyanGosling.png', 'Im_LeonardoDiCaprio.png', 'Im_RobertDowneyJr.png', 'Im_RobertPattinson.png', 'Im_JustinTimberlake.png', 'Im_DanielCraig.png', 'Im_MattDamon.png'],same,0,0.42505960000016785,8,0,
MIFA1204,1,neg,150,neg150_id17_im8.bmp_neg150_id17_im9.bmp,['Im_BradPitt.png', 'Im_PatrickDempsey.png', 'Im_ElijahWood.png', 'Im_RyanGosling.png', 'Im_LeonardoDiCaprio.png', 'Im_RobertDowneyJr.png', 'Im_RobertPattinson.png', 'Im_JustinTimberlake.png', 'Im_DanielCraig.png', 'Im_MattDamon.png'],same,1,1.3252612000014778,9,0,
MIFA1204,1,neg,fs,negfs_id20_im30.bmp_negfs_id6_im19.bmp,['Im_BradPitt.png', 'Im_PatrickDempsey.png', 'Im_ElijahWood.png', 'Im_RyanGosling.png', 'Im_LeonardoDiCaprio.png', 'Im_RobertDowneyJr.png', 'Im_RobertPattinson.png', 'Im_JustinTimberlake.png', 'Im_DanielCraig.png', 'Im_MattDamon.png'],diff,1,0.4334479999997711,10,0,
MIFA1204,1,neg,90,neg90_id14_im24.bmp_neg90_id6_im12.bmp,['Im_BradPitt.png', 'Im_PatrickDempsey.png', 'Im_ElijahWood.png', 'Im_RyanGosling.png', 'Im_LeonardoDiCaprio.png', 'Im_RobertDowneyJr.png', 'Im_RobertPattinson.png', 'Im_JustinTimberlake.png', 'Im_DanielCraig.png', 'Im_MattDamon.png'],diff,1,0.7165887999999541,11,0,
MIFA1204,1,neg,0,neg0_id6_im12.bmp_neg0_id6_im19.bmp,['Im_BradPitt.png', 'Im_PatrickDempsey.png', 'Im_ElijahWood.png', 'Im_RyanGosling.png', 'Im_LeonardoDiCaprio.png', 'Im_RobertDowneyJr.png', 'Im_RobertPattinson.png', 'Im_JustinTimberlake.png', 'Im_DanielCraig.png', 'Im_MattDamon.png'],same,1,0.6586639000015566,12,0,
MIFA1204,1,neg,fs,negfs_id18_im19.bmp_negfs_id14_im24.bmp,['Im_BradPitt.png', 'Im_PatrickDempsey.png', 'Im_ElijahWood.png', 'Im_RyanGosling.png', 'Im_LeonardoDiCaprio.png', 'Im_RobertDowneyJr.png', 'Im_RobertPattinson.png', 'Im_JustinTimberlake.png', 'Im_DanielCraig.png', 'Im_MattDamon.png'],diff,1,0.6916552999991836,13,0,
MIFA1204,1,neg,150,neg150_id14_im18.bmp_neg150_id14_im24.bmp,['Im_BradPitt.png', 'Im_PatrickDempsey.png', 'Im_ElijahWood.png', 'Im_RyanGosling.png', 'Im_LeonardoDiCaprio.png', 'Im_RobertDowneyJr.png', 'Im_RobertPattinson.png', 'Im_JustinTimberlake.png', 'Im_DanielCraig.png', 'Im_MattDamon.png'],same,1,0.7502784999996948,14,0,
MIFA1204,1,neg,120,neg120_id6_im19.bmp_neg120_id6_im12.bmp,['Im_BradPitt.png', 'Im_PatrickDempsey.png', 'Im_ElijahWood.png', 'Im_RyanGosling.png', 'Im_LeonardoDiCaprio.png', 'Im_RobertDowneyJr.png', 'Im_RobertPattinson.png', 'Im_JustinTimberlake.png', 'Im_DanielCraig.png', 'Im_MattDamon.png'],same,1,0.6417552000002615,15,0,
MIFA1204,1,neg,90,neg90_id18_im18.bmp_neg90_id18_im11.bmp,['Im_BradPitt.png', 'Im_PatrickDempsey.png', 'Im_ElijahWood.png', 'Im_RyanGosling.png', 'Im_LeonardoDiCaprio.png', 'Im_RobertDowneyJr.png', 'Im_RobertPattinson.png', 'Im_JustinTimberlake.png', 'Im_DanielCraig.png', 'Im_MattDamon.png'],diff,0,0.9417414999988978,15,0,
MIFA1204,1,neg,60,neg60_id10_im1.bmp_neg60_id4_im15.bmp,['Im_BradPitt.png', 'Im_PatrickDempsey.png', 'Im_ElijahWood.png', 'Im_RyanGosling.png', 'Im_LeonardoDiCaprio.png', 'Im_RobertDowneyJr.png', 'Im_RobertPattinson.png', 'Im_JustinTimberlake.png', 'Im_DanielCraig.png', 'Im_MattDamon.png'],diff,1,1.408737800000381,16,0,
MIFA1204,1,neg,30,neg30_id14_im16.bmp_neg30_id14_im24.bmp,['Im_BradPitt.png', 'Im_PatrickDempsey.png', 'Im_ElijahWood.png', 'Im_RyanGosling.png', 'Im_LeonardoDiCaprio.png', 'Im_RobertDowneyJr.png', 'Im_RobertPattinson.png', 'Im_JustinTimberlake.png', 'Im_DanielCraig.png', 'Im_MattDamon.png'],same,1,1.6167421999998624,17,0,
MIFA1204,1,neg,30,neg30_id4_im15.bmp_neg30_id10_im1.bmp,['Im_BradPitt.png', 'Im_PatrickDempsey.png', 'Im_ElijahWood.png', 'Im_RyanGosling.png', 'Im_LeonardoDiCaprio.png', 'Im_RobertDowneyJr.png', 'Im_RobertPattinson.png', 'Im_JustinTimberlake.png', 'Im_DanielCraig.png', 'Im_MattDamon.png'],diff,1,1.075076099999933,18,0,
MIFA1204,1,neg,0,neg0_id19_im4.bmp_neg0_id19_im27.bmp,['Im_BradPitt.png', 'Im_PatrickDempsey.png', 'Im_ElijahWood.png', 'Im_RyanGosling.png', 'Im_LeonardoDiCaprio.png', 'Im_RobertDowneyJr.png', 'Im_RobertPattinson.png', 'Im_JustinTimberlake.png', 'Im_DanielCraig.png', 'Im_MattDamon.png'],same,1,0.5667229999999108,19,0,
MIFA1204,1,neg,120,neg120_id20_im3.bmp_neg120_id17_im9.bmp,['Im_BradPitt.png', 'Im_PatrickDempsey.png', 'Im_ElijahWood.png', 'Im_RyanGosling.png', 'Im_LeonardoDiCaprio.png', 'Im_RobertDowneyJr.png', 'Im_RobertPattinson.png', 'Im_JustinTimberlake.png', 'Im_DanielCraig.png', 'Im_MattDamon.png'],same,0,0.7418613999998342,19,0,
MIFA1204,1,neg,60,neg60_id4_im20.bmp_neg60_id14_im18.bmp,['Im_BradPitt.png', 'Im_PatrickDempsey.png', 'Im_ElijahWood.png', 'Im_RyanGosling.png', 'Im_LeonardoDiCaprio.png', 'Im_RobertDowneyJr.png', 'Im_RobertPattinson.png', 'Im_JustinTimberlake.png', 'Im_DanielCraig.png', 'Im_MattDamon.png'],diff,1,0.8915902999997343,20,0,
MIFA1204,2,inv,fs,posfs_id13_im10.bmp_posfs_id14_im18.bmp,['Im_BradPitt.png', 'Im_PatrickDempsey.png', 'Im_ElijahWood.png', 'Im_RyanGosling.png', 'Im_LeonardoDiCaprio.png', 'Im_RobertDowneyJr.png', 'Im_RobertPattinson.png', 'Im_JustinTimberlake.png', 'Im_DanielCraig.png', 'Im_MattDamon.png'],diff,1,0.6835503999991488,21,0,
MIFA1204,2,inv,30,pos30_id14_im16.bmp_pos30_id19_im27.bmp,['Im_BradPitt.png', 'Im_PatrickDempsey.png', 'Im_ElijahWood.png', 'Im_RyanGosling.png', 'Im_LeonardoDiCaprio.png', 'Im_RobertDowneyJr.png', 'Im_RobertPattinson.png', 'Im_JustinTimberlake.png', 'Im_DanielCraig.png', 'Im_MattDamon.png'],same,0,0.5083092000004399,21,0,
MIFA1204,2,inv,120,pos120_id17_im8.bmp_pos120_id17_im9.bmp,['Im_BradPitt.png', 'Im_PatrickDempsey.png', 'Im_ElijahWood.png', 'Im_RyanGosling.png', 'Im_LeonardoDiCaprio.png', 'Im_RobertDowneyJr.png', 'Im_RobertPattinson.png', 'Im_JustinTimberlake.png', 'Im_DanielCraig.png', 'Im_MattDamon.png'],same,1,0.6836605999997118,22,0,
MIFA1204,2,inv,0,pos0_id10_im18.bmp_pos0_id10_im1.bmp,['Im_BradPitt.png', 'Im_PatrickDempsey.png', 'Im_ElijahWood.png', 'Im_RyanGosling.png', 'Im_LeonardoDiCaprio.png', 'Im_RobertDowneyJr.png', 'Im_RobertPattinson.png', 'Im_JustinTimberlake.png', 'Im_DanielCraig.png', 'Im_MattDamon.png'],diff,0,2.641980700000204,22,0,
MIFA1204,2,inv,30,pos30_id20_im30.bmp_pos30_id20_im12.bmp,['Im_BradPitt.png', 'Im_PatrickDempsey.png', 'Im_ElijahWood.png', 'Im_RyanGosling.png', 'Im_LeonardoDiCaprio.png', 'Im_RobertDowneyJr.png', 'Im_RobertPattinson.png', 'Im_JustinTimberlake.png', 'Im_DanielCraig.png', 'Im_MattDamon.png'],same,1,0.6502956000003906,23,0,
MIFA1204,2,inv,90,pos90_id20_im30.bmp_pos90_id17_im14.bmp,['Im_BradPitt.png', 'Im_PatrickDempsey.png', 'Im_ElijahWood.png', 'Im_RyanGosling.png', 'Im_LeonardoDiCaprio.png', 'Im_RobertDowneyJr.png', 'Im_RobertPattinson.png', 'Im_JustinTimberlake.png', 'Im_DanielCraig.png', 'Im_MattDamon.png'],same,0,0.6833774999995512,23,0,
MIFA1204,2,inv,60,pos60_id20_im30.bmp_pos60_id20_im3.bmp,['Im_BradPitt.png', 'Im_PatrickDempsey.png', 'Im_ElijahWood.png', 'Im_RyanGosling.png', 'Im_LeonardoDiCaprio.png', 'Im_RobertDowneyJr.png', 'Im_RobertPattinson.png', 'Im_JustinTimberlake.png', 'Im_DanielCraig.png', 'Im_MattDamon.png'],same,1,1.2751461999996536,24,0,
MIFA1204,2,inv,60,pos60_id17_im14.bmp_pos60_id20_im30.bmp,['Im_BradPitt.png', 'Im_PatrickDempsey.png', 'Im_ElijahWood.png', 'Im_RyanGosling.png', 'Im_LeonardoDiCaprio.png', 'Im_RobertDowneyJr.png', 'Im_RobertPattinson.png', 'Im_JustinTimberlake.png', 'Im_DanielCraig.png', 'Im_MattDamon.png'],same,0,0.5919217999999091,24,0,
MIFA1204,2,inv,150,pos150_id6_im12.bmp_pos150_id6_im18.bmp,['Im_BradPitt.png', 'Im_PatrickDempsey.png', 'Im_ElijahWood.png', 'Im_RyanGosling.png', 'Im_LeonardoDiCaprio.png', 'Im_RobertDowneyJr.png', 'Im_RobertPattinson.png', 'Im_JustinTimberlake.png', 'Im_DanielCraig.png', 'Im_MattDamon.png'],same,1,0.5583452999999281,25,0,
MIFA1204,2,inv,150,pos150_id17_im8.bmp_pos150_id3_im8.bmp,['Im_BradPitt.png', 'Im_PatrickDempsey.png', 'Im_ElijahWood.png', 'Im_RyanGosling.png', 'Im_LeonardoDiCaprio.png', 'Im_RobertDowneyJr.png', 'Im_RobertPattinson.png', 'Im_JustinTimberlake.png', 'Im_DanielCraig.png', 'Im_MattDamon.png'],same,0,0.5004017999999633,25,0,
MIFA1204,2,inv,120,pos120_id3_im17.bmp_pos120_id4_im15.bmp,['Im_BradPitt.png', 'Im_PatrickDempsey.png', 'Im_ElijahWood.png', 'Im_RyanGosling.png', 'Im_LeonardoDiCaprio.png', 'Im_RobertDowneyJr.png', 'Im_RobertPattinson.png', 'Im_JustinTimberlake.png', 'Im_DanielCraig.png', 'Im_MattDamon.png'],same,0,0.6501282999997784,25,0,
MIFA1204,2,inv,fs,posfs_id3_im6.bmp_posfs_id3_im8.bmp,['Im_BradPitt.png', 'Im_PatrickDempsey.png', 'Im_ElijahWood.png', 'Im_RyanGosling.png', 'Im_LeonardoDiCaprio.png', 'Im_RobertDowneyJr.png', 'Im_RobertPattinson.png', 'Im_JustinTimberlake.png', 'Im_DanielCraig.png', 'Im_MattDamon.png'],same,1,0.7252898999995523,26,0,
MIFA1204,2,inv,0,pos0_id4_im20.bmp_pos0_id19_im4.bmp,['Im_BradPitt.png', 'Im_PatrickDempsey.png', 'Im_ElijahWood.png', 'Im_RyanGosling.png', 'Im_LeonardoDiCaprio.png', 'Im_RobertDowneyJr.png', 'Im_RobertPattinson.png', 'Im_JustinTimberlake.png', 'Im_DanielCraig.png', 'Im_MattDamon.png'],same,0,0.49176639999859617,26,0,
MIFA1204,2,inv,90,pos90_id3_im17.bmp_pos90_id18_im11.bmp,['Im_BradPitt.png', 'Im_PatrickDempsey.png', 'Im_ElijahWood.png', 'Im_RyanGosling.png', 'Im_LeonardoDiCaprio.png', 'Im_RobertDowneyJr.png', 'Im_RobertPattinson.png', 'Im_JustinTimberlake.png', 'Im_DanielCraig.png', 'Im_MattDamon.png'],same,0,0.9753474999997707,26,0,
MIFA1204,3,pos,30,pos30_id13_im15.bmp_pos30_id13_im29.bmp,['Im_BradPitt.png', 'Im_PatrickDempsey.png', 'Im_ElijahWood.png', 'Im_RyanGosling.png', 'Im_LeonardoDiCaprio.png', 'Im_RobertDowneyJr.png', 'Im_RobertPattinson.png', 'Im_JustinTimberlake.png', 'Im_DanielCraig.png', 'Im_MattDamon.png'],diff,0,1.4750502000006236,0,61.904761904761905,
MIFA1204,3,pos,0,pos0_id13_im10.bmp_pos0_id14_im18.bmp,['Im_BradPitt.png', 'Im_PatrickDempsey.png', 'Im_ElijahWood.png', 'Im_RyanGosling.png', 'Im_LeonardoDiCaprio.png', 'Im_RobertDowneyJr.png', 'Im_RobertPattinson.png', 'Im_JustinTimberlake.png', 'Im_DanielCraig.png', 'Im_MattDamon.png'],diff,1,0.9085374999995111,1,61.904761904761905,
MIFA1204,3,pos,fs,posfs_id20_im12.bmp_posfs_id20_im30.bmp,['Im_BradPitt.png', 'Im_PatrickDempsey.png', 'Im_ElijahWood.png', 'Im_RyanGosling.png', 'Im_LeonardoDiCaprio.png', 'Im_RobertDowneyJr.png', 'Im_RobertPattinson.png', 'Im_JustinTimberlake.png', 'Im_DanielCraig.png', 'Im_MattDamon.png'],same,1,0.4835837000009633,2,61.904761904761905,
MIFA1204,3,pos,150,pos150_id13_im10.bmp_pos150_id13_im15.bmp,['Im_BradPitt.png', 'Im_PatrickDempsey.png', 'Im_ElijahWood.png', 'Im_RyanGosling.png', 'Im_LeonardoDiCaprio.png', 'Im_RobertDowneyJr.png', 'Im_RobertPattinson.png', 'Im_JustinTimberlake.png', 'Im_DanielCraig.png', 'Im_MattDamon.png'],same,1,0.4249029000002338,3,61.904761904761905,
MIFA1204,3,pos,30,pos30_id4_im20.bmp_pos30_id4_im7.bmp,['Im_BradPitt.png', 'Im_PatrickDempsey.png', 'Im_ElijahWood.png', 'Im_RyanGosling.png', 'Im_LeonardoDiCaprio.png', 'Im_RobertDowneyJr.png', 'Im_RobertPattinson.png', 'Im_JustinTimberlake.png', 'Im_DanielCraig.png', 'Im_MattDamon.png'],same,1,0.4334080000007816,4,61.904761904761905,
MIFA1204,3,pos,120,pos120_id13_im29.bmp_pos120_id13_im15.bmp,['Im_BradPitt.png', 'Im_PatrickDempsey.png', 'Im_ElijahWood.png', 'Im_RyanGosling.png', 'Im_LeonardoDiCaprio.png', 'Im_RobertDowneyJr.png', 'Im_RobertPattinson.png', 'Im_JustinTimberlake.png', 'Im_DanielCraig.png', 'Im_MattDamon.png'],same,1,0.4251287000006414,5,61.904761904761905,
MIFA1204,3,pos,150,pos150_id10_im17.bmp_pos150_id17_im8.bmp,['Im_BradPitt.png', 'Im_PatrickDempsey.png', 'Im_ElijahWood.png', 'Im_RyanGosling.png', 'Im_LeonardoDiCaprio.png', 'Im_RobertDowneyJr.png', 'Im_RobertPattinson.png', 'Im_JustinTimberlake.png', 'Im_DanielCraig.png', 'Im_MattDamon.png'],diff,1,0.6334265999994386,6,61.904761904761905,
MIFA1204,3,pos,60,pos60_id19_im8.bmp_pos60_id3_im6.bmp,['Im_BradPitt.png', 'Im_PatrickDempsey.png', 'Im_ElijahWood.png', 'Im_RyanGosling.png', 'Im_LeonardoDiCaprio.png', 'Im_RobertDowneyJr.png', 'Im_RobertPattinson.png', 'Im_JustinTimberlake.png', 'Im_DanielCraig.png', 'Im_MattDamon.png'],diff,1,0.5919871000005514,7,61.904761904761905,
MIFA1204,3,pos,90,pos90_id10_im18.bmp_pos90_id10_im1.bmp,['Im_BradPitt.png', 'Im_PatrickDempsey.png', 'Im_ElijahWood.png', 'Im_RyanGosling.png', 'Im_LeonardoDiCaprio.png', 'Im_RobertDowneyJr.png', 'Im_RobertPattinson.png', 'Im_JustinTimberlake.png', 'Im_DanielCraig.png', 'Im_MattDamon.png'],same,1,1.3835389999985637,8,61.904761904761905,
MIFA1204,3,pos,fs,posfs_id3_im17.bmp_posfs_id18_im11.bmp,['Im_BradPitt.png', 'Im_PatrickDempsey.png', 'Im_ElijahWood.png', 'Im_RyanGosling.png', 'Im_LeonardoDiCaprio.png', 'Im_RobertDowneyJr.png', 'Im_RobertPattinson.png', 'Im_JustinTimberlake.png', 'Im_DanielCraig.png', 'Im_MattDamon.png'],diff,1,0.4083728000005067,9,61.904761904761905,
MIFA1204,3,pos,90,pos90_id19_im8.bmp_pos90_id19_im4.bmp,['Im_BradPitt.png', 'Im_PatrickDempsey.png', 'Im_ElijahWood.png', 'Im_RyanGosling.png', 'Im_LeonardoDiCaprio.png', 'Im_RobertDowneyJr.png', 'Im_RobertPattinson.png', 'Im_JustinTimberlake.png', 'Im_DanielCraig.png', 'Im_MattDamon.png'],same,1,0.4669391999996151,10,61.904761904761905,
MIFA1204,3,pos,0,pos0_id6_im19.bmp_pos0_id20_im30.bmp,['Im_BradPitt.png', 'Im_PatrickDempsey.png', 'Im_ElijahWood.png', 'Im_RyanGosling.png', 'Im_LeonardoDiCaprio.png', 'Im_RobertDowneyJr.png', 'Im_RobertPattinson.png', 'Im_JustinTimberlake.png', 'Im_DanielCraig.png', 'Im_MattDamon.png'],diff,1,0.5001775999990059,11,61.904761904761905,
MIFA1204,3,pos,120,pos120_id19_im8.bmp_pos120_id19_im4.bmp,['Im_BradPitt.png', 'Im_PatrickDempsey.png', 'Im_ElijahWood.png', 'Im_RyanGosling.png', 'Im_LeonardoDiCaprio.png', 'Im_RobertDowneyJr.png', 'Im_RobertPattinson.png', 'Im_JustinTimberlake.png', 'Im_DanielCraig.png', 'Im_MattDamon.png'],same,1,0.42510829999991984,12,61.904761904761905,
MIFA1204,3,pos,60,pos60_id19_im8.bmp_pos60_id10_im18.bmp,['Im_BradPitt.png', 'Im_PatrickDempsey.png', 'Im_ElijahWood.png', 'Im_RyanGosling.png', 'Im_LeonardoDiCaprio.png', 'Im_RobertDowneyJr.png', 'Im_RobertPattinson.png', 'Im_JustinTimberlake.png', 'Im_DanielCraig.png', 'Im_MattDamon.png'],diff,1,0.4583829999992304,13,61.904761904761905,
MIFA1204,4,inv,90,pos90_id14_im24.bmp_pos90_id14_im18.bmp,['Im_BradPitt.png', 'Im_PatrickDempsey.png', 'Im_ElijahWood.png', 'Im_RyanGosling.png', 'Im_LeonardoDiCaprio.png', 'Im_RobertDowneyJr.png', 'Im_RobertPattinson.png', 'Im_JustinTimberlake.png', 'Im_DanielCraig.png', 'Im_MattDamon.png'],diff,0,0.7585468999986915,13,61.904761904761905,
MIFA1204,4,inv,60,pos60_id20_im30.bmp_pos60_id20_im12.bmp,['Im_BradPitt.png', 'Im_PatrickDempsey.png', 'Im_ElijahWood.png', 'Im_RyanGosling.png', 'Im_LeonardoDiCaprio.png', 'Im_RobertDowneyJr.png', 'Im_RobertPattinson.png', 'Im_JustinTimberlake.png', 'Im_DanielCraig.png', 'Im_MattDamon.png'],same,1,0.4500072999999247,14,61.904761904761905,
MIFA1204,4,inv,150,pos150_id19_im4.bmp_pos150_id4_im7.bmp,['Im_BradPitt.png', 'Im_PatrickDempsey.png', 'Im_ElijahWood.png', 'Im_RyanGosling.png', 'Im_LeonardoDiCaprio.png', 'Im_RobertDowneyJr.png', 'Im_RobertPattinson.png', 'Im_JustinTimberlake.png', 'Im_DanielCraig.png', 'Im_MattDamon.png'],diff,1,0.4583677999999054,15,61.904761904761905,
MIFA1204,4,inv,0,pos0_id6_im12.bmp_pos0_id3_im6.bmp,['Im_BradPitt.png', 'Im_PatrickDempsey.png', 'Im_ElijahWood.png', 'Im_RyanGosling.png', 'Im_LeonardoDiCaprio.png', 'Im_RobertDowneyJr.png', 'Im_RobertPattinson.png', 'Im_JustinTimberlake.png', 'Im_DanielCraig.png', 'Im_MattDamon.png'],diff,1,1.383683000000019,16,61.904761904761905,
MIFA1204,4,inv,fs,posfs_id13_im15.bmp_posfs_id17_im14.bmp,['Im_BradPitt.png', 'Im_PatrickDempsey.png', 'Im_ElijahWood.png', 'Im_RyanGosling.png', 'Im_LeonardoDiCaprio.png', 'Im_RobertDowneyJr.png', 'Im_RobertPattinson.png', 'Im_JustinTimberlake.png', 'Im_DanielCraig.png', 'Im_MattDamon.png'],diff,1,1.316888299999846,17,61.904761904761905,
MIFA1204,4,inv,30,pos30_id10_im1.bmp_pos30_id20_im12.bmp,['Im_BradPitt.png', 'Im_PatrickDempsey.png', 'Im_ElijahWood.png', 'Im_RyanGosling.png', 'Im_LeonardoDiCaprio.png', 'Im_RobertDowneyJr.png', 'Im_RobertPattinson.png', 'Im_JustinTimberlake.png', 'Im_DanielCraig.png', 'Im_MattDamon.png'],same,0,0.8416340999992826,17,61.904761904761905,
MIFA1204,4,inv,30,pos30_id6_im12.bmp_pos30_id6_im18.bmp,['Im_BradPitt.png', 'Im_PatrickDempsey.png', 'Im_ElijahWood.png', 'Im_RyanGosling.png', 'Im_LeonardoDiCaprio.png', 'Im_RobertDowneyJr.png', 'Im_RobertPattinson.png', 'Im_JustinTimberlake.png', 'Im_DanielCraig.png', 'Im_MattDamon.png'],same,1,0.8832590000001801,18,61.904761904761905,
MIFA1204,4,inv,120,pos120_id4_im20.bmp_pos120_id4_im15.bmp,['Im_BradPitt.png', 'Im_PatrickDempsey.png', 'Im_ElijahWood.png', 'Im_RyanGosling.png', 'Im_LeonardoDiCaprio.png', 'Im_RobertDowneyJr.png', 'Im_RobertPattinson.png', 'Im_JustinTimberlake.png', 'Im_DanielCraig.png', 'Im_MattDamon.png'],diff,0,3.208772799998769,18,61.904761904761905,
MIFA1204,4,inv,60,pos60_id17_im9.bmp_pos60_id17_im14.bmp,['Im_BradPitt.png', 'Im_PatrickDempsey.png', 'Im_ElijahWood.png', 'Im_RyanGosling.png', 'Im_LeonardoDiCaprio.png', 'Im_RobertDowneyJr.png', 'Im_RobertPattinson.png', 'Im_JustinTimberlake.png', 'Im_DanielCraig.png', 'Im_MattDamon.png'],same,1,1.3336782999995194,19,61.904761904761905,
MIFA1204,4,inv,0,pos0_id14_im16.bmp_pos0_id4_im7.bmp,['Im_BradPitt.png', 'Im_PatrickDempsey.png', 'Im_ElijahWood.png', 'Im_RyanGosling.png', 'Im_LeonardoDiCaprio.png', 'Im_RobertDowneyJr.png', 'Im_RobertPattinson.png', 'Im_JustinTimberlake.png', 'Im_DanielCraig.png', 'Im_MattDamon.png'],same,0,0.4586180999995122,19,61.904761904761905,
MIFA1204,4,inv,fs,posfs_id18_im11.bmp_posfs_id18_im18.bmp,['Im_BradPitt.png', 'Im_PatrickDempsey.png', 'Im_ElijahWood.png', 'Im_RyanGosling.png', 'Im_LeonardoDiCaprio.png', 'Im_RobertDowneyJr.png', 'Im_RobertPattinson.png', 'Im_JustinTimberlake.png', 'Im_DanielCraig.png', 'Im_MattDamon.png'],same,1,0.6506053000011889,20,61.904761904761905,
MIFA1204,4,inv,120,pos120_id3_im6.bmp_pos120_id3_im8.bmp,['Im_BradPitt.png', 'Im_PatrickDempsey.png', 'Im_ElijahWood.png', 'Im_RyanGosling.png', 'Im_LeonardoDiCaprio.png', 'Im_RobertDowneyJr.png', 'Im_RobertPattinson.png', 'Im_JustinTimberlake.png', 'Im_DanielCraig.png', 'Im_MattDamon.png'],same,1,0.5416815999997198,21,61.904761904761905,
MIFA1204,4,inv,150,pos150_id6_im18.bmp_pos150_id18_im18.bmp,['Im_BradPitt.png', 'Im_PatrickDempsey.png', 'Im_ElijahWood.png', 'Im_RyanGosling.png', 'Im_LeonardoDiCaprio.png', 'Im_RobertDowneyJr.png', 'Im_RobertPattinson.png', 'Im_JustinTimberlake.png', 'Im_DanielCraig.png', 'Im_MattDamon.png'],same,0,0.5753492000003462,21,61.904761904761905,
MIFA1204,4,inv,90,pos90_id14_im24.bmp_pos90_id6_im12.bmp,['Im_BradPitt.png', 'Im_PatrickDempsey.png', 'Im_ElijahWood.png', 'Im_RyanGosling.png', 'Im_LeonardoDiCaprio.png', 'Im_RobertDowneyJr.png', 'Im_RobertPattinson.png', 'Im_JustinTimberlake.png', 'Im_DanielCraig.png', 'Im_MattDamon.png'],diff,1,0.6832919000007678,22,61.904761904761905,
MIFA1204,5,neg,150,neg150_id13_im10.bmp_neg150_id18_im19.bmp,['Im_BradPitt.png', 'Im_PatrickDempsey.png', 'Im_ElijahWood.png', 'Im_RyanGosling.png', 'Im_LeonardoDiCaprio.png', 'Im_RobertDowneyJr.png', 'Im_RobertPattinson.png', 'Im_JustinTimberlake.png', 'Im_DanielCraig.png', 'Im_MattDamon.png'],diff,1,0.4167532999999821,23,61.904761904761905,
MIFA1204,5,neg,30,neg30_id4_im15.bmp_neg30_id4_im7.bmp,['Im_BradPitt.png', 'Im_PatrickDempsey.png', 'Im_ElijahWood.png', 'Im_RyanGosling.png', 'Im_LeonardoDiCaprio.png', 'Im_RobertDowneyJr.png', 'Im_RobertPattinson.png', 'Im_JustinTimberlake.png', 'Im_DanielCraig.png', 'Im_MattDamon.png'],same,1,0.4084409000006417,24,61.904761904761905,
MIFA1204,5,neg,150,neg150_id14_im18.bmp_neg150_id4_im20.bmp,['Im_BradPitt.png', 'Im_PatrickDempsey.png', 'Im_ElijahWood.png', 'Im_RyanGosling.png', 'Im_LeonardoDiCaprio.png', 'Im_RobertDowneyJr.png', 'Im_RobertPattinson.png', 'Im_JustinTimberlake.png', 'Im_DanielCraig.png', 'Im_MattDamon.png'],diff,1,0.41673679999985325,25,61.904761904761905,
MIFA1204,5,neg,fs,negfs_id13_im15.bmp_negfs_id18_im11.bmp,['Im_BradPitt.png', 'Im_PatrickDempsey.png', 'Im_ElijahWood.png', 'Im_RyanGosling.png', 'Im_LeonardoDiCaprio.png', 'Im_RobertDowneyJr.png', 'Im_RobertPattinson.png', 'Im_JustinTimberlake.png', 'Im_DanielCraig.png', 'Im_MattDamon.png'],diff,1,0.49207270000079006,26,61.904761904761905,
MIFA1204,5,neg,fs,negfs_id4_im7.bmp_negfs_id4_im20.bmp,['Im_BradPitt.png', 'Im_PatrickDempsey.png', 'Im_ElijahWood.png', 'Im_RyanGosling.png', 'Im_LeonardoDiCaprio.png', 'Im_RobertDowneyJr.png', 'Im_RobertPattinson.png', 'Im_JustinTimberlake.png', 'Im_DanielCraig.png', 'Im_MattDamon.png'],same,1,0.4333766999989166,27,61.904761904761905,
MIFA1204,5,neg,120,neg120_id20_im12.bmp_neg120_id10_im1.bmp,['Im_BradPitt.png', 'Im_PatrickDempsey.png', 'Im_ElijahWood.png', 'Im_RyanGosling.png', 'Im_LeonardoDiCaprio.png', 'Im_RobertDowneyJr.png', 'Im_RobertPattinson.png', 'Im_JustinTimberlake.png', 'Im_DanielCraig.png', 'Im_MattDamon.png'],diff,1,2.8083667999999307,28,61.904761904761905,
MIFA1204,5,neg,90,neg90_id10_im18.bmp_neg90_id13_im29.bmp,['Im_BradPitt.png', 'Im_PatrickDempsey.png', 'Im_ElijahWood.png', 'Im_RyanGosling.png', 'Im_LeonardoDiCaprio.png', 'Im_RobertDowneyJr.png', 'Im_RobertPattinson.png', 'Im_JustinTimberlake.png', 'Im_DanielCraig.png', 'Im_MattDamon.png'],same,0,1.650100000000748,28,61.904761904761905,
MIFA1204,5,neg,90,neg90_id19_im4.bmp_neg90_id4_im20.bmp,['Im_BradPitt.png', 'Im_PatrickDempsey.png', 'Im_ElijahWood.png', 'Im_RyanGosling.png', 'Im_LeonardoDiCaprio.png', 'Im_RobertDowneyJr.png', 'Im_RobertPattinson.png', 'Im_JustinTimberlake.png', 'Im_DanielCraig.png', 'Im_MattDamon.png'],diff,1,0.7920649999996385,29,61.904761904761905,
MIFA1204,5,neg,0,neg0_id17_im8.bmp_neg0_id10_im17.bmp,['Im_BradPitt.png', 'Im_PatrickDempsey.png', 'Im_ElijahWood.png', 'Im_RyanGosling.png', 'Im_LeonardoDiCaprio.png', 'Im_RobertDowneyJr.png', 'Im_RobertPattinson.png', 'Im_JustinTimberlake.png', 'Im_DanielCraig.png', 'Im_MattDamon.png'],diff,1,2.067054499999358,30,61.904761904761905,
MIFA1204,5,neg,60,neg60_id3_im17.bmp_neg60_id18_im11.bmp,['Im_BradPitt.png', 'Im_PatrickDempsey.png', 'Im_ElijahWood.png', 'Im_RyanGosling.png', 'Im_LeonardoDiCaprio.png', 'Im_RobertDowneyJr.png', 'Im_RobertPattinson.png', 'Im_JustinTimberlake.png', 'Im_DanielCraig.png', 'Im_MattDamon.png'],diff,1,0.6583289999998669,31,61.904761904761905,
MIFA1204,5,neg,120,neg120_id10_im17.bmp_neg120_id20_im3.bmp,['Im_BradPitt.png', 'Im_PatrickDempsey.png', 'Im_ElijahWood.png', 'Im_RyanGosling.png', 'Im_LeonardoDiCaprio.png', 'Im_RobertDowneyJr.png', 'Im_RobertPattinson.png', 'Im_JustinTimberlake.png', 'Im_DanielCraig.png', 'Im_MattDamon.png'],same,0,0.7002747999995336,31,61.904761904761905,
MIFA1204,5,neg,0,neg0_id10_im17.bmp_neg0_id10_im1.bmp,['Im_BradPitt.png', 'Im_PatrickDempsey.png', 'Im_ElijahWood.png', 'Im_RyanGosling.png', 'Im_LeonardoDiCaprio.png', 'Im_RobertDowneyJr.png', 'Im_RobertPattinson.png', 'Im_JustinTimberlake.png', 'Im_DanielCraig.png', 'Im_MattDamon.png'],same,1,0.6584866999983205,32,61.904761904761905,
MIFA1204,5,neg,60,neg60_id13_im10.bmp_neg60_id13_im29.bmp,['Im_BradPitt.png', 'Im_PatrickDempsey.png', 'Im_ElijahWood.png', 'Im_RyanGosling.png', 'Im_LeonardoDiCaprio.png', 'Im_RobertDowneyJr.png', 'Im_RobertPattinson.png', 'Im_JustinTimberlake.png', 'Im_DanielCraig.png', 'Im_MattDamon.png'],diff,0,0.7918577999989793,32,61.904761904761905,
MIFA1204,5,neg,30,neg30_id13_im10.bmp_neg30_id18_im19.bmp,['Im_BradPitt.png', 'Im_PatrickDempsey.png', 'Im_ElijahWood.png', 'Im_RyanGosling.png', 'Im_LeonardoDiCaprio.png', 'Im_RobertDowneyJr.png', 'Im_RobertPattinson.png', 'Im_JustinTimberlake.png', 'Im_DanielCraig.png', 'Im_MattDamon.png'],diff,1,0.9668084000004455,33,61.904761904761905,
MIFA1204,6,pos,150,pos150_id4_im20.bmp_pos150_id4_im7.bmp,['Im_BradPitt.png', 'Im_PatrickDempsey.png', 'Im_ElijahWood.png', 'Im_RyanGosling.png', 'Im_LeonardoDiCaprio.png', 'Im_RobertDowneyJr.png', 'Im_RobertPattinson.png', 'Im_JustinTimberlake.png', 'Im_DanielCraig.png', 'Im_MattDamon.png'],same,1,0.5999374999992142,1,78.57142857142857,
MIFA1204,6,pos,30,pos30_id4_im7.bmp_pos30_id4_im15.bmp,['Im_BradPitt.png', 'Im_PatrickDempsey.png', 'Im_ElijahWood.png', 'Im_RyanGosling.png', 'Im_LeonardoDiCaprio.png', 'Im_RobertDowneyJr.png', 'Im_RobertPattinson.png', 'Im_JustinTimberlake.png', 'Im_DanielCraig.png', 'Im_MattDamon.png'],same,1,0.4250680999994074,2,78.57142857142857,
MIFA1204,6,pos,150,pos150_id13_im15.bmp_pos150_id18_im11.bmp,['Im_BradPitt.png', 'Im_PatrickDempsey.png', 'Im_ElijahWood.png', 'Im_RyanGosling.png', 'Im_LeonardoDiCaprio.png', 'Im_RobertDowneyJr.png', 'Im_RobertPattinson.png', 'Im_JustinTimberlake.png', 'Im_DanielCraig.png', 'Im_MattDamon.png'],diff,1,0.5917845999993006,3,78.57142857142857,
MIFA1204,6,pos,0,pos0_id17_im8.bmp_pos0_id17_im9.bmp,['Im_BradPitt.png', 'Im_PatrickDempsey.png', 'Im_ElijahWood.png', 'Im_RyanGosling.png', 'Im_LeonardoDiCaprio.png', 'Im_RobertDowneyJr.png', 'Im_RobertPattinson.png', 'Im_JustinTimberlake.png', 'Im_DanielCraig.png', 'Im_MattDamon.png'],same,1,0.8834649000000354,4,78.57142857142857,
MIFA1204,6,pos,fs,posfs_id6_im18.bmp_posfs_id6_im12.bmp,['Im_BradPitt.png', 'Im_PatrickDempsey.png', 'Im_ElijahWood.png', 'Im_RyanGosling.png', 'Im_LeonardoDiCaprio.png', 'Im_RobertDowneyJr.png', 'Im_RobertPattinson.png', 'Im_JustinTimberlake.png', 'Im_DanielCraig.png', 'Im_MattDamon.png'],same,1,0.5251849999986007,5,78.57142857142857,
MIFA1204,6,pos,0,pos0_id19_im27.bmp_pos0_id19_im8.bmp,['Im_BradPitt.png', 'Im_PatrickDempsey.png', 'Im_ElijahWood.png', 'Im_RyanGosling.png', 'Im_LeonardoDiCaprio.png', 'Im_RobertDowneyJr.png', 'Im_RobertPattinson.png', 'Im_JustinTimberlake.png', 'Im_DanielCraig.png', 'Im_MattDamon.png'],same,1,0.43338539999967907,6,78.57142857142857,
MIFA1204,6,pos,30,pos30_id18_im18.bmp_pos30_id18_im11.bmp,['Im_BradPitt.png', 'Im_PatrickDempsey.png', 'Im_ElijahWood.png', 'Im_RyanGosling.png', 'Im_LeonardoDiCaprio.png', 'Im_RobertDowneyJr.png', 'Im_RobertPattinson.png', 'Im_JustinTimberlake.png', 'Im_DanielCraig.png', 'Im_MattDamon.png'],same,1,0.6000352000010025,7,78.57142857142857,
MIFA1204,6,pos,60,pos60_id14_im24.bmp_pos60_id6_im12.bmp,['Im_BradPitt.png', 'Im_PatrickDempsey.png', 'Im_ElijahWood.png', 'Im_RyanGosling.png', 'Im_LeonardoDiCaprio.png', 'Im_RobertDowneyJr.png', 'Im_RobertPattinson.png', 'Im_JustinTimberlake.png', 'Im_DanielCraig.png', 'Im_MattDamon.png'],diff,1,0.4252047999998467,8,78.57142857142857,
MIFA1204,6,pos,120,pos120_id17_im14.bmp_pos120_id13_im15.bmp,['Im_BradPitt.png', 'Im_PatrickDempsey.png', 'Im_ElijahWood.png', 'Im_RyanGosling.png', 'Im_LeonardoDiCaprio.png', 'Im_RobertDowneyJr.png', 'Im_RobertPattinson.png', 'Im_JustinTimberlake.png', 'Im_DanielCraig.png', 'Im_MattDamon.png'],diff,1,0.4167130999994697,9,78.57142857142857,
MIFA1204,6,pos,90,pos90_id3_im8.bmp_pos90_id17_im9.bmp,['Im_BradPitt.png', 'Im_PatrickDempsey.png', 'Im_ElijahWood.png', 'Im_RyanGosling.png', 'Im_LeonardoDiCaprio.png', 'Im_RobertDowneyJr.png', 'Im_RobertPattinson.png', 'Im_JustinTimberlake.png', 'Im_DanielCraig.png', 'Im_MattDamon.png'],same,0,0.5584070999993855,9,78.57142857142857,
MIFA1204,6,pos,90,pos90_id14_im24.bmp_pos90_id18_im19.bmp,['Im_BradPitt.png', 'Im_PatrickDempsey.png', 'Im_ElijahWood.png', 'Im_RyanGosling.png', 'Im_LeonardoDiCaprio.png', 'Im_RobertDowneyJr.png', 'Im_RobertPattinson.png', 'Im_JustinTimberlake.png', 'Im_DanielCraig.png', 'Im_MattDamon.png'],diff,1,1.0920017000007647,10,78.57142857142857,
MIFA1204,6,pos,fs,posfs_id3_im6.bmp_posfs_id3_im8.bmp,['Im_BradPitt.png', 'Im_PatrickDempsey.png', 'Im_ElijahWood.png', 'Im_RyanGosling.png', 'Im_LeonardoDiCaprio.png', 'Im_RobertDowneyJr.png', 'Im_RobertPattinson.png', 'Im_JustinTimberlake.png', 'Im_DanielCraig.png', 'Im_MattDamon.png'],same,1,0.7917400999995152,11,78.57142857142857,
MIFA1204,6,pos,120,pos120_id10_im18.bmp_pos120_id19_im8.bmp,['Im_BradPitt.png', 'Im_PatrickDempsey.png', 'Im_ElijahWood.png', 'Im_RyanGosling.png', 'Im_LeonardoDiCaprio.png', 'Im_RobertDowneyJr.png', 'Im_RobertPattinson.png', 'Im_JustinTimberlake.png', 'Im_DanielCraig.png', 'Im_MattDamon.png'],same,0,0.6665711000005103,11,78.57142857142857,
MIFA1204,6,pos,60,pos60_id19_im4.bmp_pos60_id4_im7.bmp,['Im_BradPitt.png', 'Im_PatrickDempsey.png', 'Im_ElijahWood.png', 'Im_RyanGosling.png', 'Im_LeonardoDiCaprio.png', 'Im_RobertDowneyJr.png', 'Im_RobertPattinson.png', 'Im_JustinTimberlake.png', 'Im_DanielCraig.png', 'Im_MattDamon.png'],diff,1,0.7502438999999868,12,78.57142857142857,
MIFA1204,7,pos,30,pos30_id13_im15.bmp_pos30_id18_im11.bmp,['Im_BradPitt.png', 'Im_PatrickDempsey.png', 'Im_ElijahWood.png', 'Im_RyanGosling.png', 'Im_LeonardoDiCaprio.png', 'Im_RobertDowneyJr.png', 'Im_RobertPattinson.png', 'Im_JustinTimberlake.png', 'Im_DanielCraig.png', 'Im_MattDamon.png'],diff,1,0.48362619999898016,13,78.57142857142857,
MIFA1204,7,pos,30,pos30_id10_im18.bmp_pos30_id19_im8.bmp,['Im_BradPitt.png', 'Im_PatrickDempsey.png', 'Im_ElijahWood.png', 'Im_RyanGosling.png', 'Im_LeonardoDiCaprio.png', 'Im_RobertDowneyJr.png', 'Im_RobertPattinson.png', 'Im_JustinTimberlake.png', 'Im_DanielCraig.png', 'Im_MattDamon.png'],same,0,0.5833959999999934,13,78.57142857142857,
MIFA1204,7,pos,fs,posfs_id17_im9.bmp_posfs_id3_im8.bmp,['Im_BradPitt.png', 'Im_PatrickDempsey.png', 'Im_ElijahWood.png', 'Im_RyanGosling.png', 'Im_LeonardoDiCaprio.png', 'Im_RobertDowneyJr.png', 'Im_RobertPattinson.png', 'Im_JustinTimberlake.png', 'Im_DanielCraig.png', 'Im_MattDamon.png'],diff,1,0.41671649999989313,14,78.57142857142857,
MIFA1204,7,pos,90,pos90_id18_im11.bmp_pos90_id18_im18.bmp,['Im_BradPitt.png', 'Im_PatrickDempsey.png', 'Im_ElijahWood.png', 'Im_RyanGosling.png', 'Im_LeonardoDiCaprio.png', 'Im_RobertDowneyJr.png', 'Im_RobertPattinson.png', 'Im_JustinTimberlake.png', 'Im_DanielCraig.png', 'Im_MattDamon.png'],same,1,0.45008710000001884,15,78.57142857142857,
MIFA1204,7,pos,0,pos0_id17_im14.bmp_pos0_id13_im15.bmp,['Im_BradPitt.png', 'Im_PatrickDempsey.png', 'Im_ElijahWood.png', 'Im_RyanGosling.png', 'Im_LeonardoDiCaprio.png', 'Im_RobertDowneyJr.png', 'Im_RobertPattinson.png', 'Im_JustinTimberlake.png', 'Im_DanielCraig.png', 'Im_MattDamon.png'],diff,1,0.4250638000012259,16,78.57142857142857,
MIFA1204,7,pos,fs,posfs_id4_im15.bmp_posfs_id10_im1.bmp,['Im_BradPitt.png', 'Im_PatrickDempsey.png', 'Im_ElijahWood.png', 'Im_RyanGosling.png', 'Im_LeonardoDiCaprio.png', 'Im_RobertDowneyJr.png', 'Im_RobertPattinson.png', 'Im_JustinTimberlake.png', 'Im_DanielCraig.png', 'Im_MattDamon.png'],diff,1,0.425066899999365,17,78.57142857142857,
MIFA1204,7,pos,120,pos120_id4_im15.bmp_pos120_id4_im20.bmp,['Im_BradPitt.png', 'Im_PatrickDempsey.png', 'Im_ElijahWood.png', 'Im_RyanGosling.png', 'Im_LeonardoDiCaprio.png', 'Im_RobertDowneyJr.png', 'Im_RobertPattinson.png', 'Im_JustinTimberlake.png', 'Im_DanielCraig.png', 'Im_MattDamon.png'],same,1,0.6500543999991351,18,78.57142857142857,
MIFA1204,7,pos,150,pos150_id19_im27.bmp_pos150_id19_im8.bmp,['Im_BradPitt.png', 'Im_PatrickDempsey.png', 'Im_ElijahWood.png', 'Im_RyanGosling.png', 'Im_LeonardoDiCaprio.png', 'Im_RobertDowneyJr.png', 'Im_RobertPattinson.png', 'Im_JustinTimberlake.png', 'Im_DanielCraig.png', 'Im_MattDamon.png'],same,1,0.9668258000001515,19,78.57142857142857,
MIFA1204,7,pos,150,pos150_id20_im3.bmp_pos150_id20_im12.bmp,['Im_BradPitt.png', 'Im_PatrickDempsey.png', 'Im_ElijahWood.png', 'Im_RyanGosling.png', 'Im_LeonardoDiCaprio.png', 'Im_RobertDowneyJr.png', 'Im_RobertPattinson.png', 'Im_JustinTimberlake.png', 'Im_DanielCraig.png', 'Im_MattDamon.png'],same,1,0.4251884000004793,20,78.57142857142857,
MIFA1204,7,pos,0,pos0_id18_im11.bmp_pos0_id3_im17.bmp,['Im_BradPitt.png', 'Im_PatrickDempsey.png', 'Im_ElijahWood.png', 'Im_RyanGosling.png', 'Im_LeonardoDiCaprio.png', 'Im_RobertDowneyJr.png', 'Im_RobertPattinson.png', 'Im_JustinTimberlake.png', 'Im_DanielCraig.png', 'Im_MattDamon.png'],diff,1,0.5251862000004621,21,78.57142857142857,
MIFA1204,7,pos,120,pos120_id18_im18.bmp_pos120_id6_im18.bmp,['Im_BradPitt.png', 'Im_PatrickDempsey.png', 'Im_ElijahWood.png', 'Im_RyanGosling.png', 'Im_LeonardoDiCaprio.png', 'Im_RobertDowneyJr.png', 'Im_RobertPattinson.png', 'Im_JustinTimberlake.png', 'Im_DanielCraig.png', 'Im_MattDamon.png'],diff,1,0.6251795000007405,22,78.57142857142857,
MIFA1204,7,pos,60,pos60_id10_im1.bmp_pos60_id10_im18.bmp,['Im_BradPitt.png', 'Im_PatrickDempsey.png', 'Im_ElijahWood.png', 'Im_RyanGosling.png', 'Im_LeonardoDiCaprio.png', 'Im_RobertDowneyJr.png', 'Im_RobertPattinson.png', 'Im_JustinTimberlake.png', 'Im_DanielCraig.png', 'Im_MattDamon.png'],same,1,0.41676300000108313,23,78.57142857142857,
MIFA1204,7,pos,60,pos60_id4_im15.bmp_pos60_id10_im1.bmp,['Im_BradPitt.png', 'Im_PatrickDempsey.png', 'Im_ElijahWood.png', 'Im_RyanGosling.png', 'Im_LeonardoDiCaprio.png', 'Im_RobertDowneyJr.png', 'Im_RobertPattinson.png', 'Im_JustinTimberlake.png', 'Im_DanielCraig.png', 'Im_MattDamon.png'],diff,1,0.5333940999989863,24,78.57142857142857,
MIFA1204,7,pos,90,pos90_id13_im15.bmp_pos90_id18_im11.bmp,['Im_BradPitt.png', 'Im_PatrickDempsey.png', 'Im_ElijahWood.png', 'Im_RyanGosling.png', 'Im_LeonardoDiCaprio.png', 'Im_RobertDowneyJr.png', 'Im_RobertPattinson.png', 'Im_JustinTimberlake.png', 'Im_DanielCraig.png', 'Im_MattDamon.png'],diff,1,0.49187739999979385,25,78.57142857142857,
MIFA1204,8,inv,fs,posfs_id17_im14.bmp_posfs_id20_im30.bmp,['Im_BradPitt.png', 'Im_PatrickDempsey.png', 'Im_ElijahWood.png', 'Im_RyanGosling.png', 'Im_LeonardoDiCaprio.png', 'Im_RobertDowneyJr.png', 'Im_RobertPattinson.png', 'Im_JustinTimberlake.png', 'Im_DanielCraig.png', 'Im_MattDamon.png'],diff,1,0.49165220000031695,26,78.57142857142857,
MIFA1204,8,inv,fs,posfs_id20_im3.bmp_posfs_id20_im12.bmp,['Im_BradPitt.png', 'Im_PatrickDempsey.png', 'Im_ElijahWood.png', 'Im_RyanGosling.png', 'Im_LeonardoDiCaprio.png', 'Im_RobertDowneyJr.png', 'Im_RobertPattinson.png', 'Im_JustinTimberlake.png', 'Im_DanielCraig.png', 'Im_MattDamon.png'],same,1,0.5671452999995381,27,78.57142857142857,
MIFA1204,8,inv,150,pos150_id3_im17.bmp_pos150_id4_im15.bmp,['Im_BradPitt.png', 'Im_PatrickDempsey.png', 'Im_ElijahWood.png', 'Im_RyanGosling.png', 'Im_LeonardoDiCaprio.png', 'Im_RobertDowneyJr.png', 'Im_RobertPattinson.png', 'Im_JustinTimberlake.png', 'Im_DanielCraig.png', 'Im_MattDamon.png'],same,0,0.5916411999987758,27,78.57142857142857,
MIFA1204,8,inv,90,pos90_id13_im10.bmp_pos90_id13_im29.bmp,['Im_BradPitt.png', 'Im_PatrickDempsey.png', 'Im_ElijahWood.png', 'Im_RyanGosling.png', 'Im_LeonardoDiCaprio.png', 'Im_RobertDowneyJr.png', 'Im_RobertPattinson.png', 'Im_JustinTimberlake.png', 'Im_DanielCraig.png', 'Im_MattDamon.png'],same,1,0.42508860000089044,28,78.57142857142857,
MIFA1204,8,inv,60,pos60_id19_im4.bmp_pos60_id19_im8.bmp,['Im_BradPitt.png', 'Im_PatrickDempsey.png', 'Im_ElijahWood.png', 'Im_RyanGosling.png', 'Im_LeonardoDiCaprio.png', 'Im_RobertDowneyJr.png', 'Im_RobertPattinson.png', 'Im_JustinTimberlake.png', 'Im_DanielCraig.png', 'Im_MattDamon.png'],diff,0,0.5086150000006455,28,78.57142857142857,
MIFA1204,8,inv,30,pos30_id17_im9.bmp_pos30_id3_im8.bmp,['Im_BradPitt.png', 'Im_PatrickDempsey.png', 'Im_ElijahWood.png', 'Im_RyanGosling.png', 'Im_LeonardoDiCaprio.png', 'Im_RobertDowneyJr.png', 'Im_RobertPattinson.png', 'Im_JustinTimberlake.png', 'Im_DanielCraig.png', 'Im_MattDamon.png'],diff,1,1.8416739000003872,29,78.57142857142857,
MIFA1204,8,inv,0,pos0_id10_im17.bmp_pos0_id17_im8.bmp,['Im_BradPitt.png', 'Im_PatrickDempsey.png', 'Im_ElijahWood.png', 'Im_RyanGosling.png', 'Im_LeonardoDiCaprio.png', 'Im_RobertDowneyJr.png', 'Im_RobertPattinson.png', 'Im_JustinTimberlake.png', 'Im_DanielCraig.png', 'Im_MattDamon.png'],same,0,0.8835865999990347,29,78.57142857142857,
MIFA1204,8,inv,120,pos120_id13_im10.bmp_pos120_id13_im15.bmp,['Im_BradPitt.png', 'Im_PatrickDempsey.png', 'Im_ElijahWood.png', 'Im_RyanGosling.png', 'Im_LeonardoDiCaprio.png', 'Im_RobertDowneyJr.png', 'Im_RobertPattinson.png', 'Im_JustinTimberlake.png', 'Im_DanielCraig.png', 'Im_MattDamon.png'],diff,0,0.41681830000015907,29,78.57142857142857,
MIFA1204,8,inv,60,pos60_id17_im9.bmp_pos60_id17_im8.bmp,['Im_BradPitt.png', 'Im_PatrickDempsey.png', 'Im_ElijahWood.png', 'Im_RyanGosling.png', 'Im_LeonardoDiCaprio.png', 'Im_RobertDowneyJr.png', 'Im_RobertPattinson.png', 'Im_JustinTimberlake.png', 'Im_DanielCraig.png', 'Im_MattDamon.png'],same,1,0.8584383000015805,30,78.57142857142857,
MIFA1204,8,inv,0,pos0_id13_im15.bmp_pos0_id17_im14.bmp,['Im_BradPitt.png', 'Im_PatrickDempsey.png', 'Im_ElijahWood.png', 'Im_RyanGosling.png', 'Im_LeonardoDiCaprio.png', 'Im_RobertDowneyJr.png', 'Im_RobertPattinson.png', 'Im_JustinTimberlake.png', 'Im_DanielCraig.png', 'Im_MattDamon.png'],same,0,0.5834104999994452,30,78.57142857142857,
MIFA1204,8,inv,120,pos120_id18_im11.bmp_pos120_id13_im15.bmp,['Im_BradPitt.png', 'Im_PatrickDempsey.png', 'Im_ElijahWood.png', 'Im_RyanGosling.png', 'Im_LeonardoDiCaprio.png', 'Im_RobertDowneyJr.png', 'Im_RobertPattinson.png', 'Im_JustinTimberlake.png', 'Im_DanielCraig.png', 'Im_MattDamon.png'],diff,1,1.0167000999990705,31,78.57142857142857,
MIFA1204,8,inv,30,pos30_id10_im17.bmp_pos30_id10_im18.bmp,['Im_BradPitt.png', 'Im_PatrickDempsey.png', 'Im_ElijahWood.png', 'Im_RyanGosling.png', 'Im_LeonardoDiCaprio.png', 'Im_RobertDowneyJr.png', 'Im_RobertPattinson.png', 'Im_JustinTimberlake.png', 'Im_DanielCraig.png', 'Im_MattDamon.png'],same,1,1.2081921999997576,32,78.57142857142857,
MIFA1204,8,inv,150,pos150_id10_im17.bmp_pos150_id20_im3.bmp,['Im_BradPitt.png', 'Im_PatrickDempsey.png', 'Im_ElijahWood.png', 'Im_RyanGosling.png', 'Im_LeonardoDiCaprio.png', 'Im_RobertDowneyJr.png', 'Im_RobertPattinson.png', 'Im_JustinTimberlake.png', 'Im_DanielCraig.png', 'Im_MattDamon.png'],same,0,0.8837786000003689,32,78.57142857142857,
MIFA1204,8,inv,90,pos90_id20_im3.bmp_pos90_id20_im12.bmp,['Im_BradPitt.png', 'Im_PatrickDempsey.png', 'Im_ElijahWood.png', 'Im_RyanGosling.png', 'Im_LeonardoDiCaprio.png', 'Im_RobertDowneyJr.png', 'Im_RobertPattinson.png', 'Im_JustinTimberlake.png', 'Im_DanielCraig.png', 'Im_MattDamon.png'],same,1,1.6166759000007005,33,78.57142857142857,
MIFA1204,9,neg,120,neg120_id4_im20.bmp_neg120_id4_im15.bmp,['Im_BradPitt.png', 'Im_PatrickDempsey.png', 'Im_ElijahWood.png', 'Im_RyanGosling.png', 'Im_LeonardoDiCaprio.png', 'Im_RobertDowneyJr.png', 'Im_RobertPattinson.png', 'Im_JustinTimberlake.png', 'Im_DanielCraig.png', 'Im_MattDamon.png'],same,1,0.6253070000002481,1,78.57142857142857,
MIFA1204,9,neg,90,neg90_id13_im15.bmp_neg90_id17_im14.bmp,['Im_BradPitt.png', 'Im_PatrickDempsey.png', 'Im_ElijahWood.png', 'Im_RyanGosling.png', 'Im_LeonardoDiCaprio.png', 'Im_RobertDowneyJr.png', 'Im_RobertPattinson.png', 'Im_JustinTimberlake.png', 'Im_DanielCraig.png', 'Im_MattDamon.png'],diff,1,0.48356909999893105,2,78.57142857142857,
MIFA1204,9,neg,0,neg0_id13_im29.bmp_neg0_id20_im12.bmp,['Im_BradPitt.png', 'Im_PatrickDempsey.png', 'Im_ElijahWood.png', 'Im_RyanGosling.png', 'Im_LeonardoDiCaprio.png', 'Im_RobertDowneyJr.png', 'Im_RobertPattinson.png', 'Im_JustinTimberlake.png', 'Im_DanielCraig.png', 'Im_MattDamon.png'],diff,1,0.5504419000008056,3,78.57142857142857,
MIFA1204,9,neg,0,neg0_id3_im17.bmp_neg0_id3_im8.bmp,['Im_BradPitt.png', 'Im_PatrickDempsey.png', 'Im_ElijahWood.png', 'Im_RyanGosling.png', 'Im_LeonardoDiCaprio.png', 'Im_RobertDowneyJr.png', 'Im_RobertPattinson.png', 'Im_JustinTimberlake.png', 'Im_DanielCraig.png', 'Im_MattDamon.png'],same,1,0.541528699999617,4,78.57142857142857,
MIFA1204,9,neg,90,neg90_id17_im8.bmp_neg90_id17_im14.bmp,['Im_BradPitt.png', 'Im_PatrickDempsey.png', 'Im_ElijahWood.png', 'Im_RyanGosling.png', 'Im_LeonardoDiCaprio.png', 'Im_RobertDowneyJr.png', 'Im_RobertPattinson.png', 'Im_JustinTimberlake.png', 'Im_DanielCraig.png', 'Im_MattDamon.png'],same,1,0.5083865000015066,5,78.57142857142857,
MIFA1204,9,neg,fs,negfs_id20_im30.bmp_negfs_id20_im3.bmp,['Im_BradPitt.png', 'Im_PatrickDempsey.png', 'Im_ElijahWood.png', 'Im_RyanGosling.png', 'Im_LeonardoDiCaprio.png', 'Im_RobertDowneyJr.png', 'Im_RobertPattinson.png', 'Im_JustinTimberlake.png', 'Im_DanielCraig.png', 'Im_MattDamon.png'],same,1,0.41670650000014575,6,78.57142857142857,
MIFA1204,9,neg,150,neg150_id10_im17.bmp_neg150_id10_im1.bmp,['Im_BradPitt.png', 'Im_PatrickDempsey.png', 'Im_ElijahWood.png', 'Im_RyanGosling.png', 'Im_LeonardoDiCaprio.png', 'Im_RobertDowneyJr.png', 'Im_RobertPattinson.png', 'Im_JustinTimberlake.png', 'Im_DanielCraig.png', 'Im_MattDamon.png'],same,1,0.4167357999995147,7,78.57142857142857,
MIFA1204,9,neg,150,neg150_id4_im15.bmp_neg150_id4_im7.bmp,['Im_BradPitt.png', 'Im_PatrickDempsey.png', 'Im_ElijahWood.png', 'Im_RyanGosling.png', 'Im_LeonardoDiCaprio.png', 'Im_RobertDowneyJr.png', 'Im_RobertPattinson.png', 'Im_JustinTimberlake.png', 'Im_DanielCraig.png', 'Im_MattDamon.png'],same,1,0.4250590000010561,8,78.57142857142857,
MIFA1204,9,neg,60,neg60_id4_im7.bmp_neg60_id14_im16.bmp,['Im_BradPitt.png', 'Im_PatrickDempsey.png', 'Im_ElijahWood.png', 'Im_RyanGosling.png', 'Im_LeonardoDiCaprio.png', 'Im_RobertDowneyJr.png', 'Im_RobertPattinson.png', 'Im_JustinTimberlake.png', 'Im_DanielCraig.png', 'Im_MattDamon.png'],diff,1,0.4084335999996256,9,78.57142857142857,
MIFA1204,9,neg,30,neg30_id20_im30.bmp_neg30_id6_im19.bmp,['Im_BradPitt.png', 'Im_PatrickDempsey.png', 'Im_ElijahWood.png', 'Im_RyanGosling.png', 'Im_LeonardoDiCaprio.png', 'Im_RobertDowneyJr.png', 'Im_RobertPattinson.png', 'Im_JustinTimberlake.png', 'Im_DanielCraig.png', 'Im_MattDamon.png'],diff,1,0.40847410000060336,10,78.57142857142857,
MIFA1204,9,neg,fs,negfs_id6_im12.bmp_negfs_id6_im18.bmp,['Im_BradPitt.png', 'Im_PatrickDempsey.png', 'Im_ElijahWood.png', 'Im_RyanGosling.png', 'Im_LeonardoDiCaprio.png', 'Im_RobertDowneyJr.png', 'Im_RobertPattinson.png', 'Im_JustinTimberlake.png', 'Im_DanielCraig.png', 'Im_MattDamon.png'],diff,0,0.4083047999993141,10,78.57142857142857,
MIFA1204,9,neg,30,neg30_id18_im19.bmp_neg30_id18_im11.bmp,['Im_BradPitt.png', 'Im_PatrickDempsey.png', 'Im_ElijahWood.png', 'Im_RyanGosling.png', 'Im_LeonardoDiCaprio.png', 'Im_RobertDowneyJr.png', 'Im_RobertPattinson.png', 'Im_JustinTimberlake.png', 'Im_DanielCraig.png', 'Im_MattDamon.png'],same,1,1.2001595000001544,11,78.57142857142857,
MIFA1204,9,neg,120,neg120_id10_im17.bmp_neg120_id10_im18.bmp,['Im_BradPitt.png', 'Im_PatrickDempsey.png', 'Im_ElijahWood.png', 'Im_RyanGosling.png', 'Im_LeonardoDiCaprio.png', 'Im_RobertDowneyJr.png', 'Im_RobertPattinson.png', 'Im_JustinTimberlake.png', 'Im_DanielCraig.png', 'Im_MattDamon.png'],same,1,0.47504579999986163,12,78.57142857142857,
MIFA1204,9,neg,60,neg60_id20_im12.bmp_neg60_id10_im1.bmp,['Im_BradPitt.png', 'Im_PatrickDempsey.png', 'Im_ElijahWood.png', 'Im_RyanGosling.png', 'Im_LeonardoDiCaprio.png', 'Im_RobertDowneyJr.png', 'Im_RobertPattinson.png', 'Im_JustinTimberlake.png', 'Im_DanielCraig.png', 'Im_MattDamon.png'],diff,1,0.8170544999993581,13,78.57142857142857,
MIFA1204,10,inv,0,pos0_id14_im18.bmp_pos0_id14_im24.bmp,['Im_BradPitt.png', 'Im_PatrickDempsey.png', 'Im_ElijahWood.png', 'Im_RyanGosling.png', 'Im_LeonardoDiCaprio.png', 'Im_RobertDowneyJr.png', 'Im_RobertPattinson.png', 'Im_JustinTimberlake.png', 'Im_DanielCraig.png', 'Im_MattDamon.png'],same,1,0.5500551000004634,14,78.57142857142857,
MIFA1204,10,inv,fs,posfs_id19_im27.bmp_posfs_id19_im4.bmp,['Im_BradPitt.png', 'Im_PatrickDempsey.png', 'Im_ElijahWood.png', 'Im_RyanGosling.png', 'Im_LeonardoDiCaprio.png', 'Im_RobertDowneyJr.png', 'Im_RobertPattinson.png', 'Im_JustinTimberlake.png', 'Im_DanielCraig.png', 'Im_MattDamon.png'],same,1,0.41679129999829456,15,78.57142857142857,
MIFA1204,10,inv,30,pos30_id6_im18.bmp_pos30_id19_im27.bmp,['Im_BradPitt.png', 'Im_PatrickDempsey.png', 'Im_ElijahWood.png', 'Im_RyanGosling.png', 'Im_LeonardoDiCaprio.png', 'Im_RobertDowneyJr.png', 'Im_RobertPattinson.png', 'Im_JustinTimberlake.png', 'Im_DanielCraig.png', 'Im_MattDamon.png'],diff,1,0.9916817000012088,16,78.57142857142857,
MIFA1204,10,inv,60,pos60_id19_im4.bmp_pos60_id4_im20.bmp,['Im_BradPitt.png', 'Im_PatrickDempsey.png', 'Im_ElijahWood.png', 'Im_RyanGosling.png', 'Im_LeonardoDiCaprio.png', 'Im_RobertDowneyJr.png', 'Im_RobertPattinson.png', 'Im_JustinTimberlake.png', 'Im_DanielCraig.png', 'Im_MattDamon.png'],diff,1,0.5585655000031693,17,78.57142857142857,
MIFA1204,10,inv,fs,posfs_id13_im29.bmp_posfs_id13_im10.bmp,['Im_BradPitt.png', 'Im_PatrickDempsey.png', 'Im_ElijahWood.png', 'Im_RyanGosling.png', 'Im_LeonardoDiCaprio.png', 'Im_RobertDowneyJr.png', 'Im_RobertPattinson.png', 'Im_JustinTimberlake.png', 'Im_DanielCraig.png', 'Im_MattDamon.png'],same,1,0.6584700000021257,18,78.57142857142857,
MIFA1204,10,inv,150,pos150_id14_im18.bmp_pos150_id13_im10.bmp,['Im_BradPitt.png', 'Im_PatrickDempsey.png', 'Im_ElijahWood.png', 'Im_RyanGosling.png', 'Im_LeonardoDiCaprio.png', 'Im_RobertDowneyJr.png', 'Im_RobertPattinson.png', 'Im_JustinTimberlake.png', 'Im_DanielCraig.png', 'Im_MattDamon.png'],same,0,0.658607999997912,18,78.57142857142857,
MIFA1204,10,inv,120,pos120_id3_im8.bmp_pos120_id3_im17.bmp,['Im_BradPitt.png', 'Im_PatrickDempsey.png', 'Im_ElijahWood.png', 'Im_RyanGosling.png', 'Im_LeonardoDiCaprio.png', 'Im_RobertDowneyJr.png', 'Im_RobertPattinson.png', 'Im_JustinTimberlake.png', 'Im_DanielCraig.png', 'Im_MattDamon.png'],same,1,0.8583947000006447,19,78.57142857142857,
MIFA1204,10,inv,0,pos0_id14_im16.bmp_pos0_id14_im24.bmp,['Im_BradPitt.png', 'Im_PatrickDempsey.png', 'Im_ElijahWood.png', 'Im_RyanGosling.png', 'Im_LeonardoDiCaprio.png', 'Im_RobertDowneyJr.png', 'Im_RobertPattinson.png', 'Im_JustinTimberlake.png', 'Im_DanielCraig.png', 'Im_MattDamon.png'],same,1,0.49174849999690196,20,78.57142857142857,
MIFA1204,10,inv,60,pos60_id3_im6.bmp_pos60_id3_im17.bmp,['Im_BradPitt.png', 'Im_PatrickDempsey.png', 'Im_ElijahWood.png', 'Im_RyanGosling.png', 'Im_LeonardoDiCaprio.png', 'Im_RobertDowneyJr.png', 'Im_RobertPattinson.png', 'Im_JustinTimberlake.png', 'Im_DanielCraig.png', 'Im_MattDamon.png'],same,1,0.5836483000020962,21,78.57142857142857,
MIFA1204,10,inv,120,pos120_id6_im19.bmp_pos120_id20_im30.bmp,['Im_BradPitt.png', 'Im_PatrickDempsey.png', 'Im_ElijahWood.png', 'Im_RyanGosling.png', 'Im_LeonardoDiCaprio.png', 'Im_RobertDowneyJr.png', 'Im_RobertPattinson.png', 'Im_JustinTimberlake.png', 'Im_DanielCraig.png', 'Im_MattDamon.png'],diff,1,0.5336865999997826,22,78.57142857142857,
MIFA1204,10,inv,90,pos90_id4_im15.bmp_pos90_id4_im20.bmp,['Im_BradPitt.png', 'Im_PatrickDempsey.png', 'Im_ElijahWood.png', 'Im_RyanGosling.png', 'Im_LeonardoDiCaprio.png', 'Im_RobertDowneyJr.png', 'Im_RobertPattinson.png', 'Im_JustinTimberlake.png', 'Im_DanielCraig.png', 'Im_MattDamon.png'],same,1,0.4167373000018415,23,78.57142857142857,
MIFA1204,10,inv,30,pos30_id6_im12.bmp_pos30_id14_im24.bmp,['Im_BradPitt.png', 'Im_PatrickDempsey.png', 'Im_ElijahWood.png', 'Im_RyanGosling.png', 'Im_LeonardoDiCaprio.png', 'Im_RobertDowneyJr.png', 'Im_RobertPattinson.png', 'Im_JustinTimberlake.png', 'Im_DanielCraig.png', 'Im_MattDamon.png'],diff,1,0.7003012999994098,24,78.57142857142857,
MIFA1204,10,inv,90,pos90_id4_im7.bmp_pos90_id4_im15.bmp,['Im_BradPitt.png', 'Im_PatrickDempsey.png', 'Im_ElijahWood.png', 'Im_RyanGosling.png', 'Im_LeonardoDiCaprio.png', 'Im_RobertDowneyJr.png', 'Im_RobertPattinson.png', 'Im_JustinTimberlake.png', 'Im_DanielCraig.png', 'Im_MattDamon.png'],same,1,0.8503062999989197,25,78.57142857142857,
MIFA1204,10,inv,150,pos150_id13_im29.bmp_pos150_id13_im15.bmp,['Im_BradPitt.png', 'Im_PatrickDempsey.png', 'Im_ElijahWood.png', 'Im_RyanGosling.png', 'Im_LeonardoDiCaprio.png', 'Im_RobertDowneyJr.png', 'Im_RobertPattinson.png', 'Im_JustinTimberlake.png', 'Im_DanielCraig.png', 'Im_MattDamon.png'],diff,0,0.6835745999997016,25,78.57142857142857,
MIFA1204,11,neg,fs,negfs_id19_im8.bmp_negfs_id19_im4.bmp,['Im_BradPitt.png', 'Im_PatrickDempsey.png', 'Im_ElijahWood.png', 'Im_RyanGosling.png', 'Im_LeonardoDiCaprio.png', 'Im_RobertDowneyJr.png', 'Im_RobertPattinson.png', 'Im_JustinTimberlake.png', 'Im_DanielCraig.png', 'Im_MattDamon.png'],same,1,0.4166931999970984,26,78.57142857142857,
MIFA1204,11,neg,0,neg0_id13_im10.bmp_neg0_id13_im15.bmp,['Im_BradPitt.png', 'Im_PatrickDempsey.png', 'Im_ElijahWood.png', 'Im_RyanGosling.png', 'Im_LeonardoDiCaprio.png', 'Im_RobertDowneyJr.png', 'Im_RobertPattinson.png', 'Im_JustinTimberlake.png', 'Im_DanielCraig.png', 'Im_MattDamon.png'],same,1,0.4833807999966666,27,78.57142857142857,
MIFA1204,11,neg,0,neg0_id13_im15.bmp_neg0_id17_im14.bmp,['Im_BradPitt.png', 'Im_PatrickDempsey.png', 'Im_ElijahWood.png', 'Im_RyanGosling.png', 'Im_LeonardoDiCaprio.png', 'Im_RobertDowneyJr.png', 'Im_RobertPattinson.png', 'Im_JustinTimberlake.png', 'Im_DanielCraig.png', 'Im_MattDamon.png'],diff,1,0.7251101999972889,28,78.57142857142857,
MIFA1204,11,neg,60,neg60_id13_im15.bmp_neg60_id13_im10.bmp,['Im_BradPitt.png', 'Im_PatrickDempsey.png', 'Im_ElijahWood.png', 'Im_RyanGosling.png', 'Im_LeonardoDiCaprio.png', 'Im_RobertDowneyJr.png', 'Im_RobertPattinson.png', 'Im_JustinTimberlake.png', 'Im_DanielCraig.png', 'Im_MattDamon.png'],same,1,1.1335902999999234,29,78.57142857142857,
MIFA1204,11,neg,fs,negfs_id10_im17.bmp_negfs_id17_im8.bmp,['Im_BradPitt.png', 'Im_PatrickDempsey.png', 'Im_ElijahWood.png', 'Im_RyanGosling.png', 'Im_LeonardoDiCaprio.png', 'Im_RobertDowneyJr.png', 'Im_RobertPattinson.png', 'Im_JustinTimberlake.png', 'Im_DanielCraig.png', 'Im_MattDamon.png'],same,0,0.8249966000003042,29,78.57142857142857,
MIFA1204,11,neg,150,neg150_id3_im6.bmp_neg150_id3_im17.bmp,['Im_BradPitt.png', 'Im_PatrickDempsey.png', 'Im_ElijahWood.png', 'Im_RyanGosling.png', 'Im_LeonardoDiCaprio.png', 'Im_RobertDowneyJr.png', 'Im_RobertPattinson.png', 'Im_JustinTimberlake.png', 'Im_DanielCraig.png', 'Im_MattDamon.png'],same,1,0.6000113000009151,30,78.57142857142857,
MIFA1204,11,neg,150,neg150_id4_im15.bmp_neg150_id3_im17.bmp,['Im_BradPitt.png', 'Im_PatrickDempsey.png', 'Im_ElijahWood.png', 'Im_RyanGosling.png', 'Im_LeonardoDiCaprio.png', 'Im_RobertDowneyJr.png', 'Im_RobertPattinson.png', 'Im_JustinTimberlake.png', 'Im_DanielCraig.png', 'Im_MattDamon.png'],diff,1,0.4085374000023876,31,78.57142857142857,
MIFA1204,11,neg,30,neg30_id14_im24.bmp_neg30_id6_im12.bmp,['Im_BradPitt.png', 'Im_PatrickDempsey.png', 'Im_ElijahWood.png', 'Im_RyanGosling.png', 'Im_LeonardoDiCaprio.png', 'Im_RobertDowneyJr.png', 'Im_RobertPattinson.png', 'Im_JustinTimberlake.png', 'Im_DanielCraig.png', 'Im_MattDamon.png'],diff,1,0.41671970000243164,32,78.57142857142857,
MIFA1204,11,neg,60,neg60_id6_im12.bmp_neg60_id6_im19.bmp,['Im_BradPitt.png', 'Im_PatrickDempsey.png', 'Im_ElijahWood.png', 'Im_RyanGosling.png', 'Im_LeonardoDiCaprio.png', 'Im_RobertDowneyJr.png', 'Im_RobertPattinson.png', 'Im_JustinTimberlake.png', 'Im_DanielCraig.png', 'Im_MattDamon.png'],same,1,0.5916632999978901,33,78.57142857142857,
MIFA1204,11,neg,90,neg90_id17_im9.bmp_neg90_id20_im3.bmp,['Im_BradPitt.png', 'Im_PatrickDempsey.png', 'Im_ElijahWood.png', 'Im_RyanGosling.png', 'Im_LeonardoDiCaprio.png', 'Im_RobertDowneyJr.png', 'Im_RobertPattinson.png', 'Im_JustinTimberlake.png', 'Im_DanielCraig.png', 'Im_MattDamon.png'],same,0,0.4334256000001915,33,78.57142857142857,
MIFA1204,11,neg,120,neg120_id13_im15.bmp_neg120_id13_im10.bmp,['Im_BradPitt.png', 'Im_PatrickDempsey.png', 'Im_ElijahWood.png', 'Im_RyanGosling.png', 'Im_LeonardoDiCaprio.png', 'Im_RobertDowneyJr.png', 'Im_RobertPattinson.png', 'Im_JustinTimberlake.png', 'Im_DanielCraig.png', 'Im_MattDamon.png'],same,1,0.83336860000054,34,78.57142857142857,
MIFA1204,11,neg,90,neg90_id18_im11.bmp_neg90_id13_im15.bmp,['Im_BradPitt.png', 'Im_PatrickDempsey.png', 'Im_ElijahWood.png', 'Im_RyanGosling.png', 'Im_LeonardoDiCaprio.png', 'Im_RobertDowneyJr.png', 'Im_RobertPattinson.png', 'Im_JustinTimberlake.png', 'Im_DanielCraig.png', 'Im_MattDamon.png'],same,0,3.1084946999981184,34,78.57142857142857,
MIFA1204,11,neg,30,neg30_id4_im15.bmp_neg30_id3_im17.bmp,['Im_BradPitt.png', 'Im_PatrickDempsey.png', 'Im_ElijahWood.png', 'Im_RyanGosling.png', 'Im_LeonardoDiCaprio.png', 'Im_RobertDowneyJr.png', 'Im_RobertPattinson.png', 'Im_JustinTimberlake.png', 'Im_DanielCraig.png', 'Im_MattDamon.png'],diff,1,0.4918926999998803,35,78.57142857142857,
MIFA1204,11,neg,120,neg120_id10_im18.bmp_neg120_id13_im29.bmp,['Im_BradPitt.png', 'Im_PatrickDempsey.png', 'Im_ElijahWood.png', 'Im_RyanGosling.png', 'Im_LeonardoDiCaprio.png', 'Im_RobertDowneyJr.png', 'Im_RobertPattinson.png', 'Im_JustinTimberlake.png', 'Im_DanielCraig.png', 'Im_MattDamon.png'],same,0,0.6504171999986283,35,78.57142857142857,
MIFA1204,12,pos,120,pos120_id14_im18.bmp_pos120_id13_im10.bmp,['Im_BradPitt.png', 'Im_PatrickDempsey.png', 'Im_ElijahWood.png', 'Im_RyanGosling.png', 'Im_LeonardoDiCaprio.png', 'Im_RobertDowneyJr.png', 'Im_RobertPattinson.png', 'Im_JustinTimberlake.png', 'Im_DanielCraig.png', 'Im_MattDamon.png'],diff,1,0.4167702000013378,1,83.33333333333333,
