Sujet,Trial,Condition,Filter,Imname,Actor0,Actor1,Actor2,Actor3,Actor4,Actor5,Actor6,Actor7,Actor8,Actor9,Answer,Accu,RT,Score,Scoreperc, 
MIFA1204,0,neg,0,neg0_id18_im18.bmp_neg0_id6_im19.bmp,['Im_PatrickDempsey.png', 'Im_DanielCraig.png', 'Im_RobertPattinson.png', 'Im_ElijahWood.png', 'Im_MattDamon.png', 'Im_RyanGosling.png', 'Im_BradPitt.png', 'Im_JustinTimberlake.png', 'Im_RobertDowneyJr.png', 'Im_LeonardoDiCaprio.png'],diff,1,1263.5134926,1,0,
MIFA1204,0,neg,60,neg60_id14_im24.bmp_neg60_id6_im12.bmp,['Im_PatrickDempsey.png', 'Im_DanielCraig.png', 'Im_RobertPattinson.png', 'Im_ElijahWood.png', 'Im_MattDamon.png', 'Im_RyanGosling.png', 'Im_BradPitt.png', 'Im_JustinTimberlake.png', 'Im_RobertDowneyJr.png', 'Im_LeonardoDiCaprio.png'],diff,1,1267.955031,2,0,
MIFA1204,0,neg,150,neg150_id3_im6.bmp_neg150_id6_im12.bmp,['Im_PatrickDempsey.png', 'Im_DanielCraig.png', 'Im_RobertPattinson.png', 'Im_ElijahWood.png', 'Im_MattDamon.png', 'Im_RyanGosling.png', 'Im_BradPitt.png', 'Im_JustinTimberlake.png', 'Im_RobertDowneyJr.png', 'Im_LeonardoDiCaprio.png'],diff,1,1272.6050236,3,0,
MIFA1204,0,neg,60,neg60_id20_im30.bmp_neg60_id6_im19.bmp,['Im_PatrickDempsey.png', 'Im_DanielCraig.png', 'Im_RobertPattinson.png', 'Im_ElijahWood.png', 'Im_MattDamon.png', 'Im_RyanGosling.png', 'Im_BradPitt.png', 'Im_JustinTimberlake.png', 'Im_RobertDowneyJr.png', 'Im_LeonardoDiCaprio.png'],diff,1,1277.4969683,4,0,
MIFA1204,0,neg,0,neg0_id20_im30.bmp_neg0_id17_im14.bmp,['Im_PatrickDempsey.png', 'Im_DanielCraig.png', 'Im_RobertPattinson.png', 'Im_ElijahWood.png', 'Im_MattDamon.png', 'Im_RyanGosling.png', 'Im_BradPitt.png', 'Im_JustinTimberlake.png', 'Im_RobertDowneyJr.png', 'Im_LeonardoDiCaprio.png'],same,0,1282.2633254000002,4,0,
MIFA1204,0,neg,120,neg120_id20_im30.bmp_neg120_id20_im3.bmp,['Im_PatrickDempsey.png', 'Im_DanielCraig.png', 'Im_RobertPattinson.png', 'Im_ElijahWood.png', 'Im_MattDamon.png', 'Im_RyanGosling.png', 'Im_BradPitt.png', 'Im_JustinTimberlake.png', 'Im_RobertDowneyJr.png', 'Im_LeonardoDiCaprio.png'],same,1,1287.1053680999999,5,0,
MIFA1204,0,neg,fs,negfs_id19_im4.bmp_negfs_id4_im7.bmp,['Im_PatrickDempsey.png', 'Im_DanielCraig.png', 'Im_RobertPattinson.png', 'Im_ElijahWood.png', 'Im_MattDamon.png', 'Im_RyanGosling.png', 'Im_BradPitt.png', 'Im_JustinTimberlake.png', 'Im_RobertDowneyJr.png', 'Im_LeonardoDiCaprio.png'],diff,1,1291.8050738000002,6,0,
MIFA1204,0,neg,90,neg90_id4_im20.bmp_neg90_id4_im15.bmp,['Im_PatrickDempsey.png', 'Im_DanielCraig.png', 'Im_RobertPattinson.png', 'Im_ElijahWood.png', 'Im_MattDamon.png', 'Im_RyanGosling.png', 'Im_BradPitt.png', 'Im_JustinTimberlake.png', 'Im_RobertDowneyJr.png', 'Im_LeonardoDiCaprio.png'],same,1,1296.0050302,7,0,
MIFA1204,0,neg,150,neg150_id20_im12.bmp_neg150_id20_im30.bmp,['Im_PatrickDempsey.png', 'Im_DanielCraig.png', 'Im_RobertPattinson.png', 'Im_ElijahWood.png', 'Im_MattDamon.png', 'Im_RyanGosling.png', 'Im_BradPitt.png', 'Im_JustinTimberlake.png', 'Im_RobertDowneyJr.png', 'Im_LeonardoDiCaprio.png'],same,1,1300.3718341,8,0,
MIFA1204,0,neg,30,neg30_id17_im9.bmp_neg30_id17_im8.bmp,['Im_PatrickDempsey.png', 'Im_DanielCraig.png', 'Im_RobertPattinson.png', 'Im_ElijahWood.png', 'Im_MattDamon.png', 'Im_RyanGosling.png', 'Im_BradPitt.png', 'Im_JustinTimberlake.png', 'Im_RobertDowneyJr.png', 'Im_LeonardoDiCaprio.png'],same,1,1305.3051761000002,9,0,
MIFA1204,0,neg,120,neg120_id19_im27.bmp_neg120_id14_im16.bmp,['Im_PatrickDempsey.png', 'Im_DanielCraig.png', 'Im_RobertPattinson.png', 'Im_ElijahWood.png', 'Im_MattDamon.png', 'Im_RyanGosling.png', 'Im_BradPitt.png', 'Im_JustinTimberlake.png', 'Im_RobertDowneyJr.png', 'Im_LeonardoDiCaprio.png'],same,0,1309.8217725999998,9,0,
MIFA1204,0,neg,90,neg90_id10_im17.bmp_neg90_id20_im3.bmp,['Im_PatrickDempsey.png', 'Im_DanielCraig.png', 'Im_RobertPattinson.png', 'Im_ElijahWood.png', 'Im_MattDamon.png', 'Im_RyanGosling.png', 'Im_BradPitt.png', 'Im_JustinTimberlake.png', 'Im_RobertDowneyJr.png', 'Im_LeonardoDiCaprio.png'],same,0,1314.1885211,9,0,
MIFA1204,0,neg,fs,negfs_id18_im19.bmp_negfs_id18_im11.bmp,['Im_PatrickDempsey.png', 'Im_DanielCraig.png', 'Im_RobertPattinson.png', 'Im_ElijahWood.png', 'Im_MattDamon.png', 'Im_RyanGosling.png', 'Im_BradPitt.png', 'Im_JustinTimberlake.png', 'Im_RobertDowneyJr.png', 'Im_LeonardoDiCaprio.png'],same,1,1318.2968271999998,10,0,
MIFA1204,0,neg,30,neg30_id4_im15.bmp_neg30_id4_im20.bmp,['Im_PatrickDempsey.png', 'Im_DanielCraig.png', 'Im_RobertPattinson.png', 'Im_ElijahWood.png', 'Im_MattDamon.png', 'Im_RyanGosling.png', 'Im_BradPitt.png', 'Im_JustinTimberlake.png', 'Im_RobertDowneyJr.png', 'Im_LeonardoDiCaprio.png'],same,1,1322.8466285999998,11,0,
MIFA1204,1,inv,fs,posfs_id13_im10.bmp_posfs_id18_im19.bmp,['Im_PatrickDempsey.png', 'Im_DanielCraig.png', 'Im_RobertPattinson.png', 'Im_ElijahWood.png', 'Im_MattDamon.png', 'Im_RyanGosling.png', 'Im_BradPitt.png', 'Im_JustinTimberlake.png', 'Im_RobertDowneyJr.png', 'Im_LeonardoDiCaprio.png'],diff,1,1330.9968599999997,12,0,
MIFA1204,1,inv,150,pos150_id10_im18.bmp_pos150_id10_im17.bmp,['Im_PatrickDempsey.png', 'Im_DanielCraig.png', 'Im_RobertPattinson.png', 'Im_ElijahWood.png', 'Im_MattDamon.png', 'Im_RyanGosling.png', 'Im_BradPitt.png', 'Im_JustinTimberlake.png', 'Im_RobertDowneyJr.png', 'Im_LeonardoDiCaprio.png'],same,1,1335.863367,13,0,
MIFA1204,1,inv,0,pos0_id3_im17.bmp_pos0_id3_im6.bmp,['Im_PatrickDempsey.png', 'Im_DanielCraig.png', 'Im_RobertPattinson.png', 'Im_ElijahWood.png', 'Im_MattDamon.png', 'Im_RyanGosling.png', 'Im_BradPitt.png', 'Im_JustinTimberlake.png', 'Im_RobertDowneyJr.png', 'Im_LeonardoDiCaprio.png'],same,1,1340.6886832999999,14,0,
MIFA1204,1,inv,30,pos30_id19_im8.bmp_pos30_id19_im4.bmp,['Im_PatrickDempsey.png', 'Im_DanielCraig.png', 'Im_RobertPattinson.png', 'Im_ElijahWood.png', 'Im_MattDamon.png', 'Im_RyanGosling.png', 'Im_BradPitt.png', 'Im_JustinTimberlake.png', 'Im_RobertDowneyJr.png', 'Im_LeonardoDiCaprio.png'],same,1,1345.6135617,15,0,
MIFA1204,1,inv,60,pos60_id4_im15.bmp_pos60_id4_im7.bmp,['Im_PatrickDempsey.png', 'Im_DanielCraig.png', 'Im_RobertPattinson.png', 'Im_ElijahWood.png', 'Im_MattDamon.png', 'Im_RyanGosling.png', 'Im_BradPitt.png', 'Im_JustinTimberlake.png', 'Im_RobertDowneyJr.png', 'Im_LeonardoDiCaprio.png'],same,1,1350.2634629999998,16,0,
MIFA1204,1,inv,120,pos120_id19_im8.bmp_pos120_id19_im27.bmp,['Im_PatrickDempsey.png', 'Im_DanielCraig.png', 'Im_RobertPattinson.png', 'Im_ElijahWood.png', 'Im_MattDamon.png', 'Im_RyanGosling.png', 'Im_BradPitt.png', 'Im_JustinTimberlake.png', 'Im_RobertDowneyJr.png', 'Im_LeonardoDiCaprio.png'],same,1,1354.3717213999998,17,0,
MIFA1204,1,inv,30,pos30_id6_im18.bmp_pos30_id18_im18.bmp,['Im_PatrickDempsey.png', 'Im_DanielCraig.png', 'Im_RobertPattinson.png', 'Im_ElijahWood.png', 'Im_MattDamon.png', 'Im_RyanGosling.png', 'Im_BradPitt.png', 'Im_JustinTimberlake.png', 'Im_RobertDowneyJr.png', 'Im_LeonardoDiCaprio.png'],same,0,1358.9552853,17,0,
MIFA1204,1,inv,90,pos90_id18_im11.bmp_pos90_id18_im19.bmp,['Im_PatrickDempsey.png', 'Im_DanielCraig.png', 'Im_RobertPattinson.png', 'Im_ElijahWood.png', 'Im_MattDamon.png', 'Im_RyanGosling.png', 'Im_BradPitt.png', 'Im_JustinTimberlake.png', 'Im_RobertDowneyJr.png', 'Im_LeonardoDiCaprio.png'],same,1,1363.1634651999998,18,0,
MIFA1204,1,inv,150,pos150_id14_im16.bmp_pos150_id14_im24.bmp,['Im_PatrickDempsey.png', 'Im_DanielCraig.png', 'Im_RobertPattinson.png', 'Im_ElijahWood.png', 'Im_MattDamon.png', 'Im_RyanGosling.png', 'Im_BradPitt.png', 'Im_JustinTimberlake.png', 'Im_RobertDowneyJr.png', 'Im_LeonardoDiCaprio.png'],same,1,1367.5301129999998,19,0,
MIFA1204,1,inv,0,pos0_id17_im9.bmp_pos0_id17_im14.bmp,['Im_PatrickDempsey.png', 'Im_DanielCraig.png', 'Im_RobertPattinson.png', 'Im_ElijahWood.png', 'Im_MattDamon.png', 'Im_RyanGosling.png', 'Im_BradPitt.png', 'Im_JustinTimberlake.png', 'Im_RobertDowneyJr.png', 'Im_LeonardoDiCaprio.png'],same,1,1371.8217255999998,20,0,
MIFA1204,1,inv,90,pos90_id17_im8.bmp_pos90_id17_im9.bmp,['Im_PatrickDempsey.png', 'Im_DanielCraig.png', 'Im_RobertPattinson.png', 'Im_ElijahWood.png', 'Im_MattDamon.png', 'Im_RyanGosling.png', 'Im_BradPitt.png', 'Im_JustinTimberlake.png', 'Im_RobertDowneyJr.png', 'Im_LeonardoDiCaprio.png'],same,1,1376.2299561,21,0,
MIFA1204,1,inv,120,pos120_id10_im18.bmp_pos120_id13_im29.bmp,['Im_PatrickDempsey.png', 'Im_DanielCraig.png', 'Im_RobertPattinson.png', 'Im_ElijahWood.png', 'Im_MattDamon.png', 'Im_RyanGosling.png', 'Im_BradPitt.png', 'Im_JustinTimberlake.png', 'Im_RobertDowneyJr.png', 'Im_LeonardoDiCaprio.png'],same,0,1380.5801054999997,21,0,
MIFA1204,1,inv,fs,posfs_id6_im19.bmp_posfs_id18_im18.bmp,['Im_PatrickDempsey.png', 'Im_DanielCraig.png', 'Im_RobertPattinson.png', 'Im_ElijahWood.png', 'Im_MattDamon.png', 'Im_RyanGosling.png', 'Im_BradPitt.png', 'Im_JustinTimberlake.png', 'Im_RobertDowneyJr.png', 'Im_LeonardoDiCaprio.png'],diff,1,1385.3133981,22,0,
MIFA1204,1,inv,60,pos60_id17_im9.bmp_pos60_id20_im3.bmp,['Im_PatrickDempsey.png', 'Im_DanielCraig.png', 'Im_RobertPattinson.png', 'Im_ElijahWood.png', 'Im_MattDamon.png', 'Im_RyanGosling.png', 'Im_BradPitt.png', 'Im_JustinTimberlake.png', 'Im_RobertDowneyJr.png', 'Im_LeonardoDiCaprio.png'],diff,1,1389.8303594999998,23,0,
MIFA1204,2,pos,120,pos120_id10_im17.bmp_pos120_id17_im8.bmp,['Im_PatrickDempsey.png', 'Im_DanielCraig.png', 'Im_RobertPattinson.png', 'Im_ElijahWood.png', 'Im_MattDamon.png', 'Im_RyanGosling.png', 'Im_BradPitt.png', 'Im_JustinTimberlake.png', 'Im_RobertDowneyJr.png', 'Im_LeonardoDiCaprio.png'],same,0,1397.6220503999998,23,0,
MIFA1204,2,pos,90,pos90_id18_im11.bmp_pos90_id18_im19.bmp,['Im_PatrickDempsey.png', 'Im_DanielCraig.png', 'Im_RobertPattinson.png', 'Im_ElijahWood.png', 'Im_MattDamon.png', 'Im_RyanGosling.png', 'Im_BradPitt.png', 'Im_JustinTimberlake.png', 'Im_RobertDowneyJr.png', 'Im_LeonardoDiCaprio.png'],same,1,1402.3407028000001,24,0,
MIFA1204,2,pos,60,pos60_id14_im18.bmp_pos60_id4_im20.bmp,['Im_PatrickDempsey.png', 'Im_DanielCraig.png', 'Im_RobertPattinson.png', 'Im_ElijahWood.png', 'Im_MattDamon.png', 'Im_RyanGosling.png', 'Im_BradPitt.png', 'Im_JustinTimberlake.png', 'Im_RobertDowneyJr.png', 'Im_LeonardoDiCaprio.png'],diff,1,1406.7633548,25,0,
MIFA1204,2,pos,0,pos0_id4_im20.bmp_pos0_id4_im15.bmp,['Im_PatrickDempsey.png', 'Im_DanielCraig.png', 'Im_RobertPattinson.png', 'Im_ElijahWood.png', 'Im_MattDamon.png', 'Im_RyanGosling.png', 'Im_BradPitt.png', 'Im_JustinTimberlake.png', 'Im_RobertDowneyJr.png', 'Im_LeonardoDiCaprio.png'],same,1,1411.0550647999999,26,0,
MIFA1204,2,pos,120,pos120_id19_im4.bmp_pos120_id4_im7.bmp,['Im_PatrickDempsey.png', 'Im_DanielCraig.png', 'Im_RobertPattinson.png', 'Im_ElijahWood.png', 'Im_MattDamon.png', 'Im_RyanGosling.png', 'Im_BradPitt.png', 'Im_JustinTimberlake.png', 'Im_RobertDowneyJr.png', 'Im_LeonardoDiCaprio.png'],diff,1,1415.3050966,27,0,
MIFA1204,2,pos,30,pos30_id6_im12.bmp_pos30_id6_im19.bmp,['Im_PatrickDempsey.png', 'Im_DanielCraig.png', 'Im_RobertPattinson.png', 'Im_ElijahWood.png', 'Im_MattDamon.png', 'Im_RyanGosling.png', 'Im_BradPitt.png', 'Im_JustinTimberlake.png', 'Im_RobertDowneyJr.png', 'Im_LeonardoDiCaprio.png'],same,1,1419.7300283999998,28,0,
MIFA1204,2,pos,30,pos30_id18_im11.bmp_pos30_id3_im17.bmp,['Im_PatrickDempsey.png', 'Im_DanielCraig.png', 'Im_RobertPattinson.png', 'Im_ElijahWood.png', 'Im_MattDamon.png', 'Im_RyanGosling.png', 'Im_BradPitt.png', 'Im_JustinTimberlake.png', 'Im_RobertDowneyJr.png', 'Im_LeonardoDiCaprio.png'],diff,1,1424.0468230000001,29,0,
MIFA1204,2,pos,0,pos0_id14_im16.bmp_pos0_id14_im24.bmp,['Im_PatrickDempsey.png', 'Im_DanielCraig.png', 'Im_RobertPattinson.png', 'Im_ElijahWood.png', 'Im_MattDamon.png', 'Im_RyanGosling.png', 'Im_BradPitt.png', 'Im_JustinTimberlake.png', 'Im_RobertDowneyJr.png', 'Im_LeonardoDiCaprio.png'],same,1,1428.5882897000001,30,0,
MIFA1204,2,pos,fs,posfs_id14_im24.bmp_posfs_id14_im16.bmp,['Im_PatrickDempsey.png', 'Im_DanielCraig.png', 'Im_RobertPattinson.png', 'Im_ElijahWood.png', 'Im_MattDamon.png', 'Im_RyanGosling.png', 'Im_BradPitt.png', 'Im_JustinTimberlake.png', 'Im_RobertDowneyJr.png', 'Im_LeonardoDiCaprio.png'],same,1,1433.2472119,31,0,
MIFA1204,2,pos,60,pos60_id14_im16.bmp_pos60_id19_im27.bmp,['Im_PatrickDempsey.png', 'Im_DanielCraig.png', 'Im_RobertPattinson.png', 'Im_ElijahWood.png', 'Im_MattDamon.png', 'Im_RyanGosling.png', 'Im_BradPitt.png', 'Im_JustinTimberlake.png', 'Im_RobertDowneyJr.png', 'Im_LeonardoDiCaprio.png'],diff,1,1437.9218013999998,32,0,
MIFA1204,2,pos,150,pos150_id3_im8.bmp_pos150_id3_im17.bmp,['Im_PatrickDempsey.png', 'Im_DanielCraig.png', 'Im_RobertPattinson.png', 'Im_ElijahWood.png', 'Im_MattDamon.png', 'Im_RyanGosling.png', 'Im_BradPitt.png', 'Im_JustinTimberlake.png', 'Im_RobertDowneyJr.png', 'Im_LeonardoDiCaprio.png'],same,1,1442.1134284999998,33,0,
MIFA1204,2,pos,90,pos90_id14_im18.bmp_pos90_id14_im24.bmp,['Im_PatrickDempsey.png', 'Im_DanielCraig.png', 'Im_RobertPattinson.png', 'Im_ElijahWood.png', 'Im_MattDamon.png', 'Im_RyanGosling.png', 'Im_BradPitt.png', 'Im_JustinTimberlake.png', 'Im_RobertDowneyJr.png', 'Im_LeonardoDiCaprio.png'],same,1,1446.9050849999999,34,0,
MIFA1204,2,pos,150,pos150_id17_im9.bmp_pos150_id17_im8.bmp,['Im_PatrickDempsey.png', 'Im_DanielCraig.png', 'Im_RobertPattinson.png', 'Im_ElijahWood.png', 'Im_MattDamon.png', 'Im_RyanGosling.png', 'Im_BradPitt.png', 'Im_JustinTimberlake.png', 'Im_RobertDowneyJr.png', 'Im_LeonardoDiCaprio.png'],same,1,1451.3967632,35,0,
MIFA1204,2,pos,fs,posfs_id18_im11.bmp_posfs_id18_im18.bmp,['Im_PatrickDempsey.png', 'Im_DanielCraig.png', 'Im_RobertPattinson.png', 'Im_ElijahWood.png', 'Im_MattDamon.png', 'Im_RyanGosling.png', 'Im_BradPitt.png', 'Im_JustinTimberlake.png', 'Im_RobertDowneyJr.png', 'Im_LeonardoDiCaprio.png'],same,1,1455.7717228000001,36,0,
MIFA1204,3,neg,120,neg120_id6_im18.bmp_neg120_id19_im27.bmp,['Im_PatrickDempsey.png', 'Im_DanielCraig.png', 'Im_RobertPattinson.png', 'Im_ElijahWood.png', 'Im_MattDamon.png', 'Im_RyanGosling.png', 'Im_BradPitt.png', 'Im_JustinTimberlake.png', 'Im_RobertDowneyJr.png', 'Im_LeonardoDiCaprio.png'],same,0,1472.5219383999997,0,85.71428571428571,
MIFA1204,3,neg,90,neg90_id20_im3.bmp_neg90_id20_im12.bmp,['Im_PatrickDempsey.png', 'Im_DanielCraig.png', 'Im_RobertPattinson.png', 'Im_ElijahWood.png', 'Im_MattDamon.png', 'Im_RyanGosling.png', 'Im_BradPitt.png', 'Im_JustinTimberlake.png', 'Im_RobertDowneyJr.png', 'Im_LeonardoDiCaprio.png'],same,1,1477.2803174,1,85.71428571428571,
MIFA1204,3,neg,0,neg0_id13_im10.bmp_neg0_id14_im18.bmp,['Im_PatrickDempsey.png', 'Im_DanielCraig.png', 'Im_RobertPattinson.png', 'Im_ElijahWood.png', 'Im_MattDamon.png', 'Im_RyanGosling.png', 'Im_BradPitt.png', 'Im_JustinTimberlake.png', 'Im_RobertDowneyJr.png', 'Im_LeonardoDiCaprio.png'],same,0,1482.0469018,1,85.71428571428571,
MIFA1204,3,neg,fs,negfs_id18_im18.bmp_negfs_id18_im11.bmp,['Im_PatrickDempsey.png', 'Im_DanielCraig.png', 'Im_RobertPattinson.png', 'Im_ElijahWood.png', 'Im_MattDamon.png', 'Im_RyanGosling.png', 'Im_BradPitt.png', 'Im_JustinTimberlake.png', 'Im_RobertDowneyJr.png', 'Im_LeonardoDiCaprio.png'],same,1,1486.7549120999997,2,85.71428571428571,
MIFA1204,3,neg,30,neg30_id17_im9.bmp_neg30_id3_im8.bmp,['Im_PatrickDempsey.png', 'Im_DanielCraig.png', 'Im_RobertPattinson.png', 'Im_ElijahWood.png', 'Im_MattDamon.png', 'Im_RyanGosling.png', 'Im_BradPitt.png', 'Im_JustinTimberlake.png', 'Im_RobertDowneyJr.png', 'Im_LeonardoDiCaprio.png'],diff,1,1492.5636575999997,3,85.71428571428571,
MIFA1204,3,neg,120,neg120_id10_im1.bmp_neg120_id10_im18.bmp,['Im_PatrickDempsey.png', 'Im_DanielCraig.png', 'Im_RobertPattinson.png', 'Im_ElijahWood.png', 'Im_MattDamon.png', 'Im_RyanGosling.png', 'Im_BradPitt.png', 'Im_JustinTimberlake.png', 'Im_RobertDowneyJr.png', 'Im_LeonardoDiCaprio.png'],same,1,1496.9635844,4,85.71428571428571,
MIFA1204,3,neg,90,neg90_id19_im4.bmp_neg90_id19_im8.bmp,['Im_PatrickDempsey.png', 'Im_DanielCraig.png', 'Im_RobertPattinson.png', 'Im_ElijahWood.png', 'Im_MattDamon.png', 'Im_RyanGosling.png', 'Im_BradPitt.png', 'Im_JustinTimberlake.png', 'Im_RobertDowneyJr.png', 'Im_LeonardoDiCaprio.png'],diff,0,1501.788587,4,85.71428571428571,
MIFA1204,3,neg,30,neg30_id10_im17.bmp_neg30_id10_im1.bmp,['Im_PatrickDempsey.png', 'Im_DanielCraig.png', 'Im_RobertPattinson.png', 'Im_ElijahWood.png', 'Im_MattDamon.png', 'Im_RyanGosling.png', 'Im_BradPitt.png', 'Im_JustinTimberlake.png', 'Im_RobertDowneyJr.png', 'Im_LeonardoDiCaprio.png'],same,1,1506.3803342,5,85.71428571428571,
MIFA1204,3,neg,60,neg60_id13_im10.bmp_neg60_id18_im19.bmp,['Im_PatrickDempsey.png', 'Im_DanielCraig.png', 'Im_RobertPattinson.png', 'Im_ElijahWood.png', 'Im_MattDamon.png', 'Im_RyanGosling.png', 'Im_BradPitt.png', 'Im_JustinTimberlake.png', 'Im_RobertDowneyJr.png', 'Im_LeonardoDiCaprio.png'],same,0,1511.163735,5,85.71428571428571,
MIFA1204,3,neg,fs,negfs_id13_im29.bmp_negfs_id13_im15.bmp,['Im_PatrickDempsey.png', 'Im_DanielCraig.png', 'Im_RobertPattinson.png', 'Im_ElijahWood.png', 'Im_MattDamon.png', 'Im_RyanGosling.png', 'Im_BradPitt.png', 'Im_JustinTimberlake.png', 'Im_RobertDowneyJr.png', 'Im_LeonardoDiCaprio.png'],same,1,1516.9466171,6,85.71428571428571,
MIFA1204,3,neg,150,neg150_id18_im18.bmp_neg150_id18_im11.bmp,['Im_PatrickDempsey.png', 'Im_DanielCraig.png', 'Im_RobertPattinson.png', 'Im_ElijahWood.png', 'Im_MattDamon.png', 'Im_RyanGosling.png', 'Im_BradPitt.png', 'Im_JustinTimberlake.png', 'Im_RobertDowneyJr.png', 'Im_LeonardoDiCaprio.png'],same,1,1521.7633803999997,7,85.71428571428571,
MIFA1204,3,neg,60,neg60_id14_im24.bmp_neg60_id14_im16.bmp,['Im_PatrickDempsey.png', 'Im_DanielCraig.png', 'Im_RobertPattinson.png', 'Im_ElijahWood.png', 'Im_MattDamon.png', 'Im_RyanGosling.png', 'Im_BradPitt.png', 'Im_JustinTimberlake.png', 'Im_RobertDowneyJr.png', 'Im_LeonardoDiCaprio.png'],same,1,1526.6800327,8,85.71428571428571,
MIFA1204,3,neg,150,neg150_id3_im17.bmp_neg150_id18_im11.bmp,['Im_PatrickDempsey.png', 'Im_DanielCraig.png', 'Im_RobertPattinson.png', 'Im_ElijahWood.png', 'Im_MattDamon.png', 'Im_RyanGosling.png', 'Im_BradPitt.png', 'Im_JustinTimberlake.png', 'Im_RobertDowneyJr.png', 'Im_LeonardoDiCaprio.png'],diff,1,1531.4467666,9,85.71428571428571,
MIFA1204,3,neg,0,neg0_id14_im24.bmp_neg0_id18_im19.bmp,['Im_PatrickDempsey.png', 'Im_DanielCraig.png', 'Im_RobertPattinson.png', 'Im_ElijahWood.png', 'Im_MattDamon.png', 'Im_RyanGosling.png', 'Im_BradPitt.png', 'Im_JustinTimberlake.png', 'Im_RobertDowneyJr.png', 'Im_LeonardoDiCaprio.png'],diff,1,1536.5802740999998,10,85.71428571428571,
MIFA1204,4,inv,120,pos120_id6_im18.bmp_pos120_id6_im12.bmp,['Im_PatrickDempsey.png', 'Im_DanielCraig.png', 'Im_RobertPattinson.png', 'Im_ElijahWood.png', 'Im_MattDamon.png', 'Im_RyanGosling.png', 'Im_BradPitt.png', 'Im_JustinTimberlake.png', 'Im_RobertDowneyJr.png', 'Im_LeonardoDiCaprio.png'],diff,0,1545.3135538000001,10,85.71428571428571,
MIFA1204,4,inv,60,pos60_id18_im11.bmp_pos60_id3_im17.bmp,['Im_PatrickDempsey.png', 'Im_DanielCraig.png', 'Im_RobertPattinson.png', 'Im_ElijahWood.png', 'Im_MattDamon.png', 'Im_RyanGosling.png', 'Im_BradPitt.png', 'Im_JustinTimberlake.png', 'Im_RobertDowneyJr.png', 'Im_LeonardoDiCaprio.png'],same,0,1550.180116,10,85.71428571428571,
MIFA1204,4,inv,90,pos90_id13_im29.bmp_pos90_id13_im15.bmp,['Im_PatrickDempsey.png', 'Im_DanielCraig.png', 'Im_RobertPattinson.png', 'Im_ElijahWood.png', 'Im_MattDamon.png', 'Im_RyanGosling.png', 'Im_BradPitt.png', 'Im_JustinTimberlake.png', 'Im_RobertDowneyJr.png', 'Im_LeonardoDiCaprio.png'],same,1,1555.1215684999997,11,85.71428571428571,
MIFA1204,4,inv,fs,posfs_id3_im8.bmp_posfs_id3_im17.bmp,['Im_PatrickDempsey.png', 'Im_DanielCraig.png', 'Im_RobertPattinson.png', 'Im_ElijahWood.png', 'Im_MattDamon.png', 'Im_RyanGosling.png', 'Im_BradPitt.png', 'Im_JustinTimberlake.png', 'Im_RobertDowneyJr.png', 'Im_LeonardoDiCaprio.png'],diff,0,1560.7552677999997,11,85.71428571428571,
MIFA1204,4,inv,150,pos150_id20_im12.bmp_pos150_id13_im29.bmp,['Im_PatrickDempsey.png', 'Im_DanielCraig.png', 'Im_RobertPattinson.png', 'Im_ElijahWood.png', 'Im_MattDamon.png', 'Im_RyanGosling.png', 'Im_BradPitt.png', 'Im_JustinTimberlake.png', 'Im_RobertDowneyJr.png', 'Im_LeonardoDiCaprio.png'],same,0,1565.6301663,11,85.71428571428571,
MIFA1204,4,inv,120,pos120_id17_im8.bmp_pos120_id3_im8.bmp,['Im_PatrickDempsey.png', 'Im_DanielCraig.png', 'Im_RobertPattinson.png', 'Im_ElijahWood.png', 'Im_MattDamon.png', 'Im_RyanGosling.png', 'Im_BradPitt.png', 'Im_JustinTimberlake.png', 'Im_RobertDowneyJr.png', 'Im_LeonardoDiCaprio.png'],same,0,1570.0633208999998,11,85.71428571428571,
MIFA1204,4,inv,0,pos0_id20_im12.bmp_pos0_id13_im29.bmp,['Im_PatrickDempsey.png', 'Im_DanielCraig.png', 'Im_RobertPattinson.png', 'Im_ElijahWood.png', 'Im_MattDamon.png', 'Im_RyanGosling.png', 'Im_BradPitt.png', 'Im_JustinTimberlake.png', 'Im_RobertDowneyJr.png', 'Im_LeonardoDiCaprio.png'],diff,1,1575.3800261000001,12,85.71428571428571,
MIFA1204,4,inv,0,pos0_id4_im15.bmp_pos0_id4_im20.bmp,['Im_PatrickDempsey.png', 'Im_DanielCraig.png', 'Im_RobertPattinson.png', 'Im_ElijahWood.png', 'Im_MattDamon.png', 'Im_RyanGosling.png', 'Im_BradPitt.png', 'Im_JustinTimberlake.png', 'Im_RobertDowneyJr.png', 'Im_LeonardoDiCaprio.png'],same,1,1580.2215866000001,13,85.71428571428571,
MIFA1204,4,inv,60,pos60_id14_im18.bmp_pos60_id14_im16.bmp,['Im_PatrickDempsey.png', 'Im_DanielCraig.png', 'Im_RobertPattinson.png', 'Im_ElijahWood.png', 'Im_MattDamon.png', 'Im_RyanGosling.png', 'Im_BradPitt.png', 'Im_JustinTimberlake.png', 'Im_RobertDowneyJr.png', 'Im_LeonardoDiCaprio.png'],same,1,1584.4632312999997,14,85.71428571428571,
MIFA1204,4,inv,150,pos150_id13_im29.bmp_pos150_id10_im18.bmp,['Im_PatrickDempsey.png', 'Im_DanielCraig.png', 'Im_RobertPattinson.png', 'Im_ElijahWood.png', 'Im_MattDamon.png', 'Im_RyanGosling.png', 'Im_BradPitt.png', 'Im_JustinTimberlake.png', 'Im_RobertDowneyJr.png', 'Im_LeonardoDiCaprio.png'],diff,1,1589.1465567999999,15,85.71428571428571,
MIFA1204,4,inv,fs,posfs_id14_im24.bmp_posfs_id14_im18.bmp,['Im_PatrickDempsey.png', 'Im_DanielCraig.png', 'Im_RobertPattinson.png', 'Im_ElijahWood.png', 'Im_MattDamon.png', 'Im_RyanGosling.png', 'Im_BradPitt.png', 'Im_JustinTimberlake.png', 'Im_RobertDowneyJr.png', 'Im_LeonardoDiCaprio.png'],same,1,1594.9967685000001,16,85.71428571428571,
MIFA1204,4,inv,90,pos90_id3_im8.bmp_pos90_id17_im9.bmp,['Im_PatrickDempsey.png', 'Im_DanielCraig.png', 'Im_RobertPattinson.png', 'Im_ElijahWood.png', 'Im_MattDamon.png', 'Im_RyanGosling.png', 'Im_BradPitt.png', 'Im_JustinTimberlake.png', 'Im_RobertDowneyJr.png', 'Im_LeonardoDiCaprio.png'],same,0,1599.4632539,16,85.71428571428571,
MIFA1204,4,inv,30,pos30_id18_im19.bmp_pos30_id18_im18.bmp,['Im_PatrickDempsey.png', 'Im_DanielCraig.png', 'Im_RobertPattinson.png', 'Im_ElijahWood.png', 'Im_MattDamon.png', 'Im_RyanGosling.png', 'Im_BradPitt.png', 'Im_JustinTimberlake.png', 'Im_RobertDowneyJr.png', 'Im_LeonardoDiCaprio.png'],same,1,1604.3466780999997,17,85.71428571428571,
MIFA1204,4,inv,30,pos30_id14_im16.bmp_pos30_id4_im7.bmp,['Im_PatrickDempsey.png', 'Im_DanielCraig.png', 'Im_RobertPattinson.png', 'Im_ElijahWood.png', 'Im_MattDamon.png', 'Im_RyanGosling.png', 'Im_BradPitt.png', 'Im_JustinTimberlake.png', 'Im_RobertDowneyJr.png', 'Im_LeonardoDiCaprio.png'],same,0,1609.3884201,17,85.71428571428571,
MIFA1204,5,pos,150,pos150_id18_im18.bmp_pos150_id6_im18.bmp,['Im_PatrickDempsey.png', 'Im_DanielCraig.png', 'Im_RobertPattinson.png', 'Im_ElijahWood.png', 'Im_MattDamon.png', 'Im_RyanGosling.png', 'Im_BradPitt.png', 'Im_JustinTimberlake.png', 'Im_RobertDowneyJr.png', 'Im_LeonardoDiCaprio.png'],diff,1,1617.2218269999998,18,85.71428571428571,
MIFA1204,5,pos,30,pos30_id6_im19.bmp_pos30_id6_im18.bmp,['Im_PatrickDempsey.png', 'Im_DanielCraig.png', 'Im_RobertPattinson.png', 'Im_ElijahWood.png', 'Im_MattDamon.png', 'Im_RyanGosling.png', 'Im_BradPitt.png', 'Im_JustinTimberlake.png', 'Im_RobertDowneyJr.png', 'Im_LeonardoDiCaprio.png'],same,1,1621.471735,19,85.71428571428571,
MIFA1204,5,pos,150,pos150_id3_im17.bmp_pos150_id18_im11.bmp,['Im_PatrickDempsey.png', 'Im_DanielCraig.png', 'Im_RobertPattinson.png', 'Im_ElijahWood.png', 'Im_MattDamon.png', 'Im_RyanGosling.png', 'Im_BradPitt.png', 'Im_JustinTimberlake.png', 'Im_RobertDowneyJr.png', 'Im_LeonardoDiCaprio.png'],diff,1,1625.8801328,20,85.71428571428571,
MIFA1204,5,pos,90,pos90_id18_im19.bmp_pos90_id13_im10.bmp,['Im_PatrickDempsey.png', 'Im_DanielCraig.png', 'Im_RobertPattinson.png', 'Im_ElijahWood.png', 'Im_MattDamon.png', 'Im_RyanGosling.png', 'Im_BradPitt.png', 'Im_JustinTimberlake.png', 'Im_RobertDowneyJr.png', 'Im_LeonardoDiCaprio.png'],diff,1,1630.3550685999999,21,85.71428571428571,
MIFA1204,5,pos,fs,posfs_id20_im12.bmp_posfs_id10_im1.bmp,['Im_PatrickDempsey.png', 'Im_DanielCraig.png', 'Im_RobertPattinson.png', 'Im_ElijahWood.png', 'Im_MattDamon.png', 'Im_RyanGosling.png', 'Im_BradPitt.png', 'Im_JustinTimberlake.png', 'Im_RobertDowneyJr.png', 'Im_LeonardoDiCaprio.png'],diff,1,1634.7049143,22,85.71428571428571,
MIFA1204,5,pos,0,pos0_id4_im15.bmp_pos0_id4_im7.bmp,['Im_PatrickDempsey.png', 'Im_DanielCraig.png', 'Im_RobertPattinson.png', 'Im_ElijahWood.png', 'Im_MattDamon.png', 'Im_RyanGosling.png', 'Im_BradPitt.png', 'Im_JustinTimberlake.png', 'Im_RobertDowneyJr.png', 'Im_LeonardoDiCaprio.png'],same,1,1639.8050018999998,23,85.71428571428571,
MIFA1204,5,pos,120,pos120_id10_im18.bmp_pos120_id10_im17.bmp,['Im_PatrickDempsey.png', 'Im_DanielCraig.png', 'Im_RobertPattinson.png', 'Im_ElijahWood.png', 'Im_MattDamon.png', 'Im_RyanGosling.png', 'Im_BradPitt.png', 'Im_JustinTimberlake.png', 'Im_RobertDowneyJr.png', 'Im_LeonardoDiCaprio.png'],same,1,1644.6465755,24,85.71428571428571,
MIFA1204,5,pos,60,pos60_id13_im15.bmp_pos60_id18_im11.bmp,['Im_PatrickDempsey.png', 'Im_DanielCraig.png', 'Im_RobertPattinson.png', 'Im_ElijahWood.png', 'Im_MattDamon.png', 'Im_RyanGosling.png', 'Im_BradPitt.png', 'Im_JustinTimberlake.png', 'Im_RobertDowneyJr.png', 'Im_LeonardoDiCaprio.png'],diff,1,1649.2218087,25,85.71428571428571,
MIFA1204,5,pos,90,pos90_id13_im15.bmp_pos90_id13_im29.bmp,['Im_PatrickDempsey.png', 'Im_DanielCraig.png', 'Im_RobertPattinson.png', 'Im_ElijahWood.png', 'Im_MattDamon.png', 'Im_RyanGosling.png', 'Im_BradPitt.png', 'Im_JustinTimberlake.png', 'Im_RobertDowneyJr.png', 'Im_LeonardoDiCaprio.png'],same,1,1654.2803875,26,85.71428571428571,
MIFA1204,5,pos,30,pos30_id3_im6.bmp_pos30_id6_im12.bmp,['Im_PatrickDempsey.png', 'Im_DanielCraig.png', 'Im_RobertPattinson.png', 'Im_ElijahWood.png', 'Im_MattDamon.png', 'Im_RyanGosling.png', 'Im_BradPitt.png', 'Im_JustinTimberlake.png', 'Im_RobertDowneyJr.png', 'Im_LeonardoDiCaprio.png'],diff,1,1658.7301373,27,85.71428571428571,
MIFA1204,5,pos,60,pos60_id13_im10.bmp_pos60_id18_im19.bmp,['Im_PatrickDempsey.png', 'Im_DanielCraig.png', 'Im_RobertPattinson.png', 'Im_ElijahWood.png', 'Im_MattDamon.png', 'Im_RyanGosling.png', 'Im_BradPitt.png', 'Im_JustinTimberlake.png', 'Im_RobertDowneyJr.png', 'Im_LeonardoDiCaprio.png'],diff,1,1663.8801795999998,28,85.71428571428571,
MIFA1204,5,pos,0,pos0_id17_im14.bmp_pos0_id17_im9.bmp,['Im_PatrickDempsey.png', 'Im_DanielCraig.png', 'Im_RobertPattinson.png', 'Im_ElijahWood.png', 'Im_MattDamon.png', 'Im_RyanGosling.png', 'Im_BradPitt.png', 'Im_JustinTimberlake.png', 'Im_RobertDowneyJr.png', 'Im_LeonardoDiCaprio.png'],diff,0,1669.1382125999999,28,85.71428571428571,
MIFA1204,5,pos,fs,posfs_id6_im18.bmp_posfs_id6_im19.bmp,['Im_PatrickDempsey.png', 'Im_DanielCraig.png', 'Im_RobertPattinson.png', 'Im_ElijahWood.png', 'Im_MattDamon.png', 'Im_RyanGosling.png', 'Im_BradPitt.png', 'Im_JustinTimberlake.png', 'Im_RobertDowneyJr.png', 'Im_LeonardoDiCaprio.png'],same,1,1673.8050684,29,85.71428571428571,
MIFA1204,5,pos,120,pos120_id6_im19.bmp_pos120_id6_im18.bmp,['Im_PatrickDempsey.png', 'Im_DanielCraig.png', 'Im_RobertPattinson.png', 'Im_ElijahWood.png', 'Im_MattDamon.png', 'Im_RyanGosling.png', 'Im_BradPitt.png', 'Im_JustinTimberlake.png', 'Im_RobertDowneyJr.png', 'Im_LeonardoDiCaprio.png'],same,1,1678.2216509999998,30,85.71428571428571,
MIFA1204,6,pos,90,pos90_id6_im12.bmp_pos90_id14_im24.bmp,['Im_PatrickDempsey.png', 'Im_DanielCraig.png', 'Im_RobertPattinson.png', 'Im_ElijahWood.png', 'Im_MattDamon.png', 'Im_RyanGosling.png', 'Im_BradPitt.png', 'Im_JustinTimberlake.png', 'Im_RobertDowneyJr.png', 'Im_LeonardoDiCaprio.png'],diff,1,1707.521558,1,71.42857142857143,
MIFA1204,6,pos,90,pos90_id6_im18.bmp_pos90_id18_im18.bmp,['Im_PatrickDempsey.png', 'Im_DanielCraig.png', 'Im_RobertPattinson.png', 'Im_ElijahWood.png', 'Im_MattDamon.png', 'Im_RyanGosling.png', 'Im_BradPitt.png', 'Im_JustinTimberlake.png', 'Im_RobertDowneyJr.png', 'Im_LeonardoDiCaprio.png'],diff,1,1712.0302633000001,2,71.42857142857143,
MIFA1204,6,pos,60,pos60_id20_im12.bmp_pos60_id10_im1.bmp,['Im_PatrickDempsey.png', 'Im_DanielCraig.png', 'Im_RobertPattinson.png', 'Im_ElijahWood.png', 'Im_MattDamon.png', 'Im_RyanGosling.png', 'Im_BradPitt.png', 'Im_JustinTimberlake.png', 'Im_RobertDowneyJr.png', 'Im_LeonardoDiCaprio.png'],diff,1,1717.0136907,3,71.42857142857143,
MIFA1204,6,pos,fs,posfs_id4_im15.bmp_posfs_id3_im17.bmp,['Im_PatrickDempsey.png', 'Im_DanielCraig.png', 'Im_RobertPattinson.png', 'Im_ElijahWood.png', 'Im_MattDamon.png', 'Im_RyanGosling.png', 'Im_BradPitt.png', 'Im_JustinTimberlake.png', 'Im_RobertDowneyJr.png', 'Im_LeonardoDiCaprio.png'],diff,1,1721.6633665,4,71.42857142857143,
MIFA1204,6,pos,120,pos120_id4_im7.bmp_pos120_id4_im15.bmp,['Im_PatrickDempsey.png', 'Im_DanielCraig.png', 'Im_RobertPattinson.png', 'Im_ElijahWood.png', 'Im_MattDamon.png', 'Im_RyanGosling.png', 'Im_BradPitt.png', 'Im_JustinTimberlake.png', 'Im_RobertDowneyJr.png', 'Im_LeonardoDiCaprio.png'],same,1,1726.3965383,5,71.42857142857143,
MIFA1204,6,pos,150,pos150_id13_im29.bmp_pos150_id20_im12.bmp,['Im_PatrickDempsey.png', 'Im_DanielCraig.png', 'Im_RobertPattinson.png', 'Im_ElijahWood.png', 'Im_MattDamon.png', 'Im_RyanGosling.png', 'Im_BradPitt.png', 'Im_JustinTimberlake.png', 'Im_RobertDowneyJr.png', 'Im_LeonardoDiCaprio.png'],diff,1,1730.6219450999997,6,71.42857142857143,
MIFA1204,6,pos,30,pos30_id14_im18.bmp_pos30_id13_im10.bmp,['Im_PatrickDempsey.png', 'Im_DanielCraig.png', 'Im_RobertPattinson.png', 'Im_ElijahWood.png', 'Im_MattDamon.png', 'Im_RyanGosling.png', 'Im_BradPitt.png', 'Im_JustinTimberlake.png', 'Im_RobertDowneyJr.png', 'Im_LeonardoDiCaprio.png'],diff,1,1735.1049024999998,7,71.42857142857143,
MIFA1204,6,pos,30,pos30_id20_im30.bmp_pos30_id20_im12.bmp,['Im_PatrickDempsey.png', 'Im_DanielCraig.png', 'Im_RobertPattinson.png', 'Im_ElijahWood.png', 'Im_MattDamon.png', 'Im_RyanGosling.png', 'Im_BradPitt.png', 'Im_JustinTimberlake.png', 'Im_RobertDowneyJr.png', 'Im_LeonardoDiCaprio.png'],same,1,1739.9634990999998,8,71.42857142857143,
MIFA1204,6,pos,0,pos0_id13_im29.bmp_pos0_id20_im12.bmp,['Im_PatrickDempsey.png', 'Im_DanielCraig.png', 'Im_RobertPattinson.png', 'Im_ElijahWood.png', 'Im_MattDamon.png', 'Im_RyanGosling.png', 'Im_BradPitt.png', 'Im_JustinTimberlake.png', 'Im_RobertDowneyJr.png', 'Im_LeonardoDiCaprio.png'],same,0,1746.1469554,8,71.42857142857143,
MIFA1204,6,pos,150,pos150_id18_im19.bmp_pos150_id14_im24.bmp,['Im_PatrickDempsey.png', 'Im_DanielCraig.png', 'Im_RobertPattinson.png', 'Im_ElijahWood.png', 'Im_MattDamon.png', 'Im_RyanGosling.png', 'Im_BradPitt.png', 'Im_JustinTimberlake.png', 'Im_RobertDowneyJr.png', 'Im_LeonardoDiCaprio.png'],diff,1,1750.8132927000001,9,71.42857142857143,
MIFA1204,6,pos,60,pos60_id18_im18.bmp_pos60_id18_im11.bmp,['Im_PatrickDempsey.png', 'Im_DanielCraig.png', 'Im_RobertPattinson.png', 'Im_ElijahWood.png', 'Im_MattDamon.png', 'Im_RyanGosling.png', 'Im_BradPitt.png', 'Im_JustinTimberlake.png', 'Im_RobertDowneyJr.png', 'Im_LeonardoDiCaprio.png'],same,1,1755.3467213,10,71.42857142857143,
MIFA1204,6,pos,fs,posfs_id20_im12.bmp_posfs_id20_im3.bmp,['Im_PatrickDempsey.png', 'Im_DanielCraig.png', 'Im_RobertPattinson.png', 'Im_ElijahWood.png', 'Im_MattDamon.png', 'Im_RyanGosling.png', 'Im_BradPitt.png', 'Im_JustinTimberlake.png', 'Im_RobertDowneyJr.png', 'Im_LeonardoDiCaprio.png'],same,1,1759.9466624000002,11,71.42857142857143,
MIFA1204,6,pos,120,pos120_id3_im8.bmp_pos120_id3_im6.bmp,['Im_PatrickDempsey.png', 'Im_DanielCraig.png', 'Im_RobertPattinson.png', 'Im_ElijahWood.png', 'Im_MattDamon.png', 'Im_RyanGosling.png', 'Im_BradPitt.png', 'Im_JustinTimberlake.png', 'Im_RobertDowneyJr.png', 'Im_LeonardoDiCaprio.png'],same,1,1764.3798800999998,12,71.42857142857143,
MIFA1204,6,pos,0,pos0_id13_im10.bmp_pos0_id18_im19.bmp,['Im_PatrickDempsey.png', 'Im_DanielCraig.png', 'Im_RobertPattinson.png', 'Im_ElijahWood.png', 'Im_MattDamon.png', 'Im_RyanGosling.png', 'Im_BradPitt.png', 'Im_JustinTimberlake.png', 'Im_RobertDowneyJr.png', 'Im_LeonardoDiCaprio.png'],diff,1,1768.8550108999998,13,71.42857142857143,
MIFA1204,7,neg,90,neg90_id4_im7.bmp_neg90_id14_im16.bmp,['Im_PatrickDempsey.png', 'Im_DanielCraig.png', 'Im_RobertPattinson.png', 'Im_ElijahWood.png', 'Im_MattDamon.png', 'Im_RyanGosling.png', 'Im_BradPitt.png', 'Im_JustinTimberlake.png', 'Im_RobertDowneyJr.png', 'Im_LeonardoDiCaprio.png'],diff,1,1777.5718837999998,14,71.42857142857143,
MIFA1204,7,neg,150,neg150_id13_im29.bmp_neg150_id20_im12.bmp,['Im_PatrickDempsey.png', 'Im_DanielCraig.png', 'Im_RobertPattinson.png', 'Im_ElijahWood.png', 'Im_MattDamon.png', 'Im_RyanGosling.png', 'Im_BradPitt.png', 'Im_JustinTimberlake.png', 'Im_RobertDowneyJr.png', 'Im_LeonardoDiCaprio.png'],diff,1,1782.080183,15,71.42857142857143,
MIFA1204,7,neg,120,neg120_id10_im17.bmp_neg120_id10_im1.bmp,['Im_PatrickDempsey.png', 'Im_DanielCraig.png', 'Im_RobertPattinson.png', 'Im_ElijahWood.png', 'Im_MattDamon.png', 'Im_RyanGosling.png', 'Im_BradPitt.png', 'Im_JustinTimberlake.png', 'Im_RobertDowneyJr.png', 'Im_LeonardoDiCaprio.png'],same,1,1786.6468735999997,16,71.42857142857143,
MIFA1204,7,neg,30,neg30_id14_im18.bmp_neg30_id4_im20.bmp,['Im_PatrickDempsey.png', 'Im_DanielCraig.png', 'Im_RobertPattinson.png', 'Im_ElijahWood.png', 'Im_MattDamon.png', 'Im_RyanGosling.png', 'Im_BradPitt.png', 'Im_JustinTimberlake.png', 'Im_RobertDowneyJr.png', 'Im_LeonardoDiCaprio.png'],diff,1,1791.1967808,17,71.42857142857143,
MIFA1204,7,neg,30,neg30_id10_im18.bmp_neg30_id19_im8.bmp,['Im_PatrickDempsey.png', 'Im_DanielCraig.png', 'Im_RobertPattinson.png', 'Im_ElijahWood.png', 'Im_MattDamon.png', 'Im_RyanGosling.png', 'Im_BradPitt.png', 'Im_JustinTimberlake.png', 'Im_RobertDowneyJr.png', 'Im_LeonardoDiCaprio.png'],same,0,1795.8718843000001,17,71.42857142857143,
MIFA1204,7,neg,60,neg60_id18_im19.bmp_neg60_id14_im24.bmp,['Im_PatrickDempsey.png', 'Im_DanielCraig.png', 'Im_RobertPattinson.png', 'Im_ElijahWood.png', 'Im_MattDamon.png', 'Im_RyanGosling.png', 'Im_BradPitt.png', 'Im_JustinTimberlake.png', 'Im_RobertDowneyJr.png', 'Im_LeonardoDiCaprio.png'],diff,1,1800.296925,18,71.42857142857143,
MIFA1204,7,neg,90,neg90_id17_im8.bmp_neg90_id3_im8.bmp,['Im_PatrickDempsey.png', 'Im_DanielCraig.png', 'Im_RobertPattinson.png', 'Im_ElijahWood.png', 'Im_MattDamon.png', 'Im_RyanGosling.png', 'Im_BradPitt.png', 'Im_JustinTimberlake.png', 'Im_RobertDowneyJr.png', 'Im_LeonardoDiCaprio.png'],same,0,1804.9052226999997,18,71.42857142857143,
MIFA1204,7,neg,150,neg150_id20_im30.bmp_neg150_id17_im14.bmp,['Im_PatrickDempsey.png', 'Im_DanielCraig.png', 'Im_RobertPattinson.png', 'Im_ElijahWood.png', 'Im_MattDamon.png', 'Im_RyanGosling.png', 'Im_BradPitt.png', 'Im_JustinTimberlake.png', 'Im_RobertDowneyJr.png', 'Im_LeonardoDiCaprio.png'],same,0,1809.4466070999997,18,71.42857142857143,
MIFA1204,7,neg,60,neg60_id20_im30.bmp_neg60_id17_im14.bmp,['Im_PatrickDempsey.png', 'Im_DanielCraig.png', 'Im_RobertPattinson.png', 'Im_ElijahWood.png', 'Im_MattDamon.png', 'Im_RyanGosling.png', 'Im_BradPitt.png', 'Im_JustinTimberlake.png', 'Im_RobertDowneyJr.png', 'Im_LeonardoDiCaprio.png'],diff,1,1813.9215506,19,71.42857142857143,
MIFA1204,7,neg,fs,negfs_id14_im24.bmp_negfs_id14_im18.bmp,['Im_PatrickDempsey.png', 'Im_DanielCraig.png', 'Im_RobertPattinson.png', 'Im_ElijahWood.png', 'Im_MattDamon.png', 'Im_RyanGosling.png', 'Im_BradPitt.png', 'Im_JustinTimberlake.png', 'Im_RobertDowneyJr.png', 'Im_LeonardoDiCaprio.png'],same,1,1818.3135655,20,71.42857142857143,
MIFA1204,7,neg,0,neg0_id20_im12.bmp_neg0_id20_im30.bmp,['Im_PatrickDempsey.png', 'Im_DanielCraig.png', 'Im_RobertPattinson.png', 'Im_ElijahWood.png', 'Im_MattDamon.png', 'Im_RyanGosling.png', 'Im_BradPitt.png', 'Im_JustinTimberlake.png', 'Im_RobertDowneyJr.png', 'Im_LeonardoDiCaprio.png'],same,1,1822.9051550999998,21,71.42857142857143,
MIFA1204,7,neg,0,neg0_id10_im18.bmp_neg0_id19_im8.bmp,['Im_PatrickDempsey.png', 'Im_DanielCraig.png', 'Im_RobertPattinson.png', 'Im_ElijahWood.png', 'Im_MattDamon.png', 'Im_RyanGosling.png', 'Im_BradPitt.png', 'Im_JustinTimberlake.png', 'Im_RobertDowneyJr.png', 'Im_LeonardoDiCaprio.png'],same,0,1827.5718590000001,21,71.42857142857143,
MIFA1204,7,neg,120,neg120_id4_im15.bmp_neg120_id3_im17.bmp,['Im_PatrickDempsey.png', 'Im_DanielCraig.png', 'Im_RobertPattinson.png', 'Im_ElijahWood.png', 'Im_MattDamon.png', 'Im_RyanGosling.png', 'Im_BradPitt.png', 'Im_JustinTimberlake.png', 'Im_RobertDowneyJr.png', 'Im_LeonardoDiCaprio.png'],diff,1,1831.9633267999998,22,71.42857142857143,
MIFA1204,7,neg,fs,negfs_id19_im27.bmp_negfs_id6_im18.bmp,['Im_PatrickDempsey.png', 'Im_DanielCraig.png', 'Im_RobertPattinson.png', 'Im_ElijahWood.png', 'Im_MattDamon.png', 'Im_RyanGosling.png', 'Im_BradPitt.png', 'Im_JustinTimberlake.png', 'Im_RobertDowneyJr.png', 'Im_LeonardoDiCaprio.png'],diff,1,1837.5718815999999,23,71.42857142857143,
MIFA1204,8,inv,0,pos0_id6_im19.bmp_pos0_id20_im30.bmp,['Im_PatrickDempsey.png', 'Im_DanielCraig.png', 'Im_RobertPattinson.png', 'Im_ElijahWood.png', 'Im_MattDamon.png', 'Im_RyanGosling.png', 'Im_BradPitt.png', 'Im_JustinTimberlake.png', 'Im_RobertDowneyJr.png', 'Im_LeonardoDiCaprio.png'],diff,1,1846.0047931,24,71.42857142857143,
MIFA1204,8,inv,150,pos150_id18_im19.bmp_pos150_id14_im24.bmp,['Im_PatrickDempsey.png', 'Im_DanielCraig.png', 'Im_RobertPattinson.png', 'Im_ElijahWood.png', 'Im_MattDamon.png', 'Im_RyanGosling.png', 'Im_BradPitt.png', 'Im_JustinTimberlake.png', 'Im_RobertDowneyJr.png', 'Im_LeonardoDiCaprio.png'],diff,1,1850.6717052999998,25,71.42857142857143,
MIFA1204,8,inv,90,pos90_id10_im18.bmp_pos90_id19_im8.bmp,['Im_PatrickDempsey.png', 'Im_DanielCraig.png', 'Im_RobertPattinson.png', 'Im_ElijahWood.png', 'Im_MattDamon.png', 'Im_RyanGosling.png', 'Im_BradPitt.png', 'Im_JustinTimberlake.png', 'Im_RobertDowneyJr.png', 'Im_LeonardoDiCaprio.png'],same,0,1855.4134232000001,25,71.42857142857143,
MIFA1204,8,inv,0,pos0_id4_im7.bmp_pos0_id4_im20.bmp,['Im_PatrickDempsey.png', 'Im_DanielCraig.png', 'Im_RobertPattinson.png', 'Im_ElijahWood.png', 'Im_MattDamon.png', 'Im_RyanGosling.png', 'Im_BradPitt.png', 'Im_JustinTimberlake.png', 'Im_RobertDowneyJr.png', 'Im_LeonardoDiCaprio.png'],same,1,1860.0465967,26,71.42857142857143,
MIFA1204,8,inv,30,pos30_id18_im18.bmp_pos30_id6_im19.bmp,['Im_PatrickDempsey.png', 'Im_DanielCraig.png', 'Im_RobertPattinson.png', 'Im_ElijahWood.png', 'Im_MattDamon.png', 'Im_RyanGosling.png', 'Im_BradPitt.png', 'Im_JustinTimberlake.png', 'Im_RobertDowneyJr.png', 'Im_LeonardoDiCaprio.png'],diff,1,1864.8051875,27,71.42857142857143,
MIFA1204,8,inv,60,pos60_id13_im29.bmp_pos60_id13_im15.bmp,['Im_PatrickDempsey.png', 'Im_DanielCraig.png', 'Im_RobertPattinson.png', 'Im_ElijahWood.png', 'Im_MattDamon.png', 'Im_RyanGosling.png', 'Im_BradPitt.png', 'Im_JustinTimberlake.png', 'Im_RobertDowneyJr.png', 'Im_LeonardoDiCaprio.png'],same,1,1869.2968526,28,71.42857142857143,
MIFA1204,8,inv,120,pos120_id20_im12.bmp_pos120_id10_im1.bmp,['Im_PatrickDempsey.png', 'Im_DanielCraig.png', 'Im_RobertPattinson.png', 'Im_ElijahWood.png', 'Im_MattDamon.png', 'Im_RyanGosling.png', 'Im_BradPitt.png', 'Im_JustinTimberlake.png', 'Im_RobertDowneyJr.png', 'Im_LeonardoDiCaprio.png'],diff,1,1873.9635297,29,71.42857142857143,
MIFA1204,8,inv,fs,posfs_id3_im17.bmp_posfs_id4_im15.bmp,['Im_PatrickDempsey.png', 'Im_DanielCraig.png', 'Im_RobertPattinson.png', 'Im_ElijahWood.png', 'Im_MattDamon.png', 'Im_RyanGosling.png', 'Im_BradPitt.png', 'Im_JustinTimberlake.png', 'Im_RobertDowneyJr.png', 'Im_LeonardoDiCaprio.png'],diff,1,1878.6549811,30,71.42857142857143,
MIFA1204,8,inv,60,pos60_id10_im18.bmp_pos60_id13_im29.bmp,['Im_PatrickDempsey.png', 'Im_DanielCraig.png', 'Im_RobertPattinson.png', 'Im_ElijahWood.png', 'Im_MattDamon.png', 'Im_RyanGosling.png', 'Im_BradPitt.png', 'Im_JustinTimberlake.png', 'Im_RobertDowneyJr.png', 'Im_LeonardoDiCaprio.png'],diff,1,1883.2298468,31,71.42857142857143,
MIFA1204,8,inv,150,pos150_id18_im11.bmp_pos150_id13_im15.bmp,['Im_PatrickDempsey.png', 'Im_DanielCraig.png', 'Im_RobertPattinson.png', 'Im_ElijahWood.png', 'Im_MattDamon.png', 'Im_RyanGosling.png', 'Im_BradPitt.png', 'Im_JustinTimberlake.png', 'Im_RobertDowneyJr.png', 'Im_LeonardoDiCaprio.png'],diff,1,1887.4475484,32,71.42857142857143,
MIFA1204,8,inv,30,pos30_id18_im18.bmp_pos30_id18_im11.bmp,['Im_PatrickDempsey.png', 'Im_DanielCraig.png', 'Im_RobertPattinson.png', 'Im_ElijahWood.png', 'Im_MattDamon.png', 'Im_RyanGosling.png', 'Im_BradPitt.png', 'Im_JustinTimberlake.png', 'Im_RobertDowneyJr.png', 'Im_LeonardoDiCaprio.png'],diff,0,1892.0134884999998,32,71.42857142857143,
MIFA1204,8,inv,120,pos120_id10_im1.bmp_pos120_id10_im17.bmp,['Im_PatrickDempsey.png', 'Im_DanielCraig.png', 'Im_RobertPattinson.png', 'Im_ElijahWood.png', 'Im_MattDamon.png', 'Im_RyanGosling.png', 'Im_BradPitt.png', 'Im_JustinTimberlake.png', 'Im_RobertDowneyJr.png', 'Im_LeonardoDiCaprio.png'],diff,0,1896.9466042,32,71.42857142857143,
MIFA1204,8,inv,fs,posfs_id6_im18.bmp_posfs_id19_im27.bmp,['Im_PatrickDempsey.png', 'Im_DanielCraig.png', 'Im_RobertPattinson.png', 'Im_ElijahWood.png', 'Im_MattDamon.png', 'Im_RyanGosling.png', 'Im_BradPitt.png', 'Im_JustinTimberlake.png', 'Im_RobertDowneyJr.png', 'Im_LeonardoDiCaprio.png'],diff,1,1901.4634585999997,33,71.42857142857143,
MIFA1204,8,inv,90,pos90_id6_im12.bmp_pos90_id6_im19.bmp,['Im_PatrickDempsey.png', 'Im_DanielCraig.png', 'Im_RobertPattinson.png', 'Im_ElijahWood.png', 'Im_MattDamon.png', 'Im_RyanGosling.png', 'Im_BradPitt.png', 'Im_JustinTimberlake.png', 'Im_RobertDowneyJr.png', 'Im_LeonardoDiCaprio.png'],same,1,1906.1464950999998,34,71.42857142857143,
MIFA1204,9,pos,90,pos90_id17_im9.bmp_pos90_id20_im3.bmp,['Im_PatrickDempsey.png', 'Im_DanielCraig.png', 'Im_RobertPattinson.png', 'Im_ElijahWood.png', 'Im_MattDamon.png', 'Im_RyanGosling.png', 'Im_BradPitt.png', 'Im_JustinTimberlake.png', 'Im_RobertDowneyJr.png', 'Im_LeonardoDiCaprio.png'],diff,1,1934.1214777999999,1,80.95238095238095,
MIFA1204,9,pos,30,pos30_id6_im12.bmp_pos30_id14_im24.bmp,['Im_PatrickDempsey.png', 'Im_DanielCraig.png', 'Im_RobertPattinson.png', 'Im_ElijahWood.png', 'Im_MattDamon.png', 'Im_RyanGosling.png', 'Im_BradPitt.png', 'Im_JustinTimberlake.png', 'Im_RobertDowneyJr.png', 'Im_LeonardoDiCaprio.png'],diff,1,1938.6884842,2,80.95238095238095,
MIFA1204,9,pos,0,pos0_id10_im17.bmp_pos0_id10_im18.bmp,['Im_PatrickDempsey.png', 'Im_DanielCraig.png', 'Im_RobertPattinson.png', 'Im_ElijahWood.png', 'Im_MattDamon.png', 'Im_RyanGosling.png', 'Im_BradPitt.png', 'Im_JustinTimberlake.png', 'Im_RobertDowneyJr.png', 'Im_LeonardoDiCaprio.png'],same,1,1942.9465913999998,3,80.95238095238095,
MIFA1204,9,pos,0,pos0_id13_im10.bmp_pos0_id13_im15.bmp,['Im_PatrickDempsey.png', 'Im_DanielCraig.png', 'Im_RobertPattinson.png', 'Im_ElijahWood.png', 'Im_MattDamon.png', 'Im_RyanGosling.png', 'Im_BradPitt.png', 'Im_JustinTimberlake.png', 'Im_RobertDowneyJr.png', 'Im_LeonardoDiCaprio.png'],same,1,1947.3549260999998,4,80.95238095238095,
MIFA1204,9,pos,30,pos30_id4_im7.bmp_pos30_id19_im4.bmp,['Im_PatrickDempsey.png', 'Im_DanielCraig.png', 'Im_RobertPattinson.png', 'Im_ElijahWood.png', 'Im_MattDamon.png', 'Im_RyanGosling.png', 'Im_BradPitt.png', 'Im_JustinTimberlake.png', 'Im_RobertDowneyJr.png', 'Im_LeonardoDiCaprio.png'],diff,1,1951.5465737999998,5,80.95238095238095,
MIFA1204,9,pos,90,pos90_id6_im19.bmp_pos90_id18_im18.bmp,['Im_PatrickDempsey.png', 'Im_DanielCraig.png', 'Im_RobertPattinson.png', 'Im_ElijahWood.png', 'Im_MattDamon.png', 'Im_RyanGosling.png', 'Im_BradPitt.png', 'Im_JustinTimberlake.png', 'Im_RobertDowneyJr.png', 'Im_LeonardoDiCaprio.png'],diff,1,1955.8715622,6,80.95238095238095,
MIFA1204,9,pos,150,pos150_id20_im3.bmp_pos150_id10_im17.bmp,['Im_PatrickDempsey.png', 'Im_DanielCraig.png', 'Im_RobertPattinson.png', 'Im_ElijahWood.png', 'Im_MattDamon.png', 'Im_RyanGosling.png', 'Im_BradPitt.png', 'Im_JustinTimberlake.png', 'Im_RobertDowneyJr.png', 'Im_LeonardoDiCaprio.png'],diff,1,1960.7382919000001,7,80.95238095238095,
MIFA1204,9,pos,60,pos60_id18_im11.bmp_pos60_id3_im17.bmp,['Im_PatrickDempsey.png', 'Im_DanielCraig.png', 'Im_RobertPattinson.png', 'Im_ElijahWood.png', 'Im_MattDamon.png', 'Im_RyanGosling.png', 'Im_BradPitt.png', 'Im_JustinTimberlake.png', 'Im_RobertDowneyJr.png', 'Im_LeonardoDiCaprio.png'],diff,1,1964.9132046,8,80.95238095238095,
MIFA1204,9,pos,120,pos120_id13_im10.bmp_pos120_id18_im19.bmp,['Im_PatrickDempsey.png', 'Im_DanielCraig.png', 'Im_RobertPattinson.png', 'Im_ElijahWood.png', 'Im_MattDamon.png', 'Im_RyanGosling.png', 'Im_BradPitt.png', 'Im_JustinTimberlake.png', 'Im_RobertDowneyJr.png', 'Im_LeonardoDiCaprio.png'],diff,1,1969.8298120999998,9,80.95238095238095,
MIFA1204,9,pos,fs,posfs_id18_im19.bmp_posfs_id14_im24.bmp,['Im_PatrickDempsey.png', 'Im_DanielCraig.png', 'Im_RobertPattinson.png', 'Im_ElijahWood.png', 'Im_MattDamon.png', 'Im_RyanGosling.png', 'Im_BradPitt.png', 'Im_JustinTimberlake.png', 'Im_RobertDowneyJr.png', 'Im_LeonardoDiCaprio.png'],diff,1,1974.0549406999999,10,80.95238095238095,
MIFA1204,9,pos,fs,posfs_id14_im18.bmp_posfs_id14_im24.bmp,['Im_PatrickDempsey.png', 'Im_DanielCraig.png', 'Im_RobertPattinson.png', 'Im_ElijahWood.png', 'Im_MattDamon.png', 'Im_RyanGosling.png', 'Im_BradPitt.png', 'Im_JustinTimberlake.png', 'Im_RobertDowneyJr.png', 'Im_LeonardoDiCaprio.png'],same,1,1978.4631146000002,11,80.95238095238095,
MIFA1204,9,pos,60,pos60_id13_im29.bmp_pos60_id13_im15.bmp,['Im_PatrickDempsey.png', 'Im_DanielCraig.png', 'Im_RobertPattinson.png', 'Im_ElijahWood.png', 'Im_MattDamon.png', 'Im_RyanGosling.png', 'Im_BradPitt.png', 'Im_JustinTimberlake.png', 'Im_RobertDowneyJr.png', 'Im_LeonardoDiCaprio.png'],same,1,1982.7215757,12,80.95238095238095,
MIFA1204,9,pos,150,pos150_id4_im7.bmp_pos150_id14_im16.bmp,['Im_PatrickDempsey.png', 'Im_DanielCraig.png', 'Im_RobertPattinson.png', 'Im_ElijahWood.png', 'Im_MattDamon.png', 'Im_RyanGosling.png', 'Im_BradPitt.png', 'Im_JustinTimberlake.png', 'Im_RobertDowneyJr.png', 'Im_LeonardoDiCaprio.png'],diff,1,1987.2882571,13,80.95238095238095,
MIFA1204,9,pos,120,pos120_id4_im7.bmp_pos120_id4_im20.bmp,['Im_PatrickDempsey.png', 'Im_DanielCraig.png', 'Im_RobertPattinson.png', 'Im_ElijahWood.png', 'Im_MattDamon.png', 'Im_RyanGosling.png', 'Im_BradPitt.png', 'Im_JustinTimberlake.png', 'Im_RobertDowneyJr.png', 'Im_LeonardoDiCaprio.png'],same,1,1991.7131931,14,80.95238095238095,
MIFA1204,10,neg,60,neg60_id3_im8.bmp_neg60_id17_im9.bmp,['Im_PatrickDempsey.png', 'Im_DanielCraig.png', 'Im_RobertPattinson.png', 'Im_ElijahWood.png', 'Im_MattDamon.png', 'Im_RyanGosling.png', 'Im_BradPitt.png', 'Im_JustinTimberlake.png', 'Im_RobertDowneyJr.png', 'Im_LeonardoDiCaprio.png'],same,0,2000.046393,14,80.95238095238095,
MIFA1204,10,neg,120,neg120_id18_im19.bmp_neg120_id18_im18.bmp,['Im_PatrickDempsey.png', 'Im_DanielCraig.png', 'Im_RobertPattinson.png', 'Im_ElijahWood.png', 'Im_MattDamon.png', 'Im_RyanGosling.png', 'Im_BradPitt.png', 'Im_JustinTimberlake.png', 'Im_RobertDowneyJr.png', 'Im_LeonardoDiCaprio.png'],same,1,2004.2382287,15,80.95238095238095,
MIFA1204,10,neg,90,neg90_id4_im20.bmp_neg90_id4_im7.bmp,['Im_PatrickDempsey.png', 'Im_DanielCraig.png', 'Im_RobertPattinson.png', 'Im_ElijahWood.png', 'Im_MattDamon.png', 'Im_RyanGosling.png', 'Im_BradPitt.png', 'Im_JustinTimberlake.png', 'Im_RobertDowneyJr.png', 'Im_LeonardoDiCaprio.png'],same,1,2008.7715045999998,16,80.95238095238095,
MIFA1204,10,neg,60,neg60_id13_im29.bmp_neg60_id13_im15.bmp,['Im_PatrickDempsey.png', 'Im_DanielCraig.png', 'Im_RobertPattinson.png', 'Im_ElijahWood.png', 'Im_MattDamon.png', 'Im_RyanGosling.png', 'Im_BradPitt.png', 'Im_JustinTimberlake.png', 'Im_RobertDowneyJr.png', 'Im_LeonardoDiCaprio.png'],diff,0,2013.1799084999998,16,80.95238095238095,
MIFA1204,10,neg,150,neg150_id10_im1.bmp_neg150_id10_im18.bmp,['Im_PatrickDempsey.png', 'Im_DanielCraig.png', 'Im_RobertPattinson.png', 'Im_ElijahWood.png', 'Im_MattDamon.png', 'Im_RyanGosling.png', 'Im_BradPitt.png', 'Im_JustinTimberlake.png', 'Im_RobertDowneyJr.png', 'Im_LeonardoDiCaprio.png'],same,1,2017.5298855,17,80.95238095238095,
MIFA1204,10,neg,90,neg90_id4_im15.bmp_neg90_id3_im17.bmp,['Im_PatrickDempsey.png', 'Im_DanielCraig.png', 'Im_RobertPattinson.png', 'Im_ElijahWood.png', 'Im_MattDamon.png', 'Im_RyanGosling.png', 'Im_BradPitt.png', 'Im_JustinTimberlake.png', 'Im_RobertDowneyJr.png', 'Im_LeonardoDiCaprio.png'],diff,1,2021.7549671000002,18,80.95238095238095,
MIFA1204,10,neg,fs,negfs_id4_im20.bmp_negfs_id14_im18.bmp,['Im_PatrickDempsey.png', 'Im_DanielCraig.png', 'Im_RobertPattinson.png', 'Im_ElijahWood.png', 'Im_MattDamon.png', 'Im_RyanGosling.png', 'Im_BradPitt.png', 'Im_JustinTimberlake.png', 'Im_RobertDowneyJr.png', 'Im_LeonardoDiCaprio.png'],diff,1,2026.2214912999998,19,80.95238095238095,
MIFA1204,10,neg,120,neg120_id3_im6.bmp_neg120_id6_im12.bmp,['Im_PatrickDempsey.png', 'Im_DanielCraig.png', 'Im_RobertPattinson.png', 'Im_ElijahWood.png', 'Im_MattDamon.png', 'Im_RyanGosling.png', 'Im_BradPitt.png', 'Im_JustinTimberlake.png', 'Im_RobertDowneyJr.png', 'Im_LeonardoDiCaprio.png'],diff,1,2030.9215498999997,20,80.95238095238095,
MIFA1204,10,neg,0,neg0_id4_im20.bmp_neg0_id4_im7.bmp,['Im_PatrickDempsey.png', 'Im_DanielCraig.png', 'Im_RobertPattinson.png', 'Im_ElijahWood.png', 'Im_MattDamon.png', 'Im_RyanGosling.png', 'Im_BradPitt.png', 'Im_JustinTimberlake.png', 'Im_RobertDowneyJr.png', 'Im_LeonardoDiCaprio.png'],same,1,2035.2465091999998,21,80.95238095238095,
MIFA1204,10,neg,30,neg30_id4_im7.bmp_neg30_id19_im4.bmp,['Im_PatrickDempsey.png', 'Im_DanielCraig.png', 'Im_RobertPattinson.png', 'Im_ElijahWood.png', 'Im_MattDamon.png', 'Im_RyanGosling.png', 'Im_BradPitt.png', 'Im_JustinTimberlake.png', 'Im_RobertDowneyJr.png', 'Im_LeonardoDiCaprio.png'],diff,1,2039.5463909,22,80.95238095238095,
MIFA1204,10,neg,30,neg30_id18_im19.bmp_neg30_id18_im18.bmp,['Im_PatrickDempsey.png', 'Im_DanielCraig.png', 'Im_RobertPattinson.png', 'Im_ElijahWood.png', 'Im_MattDamon.png', 'Im_RyanGosling.png', 'Im_BradPitt.png', 'Im_JustinTimberlake.png', 'Im_RobertDowneyJr.png', 'Im_LeonardoDiCaprio.png'],same,1,2044.0050533999997,23,80.95238095238095,
MIFA1204,10,neg,fs,negfs_id10_im18.bmp_negfs_id13_im29.bmp,['Im_PatrickDempsey.png', 'Im_DanielCraig.png', 'Im_RobertPattinson.png', 'Im_ElijahWood.png', 'Im_MattDamon.png', 'Im_RyanGosling.png', 'Im_BradPitt.png', 'Im_JustinTimberlake.png', 'Im_RobertDowneyJr.png', 'Im_LeonardoDiCaprio.png'],diff,1,2051.1467543999997,24,80.95238095238095,
MIFA1204,10,neg,0,neg0_id18_im18.bmp_neg0_id6_im18.bmp,['Im_PatrickDempsey.png', 'Im_DanielCraig.png', 'Im_RobertPattinson.png', 'Im_ElijahWood.png', 'Im_MattDamon.png', 'Im_RyanGosling.png', 'Im_BradPitt.png', 'Im_JustinTimberlake.png', 'Im_RobertDowneyJr.png', 'Im_LeonardoDiCaprio.png'],diff,1,2055.7214956,25,80.95238095238095,
MIFA1204,10,neg,150,neg150_id19_im4.bmp_neg150_id19_im8.bmp,['Im_PatrickDempsey.png', 'Im_DanielCraig.png', 'Im_RobertPattinson.png', 'Im_ElijahWood.png', 'Im_MattDamon.png', 'Im_RyanGosling.png', 'Im_BradPitt.png', 'Im_JustinTimberlake.png', 'Im_RobertDowneyJr.png', 'Im_LeonardoDiCaprio.png'],diff,0,2060.3800729,25,80.95238095238095,
MIFA1204,11,inv,0,pos0_id14_im18.bmp_pos0_id13_im10.bmp,['Im_PatrickDempsey.png', 'Im_DanielCraig.png', 'Im_RobertPattinson.png', 'Im_ElijahWood.png', 'Im_MattDamon.png', 'Im_RyanGosling.png', 'Im_BradPitt.png', 'Im_JustinTimberlake.png', 'Im_RobertDowneyJr.png', 'Im_LeonardoDiCaprio.png'],same,0,2068.4631964,25,80.95238095238095,
MIFA1204,11,inv,120,pos120_id19_im27.bmp_pos120_id14_im16.bmp,['Im_PatrickDempsey.png', 'Im_DanielCraig.png', 'Im_RobertPattinson.png', 'Im_ElijahWood.png', 'Im_MattDamon.png', 'Im_RyanGosling.png', 'Im_BradPitt.png', 'Im_JustinTimberlake.png', 'Im_RobertDowneyJr.png', 'Im_LeonardoDiCaprio.png'],same,0,2073.1133621,25,80.95238095238095,
MIFA1204,11,inv,90,pos90_id17_im14.bmp_pos90_id17_im9.bmp,['Im_PatrickDempsey.png', 'Im_DanielCraig.png', 'Im_RobertPattinson.png', 'Im_ElijahWood.png', 'Im_MattDamon.png', 'Im_RyanGosling.png', 'Im_BradPitt.png', 'Im_JustinTimberlake.png', 'Im_RobertDowneyJr.png', 'Im_LeonardoDiCaprio.png'],diff,0,2077.4381774999997,25,80.95238095238095,
MIFA1204,11,inv,30,pos30_id13_im15.bmp_pos30_id17_im14.bmp,['Im_PatrickDempsey.png', 'Im_DanielCraig.png', 'Im_RobertPattinson.png', 'Im_ElijahWood.png', 'Im_MattDamon.png', 'Im_RyanGosling.png', 'Im_BradPitt.png', 'Im_JustinTimberlake.png', 'Im_RobertDowneyJr.png', 'Im_LeonardoDiCaprio.png'],same,0,2082.3631520999998,25,80.95238095238095,
MIFA1204,11,inv,120,pos120_id18_im18.bmp_pos120_id18_im11.bmp,['Im_PatrickDempsey.png', 'Im_DanielCraig.png', 'Im_RobertPattinson.png', 'Im_ElijahWood.png', 'Im_MattDamon.png', 'Im_RyanGosling.png', 'Im_BradPitt.png', 'Im_JustinTimberlake.png', 'Im_RobertDowneyJr.png', 'Im_LeonardoDiCaprio.png'],same,1,2087.1382061,26,80.95238095238095,
MIFA1204,11,inv,150,pos150_id19_im8.bmp_pos150_id19_im27.bmp,['Im_PatrickDempsey.png', 'Im_DanielCraig.png', 'Im_RobertPattinson.png', 'Im_ElijahWood.png', 'Im_MattDamon.png', 'Im_RyanGosling.png', 'Im_BradPitt.png', 'Im_JustinTimberlake.png', 'Im_RobertDowneyJr.png', 'Im_LeonardoDiCaprio.png'],same,1,2091.5050425,27,80.95238095238095,
MIFA1204,11,inv,150,pos150_id20_im12.bmp_pos150_id20_im30.bmp,['Im_PatrickDempsey.png', 'Im_DanielCraig.png', 'Im_RobertPattinson.png', 'Im_ElijahWood.png', 'Im_MattDamon.png', 'Im_RyanGosling.png', 'Im_BradPitt.png', 'Im_JustinTimberlake.png', 'Im_RobertDowneyJr.png', 'Im_LeonardoDiCaprio.png'],same,1,2096.1214764,28,80.95238095238095,
MIFA1204,11,inv,30,pos30_id14_im18.bmp_pos30_id13_im10.bmp,['Im_PatrickDempsey.png', 'Im_DanielCraig.png', 'Im_RobertPattinson.png', 'Im_ElijahWood.png', 'Im_MattDamon.png', 'Im_RyanGosling.png', 'Im_BradPitt.png', 'Im_JustinTimberlake.png', 'Im_RobertDowneyJr.png', 'Im_LeonardoDiCaprio.png'],same,0,2101.3801134,28,80.95238095238095,
MIFA1204,11,inv,fs,posfs_id18_im18.bmp_posfs_id6_im18.bmp,['Im_PatrickDempsey.png', 'Im_DanielCraig.png', 'Im_RobertPattinson.png', 'Im_ElijahWood.png', 'Im_MattDamon.png', 'Im_RyanGosling.png', 'Im_BradPitt.png', 'Im_JustinTimberlake.png', 'Im_RobertDowneyJr.png', 'Im_LeonardoDiCaprio.png'],diff,1,2105.5550058999997,29,80.95238095238095,
MIFA1204,11,inv,60,pos60_id17_im8.bmp_pos60_id10_im17.bmp,['Im_PatrickDempsey.png', 'Im_DanielCraig.png', 'Im_RobertPattinson.png', 'Im_ElijahWood.png', 'Im_MattDamon.png', 'Im_RyanGosling.png', 'Im_BradPitt.png', 'Im_JustinTimberlake.png', 'Im_RobertDowneyJr.png', 'Im_LeonardoDiCaprio.png'],same,0,2110.2298133,29,80.95238095238095,
MIFA1204,11,inv,60,pos60_id18_im19.bmp_pos60_id14_im24.bmp,['Im_PatrickDempsey.png', 'Im_DanielCraig.png', 'Im_RobertPattinson.png', 'Im_ElijahWood.png', 'Im_MattDamon.png', 'Im_RyanGosling.png', 'Im_BradPitt.png', 'Im_JustinTimberlake.png', 'Im_RobertDowneyJr.png', 'Im_LeonardoDiCaprio.png'],diff,1,2115.2964805,30,80.95238095238095,
MIFA1204,11,inv,fs,posfs_id14_im24.bmp_posfs_id6_im12.bmp,['Im_PatrickDempsey.png', 'Im_DanielCraig.png', 'Im_RobertPattinson.png', 'Im_ElijahWood.png', 'Im_MattDamon.png', 'Im_RyanGosling.png', 'Im_BradPitt.png', 'Im_JustinTimberlake.png', 'Im_RobertDowneyJr.png', 'Im_LeonardoDiCaprio.png'],diff,1,2119.4797577,31,80.95238095238095,
MIFA1204,11,inv,0,pos0_id6_im12.bmp_pos0_id14_im24.bmp,['Im_PatrickDempsey.png', 'Im_DanielCraig.png', 'Im_RobertPattinson.png', 'Im_ElijahWood.png', 'Im_MattDamon.png', 'Im_RyanGosling.png', 'Im_BradPitt.png', 'Im_JustinTimberlake.png', 'Im_RobertDowneyJr.png', 'Im_LeonardoDiCaprio.png'],diff,1,2123.7298775,32,80.95238095238095,
MIFA1204,11,inv,90,pos90_id19_im4.bmp_pos90_id4_im20.bmp,['Im_PatrickDempsey.png', 'Im_DanielCraig.png', 'Im_RobertPattinson.png', 'Im_ElijahWood.png', 'Im_MattDamon.png', 'Im_RyanGosling.png', 'Im_BradPitt.png', 'Im_JustinTimberlake.png', 'Im_RobertDowneyJr.png', 'Im_LeonardoDiCaprio.png'],same,0,2128.5797809,32,80.95238095238095,
MIFA1204,12,inv,150,pos150_id6_im12.bmp_pos150_id6_im19.bmp,['Im_PatrickDempsey.png', 'Im_DanielCraig.png', 'Im_RobertPattinson.png', 'Im_ElijahWood.png', 'Im_MattDamon.png', 'Im_RyanGosling.png', 'Im_BradPitt.png', 'Im_JustinTimberlake.png', 'Im_RobertDowneyJr.png', 'Im_LeonardoDiCaprio.png'],diff,0,2144.6465055999997,0,76.19047619047619,
MIFA1204,12,inv,fs,posfs_id10_im18.bmp_posfs_id13_im29.bmp,['Im_PatrickDempsey.png', 'Im_DanielCraig.png', 'Im_RobertPattinson.png', 'Im_ElijahWood.png', 'Im_MattDamon.png', 'Im_RyanGosling.png', 'Im_BradPitt.png', 'Im_JustinTimberlake.png', 'Im_RobertDowneyJr.png', 'Im_LeonardoDiCaprio.png'],same,0,2149.8131415,0,76.19047619047619,
MIFA1204,12,inv,120,pos120_id18_im18.bmp_pos120_id18_im19.bmp,['Im_PatrickDempsey.png', 'Im_DanielCraig.png', 'Im_RobertPattinson.png', 'Im_ElijahWood.png', 'Im_MattDamon.png', 'Im_RyanGosling.png', 'Im_BradPitt.png', 'Im_JustinTimberlake.png', 'Im_RobertDowneyJr.png', 'Im_LeonardoDiCaprio.png'],same,1,2154.8716169,1,76.19047619047619,
MIFA1204,12,inv,60,pos60_id13_im29.bmp_pos60_id20_im12.bmp,['Im_PatrickDempsey.png', 'Im_DanielCraig.png', 'Im_RobertPattinson.png', 'Im_ElijahWood.png', 'Im_MattDamon.png', 'Im_RyanGosling.png', 'Im_BradPitt.png', 'Im_JustinTimberlake.png', 'Im_RobertDowneyJr.png', 'Im_LeonardoDiCaprio.png'],same,0,2159.6547887,1,76.19047619047619,
MIFA1204,12,inv,60,pos60_id4_im15.bmp_pos60_id4_im20.bmp,['Im_PatrickDempsey.png', 'Im_DanielCraig.png', 'Im_RobertPattinson.png', 'Im_ElijahWood.png', 'Im_MattDamon.png', 'Im_RyanGosling.png', 'Im_BradPitt.png', 'Im_JustinTimberlake.png', 'Im_RobertDowneyJr.png', 'Im_LeonardoDiCaprio.png'],diff,0,2164.904974,1,76.19047619047619,
MIFA1204,12,inv,0,pos0_id4_im15.bmp_pos0_id4_im7.bmp,['Im_PatrickDempsey.png', 'Im_DanielCraig.png', 'Im_RobertPattinson.png', 'Im_ElijahWood.png', 'Im_MattDamon.png', 'Im_RyanGosling.png', 'Im_BradPitt.png', 'Im_JustinTimberlake.png', 'Im_RobertDowneyJr.png', 'Im_LeonardoDiCaprio.png'],same,1,2169.4714718,2,76.19047619047619,
MIFA1204,12,inv,90,pos90_id18_im19.bmp_pos90_id14_im24.bmp,['Im_PatrickDempsey.png', 'Im_DanielCraig.png', 'Im_RobertPattinson.png', 'Im_ElijahWood.png', 'Im_MattDamon.png', 'Im_RyanGosling.png', 'Im_BradPitt.png', 'Im_JustinTimberlake.png', 'Im_RobertDowneyJr.png', 'Im_LeonardoDiCaprio.png'],same,0,2174.3550123,2,76.19047619047619,
MIFA1204,12,inv,30,pos30_id13_im29.bmp_pos30_id10_im18.bmp,['Im_PatrickDempsey.png', 'Im_DanielCraig.png', 'Im_RobertPattinson.png', 'Im_ElijahWood.png', 'Im_MattDamon.png', 'Im_RyanGosling.png', 'Im_BradPitt.png', 'Im_JustinTimberlake.png', 'Im_RobertDowneyJr.png', 'Im_LeonardoDiCaprio.png'],same,0,2178.7133656,2,76.19047619047619,
MIFA1204,12,inv,150,pos150_id17_im8.bmp_pos150_id17_im9.bmp,['Im_PatrickDempsey.png', 'Im_DanielCraig.png', 'Im_RobertPattinson.png', 'Im_ElijahWood.png', 'Im_MattDamon.png', 'Im_RyanGosling.png', 'Im_BradPitt.png', 'Im_JustinTimberlake.png', 'Im_RobertDowneyJr.png', 'Im_LeonardoDiCaprio.png'],same,1,2183.4966091,3,76.19047619047619,
MIFA1204,12,inv,30,pos30_id13_im29.bmp_pos30_id13_im15.bmp,['Im_PatrickDempsey.png', 'Im_DanielCraig.png', 'Im_RobertPattinson.png', 'Im_ElijahWood.png', 'Im_MattDamon.png', 'Im_RyanGosling.png', 'Im_BradPitt.png', 'Im_JustinTimberlake.png', 'Im_RobertDowneyJr.png', 'Im_LeonardoDiCaprio.png'],same,1,2189.6046997,4,76.19047619047619,
MIFA1204,12,inv,120,pos120_id4_im15.bmp_pos120_id10_im1.bmp,['Im_PatrickDempsey.png', 'Im_DanielCraig.png', 'Im_RobertPattinson.png', 'Im_ElijahWood.png', 'Im_MattDamon.png', 'Im_RyanGosling.png', 'Im_BradPitt.png', 'Im_JustinTimberlake.png', 'Im_RobertDowneyJr.png', 'Im_LeonardoDiCaprio.png'],diff,1,2193.9882681,5,76.19047619047619,
MIFA1204,12,inv,0,pos0_id6_im18.bmp_pos0_id19_im27.bmp,['Im_PatrickDempsey.png', 'Im_DanielCraig.png', 'Im_RobertPattinson.png', 'Im_ElijahWood.png', 'Im_MattDamon.png', 'Im_RyanGosling.png', 'Im_BradPitt.png', 'Im_JustinTimberlake.png', 'Im_RobertDowneyJr.png', 'Im_LeonardoDiCaprio.png'],diff,1,2198.7133125,6,76.19047619047619,
MIFA1204,12,inv,fs,posfs_id17_im9.bmp_posfs_id17_im8.bmp,['Im_PatrickDempsey.png', 'Im_DanielCraig.png', 'Im_RobertPattinson.png', 'Im_ElijahWood.png', 'Im_MattDamon.png', 'Im_RyanGosling.png', 'Im_BradPitt.png', 'Im_JustinTimberlake.png', 'Im_RobertDowneyJr.png', 'Im_LeonardoDiCaprio.png'],same,1,2203.9716528999998,7,76.19047619047619,
MIFA1204,12,inv,90,pos90_id14_im16.bmp_pos90_id19_im27.bmp,['Im_PatrickDempsey.png', 'Im_DanielCraig.png', 'Im_RobertPattinson.png', 'Im_ElijahWood.png', 'Im_MattDamon.png', 'Im_RyanGosling.png', 'Im_BradPitt.png', 'Im_JustinTimberlake.png', 'Im_RobertDowneyJr.png', 'Im_LeonardoDiCaprio.png'],same,0,2208.8051187,7,76.19047619047619,
MIFA1204,13,pos,150,pos150_id3_im17.bmp_pos150_id4_im15.bmp,['Im_PatrickDempsey.png', 'Im_DanielCraig.png', 'Im_RobertPattinson.png', 'Im_ElijahWood.png', 'Im_MattDamon.png', 'Im_RyanGosling.png', 'Im_BradPitt.png', 'Im_JustinTimberlake.png', 'Im_RobertDowneyJr.png', 'Im_LeonardoDiCaprio.png'],diff,1,2216.8632793,8,76.19047619047619,
MIFA1204,13,pos,0,pos0_id10_im1.bmp_pos0_id10_im17.bmp,['Im_PatrickDempsey.png', 'Im_DanielCraig.png', 'Im_RobertPattinson.png', 'Im_ElijahWood.png', 'Im_MattDamon.png', 'Im_RyanGosling.png', 'Im_BradPitt.png', 'Im_JustinTimberlake.png', 'Im_RobertDowneyJr.png', 'Im_LeonardoDiCaprio.png'],same,1,2222.4882871,9,76.19047619047619,
MIFA1204,13,pos,90,pos90_id17_im14.bmp_pos90_id13_im15.bmp,['Im_PatrickDempsey.png', 'Im_DanielCraig.png', 'Im_RobertPattinson.png', 'Im_ElijahWood.png', 'Im_MattDamon.png', 'Im_RyanGosling.png', 'Im_BradPitt.png', 'Im_JustinTimberlake.png', 'Im_RobertDowneyJr.png', 'Im_LeonardoDiCaprio.png'],diff,1,2226.7545679,10,76.19047619047619,
MIFA1204,13,pos,0,pos0_id14_im18.bmp_pos0_id4_im20.bmp,['Im_PatrickDempsey.png', 'Im_DanielCraig.png', 'Im_RobertPattinson.png', 'Im_ElijahWood.png', 'Im_MattDamon.png', 'Im_RyanGosling.png', 'Im_BradPitt.png', 'Im_JustinTimberlake.png', 'Im_RobertDowneyJr.png', 'Im_LeonardoDiCaprio.png'],diff,1,2230.8547672,11,76.19047619047619,
MIFA1204,13,pos,30,pos30_id4_im20.bmp_pos30_id14_im18.bmp,['Im_PatrickDempsey.png', 'Im_DanielCraig.png', 'Im_RobertPattinson.png', 'Im_ElijahWood.png', 'Im_MattDamon.png', 'Im_RyanGosling.png', 'Im_BradPitt.png', 'Im_JustinTimberlake.png', 'Im_RobertDowneyJr.png', 'Im_LeonardoDiCaprio.png'],diff,1,2235.2297547,12,76.19047619047619,
MIFA1204,13,pos,60,pos60_id13_im15.bmp_pos60_id13_im10.bmp,['Im_PatrickDempsey.png', 'Im_DanielCraig.png', 'Im_RobertPattinson.png', 'Im_ElijahWood.png', 'Im_MattDamon.png', 'Im_RyanGosling.png', 'Im_BradPitt.png', 'Im_JustinTimberlake.png', 'Im_RobertDowneyJr.png', 'Im_LeonardoDiCaprio.png'],same,1,2239.9381965,13,76.19047619047619,
MIFA1204,13,pos,fs,posfs_id10_im18.bmp_posfs_id19_im8.bmp,['Im_PatrickDempsey.png', 'Im_DanielCraig.png', 'Im_RobertPattinson.png', 'Im_ElijahWood.png', 'Im_MattDamon.png', 'Im_RyanGosling.png', 'Im_BradPitt.png', 'Im_JustinTimberlake.png', 'Im_RobertDowneyJr.png', 'Im_LeonardoDiCaprio.png'],diff,1,2245.0879177,14,76.19047619047619,
MIFA1204,13,pos,fs,posfs_id14_im16.bmp_posfs_id19_im27.bmp,['Im_PatrickDempsey.png', 'Im_DanielCraig.png', 'Im_RobertPattinson.png', 'Im_ElijahWood.png', 'Im_MattDamon.png', 'Im_RyanGosling.png', 'Im_BradPitt.png', 'Im_JustinTimberlake.png', 'Im_RobertDowneyJr.png', 'Im_LeonardoDiCaprio.png'],diff,1,2249.621411,15,76.19047619047619,
MIFA1204,13,pos,90,pos90_id17_im8.bmp_pos90_id10_im17.bmp,['Im_PatrickDempsey.png', 'Im_DanielCraig.png', 'Im_RobertPattinson.png', 'Im_ElijahWood.png', 'Im_MattDamon.png', 'Im_RyanGosling.png', 'Im_BradPitt.png', 'Im_JustinTimberlake.png', 'Im_RobertDowneyJr.png', 'Im_LeonardoDiCaprio.png'],diff,1,2254.4547364,16,76.19047619047619,
MIFA1204,13,pos,120,pos120_id4_im15.bmp_pos120_id3_im17.bmp,['Im_PatrickDempsey.png', 'Im_DanielCraig.png', 'Im_RobertPattinson.png', 'Im_ElijahWood.png', 'Im_MattDamon.png', 'Im_RyanGosling.png', 'Im_BradPitt.png', 'Im_JustinTimberlake.png', 'Im_RobertDowneyJr.png', 'Im_LeonardoDiCaprio.png'],diff,1,2258.8629542,17,76.19047619047619,
MIFA1204,13,pos,120,pos120_id3_im6.bmp_pos120_id6_im12.bmp,['Im_PatrickDempsey.png', 'Im_DanielCraig.png', 'Im_RobertPattinson.png', 'Im_ElijahWood.png', 'Im_MattDamon.png', 'Im_RyanGosling.png', 'Im_BradPitt.png', 'Im_JustinTimberlake.png', 'Im_RobertDowneyJr.png', 'Im_LeonardoDiCaprio.png'],diff,1,2263.1715055,18,76.19047619047619,
MIFA1204,13,pos,150,pos150_id13_im10.bmp_pos150_id13_im29.bmp,['Im_PatrickDempsey.png', 'Im_DanielCraig.png', 'Im_RobertPattinson.png', 'Im_ElijahWood.png', 'Im_MattDamon.png', 'Im_RyanGosling.png', 'Im_BradPitt.png', 'Im_JustinTimberlake.png', 'Im_RobertDowneyJr.png', 'Im_LeonardoDiCaprio.png'],diff,0,2268.0136819,18,76.19047619047619,
MIFA1204,13,pos,30,pos30_id6_im12.bmp_pos30_id6_im18.bmp,['Im_PatrickDempsey.png', 'Im_DanielCraig.png', 'Im_RobertPattinson.png', 'Im_ElijahWood.png', 'Im_MattDamon.png', 'Im_RyanGosling.png', 'Im_BradPitt.png', 'Im_JustinTimberlake.png', 'Im_RobertDowneyJr.png', 'Im_LeonardoDiCaprio.png'],same,1,2272.3797199,19,76.19047619047619,
MIFA1204,13,pos,60,pos60_id4_im15.bmp_pos60_id4_im7.bmp,['Im_PatrickDempsey.png', 'Im_DanielCraig.png', 'Im_RobertPattinson.png', 'Im_ElijahWood.png', 'Im_MattDamon.png', 'Im_RyanGosling.png', 'Im_BradPitt.png', 'Im_JustinTimberlake.png', 'Im_RobertDowneyJr.png', 'Im_LeonardoDiCaprio.png'],same,1,2276.6213488,20,76.19047619047619,
MIFA1204,14,neg,90,neg90_id19_im8.bmp_neg90_id10_im18.bmp,['Im_PatrickDempsey.png', 'Im_DanielCraig.png', 'Im_RobertPattinson.png', 'Im_ElijahWood.png', 'Im_MattDamon.png', 'Im_RyanGosling.png', 'Im_BradPitt.png', 'Im_JustinTimberlake.png', 'Im_RobertDowneyJr.png', 'Im_LeonardoDiCaprio.png'],same,0,2285.3048344999997,20,76.19047619047619,
MIFA1204,14,neg,0,neg0_id3_im6.bmp_neg0_id3_im8.bmp,['Im_PatrickDempsey.png', 'Im_DanielCraig.png', 'Im_RobertPattinson.png', 'Im_ElijahWood.png', 'Im_MattDamon.png', 'Im_RyanGosling.png', 'Im_BradPitt.png', 'Im_JustinTimberlake.png', 'Im_RobertDowneyJr.png', 'Im_LeonardoDiCaprio.png'],same,1,2289.5297066,21,76.19047619047619,
MIFA1204,14,neg,0,neg0_id20_im3.bmp_neg0_id10_im17.bmp,['Im_PatrickDempsey.png', 'Im_DanielCraig.png', 'Im_RobertPattinson.png', 'Im_ElijahWood.png', 'Im_MattDamon.png', 'Im_RyanGosling.png', 'Im_BradPitt.png', 'Im_JustinTimberlake.png', 'Im_RobertDowneyJr.png', 'Im_LeonardoDiCaprio.png'],same,0,2293.7901569,21,76.19047619047619,
MIFA1204,14,neg,60,neg60_id19_im8.bmp_neg60_id19_im4.bmp,['Im_PatrickDempsey.png', 'Im_DanielCraig.png', 'Im_RobertPattinson.png', 'Im_ElijahWood.png', 'Im_MattDamon.png', 'Im_RyanGosling.png', 'Im_BradPitt.png', 'Im_JustinTimberlake.png', 'Im_RobertDowneyJr.png', 'Im_LeonardoDiCaprio.png'],same,1,2298.3463570999998,22,76.19047619047619,
MIFA1204,14,neg,fs,negfs_id17_im14.bmp_negfs_id17_im9.bmp,['Im_PatrickDempsey.png', 'Im_DanielCraig.png', 'Im_RobertPattinson.png', 'Im_ElijahWood.png', 'Im_MattDamon.png', 'Im_RyanGosling.png', 'Im_BradPitt.png', 'Im_JustinTimberlake.png', 'Im_RobertDowneyJr.png', 'Im_LeonardoDiCaprio.png'],same,1,2302.9545203,23,76.19047619047619,
MIFA1204,14,neg,120,neg120_id10_im1.bmp_neg120_id4_im15.bmp,['Im_PatrickDempsey.png', 'Im_DanielCraig.png', 'Im_RobertPattinson.png', 'Im_ElijahWood.png', 'Im_MattDamon.png', 'Im_RyanGosling.png', 'Im_BradPitt.png', 'Im_JustinTimberlake.png', 'Im_RobertDowneyJr.png', 'Im_LeonardoDiCaprio.png'],diff,1,2307.1295778,24,76.19047619047619,
MIFA1204,14,neg,120,neg120_id13_im10.bmp_neg120_id14_im18.bmp,['Im_PatrickDempsey.png', 'Im_DanielCraig.png', 'Im_RobertPattinson.png', 'Im_ElijahWood.png', 'Im_MattDamon.png', 'Im_RyanGosling.png', 'Im_BradPitt.png', 'Im_JustinTimberlake.png', 'Im_RobertDowneyJr.png', 'Im_LeonardoDiCaprio.png'],same,0,2312.0132138,24,76.19047619047619,
MIFA1204,14,neg,fs,negfs_id18_im19.bmp_negfs_id13_im10.bmp,['Im_PatrickDempsey.png', 'Im_DanielCraig.png', 'Im_RobertPattinson.png', 'Im_ElijahWood.png', 'Im_MattDamon.png', 'Im_RyanGosling.png', 'Im_BradPitt.png', 'Im_JustinTimberlake.png', 'Im_RobertDowneyJr.png', 'Im_LeonardoDiCaprio.png'],diff,1,2316.4549566,25,76.19047619047619,
MIFA1204,14,neg,150,neg150_id13_im29.bmp_neg150_id13_im15.bmp,['Im_PatrickDempsey.png', 'Im_DanielCraig.png', 'Im_RobertPattinson.png', 'Im_ElijahWood.png', 'Im_MattDamon.png', 'Im_RyanGosling.png', 'Im_BradPitt.png', 'Im_JustinTimberlake.png', 'Im_RobertDowneyJr.png', 'Im_LeonardoDiCaprio.png'],same,1,2320.9299312,26,76.19047619047619,
MIFA1204,14,neg,30,neg30_id13_im15.bmp_neg30_id18_im11.bmp,['Im_PatrickDempsey.png', 'Im_DanielCraig.png', 'Im_RobertPattinson.png', 'Im_ElijahWood.png', 'Im_MattDamon.png', 'Im_RyanGosling.png', 'Im_BradPitt.png', 'Im_JustinTimberlake.png', 'Im_RobertDowneyJr.png', 'Im_LeonardoDiCaprio.png'],diff,1,2325.5632361,27,76.19047619047619,
MIFA1204,14,neg,90,neg90_id6_im18.bmp_neg90_id19_im27.bmp,['Im_PatrickDempsey.png', 'Im_DanielCraig.png', 'Im_RobertPattinson.png', 'Im_ElijahWood.png', 'Im_MattDamon.png', 'Im_RyanGosling.png', 'Im_BradPitt.png', 'Im_JustinTimberlake.png', 'Im_RobertDowneyJr.png', 'Im_LeonardoDiCaprio.png'],diff,1,2330.2964171999997,28,76.19047619047619,
MIFA1204,14,neg,60,neg60_id17_im8.bmp_neg60_id17_im14.bmp,['Im_PatrickDempsey.png', 'Im_DanielCraig.png', 'Im_RobertPattinson.png', 'Im_ElijahWood.png', 'Im_MattDamon.png', 'Im_RyanGosling.png', 'Im_BradPitt.png', 'Im_JustinTimberlake.png', 'Im_RobertDowneyJr.png', 'Im_LeonardoDiCaprio.png'],same,1,2335.1632417,29,76.19047619047619,
MIFA1204,14,neg,150,neg150_id6_im18.bmp_neg150_id6_im12.bmp,['Im_PatrickDempsey.png', 'Im_DanielCraig.png', 'Im_RobertPattinson.png', 'Im_ElijahWood.png', 'Im_MattDamon.png', 'Im_RyanGosling.png', 'Im_BradPitt.png', 'Im_JustinTimberlake.png', 'Im_RobertDowneyJr.png', 'Im_LeonardoDiCaprio.png'],same,1,2339.4796653,30,76.19047619047619,
MIFA1204,14,neg,30,neg30_id10_im18.bmp_neg30_id10_im1.bmp,['Im_PatrickDempsey.png', 'Im_DanielCraig.png', 'Im_RobertPattinson.png', 'Im_ElijahWood.png', 'Im_MattDamon.png', 'Im_RyanGosling.png', 'Im_BradPitt.png', 'Im_JustinTimberlake.png', 'Im_RobertDowneyJr.png', 'Im_LeonardoDiCaprio.png'],same,1,2344.1633259,31,76.19047619047619,
MIFA1204,15,neg,0,neg0_id20_im12.bmp_neg0_id10_im1.bmp,['Im_PatrickDempsey.png', 'Im_DanielCraig.png', 'Im_RobertPattinson.png', 'Im_ElijahWood.png', 'Im_MattDamon.png', 'Im_RyanGosling.png', 'Im_BradPitt.png', 'Im_JustinTimberlake.png', 'Im_RobertDowneyJr.png', 'Im_LeonardoDiCaprio.png'],same,0,2376.6378101,0,73.80952380952381,
MIFA1204,15,neg,150,neg150_id3_im6.bmp_neg150_id3_im8.bmp,['Im_PatrickDempsey.png', 'Im_DanielCraig.png', 'Im_RobertPattinson.png', 'Im_ElijahWood.png', 'Im_MattDamon.png', 'Im_RyanGosling.png', 'Im_BradPitt.png', 'Im_JustinTimberlake.png', 'Im_RobertDowneyJr.png', 'Im_LeonardoDiCaprio.png'],same,1,2381.2379972,1,73.80952380952381,
MIFA1204,15,neg,fs,negfs_id20_im12.bmp_negfs_id20_im30.bmp,['Im_PatrickDempsey.png', 'Im_DanielCraig.png', 'Im_RobertPattinson.png', 'Im_ElijahWood.png', 'Im_MattDamon.png', 'Im_RyanGosling.png', 'Im_BradPitt.png', 'Im_JustinTimberlake.png', 'Im_RobertDowneyJr.png', 'Im_LeonardoDiCaprio.png'],same,1,2385.7463239999997,2,73.80952380952381,
MIFA1204,15,neg,30,neg30_id6_im12.bmp_neg30_id6_im18.bmp,['Im_PatrickDempsey.png', 'Im_DanielCraig.png', 'Im_RobertPattinson.png', 'Im_ElijahWood.png', 'Im_MattDamon.png', 'Im_RyanGosling.png', 'Im_BradPitt.png', 'Im_JustinTimberlake.png', 'Im_RobertDowneyJr.png', 'Im_LeonardoDiCaprio.png'],same,1,2390.0961432,3,73.80952380952381,
MIFA1204,15,neg,fs,negfs_id20_im3.bmp_negfs_id10_im17.bmp,['Im_PatrickDempsey.png', 'Im_DanielCraig.png', 'Im_RobertPattinson.png', 'Im_ElijahWood.png', 'Im_MattDamon.png', 'Im_RyanGosling.png', 'Im_BradPitt.png', 'Im_JustinTimberlake.png', 'Im_RobertDowneyJr.png', 'Im_LeonardoDiCaprio.png'],same,0,2394.8715999,3,73.80952380952381,
MIFA1204,15,neg,0,neg0_id18_im19.bmp_neg0_id18_im11.bmp,['Im_PatrickDempsey.png', 'Im_DanielCraig.png', 'Im_RobertPattinson.png', 'Im_ElijahWood.png', 'Im_MattDamon.png', 'Im_RyanGosling.png', 'Im_BradPitt.png', 'Im_JustinTimberlake.png', 'Im_RobertDowneyJr.png', 'Im_LeonardoDiCaprio.png'],same,1,2399.2462815,4,73.80952380952381,
MIFA1204,15,neg,90,neg90_id3_im6.bmp_neg90_id6_im12.bmp,['Im_PatrickDempsey.png', 'Im_DanielCraig.png', 'Im_RobertPattinson.png', 'Im_ElijahWood.png', 'Im_MattDamon.png', 'Im_RyanGosling.png', 'Im_BradPitt.png', 'Im_JustinTimberlake.png', 'Im_RobertDowneyJr.png', 'Im_LeonardoDiCaprio.png'],diff,1,2403.6296124,5,73.80952380952381,
MIFA1204,15,neg,120,neg120_id10_im17.bmp_neg120_id17_im8.bmp,['Im_PatrickDempsey.png', 'Im_DanielCraig.png', 'Im_RobertPattinson.png', 'Im_ElijahWood.png', 'Im_MattDamon.png', 'Im_RyanGosling.png', 'Im_BradPitt.png', 'Im_JustinTimberlake.png', 'Im_RobertDowneyJr.png', 'Im_LeonardoDiCaprio.png'],same,0,2407.8712875,5,73.80952380952381,
MIFA1204,15,neg,90,neg90_id13_im29.bmp_neg90_id13_im10.bmp,['Im_PatrickDempsey.png', 'Im_DanielCraig.png', 'Im_RobertPattinson.png', 'Im_ElijahWood.png', 'Im_MattDamon.png', 'Im_RyanGosling.png', 'Im_BradPitt.png', 'Im_JustinTimberlake.png', 'Im_RobertDowneyJr.png', 'Im_LeonardoDiCaprio.png'],same,1,2412.2295567,6,73.80952380952381,
MIFA1204,15,neg,60,neg60_id19_im8.bmp_neg60_id10_im18.bmp,['Im_PatrickDempsey.png', 'Im_DanielCraig.png', 'Im_RobertPattinson.png', 'Im_ElijahWood.png', 'Im_MattDamon.png', 'Im_RyanGosling.png', 'Im_BradPitt.png', 'Im_JustinTimberlake.png', 'Im_RobertDowneyJr.png', 'Im_LeonardoDiCaprio.png'],same,0,2416.4796886999998,6,73.80952380952381,
MIFA1204,15,neg,120,neg120_id14_im24.bmp_neg120_id6_im12.bmp,['Im_PatrickDempsey.png', 'Im_DanielCraig.png', 'Im_RobertPattinson.png', 'Im_ElijahWood.png', 'Im_MattDamon.png', 'Im_RyanGosling.png', 'Im_BradPitt.png', 'Im_JustinTimberlake.png', 'Im_RobertDowneyJr.png', 'Im_LeonardoDiCaprio.png'],diff,1,2420.5794891,7,73.80952380952381,
MIFA1204,15,neg,150,neg150_id19_im4.bmp_neg150_id4_im20.bmp,['Im_PatrickDempsey.png', 'Im_DanielCraig.png', 'Im_RobertPattinson.png', 'Im_ElijahWood.png', 'Im_MattDamon.png', 'Im_RyanGosling.png', 'Im_BradPitt.png', 'Im_JustinTimberlake.png', 'Im_RobertDowneyJr.png', 'Im_LeonardoDiCaprio.png'],diff,1,2424.6794409,8,73.80952380952381,
MIFA1204,15,neg,30,neg30_id19_im8.bmp_neg30_id3_im6.bmp,['Im_PatrickDempsey.png', 'Im_DanielCraig.png', 'Im_RobertPattinson.png', 'Im_ElijahWood.png', 'Im_MattDamon.png', 'Im_RyanGosling.png', 'Im_BradPitt.png', 'Im_JustinTimberlake.png', 'Im_RobertDowneyJr.png', 'Im_LeonardoDiCaprio.png'],diff,1,2429.4461054,9,73.80952380952381,
MIFA1204,15,neg,60,neg60_id18_im18.bmp_neg60_id18_im11.bmp,['Im_PatrickDempsey.png', 'Im_DanielCraig.png', 'Im_RobertPattinson.png', 'Im_ElijahWood.png', 'Im_MattDamon.png', 'Im_RyanGosling.png', 'Im_BradPitt.png', 'Im_JustinTimberlake.png', 'Im_RobertDowneyJr.png', 'Im_LeonardoDiCaprio.png'],same,1,2434.6712607,10,73.80952380952381,
MIFA1204,16,pos,150,pos150_id17_im9.bmp_pos150_id17_im14.bmp,['Im_PatrickDempsey.png', 'Im_DanielCraig.png', 'Im_RobertPattinson.png', 'Im_ElijahWood.png', 'Im_MattDamon.png', 'Im_RyanGosling.png', 'Im_BradPitt.png', 'Im_JustinTimberlake.png', 'Im_RobertDowneyJr.png', 'Im_LeonardoDiCaprio.png'],same,1,2442.6212218,11,73.80952380952381,
MIFA1204,16,pos,150,pos150_id10_im1.bmp_pos150_id10_im17.bmp,['Im_PatrickDempsey.png', 'Im_DanielCraig.png', 'Im_RobertPattinson.png', 'Im_ElijahWood.png', 'Im_MattDamon.png', 'Im_RyanGosling.png', 'Im_BradPitt.png', 'Im_JustinTimberlake.png', 'Im_RobertDowneyJr.png', 'Im_LeonardoDiCaprio.png'],same,1,2447.1294989,12,73.80952380952381,
MIFA1204,16,pos,fs,posfs_id13_im15.bmp_posfs_id18_im11.bmp,['Im_PatrickDempsey.png', 'Im_DanielCraig.png', 'Im_RobertPattinson.png', 'Im_ElijahWood.png', 'Im_MattDamon.png', 'Im_RyanGosling.png', 'Im_BradPitt.png', 'Im_JustinTimberlake.png', 'Im_RobertDowneyJr.png', 'Im_LeonardoDiCaprio.png'],diff,1,2452.3963452,13,73.80952380952381,
MIFA1204,16,pos,30,pos30_id10_im17.bmp_pos30_id17_im8.bmp,['Im_PatrickDempsey.png', 'Im_DanielCraig.png', 'Im_RobertPattinson.png', 'Im_ElijahWood.png', 'Im_MattDamon.png', 'Im_RyanGosling.png', 'Im_BradPitt.png', 'Im_JustinTimberlake.png', 'Im_RobertDowneyJr.png', 'Im_LeonardoDiCaprio.png'],diff,1,2456.6462351,14,73.80952380952381,
MIFA1204,16,pos,120,pos120_id10_im1.bmp_pos120_id10_im17.bmp,['Im_PatrickDempsey.png', 'Im_DanielCraig.png', 'Im_RobertPattinson.png', 'Im_ElijahWood.png', 'Im_MattDamon.png', 'Im_RyanGosling.png', 'Im_BradPitt.png', 'Im_JustinTimberlake.png', 'Im_RobertDowneyJr.png', 'Im_LeonardoDiCaprio.png'],same,1,2461.3129129999998,15,73.80952380952381,
MIFA1204,16,pos,90,pos90_id3_im8.bmp_pos90_id17_im8.bmp,['Im_PatrickDempsey.png', 'Im_DanielCraig.png', 'Im_RobertPattinson.png', 'Im_ElijahWood.png', 'Im_MattDamon.png', 'Im_RyanGosling.png', 'Im_BradPitt.png', 'Im_JustinTimberlake.png', 'Im_RobertDowneyJr.png', 'Im_LeonardoDiCaprio.png'],diff,1,2465.8878830999997,16,73.80952380952381,
MIFA1204,16,pos,0,pos0_id6_im18.bmp_pos0_id19_im27.bmp,['Im_PatrickDempsey.png', 'Im_DanielCraig.png', 'Im_RobertPattinson.png', 'Im_ElijahWood.png', 'Im_MattDamon.png', 'Im_RyanGosling.png', 'Im_BradPitt.png', 'Im_JustinTimberlake.png', 'Im_RobertDowneyJr.png', 'Im_LeonardoDiCaprio.png'],diff,1,2470.1546542,17,73.80952380952381,
MIFA1204,16,pos,60,pos60_id18_im19.bmp_pos60_id14_im24.bmp,['Im_PatrickDempsey.png', 'Im_DanielCraig.png', 'Im_RobertPattinson.png', 'Im_ElijahWood.png', 'Im_MattDamon.png', 'Im_RyanGosling.png', 'Im_BradPitt.png', 'Im_JustinTimberlake.png', 'Im_RobertDowneyJr.png', 'Im_LeonardoDiCaprio.png'],diff,1,2475.3629,18,73.80952380952381,
MIFA1204,16,pos,60,pos60_id3_im8.bmp_pos60_id3_im6.bmp,['Im_PatrickDempsey.png', 'Im_DanielCraig.png', 'Im_RobertPattinson.png', 'Im_ElijahWood.png', 'Im_MattDamon.png', 'Im_RyanGosling.png', 'Im_BradPitt.png', 'Im_JustinTimberlake.png', 'Im_RobertDowneyJr.png', 'Im_LeonardoDiCaprio.png'],same,1,2480.0964394,19,73.80952380952381,
MIFA1204,16,pos,90,pos90_id3_im6.bmp_pos90_id6_im12.bmp,['Im_PatrickDempsey.png', 'Im_DanielCraig.png', 'Im_RobertPattinson.png', 'Im_ElijahWood.png', 'Im_MattDamon.png', 'Im_RyanGosling.png', 'Im_BradPitt.png', 'Im_JustinTimberlake.png', 'Im_RobertDowneyJr.png', 'Im_LeonardoDiCaprio.png'],diff,1,2484.754617,20,73.80952380952381,
MIFA1204,16,pos,120,pos120_id18_im19.bmp_pos120_id18_im11.bmp,['Im_PatrickDempsey.png', 'Im_DanielCraig.png', 'Im_RobertPattinson.png', 'Im_ElijahWood.png', 'Im_MattDamon.png', 'Im_RyanGosling.png', 'Im_BradPitt.png', 'Im_JustinTimberlake.png', 'Im_RobertDowneyJr.png', 'Im_LeonardoDiCaprio.png'],same,1,2489.1712589,21,73.80952380952381,
MIFA1204,16,pos,fs,posfs_id19_im4.bmp_posfs_id4_im20.bmp,['Im_PatrickDempsey.png', 'Im_DanielCraig.png', 'Im_RobertPattinson.png', 'Im_ElijahWood.png', 'Im_MattDamon.png', 'Im_RyanGosling.png', 'Im_BradPitt.png', 'Im_JustinTimberlake.png', 'Im_RobertDowneyJr.png', 'Im_LeonardoDiCaprio.png'],diff,1,2493.4962315,22,73.80952380952381,
MIFA1204,16,pos,30,pos30_id18_im19.bmp_pos30_id18_im11.bmp,['Im_PatrickDempsey.png', 'Im_DanielCraig.png', 'Im_RobertPattinson.png', 'Im_ElijahWood.png', 'Im_MattDamon.png', 'Im_RyanGosling.png', 'Im_BradPitt.png', 'Im_JustinTimberlake.png', 'Im_RobertDowneyJr.png', 'Im_LeonardoDiCaprio.png'],same,1,2498.1797857,23,73.80952380952381,
MIFA1204,16,pos,0,pos0_id6_im12.bmp_pos0_id3_im6.bmp,['Im_PatrickDempsey.png', 'Im_DanielCraig.png', 'Im_RobertPattinson.png', 'Im_ElijahWood.png', 'Im_MattDamon.png', 'Im_RyanGosling.png', 'Im_BradPitt.png', 'Im_JustinTimberlake.png', 'Im_RobertDowneyJr.png', 'Im_LeonardoDiCaprio.png'],diff,1,2502.7797004999998,24,73.80952380952381,
MIFA1204,17,inv,150,pos150_id4_im15.bmp_pos150_id4_im20.bmp,['Im_PatrickDempsey.png', 'Im_DanielCraig.png', 'Im_RobertPattinson.png', 'Im_ElijahWood.png', 'Im_MattDamon.png', 'Im_RyanGosling.png', 'Im_BradPitt.png', 'Im_JustinTimberlake.png', 'Im_RobertDowneyJr.png', 'Im_LeonardoDiCaprio.png'],same,1,2510.6296025,25,73.80952380952381,
MIFA1204,17,inv,fs,posfs_id19_im8.bmp_posfs_id3_im6.bmp,['Im_PatrickDempsey.png', 'Im_DanielCraig.png', 'Im_RobertPattinson.png', 'Im_ElijahWood.png', 'Im_MattDamon.png', 'Im_RyanGosling.png', 'Im_BradPitt.png', 'Im_JustinTimberlake.png', 'Im_RobertDowneyJr.png', 'Im_LeonardoDiCaprio.png'],diff,1,2515.3128728,26,73.80952380952381,
MIFA1204,17,inv,90,pos90_id4_im20.bmp_pos90_id4_im7.bmp,['Im_PatrickDempsey.png', 'Im_DanielCraig.png', 'Im_RobertPattinson.png', 'Im_ElijahWood.png', 'Im_MattDamon.png', 'Im_RyanGosling.png', 'Im_BradPitt.png', 'Im_JustinTimberlake.png', 'Im_RobertDowneyJr.png', 'Im_LeonardoDiCaprio.png'],same,1,2520.1298269999998,27,73.80952380952381,
MIFA1204,17,inv,30,pos30_id17_im8.bmp_pos30_id17_im9.bmp,['Im_PatrickDempsey.png', 'Im_DanielCraig.png', 'Im_RobertPattinson.png', 'Im_ElijahWood.png', 'Im_MattDamon.png', 'Im_RyanGosling.png', 'Im_BradPitt.png', 'Im_JustinTimberlake.png', 'Im_RobertDowneyJr.png', 'Im_LeonardoDiCaprio.png'],same,1,2524.9211603,28,73.80952380952381,
MIFA1204,17,inv,fs,posfs_id3_im8.bmp_posfs_id17_im9.bmp,['Im_PatrickDempsey.png', 'Im_DanielCraig.png', 'Im_RobertPattinson.png', 'Im_ElijahWood.png', 'Im_MattDamon.png', 'Im_RyanGosling.png', 'Im_BradPitt.png', 'Im_JustinTimberlake.png', 'Im_RobertDowneyJr.png', 'Im_LeonardoDiCaprio.png'],diff,1,2529.754826,29,73.80952380952381,
MIFA1204,17,inv,120,pos120_id6_im18.bmp_pos120_id6_im19.bmp,['Im_PatrickDempsey.png', 'Im_DanielCraig.png', 'Im_RobertPattinson.png', 'Im_ElijahWood.png', 'Im_MattDamon.png', 'Im_RyanGosling.png', 'Im_BradPitt.png', 'Im_JustinTimberlake.png', 'Im_RobertDowneyJr.png', 'Im_LeonardoDiCaprio.png'],same,1,2534.1711895,30,73.80952380952381,
MIFA1204,17,inv,60,pos60_id14_im18.bmp_pos60_id4_im20.bmp,['Im_PatrickDempsey.png', 'Im_DanielCraig.png', 'Im_RobertPattinson.png', 'Im_ElijahWood.png', 'Im_MattDamon.png', 'Im_RyanGosling.png', 'Im_BradPitt.png', 'Im_JustinTimberlake.png', 'Im_RobertDowneyJr.png', 'Im_LeonardoDiCaprio.png'],same,0,2538.5630127,30,73.80952380952381,
MIFA1204,17,inv,90,pos90_id10_im17.bmp_pos90_id10_im1.bmp,['Im_PatrickDempsey.png', 'Im_DanielCraig.png', 'Im_RobertPattinson.png', 'Im_ElijahWood.png', 'Im_MattDamon.png', 'Im_RyanGosling.png', 'Im_BradPitt.png', 'Im_JustinTimberlake.png', 'Im_RobertDowneyJr.png', 'Im_LeonardoDiCaprio.png'],same,1,2542.9128608,31,73.80952380952381,
MIFA1204,17,inv,0,pos0_id14_im16.bmp_pos0_id19_im27.bmp,['Im_PatrickDempsey.png', 'Im_DanielCraig.png', 'Im_RobertPattinson.png', 'Im_ElijahWood.png', 'Im_MattDamon.png', 'Im_RyanGosling.png', 'Im_BradPitt.png', 'Im_JustinTimberlake.png', 'Im_RobertDowneyJr.png', 'Im_LeonardoDiCaprio.png'],same,0,2547.4296428,31,73.80952380952381,
MIFA1204,17,inv,0,pos0_id4_im15.bmp_pos0_id10_im1.bmp,['Im_PatrickDempsey.png', 'Im_DanielCraig.png', 'Im_RobertPattinson.png', 'Im_ElijahWood.png', 'Im_MattDamon.png', 'Im_RyanGosling.png', 'Im_BradPitt.png', 'Im_JustinTimberlake.png', 'Im_RobertDowneyJr.png', 'Im_LeonardoDiCaprio.png'],diff,1,2552.6293266,32,73.80952380952381,
MIFA1204,17,inv,150,pos150_id10_im1.bmp_pos150_id20_im12.bmp,['Im_PatrickDempsey.png', 'Im_DanielCraig.png', 'Im_RobertPattinson.png', 'Im_ElijahWood.png', 'Im_MattDamon.png', 'Im_RyanGosling.png', 'Im_BradPitt.png', 'Im_JustinTimberlake.png', 'Im_RobertDowneyJr.png', 'Im_LeonardoDiCaprio.png'],diff,1,2557.0961822,33,73.80952380952381,
MIFA1204,17,inv,120,pos120_id4_im7.bmp_pos120_id14_im16.bmp,['Im_PatrickDempsey.png', 'Im_DanielCraig.png', 'Im_RobertPattinson.png', 'Im_ElijahWood.png', 'Im_MattDamon.png', 'Im_RyanGosling.png', 'Im_BradPitt.png', 'Im_JustinTimberlake.png', 'Im_RobertDowneyJr.png', 'Im_LeonardoDiCaprio.png'],same,0,2561.6794698999997,33,73.80952380952381,
MIFA1204,17,inv,30,pos30_id4_im15.bmp_pos30_id10_im1.bmp,['Im_PatrickDempsey.png', 'Im_DanielCraig.png', 'Im_RobertPattinson.png', 'Im_ElijahWood.png', 'Im_MattDamon.png', 'Im_RyanGosling.png', 'Im_BradPitt.png', 'Im_JustinTimberlake.png', 'Im_RobertDowneyJr.png', 'Im_LeonardoDiCaprio.png'],diff,1,2565.8545722999997,34,73.80952380952381,
MIFA1204,17,inv,60,pos60_id18_im19.bmp_pos60_id18_im18.bmp,['Im_PatrickDempsey.png', 'Im_DanielCraig.png', 'Im_RobertPattinson.png', 'Im_ElijahWood.png', 'Im_MattDamon.png', 'Im_RyanGosling.png', 'Im_BradPitt.png', 'Im_JustinTimberlake.png', 'Im_RobertDowneyJr.png', 'Im_LeonardoDiCaprio.png'],diff,0,2570.5963185,34,73.80952380952381,
MIFA1204,18,pos,30,pos30_id20_im30.bmp_pos30_id20_im3.bmp,['Im_PatrickDempsey.png', 'Im_DanielCraig.png', 'Im_RobertPattinson.png', 'Im_ElijahWood.png', 'Im_MattDamon.png', 'Im_RyanGosling.png', 'Im_BradPitt.png', 'Im_JustinTimberlake.png', 'Im_RobertDowneyJr.png', 'Im_LeonardoDiCaprio.png'],same,1,2589.7044548,1,80.95238095238095,
MIFA1204,18,pos,30,pos30_id17_im14.bmp_pos30_id13_im15.bmp,['Im_PatrickDempsey.png', 'Im_DanielCraig.png', 'Im_RobertPattinson.png', 'Im_ElijahWood.png', 'Im_MattDamon.png', 'Im_RyanGosling.png', 'Im_BradPitt.png', 'Im_JustinTimberlake.png', 'Im_RobertDowneyJr.png', 'Im_LeonardoDiCaprio.png'],diff,1,2594.1461325,2,80.95238095238095,
MIFA1204,18,pos,0,pos0_id20_im12.bmp_pos0_id10_im1.bmp,['Im_PatrickDempsey.png', 'Im_DanielCraig.png', 'Im_RobertPattinson.png', 'Im_ElijahWood.png', 'Im_MattDamon.png', 'Im_RyanGosling.png', 'Im_BradPitt.png', 'Im_JustinTimberlake.png', 'Im_RobertDowneyJr.png', 'Im_LeonardoDiCaprio.png'],diff,1,2598.4711469,3,80.95238095238095,
MIFA1204,18,pos,150,pos150_id13_im29.bmp_pos150_id13_im15.bmp,['Im_PatrickDempsey.png', 'Im_DanielCraig.png', 'Im_RobertPattinson.png', 'Im_ElijahWood.png', 'Im_MattDamon.png', 'Im_RyanGosling.png', 'Im_BradPitt.png', 'Im_JustinTimberlake.png', 'Im_RobertDowneyJr.png', 'Im_LeonardoDiCaprio.png'],diff,0,2602.9964845,3,80.95238095238095,
MIFA1204,18,pos,fs,posfs_id10_im18.bmp_posfs_id13_im29.bmp,['Im_PatrickDempsey.png', 'Im_DanielCraig.png', 'Im_RobertPattinson.png', 'Im_ElijahWood.png', 'Im_MattDamon.png', 'Im_RyanGosling.png', 'Im_BradPitt.png', 'Im_JustinTimberlake.png', 'Im_RobertDowneyJr.png', 'Im_LeonardoDiCaprio.png'],diff,1,2607.4378129,4,80.95238095238095,
MIFA1204,18,pos,60,pos60_id3_im6.bmp_pos60_id6_im12.bmp,['Im_PatrickDempsey.png', 'Im_DanielCraig.png', 'Im_RobertPattinson.png', 'Im_ElijahWood.png', 'Im_MattDamon.png', 'Im_RyanGosling.png', 'Im_BradPitt.png', 'Im_JustinTimberlake.png', 'Im_RobertDowneyJr.png', 'Im_LeonardoDiCaprio.png'],diff,1,2611.7794672,5,80.95238095238095,
MIFA1204,18,pos,90,pos90_id20_im12.bmp_pos90_id13_im29.bmp,['Im_PatrickDempsey.png', 'Im_DanielCraig.png', 'Im_RobertPattinson.png', 'Im_ElijahWood.png', 'Im_MattDamon.png', 'Im_RyanGosling.png', 'Im_BradPitt.png', 'Im_JustinTimberlake.png', 'Im_RobertDowneyJr.png', 'Im_LeonardoDiCaprio.png'],diff,1,2616.1046407999997,6,80.95238095238095,
MIFA1204,18,pos,120,pos120_id6_im12.bmp_pos120_id6_im19.bmp,['Im_PatrickDempsey.png', 'Im_DanielCraig.png', 'Im_RobertPattinson.png', 'Im_ElijahWood.png', 'Im_MattDamon.png', 'Im_RyanGosling.png', 'Im_BradPitt.png', 'Im_JustinTimberlake.png', 'Im_RobertDowneyJr.png', 'Im_LeonardoDiCaprio.png'],same,1,2620.5460821,7,80.95238095238095,
MIFA1204,18,pos,90,pos90_id14_im24.bmp_pos90_id14_im16.bmp,['Im_PatrickDempsey.png', 'Im_DanielCraig.png', 'Im_RobertPattinson.png', 'Im_ElijahWood.png', 'Im_MattDamon.png', 'Im_RyanGosling.png', 'Im_BradPitt.png', 'Im_JustinTimberlake.png', 'Im_RobertDowneyJr.png', 'Im_LeonardoDiCaprio.png'],same,1,2624.9461511,8,80.95238095238095,
MIFA1204,18,pos,60,pos60_id6_im19.bmp_pos60_id6_im18.bmp,['Im_PatrickDempsey.png', 'Im_DanielCraig.png', 'Im_RobertPattinson.png', 'Im_ElijahWood.png', 'Im_MattDamon.png', 'Im_RyanGosling.png', 'Im_BradPitt.png', 'Im_JustinTimberlake.png', 'Im_RobertDowneyJr.png', 'Im_LeonardoDiCaprio.png'],same,1,2629.287824,9,80.95238095238095,
MIFA1204,18,pos,120,pos120_id14_im24.bmp_pos120_id18_im19.bmp,['Im_PatrickDempsey.png', 'Im_DanielCraig.png', 'Im_RobertPattinson.png', 'Im_ElijahWood.png', 'Im_MattDamon.png', 'Im_RyanGosling.png', 'Im_BradPitt.png', 'Im_JustinTimberlake.png', 'Im_RobertDowneyJr.png', 'Im_LeonardoDiCaprio.png'],diff,1,2633.7543049,10,80.95238095238095,
MIFA1204,18,pos,150,pos150_id4_im15.bmp_pos150_id4_im7.bmp,['Im_PatrickDempsey.png', 'Im_DanielCraig.png', 'Im_RobertPattinson.png', 'Im_ElijahWood.png', 'Im_MattDamon.png', 'Im_RyanGosling.png', 'Im_BradPitt.png', 'Im_JustinTimberlake.png', 'Im_RobertDowneyJr.png', 'Im_LeonardoDiCaprio.png'],same,1,2638.3044685,11,80.95238095238095,
MIFA1204,18,pos,fs,posfs_id19_im8.bmp_posfs_id19_im27.bmp,['Im_PatrickDempsey.png', 'Im_DanielCraig.png', 'Im_RobertPattinson.png', 'Im_ElijahWood.png', 'Im_MattDamon.png', 'Im_RyanGosling.png', 'Im_BradPitt.png', 'Im_JustinTimberlake.png', 'Im_RobertDowneyJr.png', 'Im_LeonardoDiCaprio.png'],same,1,2642.6959616999998,12,80.95238095238095,
MIFA1204,18,pos,0,pos0_id14_im16.bmp_pos0_id4_im7.bmp,['Im_PatrickDempsey.png', 'Im_DanielCraig.png', 'Im_RobertPattinson.png', 'Im_ElijahWood.png', 'Im_MattDamon.png', 'Im_RyanGosling.png', 'Im_BradPitt.png', 'Im_JustinTimberlake.png', 'Im_RobertDowneyJr.png', 'Im_LeonardoDiCaprio.png'],diff,1,2647.0711206,13,80.95238095238095,
MIFA1204,19,inv,0,pos0_id20_im3.bmp_pos0_id10_im17.bmp,['Im_PatrickDempsey.png', 'Im_DanielCraig.png', 'Im_RobertPattinson.png', 'Im_ElijahWood.png', 'Im_MattDamon.png', 'Im_RyanGosling.png', 'Im_BradPitt.png', 'Im_JustinTimberlake.png', 'Im_RobertDowneyJr.png', 'Im_LeonardoDiCaprio.png'],same,0,2655.0878540999997,13,80.95238095238095,
MIFA1204,19,inv,90,pos90_id3_im8.bmp_pos90_id17_im8.bmp,['Im_PatrickDempsey.png', 'Im_DanielCraig.png', 'Im_RobertPattinson.png', 'Im_ElijahWood.png', 'Im_MattDamon.png', 'Im_RyanGosling.png', 'Im_BradPitt.png', 'Im_JustinTimberlake.png', 'Im_RobertDowneyJr.png', 'Im_LeonardoDiCaprio.png'],same,0,2659.4710459,13,80.95238095238095,
MIFA1204,19,inv,30,pos30_id14_im16.bmp_pos30_id14_im18.bmp,['Im_PatrickDempsey.png', 'Im_DanielCraig.png', 'Im_RobertPattinson.png', 'Im_ElijahWood.png', 'Im_MattDamon.png', 'Im_RyanGosling.png', 'Im_BradPitt.png', 'Im_JustinTimberlake.png', 'Im_RobertDowneyJr.png', 'Im_LeonardoDiCaprio.png'],same,1,2664.0046036999997,14,80.95238095238095,
MIFA1204,19,inv,120,pos120_id20_im12.bmp_pos120_id20_im3.bmp,['Im_PatrickDempsey.png', 'Im_DanielCraig.png', 'Im_RobertPattinson.png', 'Im_ElijahWood.png', 'Im_MattDamon.png', 'Im_RyanGosling.png', 'Im_BradPitt.png', 'Im_JustinTimberlake.png', 'Im_RobertDowneyJr.png', 'Im_LeonardoDiCaprio.png'],same,1,2668.3293118,15,80.95238095238095,
MIFA1204,19,inv,60,pos60_id10_im1.bmp_pos60_id4_im15.bmp,['Im_PatrickDempsey.png', 'Im_DanielCraig.png', 'Im_RobertPattinson.png', 'Im_ElijahWood.png', 'Im_MattDamon.png', 'Im_RyanGosling.png', 'Im_BradPitt.png', 'Im_JustinTimberlake.png', 'Im_RobertDowneyJr.png', 'Im_LeonardoDiCaprio.png'],diff,1,2673.3293092999997,16,80.95238095238095,
MIFA1204,19,inv,90,pos90_id6_im12.bmp_pos90_id6_im18.bmp,['Im_PatrickDempsey.png', 'Im_DanielCraig.png', 'Im_RobertPattinson.png', 'Im_ElijahWood.png', 'Im_MattDamon.png', 'Im_RyanGosling.png', 'Im_BradPitt.png', 'Im_JustinTimberlake.png', 'Im_RobertDowneyJr.png', 'Im_LeonardoDiCaprio.png'],diff,0,2677.8959237,16,80.95238095238095,
MIFA1204,19,inv,120,pos120_id10_im18.bmp_pos120_id10_im1.bmp,['Im_PatrickDempsey.png', 'Im_DanielCraig.png', 'Im_RobertPattinson.png', 'Im_ElijahWood.png', 'Im_MattDamon.png', 'Im_RyanGosling.png', 'Im_BradPitt.png', 'Im_JustinTimberlake.png', 'Im_RobertDowneyJr.png', 'Im_LeonardoDiCaprio.png'],diff,0,2682.6127711,16,80.95238095238095,
MIFA1204,19,inv,fs,posfs_id6_im12.bmp_posfs_id3_im6.bmp,['Im_PatrickDempsey.png', 'Im_DanielCraig.png', 'Im_RobertPattinson.png', 'Im_ElijahWood.png', 'Im_MattDamon.png', 'Im_RyanGosling.png', 'Im_BradPitt.png', 'Im_JustinTimberlake.png', 'Im_RobertDowneyJr.png', 'Im_LeonardoDiCaprio.png'],diff,1,2686.8877502,17,80.95238095238095,
MIFA1204,19,inv,150,pos150_id19_im8.bmp_pos150_id19_im4.bmp,['Im_PatrickDempsey.png', 'Im_DanielCraig.png', 'Im_RobertPattinson.png', 'Im_ElijahWood.png', 'Im_MattDamon.png', 'Im_RyanGosling.png', 'Im_BradPitt.png', 'Im_JustinTimberlake.png', 'Im_RobertDowneyJr.png', 'Im_LeonardoDiCaprio.png'],same,1,2692.0460084,18,80.95238095238095,
MIFA1204,19,inv,0,pos0_id20_im12.bmp_pos0_id10_im1.bmp,['Im_PatrickDempsey.png', 'Im_DanielCraig.png', 'Im_RobertPattinson.png', 'Im_ElijahWood.png', 'Im_MattDamon.png', 'Im_RyanGosling.png', 'Im_BradPitt.png', 'Im_JustinTimberlake.png', 'Im_RobertDowneyJr.png', 'Im_LeonardoDiCaprio.png'],diff,1,2696.7795784,19,80.95238095238095,
MIFA1204,19,inv,60,pos60_id18_im11.bmp_pos60_id13_im15.bmp,['Im_PatrickDempsey.png', 'Im_DanielCraig.png', 'Im_RobertPattinson.png', 'Im_ElijahWood.png', 'Im_MattDamon.png', 'Im_RyanGosling.png', 'Im_BradPitt.png', 'Im_JustinTimberlake.png', 'Im_RobertDowneyJr.png', 'Im_LeonardoDiCaprio.png'],diff,1,2701.5211534,20,80.95238095238095,
MIFA1204,19,inv,30,pos30_id3_im6.bmp_pos30_id6_im12.bmp,['Im_PatrickDempsey.png', 'Im_DanielCraig.png', 'Im_RobertPattinson.png', 'Im_ElijahWood.png', 'Im_MattDamon.png', 'Im_RyanGosling.png', 'Im_BradPitt.png', 'Im_JustinTimberlake.png', 'Im_RobertDowneyJr.png', 'Im_LeonardoDiCaprio.png'],diff,1,2705.9710704,21,80.95238095238095,
MIFA1204,19,inv,150,pos150_id18_im18.bmp_pos150_id18_im19.bmp,['Im_PatrickDempsey.png', 'Im_DanielCraig.png', 'Im_RobertPattinson.png', 'Im_ElijahWood.png', 'Im_MattDamon.png', 'Im_RyanGosling.png', 'Im_BradPitt.png', 'Im_JustinTimberlake.png', 'Im_RobertDowneyJr.png', 'Im_LeonardoDiCaprio.png'],same,1,2710.6460432999997,22,80.95238095238095,
MIFA1204,19,inv,fs,posfs_id18_im19.bmp_posfs_id18_im11.bmp,['Im_PatrickDempsey.png', 'Im_DanielCraig.png', 'Im_RobertPattinson.png', 'Im_ElijahWood.png', 'Im_MattDamon.png', 'Im_RyanGosling.png', 'Im_BradPitt.png', 'Im_JustinTimberlake.png', 'Im_RobertDowneyJr.png', 'Im_LeonardoDiCaprio.png'],diff,0,2717.5129478,22,80.95238095238095,
MIFA1204,20,neg,fs,negfs_id13_im29.bmp_negfs_id13_im10.bmp,['Im_PatrickDempsey.png', 'Im_DanielCraig.png', 'Im_RobertPattinson.png', 'Im_ElijahWood.png', 'Im_MattDamon.png', 'Im_RyanGosling.png', 'Im_BradPitt.png', 'Im_JustinTimberlake.png', 'Im_RobertDowneyJr.png', 'Im_LeonardoDiCaprio.png'],diff,0,2725.6210402,22,80.95238095238095,
MIFA1204,20,neg,60,neg60_id3_im6.bmp_neg60_id3_im8.bmp,['Im_PatrickDempsey.png', 'Im_DanielCraig.png', 'Im_RobertPattinson.png', 'Im_ElijahWood.png', 'Im_MattDamon.png', 'Im_RyanGosling.png', 'Im_BradPitt.png', 'Im_JustinTimberlake.png', 'Im_RobertDowneyJr.png', 'Im_LeonardoDiCaprio.png'],same,1,2729.979672,23,80.95238095238095,
MIFA1204,20,neg,60,neg60_id4_im15.bmp_neg60_id4_im20.bmp,['Im_PatrickDempsey.png', 'Im_DanielCraig.png', 'Im_RobertPattinson.png', 'Im_ElijahWood.png', 'Im_MattDamon.png', 'Im_RyanGosling.png', 'Im_BradPitt.png', 'Im_JustinTimberlake.png', 'Im_RobertDowneyJr.png', 'Im_LeonardoDiCaprio.png'],same,1,2734.6377133,24,80.95238095238095,
MIFA1204,20,neg,90,neg90_id4_im15.bmp_neg90_id4_im7.bmp,['Im_PatrickDempsey.png', 'Im_DanielCraig.png', 'Im_RobertPattinson.png', 'Im_ElijahWood.png', 'Im_MattDamon.png', 'Im_RyanGosling.png', 'Im_BradPitt.png', 'Im_JustinTimberlake.png', 'Im_RobertDowneyJr.png', 'Im_LeonardoDiCaprio.png'],same,1,2738.9543479999998,25,80.95238095238095,
MIFA1204,20,neg,fs,negfs_id13_im15.bmp_negfs_id13_im10.bmp,['Im_PatrickDempsey.png', 'Im_DanielCraig.png', 'Im_RobertPattinson.png', 'Im_ElijahWood.png', 'Im_MattDamon.png', 'Im_RyanGosling.png', 'Im_BradPitt.png', 'Im_JustinTimberlake.png', 'Im_RobertDowneyJr.png', 'Im_LeonardoDiCaprio.png'],same,1,2743.1710601,26,80.95238095238095,
MIFA1204,20,neg,120,neg120_id20_im30.bmp_neg120_id17_im14.bmp,['Im_PatrickDempsey.png', 'Im_DanielCraig.png', 'Im_RobertPattinson.png', 'Im_ElijahWood.png', 'Im_MattDamon.png', 'Im_RyanGosling.png', 'Im_BradPitt.png', 'Im_JustinTimberlake.png', 'Im_RobertDowneyJr.png', 'Im_LeonardoDiCaprio.png'],same,0,2747.479699,26,80.95238095238095,
MIFA1204,20,neg,120,neg120_id18_im19.bmp_neg120_id14_im24.bmp,['Im_PatrickDempsey.png', 'Im_DanielCraig.png', 'Im_RobertPattinson.png', 'Im_ElijahWood.png', 'Im_MattDamon.png', 'Im_RyanGosling.png', 'Im_BradPitt.png', 'Im_JustinTimberlake.png', 'Im_RobertDowneyJr.png', 'Im_LeonardoDiCaprio.png'],diff,1,2752.0627589,27,80.95238095238095,
MIFA1204,20,neg,0,neg0_id17_im9.bmp_neg0_id17_im8.bmp,['Im_PatrickDempsey.png', 'Im_DanielCraig.png', 'Im_RobertPattinson.png', 'Im_ElijahWood.png', 'Im_MattDamon.png', 'Im_RyanGosling.png', 'Im_BradPitt.png', 'Im_JustinTimberlake.png', 'Im_RobertDowneyJr.png', 'Im_LeonardoDiCaprio.png'],same,1,2756.5462054,28,80.95238095238095,
MIFA1204,20,neg,30,neg30_id17_im8.bmp_neg30_id17_im14.bmp,['Im_PatrickDempsey.png', 'Im_DanielCraig.png', 'Im_RobertPattinson.png', 'Im_ElijahWood.png', 'Im_MattDamon.png', 'Im_RyanGosling.png', 'Im_BradPitt.png', 'Im_JustinTimberlake.png', 'Im_RobertDowneyJr.png', 'Im_LeonardoDiCaprio.png'],same,1,2761.0126961,29,80.95238095238095,
MIFA1204,20,neg,90,neg90_id17_im14.bmp_neg90_id20_im30.bmp,['Im_PatrickDempsey.png', 'Im_DanielCraig.png', 'Im_RobertPattinson.png', 'Im_ElijahWood.png', 'Im_MattDamon.png', 'Im_RyanGosling.png', 'Im_BradPitt.png', 'Im_JustinTimberlake.png', 'Im_RobertDowneyJr.png', 'Im_LeonardoDiCaprio.png'],same,0,2765.5626876,29,80.95238095238095,
MIFA1204,20,neg,150,neg150_id6_im18.bmp_neg150_id6_im19.bmp,['Im_PatrickDempsey.png', 'Im_DanielCraig.png', 'Im_RobertPattinson.png', 'Im_ElijahWood.png', 'Im_MattDamon.png', 'Im_RyanGosling.png', 'Im_BradPitt.png', 'Im_JustinTimberlake.png', 'Im_RobertDowneyJr.png', 'Im_LeonardoDiCaprio.png'],same,1,2769.9794028,30,80.95238095238095,
MIFA1204,20,neg,150,neg150_id20_im3.bmp_neg150_id20_im12.bmp,['Im_PatrickDempsey.png', 'Im_DanielCraig.png', 'Im_RobertPattinson.png', 'Im_ElijahWood.png', 'Im_MattDamon.png', 'Im_RyanGosling.png', 'Im_BradPitt.png', 'Im_JustinTimberlake.png', 'Im_RobertDowneyJr.png', 'Im_LeonardoDiCaprio.png'],same,1,2775.1627565999997,31,80.95238095238095,
MIFA1204,20,neg,0,neg0_id6_im18.bmp_neg0_id6_im12.bmp,['Im_PatrickDempsey.png', 'Im_DanielCraig.png', 'Im_RobertPattinson.png', 'Im_ElijahWood.png', 'Im_MattDamon.png', 'Im_RyanGosling.png', 'Im_BradPitt.png', 'Im_JustinTimberlake.png', 'Im_RobertDowneyJr.png', 'Im_LeonardoDiCaprio.png'],same,1,2779.6210275,32,80.95238095238095,
MIFA1204,20,neg,30,neg30_id19_im27.bmp_neg30_id14_im16.bmp,['Im_PatrickDempsey.png', 'Im_DanielCraig.png', 'Im_RobertPattinson.png', 'Im_ElijahWood.png', 'Im_MattDamon.png', 'Im_RyanGosling.png', 'Im_BradPitt.png', 'Im_JustinTimberlake.png', 'Im_RobertDowneyJr.png', 'Im_LeonardoDiCaprio.png'],same,0,2784.1962664,32,80.95238095238095,
MIFA1204,21,pos,fs,posfs_id14_im24.bmp_posfs_id6_im12.bmp,['Im_PatrickDempsey.png', 'Im_DanielCraig.png', 'Im_RobertPattinson.png', 'Im_ElijahWood.png', 'Im_MattDamon.png', 'Im_RyanGosling.png', 'Im_BradPitt.png', 'Im_JustinTimberlake.png', 'Im_RobertDowneyJr.png', 'Im_LeonardoDiCaprio.png'],diff,1,2817.662597,1,76.19047619047619,
MIFA1204,21,pos,150,pos150_id19_im27.bmp_pos150_id14_im16.bmp,['Im_PatrickDempsey.png', 'Im_DanielCraig.png', 'Im_RobertPattinson.png', 'Im_ElijahWood.png', 'Im_MattDamon.png', 'Im_RyanGosling.png', 'Im_BradPitt.png', 'Im_JustinTimberlake.png', 'Im_RobertDowneyJr.png', 'Im_LeonardoDiCaprio.png'],diff,1,2822.4296546,2,76.19047619047619,
MIFA1204,21,pos,90,pos90_id6_im12.bmp_pos90_id6_im18.bmp,['Im_PatrickDempsey.png', 'Im_DanielCraig.png', 'Im_RobertPattinson.png', 'Im_ElijahWood.png', 'Im_MattDamon.png', 'Im_RyanGosling.png', 'Im_BradPitt.png', 'Im_JustinTimberlake.png', 'Im_RobertDowneyJr.png', 'Im_LeonardoDiCaprio.png'],same,1,2827.8959288,3,76.19047619047619,
