Sujet,Trial,Condition,Filter,Imname,Actor0,Actor1,Actor2,Actor3,Actor4,Actor5,Actor6,Actor7,Actor8,Actor9,Answer,Accu,RT,Score,Scoreperc, 
MINA0205,_,posfs_MattDamon_im9.bmp,MattDamon,BradPitt,BradPitt,HughJackman,DanielCraig,LeonardoDiCaprio,,,,,3,3.076036199999862,
MINA0205,_,posfs_RobertPattinson_im4.bmp,RobertPattinson,DanielRadcliffe,DanielRadcliffe,RyanGosling,MattDamon,ElijahWood,,,,,posfs_RobertPattinson_im4.bmp,2.1415638000000854,
MINA0205,_,posfs_KeanuReeves_im1.bmp,KeanuReeves,LeonardoDiCaprio,LeonardoDiCaprio,BradPitt,JustinTimberlake,RobertPattinson,,,,,4,3.020794399999886,
MINA0205,_,posfs_BenAffleck_im24.bmp,BenAffleck,OrlandoBloom,OrlandoBloom,DanielRadcliffe,MattDamon,GeorgeClooney,,,,,1,4.79403810000008,
MINA0205,_,posfs_DanielRadcliffe_im20.bmp,DanielRadcliffe,GeorgeClooney,GeorgeClooney,ElijahWood,RobertPattinson,KeanuReeves,,,,,4,1.2700940999998238,
MINA0205,_,posfs_RyanGosling_im25.bmp,RyanGosling,DanielCraig,DanielCraig,KeanuReeves,BradPitt,MattDamon,,,,,0,5.634002799999962,
MINA0205,_,posfs_RyanReynolds_im16.bmp,RyanReynolds,OrlandoBloom,OrlandoBloom,RobertPattinson,RyanGosling,LeonardoDiCaprio,,,,,4,0.5329456999998001,
MINA0205,_,posfs_GeorgeClooney_im23.bmp,GeorgeClooney,BenAffleck,BenAffleck,MattDamon,OrlandoBloom,KeanuReeves,,,,,posfs_GeorgeClooney_im23.bmp,4.277117399999952,
MINA0205,_,posfs_RobertDowneyJr_im4.bmp,RobertDowneyJr,RyanGosling,RyanGosling,BradPitt,HughJackman,ElijahWood,,,,,4,1.6403846000000613,
MINA0205,_,posfs_LeonardoDiCaprio_im29.bmp,LeonardoDiCaprio,RobertDowneyJr,RobertDowneyJr,PatrickDempsey,OrlandoBloom,DanielCraig,,,,,posfs_LeonardoDiCaprio_im29.bmp,3.8191785999999865,
MINA0205,_,posfs_ElijahWood_im19.bmp,ElijahWood,PatrickDempsey,PatrickDempsey,RyanReynolds,BenAffleck,OrlandoBloom,,,,,4,0.5692572000000382,
MINA0205,_,posfs_RyanGosling_im3.bmp,RyanGosling,RobertPattinson,RobertPattinson,PatrickDempsey,DanielCraig,JustinTimberlake,,,,,2,3.520499199999904,
MINA0205,_,posfs_PatrickDempsey_im16.bmp,PatrickDempsey,BradPitt,BradPitt,DanielCraig,DanielRadcliffe,LeonardoDiCaprio,,,,,4,5.624420399999963,
MINA0205,_,posfs_MattDamon_im24.bmp,MattDamon,RobertDowneyJr,RobertDowneyJr,BradPitt,HughJackman,RobertPattinson,,,,,1,4.91778290000002,
MINA0205,_,posfs_RobertDowneyJr_im18.bmp,RobertDowneyJr,MattDamon,MattDamon,BradPitt,GeorgeClooney,JustinTimberlake,,,,,4,0.7496971999999005,
MINA0205,_,posfs_PatrickDempsey_im14.bmp,PatrickDempsey,KeanuReeves,KeanuReeves,RobertDowneyJr,HughJackman,RyanReynolds,,,,,4,2.8779970000000503,
MINA0205,_,posfs_RobertDowneyJr_im19.bmp,RobertDowneyJr,DanielRadcliffe,DanielRadcliffe,DanielCraig,PatrickDempsey,BenStiller,,,,,4,2.384291100000155,
MINA0205,_,posfs_RobertPattinson_im30.bmp,RobertPattinson,DanielRadcliffe,DanielRadcliffe,DanielCraig,BenAffleck,JustinTimberlake,,,,,posfs_RobertPattinson_im30.bmp,2.4212250000000495,
MINA0205,_,posfs_RyanGosling_im30.bmp,RyanGosling,RyanReynolds,RyanReynolds,DanielCraig,PatrickDempsey,RobertPattinson,,,,,1,1.5064433000000008,
MINA0205,_,posfs_BenAffleck_im4.bmp,BenAffleck,BenStiller,BenStiller,KeanuReeves,ElijahWood,PatrickDempsey,,,,,4,0.8677414999999655,
MINA0205,_,posfs_BradPitt_im6.bmp,BradPitt,RyanGosling,RyanGosling,RobertDowneyJr,OrlandoBloom,HughJackman,,,,,4,4.303921699999819,
MINA0205,_,posfs_DanielCraig_im7.bmp,DanielCraig,BenAffleck,BenAffleck,KeanuReeves,PatrickDempsey,DanielRadcliffe,,,,,posfs_DanielCraig_im7.bmp,4.4097225999998955,
MINA0205,_,posfs_HughJackman_im13.bmp,HughJackman,BradPitt,BradPitt,PatrickDempsey,MattDamon,RobertPattinson,,,,,4,1.6946885999998358,
MINA0205,_,posfs_BradPitt_im14.bmp,BradPitt,MattDamon,MattDamon,DanielCraig,OrlandoBloom,LeonardoDiCaprio,,,,,4,3.3286764999998013,
MINA0205,_,posfs_MattDamon_im18.bmp,MattDamon,DanielCraig,DanielCraig,PatrickDempsey,DanielRadcliffe,ElijahWood,,,,,4,9.09659879999981,
MINA0205,_,posfs_DanielRadcliffe_im1.bmp,DanielRadcliffe,BradPitt,BradPitt,LeonardoDiCaprio,BenStiller,RobertPattinson,,,,,4,0.4483684000001631,
MINA0205,_,posfs_LeonardoDiCaprio_im24.bmp,LeonardoDiCaprio,DanielCraig,DanielCraig,BradPitt,PatrickDempsey,RyanGosling,,,,,posfs_LeonardoDiCaprio_im24.bmp,5.390316000000212,
MINA0205,_,posfs_BenStiller_im2.bmp,BenStiller,RobertDowneyJr,RobertDowneyJr,GeorgeClooney,DanielCraig,RyanReynolds,,,,,4,2.393738500000154,
MINA0205,_,posfs_GeorgeClooney_im15.bmp,GeorgeClooney,JustinTimberlake,JustinTimberlake,DanielRadcliffe,DanielCraig,BenAffleck,,,,,posfs_GeorgeClooney_im15.bmp,4.714138300000059,
MINA0205,_,posfs_RobertPattinson_im27.bmp,RobertPattinson,RyanReynolds,RyanReynolds,OrlandoBloom,MattDamon,KeanuReeves,,,,,posfs_RobertPattinson_im27.bmp,2.419343099999878,
MINA0205,_,posfs_KeanuReeves_im2.bmp,KeanuReeves,HughJackman,HughJackman,GeorgeClooney,RobertPattinson,BenStiller,,,,,4,1.327970999999934,
MINA0205,_,posfs_GeorgeClooney_im26.bmp,GeorgeClooney,LeonardoDiCaprio,LeonardoDiCaprio,RobertPattinson,BenAffleck,ElijahWood,,,,,4,4.352096900000106,
MINA0205,_,posfs_HughJackman_im20.bmp,HughJackman,JustinTimberlake,JustinTimberlake,RyanReynolds,DanielCraig,OrlandoBloom,,,,,4,1.191391000000067,
MINA0205,_,posfs_OrlandoBloom_im19.bmp,OrlandoBloom,ElijahWood,ElijahWood,DanielCraig,PatrickDempsey,LeonardoDiCaprio,,,,,4,3.237456800000018,
MINA0205,_,posfs_OrlandoBloom_im3.bmp,OrlandoBloom,RobertPattinson,RobertPattinson,RyanReynolds,RyanGosling,RobertDowneyJr,,,,,4,0.999654400000054,
MINA0205,_,posfs_RobertDowneyJr_im11.bmp,RobertDowneyJr,HughJackman,HughJackman,RyanGosling,JustinTimberlake,BenStiller,,,,,4,1.1594516000000112,
MINA0205,_,posfs_PatrickDempsey_im9.bmp,PatrickDempsey,HughJackman,HughJackman,RobertDowneyJr,KeanuReeves,BenAffleck,,,,,4,6.195722100000012,
MINA0205,_,posfs_RyanGosling_im12.bmp,RyanGosling,PatrickDempsey,PatrickDempsey,RyanReynolds,BradPitt,DanielCraig,,,,,3,4.794211399999995,
MINA0205,_,posfs_GeorgeClooney_im14.bmp,GeorgeClooney,KeanuReeves,KeanuReeves,LeonardoDiCaprio,PatrickDempsey,RobertPattinson,,,,,posfs_GeorgeClooney_im14.bmp,2.5276076000000103,
MINA0205,_,posfs_HughJackman_im21.bmp,HughJackman,OrlandoBloom,OrlandoBloom,GeorgeClooney,RyanGosling,BradPitt,,,,,4,4.040378899999951,
MINA0205,_,posfs_ElijahWood_im23.bmp,ElijahWood,BenAffleck,BenAffleck,RyanGosling,BenStiller,RobertDowneyJr,,,,,4,1.996520099999998,
MINA0205,_,posfs_DanielCraig_im20.bmp,DanielCraig,BenStiller,BenStiller,BradPitt,LeonardoDiCaprio,OrlandoBloom,,,,,0,8.00143509999998,
MINA0205,_,posfs_RyanReynolds_im17.bmp,RyanReynolds,PatrickDempsey,PatrickDempsey,ElijahWood,BenStiller,BradPitt,,,,,4,1.127502399999912,
MINA0205,_,posfs_LeonardoDiCaprio_im10.bmp,LeonardoDiCaprio,BenStiller,BenStiller,RyanGosling,PatrickDempsey,RobertPattinson,,,,,posfs_LeonardoDiCaprio_im10.bmp,3.6075157999998737,
MINA0205,_,posfs_JustinTimberlake_im18.bmp,JustinTimberlake,ElijahWood,ElijahWood,RyanGosling,DanielRadcliffe,LeonardoDiCaprio,,,,,4,1.171445100000028,
MINA0205,_,posfs_DanielCraig_im8.bmp,DanielCraig,RobertPattinson,RobertPattinson,BenAffleck,BenStiller,LeonardoDiCaprio,,,,,posfs_DanielCraig_im8.bmp,6.9148958000000675,
MINA0205,_,posfs_BenAffleck_im21.bmp,BenAffleck,RyanGosling,RyanGosling,GeorgeClooney,ElijahWood,BradPitt,,,,,4,0.635486599999922,
MINA0205,_,posfs_DanielCraig_im15.bmp,DanielCraig,BenAffleck,BenAffleck,MattDamon,BenStiller,HughJackman,,,,,posfs_DanielCraig_im15.bmp,1.9593838999999207,
MINA0205,_,posfs_BenStiller_im16.bmp,BenStiller,KeanuReeves,KeanuReeves,MattDamon,JustinTimberlake,BenAffleck,,,,,4,1.7176696000001357,
MINA0205,_,posfs_BenStiller_im3.bmp,BenStiller,ElijahWood,ElijahWood,JustinTimberlake,BradPitt,RobertDowneyJr,,,,,4,0.8689894999999979,
MINA0205,_,posfs_MattDamon_im16.bmp,MattDamon,LeonardoDiCaprio,LeonardoDiCaprio,RyanGosling,KeanuReeves,BenStiller,,,,,4,4.143320099999983,
MINA0205,_,posfs_RyanReynolds_im3.bmp,RyanReynolds,BenAffleck,BenAffleck,DanielCraig,MattDamon,OrlandoBloom,,,,,4,2.0084332999999788,
MINA0205,_,posfs_PatrickDempsey_im8.bmp,PatrickDempsey,BenStiller,BenStiller,MattDamon,BradPitt,RyanGosling,,,,,4,5.726121499999863,
MINA0205,_,posfs_DanielRadcliffe_im10.bmp,DanielRadcliffe,LeonardoDiCaprio,LeonardoDiCaprio,KeanuReeves,ElijahWood,MattDamon,,,,,4,4.54033359999994,
MINA0205,_,posfs_OrlandoBloom_im30.bmp,OrlandoBloom,JustinTimberlake,JustinTimberlake,BradPitt,KeanuReeves,RyanGosling,,,,,4,2.027961600000026,
MINA0205,_,posfs_BenStiller_im7.bmp,BenStiller,LeonardoDiCaprio,LeonardoDiCaprio,RyanGosling,DanielCraig,PatrickDempsey,,,,,4,0.33646139999996194,
MINA0205,_,posfs_ElijahWood_im18.bmp,ElijahWood,PatrickDempsey,PatrickDempsey,JustinTimberlake,RobertPattinson,RobertDowneyJr,,,,,4,1.5040673999999399,
MINA0205,_,posfs_JustinTimberlake_im17.bmp,JustinTimberlake,MattDamon,MattDamon,LeonardoDiCaprio,ElijahWood,GeorgeClooney,,,,,4,0.929261500000166,
MINA0205,_,posfs_LeonardoDiCaprio_im15.bmp,LeonardoDiCaprio,RobertPattinson,RobertPattinson,DanielCraig,BradPitt,DanielRadcliffe,,,,,posfs_LeonardoDiCaprio_im15.bmp,2.2825921999999537,
MINA0205,_,posfs_RobertPattinson_im8.bmp,RobertPattinson,DanielRadcliffe,DanielRadcliffe,OrlandoBloom,MattDamon,RyanGosling,,,,,posfs_RobertPattinson_im8.bmp,2.4138598999998067,
MINA0205,_,posfs_BradPitt_im17.bmp,BradPitt,PatrickDempsey,PatrickDempsey,LeonardoDiCaprio,JustinTimberlake,HughJackman,,,,,4,0.938725500000146,
MINA0205,_,posfs_JustinTimberlake_im4.bmp,JustinTimberlake,BenStiller,BenStiller,RobertDowneyJr,OrlandoBloom,PatrickDempsey,,,,,4,0.721701499999881,
MINA0205,_,posfs_KeanuReeves_im10.bmp,KeanuReeves,MattDamon,MattDamon,OrlandoBloom,PatrickDempsey,LeonardoDiCaprio,,,,,4,8.54721369999993,
MINA0205,_,posfs_BenAffleck_im8.bmp,BenAffleck,OrlandoBloom,OrlandoBloom,RobertPattinson,RyanReynolds,MattDamon,,,,,4,1.2029018999999153,
MINA0205,_,posfs_JustinTimberlake_im1.bmp,JustinTimberlake,BenAffleck,BenAffleck,ElijahWood,PatrickDempsey,HughJackman,,,,,4,3.2882296999998744,
MINA0205,_,posfs_DanielRadcliffe_im8.bmp,DanielRadcliffe,MattDamon,MattDamon,PatrickDempsey,RyanReynolds,RobertDowneyJr,,,,,posfs_DanielRadcliffe_im8.bmp,5.714823100000103,
MINA0205,_,posfs_BradPitt_im8.bmp,BradPitt,BenStiller,BenStiller,BenAffleck,OrlandoBloom,RobertPattinson,,,,,4,10.907581199999868,
MINA0205,_,posfs_RyanReynolds_im22.bmp,RyanReynolds,JustinTimberlake,JustinTimberlake,BradPitt,KeanuReeves,LeonardoDiCaprio,,,,,4,3.6430386000001818,
MINA0205,_,posfs_HughJackman_im18.bmp,HughJackman,LeonardoDiCaprio,LeonardoDiCaprio,BradPitt,RyanGosling,DanielRadcliffe,,,,,4,0.6465750999998363,
MINA0205,_,posfs_OrlandoBloom_im2.bmp,OrlandoBloom,BenAffleck,BenAffleck,RyanGosling,MattDamon,RobertDowneyJr,,,,,4,1.3646335000000818,
MINA0205,_,posfs_ElijahWood_im12.bmp,ElijahWood,DanielRadcliffe,DanielRadcliffe,RobertDowneyJr,GeorgeClooney,BenStiller,,,,,0,1.8112432000000354,
MINA0205,_,posfs_KeanuReeves_im8.bmp,KeanuReeves,BenAffleck,BenAffleck,LeonardoDiCaprio,RyanGosling,GeorgeClooney,,,,,4,1.415979600000128,
MINA0205,train,pos,fs,posfs_id5_im20.bmp_posfs_id5_im1.bmp,['Im_GeorgeClooney.png', 'Im_RobertPattinson.png', 'Im_BradPitt.png', 'Im_DanielRadcliffe.png', 'Im_MattDamon.png', 'Im_LeonardoDiCaprio.png', 'Im_DanielCraig.png', 'Im_PatrickDempsey.png', 'Im_BenStiller.png', 'Im_RyanGosling.png'],same,1,1.2667320000000473,1,0,
MINA0205,train,pos,fs,posfs_id13_im15.bmp_posfs_id13_im29.bmp,['Im_GeorgeClooney.png', 'Im_RobertPattinson.png', 'Im_BradPitt.png', 'Im_DanielRadcliffe.png', 'Im_MattDamon.png', 'Im_LeonardoDiCaprio.png', 'Im_DanielCraig.png', 'Im_PatrickDempsey.png', 'Im_BenStiller.png', 'Im_RyanGosling.png'],same,1,1.3333213999999316,2,0,
MINA0205,train,pos,fs,posfs_id14_im24.bmp_posfs_id14_im18.bmp,['Im_GeorgeClooney.png', 'Im_RobertPattinson.png', 'Im_BradPitt.png', 'Im_DanielRadcliffe.png', 'Im_MattDamon.png', 'Im_LeonardoDiCaprio.png', 'Im_DanielCraig.png', 'Im_PatrickDempsey.png', 'Im_BenStiller.png', 'Im_RyanGosling.png'],same,1,1.0916595999999572,3,0,
MINA0205,train,pos,fs,posfs_id2_im2.bmp_posfs_id2_im16.bmp,['Im_GeorgeClooney.png', 'Im_RobertPattinson.png', 'Im_BradPitt.png', 'Im_DanielRadcliffe.png', 'Im_MattDamon.png', 'Im_LeonardoDiCaprio.png', 'Im_DanielCraig.png', 'Im_PatrickDempsey.png', 'Im_BenStiller.png', 'Im_RyanGosling.png'],diff,0,3.0665444000001116,3,0,
MINA0205,train,pos,fs,posfs_id5_im10.bmp_posfs_id17_im8.bmp,['Im_GeorgeClooney.png', 'Im_RobertPattinson.png', 'Im_BradPitt.png', 'Im_DanielRadcliffe.png', 'Im_MattDamon.png', 'Im_LeonardoDiCaprio.png', 'Im_DanielCraig.png', 'Im_PatrickDempsey.png', 'Im_BenStiller.png', 'Im_RyanGosling.png'],diff,1,1.1165196999997988,4,0,
MINA0205,train,pos,fs,posfs_id13_im15.bmp_posfs_id19_im4.bmp,['Im_GeorgeClooney.png', 'Im_RobertPattinson.png', 'Im_BradPitt.png', 'Im_DanielRadcliffe.png', 'Im_MattDamon.png', 'Im_LeonardoDiCaprio.png', 'Im_DanielCraig.png', 'Im_PatrickDempsey.png', 'Im_BenStiller.png', 'Im_RyanGosling.png'],diff,1,1.0082768000002034,5,0,
MINA0205,train,pos,fs,posfs_id17_im9.bmp_posfs_id7_im14.bmp,['Im_GeorgeClooney.png', 'Im_RobertPattinson.png', 'Im_BradPitt.png', 'Im_DanielRadcliffe.png', 'Im_MattDamon.png', 'Im_LeonardoDiCaprio.png', 'Im_DanielCraig.png', 'Im_PatrickDempsey.png', 'Im_BenStiller.png', 'Im_RyanGosling.png'],diff,1,0.833640800000012,6,0,
MINA0205,train,pos,fs,posfs_id20_im30.bmp_posfs_id20_im3.bmp,['Im_GeorgeClooney.png', 'Im_RobertPattinson.png', 'Im_BradPitt.png', 'Im_DanielRadcliffe.png', 'Im_MattDamon.png', 'Im_LeonardoDiCaprio.png', 'Im_DanielCraig.png', 'Im_PatrickDempsey.png', 'Im_BenStiller.png', 'Im_RyanGosling.png'],same,1,1.066625699999804,7,0,
MINA0205,train,pos,fs,posfs_id2_im16.bmp_posfs_id17_im14.bmp,['Im_GeorgeClooney.png', 'Im_RobertPattinson.png', 'Im_BradPitt.png', 'Im_DanielRadcliffe.png', 'Im_MattDamon.png', 'Im_LeonardoDiCaprio.png', 'Im_DanielCraig.png', 'Im_PatrickDempsey.png', 'Im_BenStiller.png', 'Im_RyanGosling.png'],diff,1,0.8420496000001094,8,0,
MINA0205,train,pos,fs,posfs_id5_im10.bmp_posfs_id2_im2.bmp,['Im_GeorgeClooney.png', 'Im_RobertPattinson.png', 'Im_BradPitt.png', 'Im_DanielRadcliffe.png', 'Im_MattDamon.png', 'Im_LeonardoDiCaprio.png', 'Im_DanielCraig.png', 'Im_PatrickDempsey.png', 'Im_BenStiller.png', 'Im_RyanGosling.png'],diff,1,0.9748990999999023,9,0,
MINA0205,train,pos,fs,posfs_id7_im14.bmp_posfs_id7_im26.bmp,['Im_GeorgeClooney.png', 'Im_RobertPattinson.png', 'Im_BradPitt.png', 'Im_DanielRadcliffe.png', 'Im_MattDamon.png', 'Im_LeonardoDiCaprio.png', 'Im_DanielCraig.png', 'Im_PatrickDempsey.png', 'Im_BenStiller.png', 'Im_RyanGosling.png'],same,1,1.158531900000071,10,0,
MINA0205,train,pos,fs,posfs_id3_im8.bmp_posfs_id19_im27.bmp,['Im_GeorgeClooney.png', 'Im_RobertPattinson.png', 'Im_BradPitt.png', 'Im_DanielRadcliffe.png', 'Im_MattDamon.png', 'Im_LeonardoDiCaprio.png', 'Im_DanielCraig.png', 'Im_PatrickDempsey.png', 'Im_BenStiller.png', 'Im_RyanGosling.png'],diff,1,1.4420957999998336,11,0,
MINA0205,train,pos,fs,posfs_id4_im20.bmp_posfs_id2_im3.bmp,['Im_GeorgeClooney.png', 'Im_RobertPattinson.png', 'Im_BradPitt.png', 'Im_DanielRadcliffe.png', 'Im_MattDamon.png', 'Im_LeonardoDiCaprio.png', 'Im_DanielCraig.png', 'Im_PatrickDempsey.png', 'Im_BenStiller.png', 'Im_RyanGosling.png'],diff,1,0.9584345000000667,12,0,
MINA0205,train,pos,fs,posfs_id17_im8.bmp_posfs_id14_im16.bmp,['Im_GeorgeClooney.png', 'Im_RobertPattinson.png', 'Im_BradPitt.png', 'Im_DanielRadcliffe.png', 'Im_MattDamon.png', 'Im_LeonardoDiCaprio.png', 'Im_DanielCraig.png', 'Im_PatrickDempsey.png', 'Im_BenStiller.png', 'Im_RyanGosling.png'],diff,1,1.4419050000001334,13,0,
MINA0205,train,pos,fs,posfs_id19_im8.bmp_posfs_id3_im6.bmp,['Im_GeorgeClooney.png', 'Im_RobertPattinson.png', 'Im_BradPitt.png', 'Im_DanielRadcliffe.png', 'Im_MattDamon.png', 'Im_LeonardoDiCaprio.png', 'Im_DanielCraig.png', 'Im_PatrickDempsey.png', 'Im_BenStiller.png', 'Im_RyanGosling.png'],diff,1,0.9417349000000286,14,0,
MINA0205,train,pos,fs,posfs_id2_im16.bmp_posfs_id7_im15.bmp,['Im_GeorgeClooney.png', 'Im_RobertPattinson.png', 'Im_BradPitt.png', 'Im_DanielRadcliffe.png', 'Im_MattDamon.png', 'Im_LeonardoDiCaprio.png', 'Im_DanielCraig.png', 'Im_PatrickDempsey.png', 'Im_BenStiller.png', 'Im_RyanGosling.png'],diff,1,1.191885799999909,15,0,
MINA0205,train,pos,fs,posfs_id4_im20.bmp_posfs_id4_im7.bmp,['Im_GeorgeClooney.png', 'Im_RobertPattinson.png', 'Im_BradPitt.png', 'Im_DanielRadcliffe.png', 'Im_MattDamon.png', 'Im_LeonardoDiCaprio.png', 'Im_DanielCraig.png', 'Im_PatrickDempsey.png', 'Im_BenStiller.png', 'Im_RyanGosling.png'],same,1,0.9498614999999972,16,0,
MINA0205,train,pos,fs,posfs_id14_im24.bmp_posfs_id14_im16.bmp,['Im_GeorgeClooney.png', 'Im_RobertPattinson.png', 'Im_BradPitt.png', 'Im_DanielRadcliffe.png', 'Im_MattDamon.png', 'Im_LeonardoDiCaprio.png', 'Im_DanielCraig.png', 'Im_PatrickDempsey.png', 'Im_BenStiller.png', 'Im_RyanGosling.png'],same,1,1.3169920000000275,17,0,
MINA0205,train,pos,fs,posfs_id5_im1.bmp_posfs_id13_im10.bmp,['Im_GeorgeClooney.png', 'Im_RobertPattinson.png', 'Im_BradPitt.png', 'Im_DanielRadcliffe.png', 'Im_MattDamon.png', 'Im_LeonardoDiCaprio.png', 'Im_DanielCraig.png', 'Im_PatrickDempsey.png', 'Im_BenStiller.png', 'Im_RyanGosling.png'],diff,1,0.9251702999999907,18,0,
MINA0205,train,pos,fs,posfs_id20_im12.bmp_posfs_id4_im15.bmp,['Im_GeorgeClooney.png', 'Im_RobertPattinson.png', 'Im_BradPitt.png', 'Im_DanielRadcliffe.png', 'Im_MattDamon.png', 'Im_LeonardoDiCaprio.png', 'Im_DanielCraig.png', 'Im_PatrickDempsey.png', 'Im_BenStiller.png', 'Im_RyanGosling.png'],diff,1,0.8416933999997127,19,0,
MINA0205,train,neg,fs,negfs_id7_im14.bmp_negfs_id7_im15.bmp,['Im_GeorgeClooney.png', 'Im_RobertPattinson.png', 'Im_BradPitt.png', 'Im_DanielRadcliffe.png', 'Im_MattDamon.png', 'Im_LeonardoDiCaprio.png', 'Im_DanielCraig.png', 'Im_PatrickDempsey.png', 'Im_BenStiller.png', 'Im_RyanGosling.png'],diff,0,1.5586471999999958,0,0,
MINA0205,train,inv,fs,posfs_id2_im2.bmp_posfs_id5_im20.bmp,['Im_GeorgeClooney.png', 'Im_RobertPattinson.png', 'Im_BradPitt.png', 'Im_DanielRadcliffe.png', 'Im_MattDamon.png', 'Im_LeonardoDiCaprio.png', 'Im_DanielCraig.png', 'Im_PatrickDempsey.png', 'Im_BenStiller.png', 'Im_RyanGosling.png'],diff,1,0.5838143999999375,1,0,
MINA0205,train,neg,fs,negfs_id13_im10.bmp_negfs_id13_im15.bmp,['Im_GeorgeClooney.png', 'Im_RobertPattinson.png', 'Im_BradPitt.png', 'Im_DanielRadcliffe.png', 'Im_MattDamon.png', 'Im_LeonardoDiCaprio.png', 'Im_DanielCraig.png', 'Im_PatrickDempsey.png', 'Im_BenStiller.png', 'Im_RyanGosling.png'],same,1,0.7915978000000905,2,0,
MINA0205,train,inv,fs,posfs_id19_im8.bmp_posfs_id3_im6.bmp,['Im_GeorgeClooney.png', 'Im_RobertPattinson.png', 'Im_BradPitt.png', 'Im_DanielRadcliffe.png', 'Im_MattDamon.png', 'Im_LeonardoDiCaprio.png', 'Im_DanielCraig.png', 'Im_PatrickDempsey.png', 'Im_BenStiller.png', 'Im_RyanGosling.png'],diff,1,0.5420983000003616,3,0,
MINA0205,train,pos,fs,posfs_id5_im1.bmp_posfs_id5_im20.bmp,['Im_GeorgeClooney.png', 'Im_RobertPattinson.png', 'Im_BradPitt.png', 'Im_DanielRadcliffe.png', 'Im_MattDamon.png', 'Im_LeonardoDiCaprio.png', 'Im_DanielCraig.png', 'Im_PatrickDempsey.png', 'Im_BenStiller.png', 'Im_RyanGosling.png'],same,1,0.7004523000000518,4,0,
MINA0205,train,pos,fs,posfs_id5_im1.bmp_posfs_id4_im15.bmp,['Im_GeorgeClooney.png', 'Im_RobertPattinson.png', 'Im_BradPitt.png', 'Im_DanielRadcliffe.png', 'Im_MattDamon.png', 'Im_LeonardoDiCaprio.png', 'Im_DanielCraig.png', 'Im_PatrickDempsey.png', 'Im_BenStiller.png', 'Im_RyanGosling.png'],diff,1,0.5582752999998775,5,0,
MINA0205,train,neg,fs,negfs_id3_im8.bmp_negfs_id3_im17.bmp,['Im_GeorgeClooney.png', 'Im_RobertPattinson.png', 'Im_BradPitt.png', 'Im_DanielRadcliffe.png', 'Im_MattDamon.png', 'Im_LeonardoDiCaprio.png', 'Im_DanielCraig.png', 'Im_PatrickDempsey.png', 'Im_BenStiller.png', 'Im_RyanGosling.png'],same,1,0.8084599999997408,6,0,
MINA0205,train,neg,fs,negfs_id5_im10.bmp_negfs_id2_im2.bmp,['Im_GeorgeClooney.png', 'Im_RobertPattinson.png', 'Im_BradPitt.png', 'Im_DanielRadcliffe.png', 'Im_MattDamon.png', 'Im_LeonardoDiCaprio.png', 'Im_DanielCraig.png', 'Im_PatrickDempsey.png', 'Im_BenStiller.png', 'Im_RyanGosling.png'],diff,1,0.4419230999997126,7,0,
MINA0205,train,pos,fs,posfs_id2_im16.bmp_posfs_id2_im2.bmp,['Im_GeorgeClooney.png', 'Im_RobertPattinson.png', 'Im_BradPitt.png', 'Im_DanielRadcliffe.png', 'Im_MattDamon.png', 'Im_LeonardoDiCaprio.png', 'Im_DanielCraig.png', 'Im_PatrickDempsey.png', 'Im_BenStiller.png', 'Im_RyanGosling.png'],same,1,0.8583244000001287,8,0,
MINA0205,train,neg,fs,negfs_id17_im14.bmp_negfs_id17_im8.bmp,['Im_GeorgeClooney.png', 'Im_RobertPattinson.png', 'Im_BradPitt.png', 'Im_DanielRadcliffe.png', 'Im_MattDamon.png', 'Im_LeonardoDiCaprio.png', 'Im_DanielCraig.png', 'Im_PatrickDempsey.png', 'Im_BenStiller.png', 'Im_RyanGosling.png'],same,1,1.4002157999998417,9,0,
MINA0205,train,inv,fs,posfs_id14_im16.bmp_posfs_id14_im24.bmp,['Im_GeorgeClooney.png', 'Im_RobertPattinson.png', 'Im_BradPitt.png', 'Im_DanielRadcliffe.png', 'Im_MattDamon.png', 'Im_LeonardoDiCaprio.png', 'Im_DanielCraig.png', 'Im_PatrickDempsey.png', 'Im_BenStiller.png', 'Im_RyanGosling.png'],diff,0,0.49988699999994424,9,0,
MINA0205,train,neg,fs,negfs_id7_im26.bmp_negfs_id20_im3.bmp,['Im_GeorgeClooney.png', 'Im_RobertPattinson.png', 'Im_BradPitt.png', 'Im_DanielRadcliffe.png', 'Im_MattDamon.png', 'Im_LeonardoDiCaprio.png', 'Im_DanielCraig.png', 'Im_PatrickDempsey.png', 'Im_BenStiller.png', 'Im_RyanGosling.png'],diff,1,0.9415469000000485,10,0,
MINA0205,train,neg,fs,negfs_id13_im10.bmp_negfs_id3_im17.bmp,['Im_GeorgeClooney.png', 'Im_RobertPattinson.png', 'Im_BradPitt.png', 'Im_DanielRadcliffe.png', 'Im_MattDamon.png', 'Im_LeonardoDiCaprio.png', 'Im_DanielCraig.png', 'Im_PatrickDempsey.png', 'Im_BenStiller.png', 'Im_RyanGosling.png'],same,0,0.7250362000004316,10,0,
MINA0205,train,pos,fs,posfs_id13_im10.bmp_posfs_id5_im1.bmp,['Im_GeorgeClooney.png', 'Im_RobertPattinson.png', 'Im_BradPitt.png', 'Im_DanielRadcliffe.png', 'Im_MattDamon.png', 'Im_LeonardoDiCaprio.png', 'Im_DanielCraig.png', 'Im_PatrickDempsey.png', 'Im_BenStiller.png', 'Im_RyanGosling.png'],diff,1,3.866714000000229,11,0,
MINA0205,train,neg,fs,negfs_id14_im18.bmp_negfs_id14_im24.bmp,['Im_GeorgeClooney.png', 'Im_RobertPattinson.png', 'Im_BradPitt.png', 'Im_DanielRadcliffe.png', 'Im_MattDamon.png', 'Im_LeonardoDiCaprio.png', 'Im_DanielCraig.png', 'Im_PatrickDempsey.png', 'Im_BenStiller.png', 'Im_RyanGosling.png'],diff,0,1.2168606000000182,11,0,
MINA0205,train,pos,fs,posfs_id19_im27.bmp_posfs_id14_im18.bmp,['Im_GeorgeClooney.png', 'Im_RobertPattinson.png', 'Im_BradPitt.png', 'Im_DanielRadcliffe.png', 'Im_MattDamon.png', 'Im_LeonardoDiCaprio.png', 'Im_DanielCraig.png', 'Im_PatrickDempsey.png', 'Im_BenStiller.png', 'Im_RyanGosling.png'],diff,1,0.7500882999997884,12,0,
MINA0205,train,inv,fs,posfs_id19_im4.bmp_posfs_id19_im8.bmp,['Im_GeorgeClooney.png', 'Im_RobertPattinson.png', 'Im_BradPitt.png', 'Im_DanielRadcliffe.png', 'Im_MattDamon.png', 'Im_LeonardoDiCaprio.png', 'Im_DanielCraig.png', 'Im_PatrickDempsey.png', 'Im_BenStiller.png', 'Im_RyanGosling.png'],same,1,0.9083285000001524,13,0,
MINA0205,train,neg,fs,negfs_id2_im16.bmp_negfs_id17_im14.bmp,['Im_GeorgeClooney.png', 'Im_RobertPattinson.png', 'Im_BradPitt.png', 'Im_DanielRadcliffe.png', 'Im_MattDamon.png', 'Im_LeonardoDiCaprio.png', 'Im_DanielCraig.png', 'Im_PatrickDempsey.png', 'Im_BenStiller.png', 'Im_RyanGosling.png'],diff,1,1.1753109999999651,14,0,
MINA0205,train,pos,fs,posfs_id13_im29.bmp_posfs_id13_im10.bmp,['Im_GeorgeClooney.png', 'Im_RobertPattinson.png', 'Im_BradPitt.png', 'Im_DanielRadcliffe.png', 'Im_MattDamon.png', 'Im_LeonardoDiCaprio.png', 'Im_DanielCraig.png', 'Im_PatrickDempsey.png', 'Im_BenStiller.png', 'Im_RyanGosling.png'],same,1,0.6415633999999955,15,0,
MINA0205,train,inv,fs,posfs_id20_im30.bmp_posfs_id20_im12.bmp,['Im_GeorgeClooney.png', 'Im_RobertPattinson.png', 'Im_BradPitt.png', 'Im_DanielRadcliffe.png', 'Im_MattDamon.png', 'Im_LeonardoDiCaprio.png', 'Im_DanielCraig.png', 'Im_PatrickDempsey.png', 'Im_BenStiller.png', 'Im_RyanGosling.png'],same,1,0.6583952000000863,16,0,
MINA0205,train,pos,150,pos150_id5_im20.bmp_pos150_id5_im1.bmp,['Im_GeorgeClooney.png', 'Im_RobertPattinson.png', 'Im_BradPitt.png', 'Im_DanielRadcliffe.png', 'Im_MattDamon.png', 'Im_LeonardoDiCaprio.png', 'Im_DanielCraig.png', 'Im_PatrickDempsey.png', 'Im_BenStiller.png', 'Im_RyanGosling.png'],same,1,0.46647100000018327,1,0,
MINA0205,train,pos,0,pos0_id13_im10.bmp_pos0_id3_im17.bmp,['Im_GeorgeClooney.png', 'Im_RobertPattinson.png', 'Im_BradPitt.png', 'Im_DanielRadcliffe.png', 'Im_MattDamon.png', 'Im_LeonardoDiCaprio.png', 'Im_DanielCraig.png', 'Im_PatrickDempsey.png', 'Im_BenStiller.png', 'Im_RyanGosling.png'],same,0,0.7998589999997421,1,0,
MINA0205,train,pos,30,pos30_id19_im27.bmp_pos30_id19_im4.bmp,['Im_GeorgeClooney.png', 'Im_RobertPattinson.png', 'Im_BradPitt.png', 'Im_DanielRadcliffe.png', 'Im_MattDamon.png', 'Im_LeonardoDiCaprio.png', 'Im_DanielCraig.png', 'Im_PatrickDempsey.png', 'Im_BenStiller.png', 'Im_RyanGosling.png'],same,1,0.4002069000002848,2,0,
MINA0205,train,pos,fs,posfs_id4_im20.bmp_posfs_id4_im7.bmp,['Im_GeorgeClooney.png', 'Im_RobertPattinson.png', 'Im_BradPitt.png', 'Im_DanielRadcliffe.png', 'Im_MattDamon.png', 'Im_LeonardoDiCaprio.png', 'Im_DanielCraig.png', 'Im_PatrickDempsey.png', 'Im_BenStiller.png', 'Im_RyanGosling.png'],same,1,0.6916289000000688,3,0,
MINA0205,train,pos,120,pos120_id5_im20.bmp_pos120_id2_im2.bmp,['Im_GeorgeClooney.png', 'Im_RobertPattinson.png', 'Im_BradPitt.png', 'Im_DanielRadcliffe.png', 'Im_MattDamon.png', 'Im_LeonardoDiCaprio.png', 'Im_DanielCraig.png', 'Im_PatrickDempsey.png', 'Im_BenStiller.png', 'Im_RyanGosling.png'],diff,1,0.6167323999998189,4,0,
MINA0205,train,pos,fs,posfs_id14_im16.bmp_posfs_id14_im24.bmp,['Im_GeorgeClooney.png', 'Im_RobertPattinson.png', 'Im_BradPitt.png', 'Im_DanielRadcliffe.png', 'Im_MattDamon.png', 'Im_LeonardoDiCaprio.png', 'Im_DanielCraig.png', 'Im_PatrickDempsey.png', 'Im_BenStiller.png', 'Im_RyanGosling.png'],same,1,0.5002779000001283,5,0,
MINA0205,train,pos,60,pos60_id19_im27.bmp_pos60_id14_im18.bmp,['Im_GeorgeClooney.png', 'Im_RobertPattinson.png', 'Im_BradPitt.png', 'Im_DanielRadcliffe.png', 'Im_MattDamon.png', 'Im_LeonardoDiCaprio.png', 'Im_DanielCraig.png', 'Im_PatrickDempsey.png', 'Im_BenStiller.png', 'Im_RyanGosling.png'],diff,1,0.5919727000000421,6,0,
MINA0205,train,pos,90,pos90_id20_im12.bmp_pos90_id20_im3.bmp,['Im_GeorgeClooney.png', 'Im_RobertPattinson.png', 'Im_BradPitt.png', 'Im_DanielRadcliffe.png', 'Im_MattDamon.png', 'Im_LeonardoDiCaprio.png', 'Im_DanielCraig.png', 'Im_PatrickDempsey.png', 'Im_BenStiller.png', 'Im_RyanGosling.png'],same,1,0.4169772999998713,7,0,
MINA0205,train,pos,30,pos30_id7_im15.bmp_pos30_id7_im14.bmp,['Im_GeorgeClooney.png', 'Im_RobertPattinson.png', 'Im_BradPitt.png', 'Im_DanielRadcliffe.png', 'Im_MattDamon.png', 'Im_LeonardoDiCaprio.png', 'Im_DanielCraig.png', 'Im_PatrickDempsey.png', 'Im_BenStiller.png', 'Im_RyanGosling.png'],diff,0,0.7829567000003408,7,0,
MINA0205,train,pos,150,pos150_id3_im8.bmp_pos150_id7_im26.bmp,['Im_GeorgeClooney.png', 'Im_RobertPattinson.png', 'Im_BradPitt.png', 'Im_DanielRadcliffe.png', 'Im_MattDamon.png', 'Im_LeonardoDiCaprio.png', 'Im_DanielCraig.png', 'Im_PatrickDempsey.png', 'Im_BenStiller.png', 'Im_RyanGosling.png'],diff,1,1.7416120000002593,8,0,
MINA0205,train,pos,120,pos120_id13_im15.bmp_pos120_id13_im29.bmp,['Im_GeorgeClooney.png', 'Im_RobertPattinson.png', 'Im_BradPitt.png', 'Im_DanielRadcliffe.png', 'Im_MattDamon.png', 'Im_LeonardoDiCaprio.png', 'Im_DanielCraig.png', 'Im_PatrickDempsey.png', 'Im_BenStiller.png', 'Im_RyanGosling.png'],same,1,1.1503067999997256,9,0,
MINA0205,train,pos,0,pos0_id19_im4.bmp_pos0_id4_im7.bmp,['Im_GeorgeClooney.png', 'Im_RobertPattinson.png', 'Im_BradPitt.png', 'Im_DanielRadcliffe.png', 'Im_MattDamon.png', 'Im_LeonardoDiCaprio.png', 'Im_DanielCraig.png', 'Im_PatrickDempsey.png', 'Im_BenStiller.png', 'Im_RyanGosling.png'],diff,1,0.40837229999988267,10,0,
MINA0205,train,pos,60,pos60_id7_im26.bmp_pos60_id20_im3.bmp,['Im_GeorgeClooney.png', 'Im_RobertPattinson.png', 'Im_BradPitt.png', 'Im_DanielRadcliffe.png', 'Im_MattDamon.png', 'Im_LeonardoDiCaprio.png', 'Im_DanielCraig.png', 'Im_PatrickDempsey.png', 'Im_BenStiller.png', 'Im_RyanGosling.png'],diff,1,1.2085684000003312,11,0,
MINA0205,train,pos,90,pos90_id5_im10.bmp_pos90_id5_im20.bmp,['Im_GeorgeClooney.png', 'Im_RobertPattinson.png', 'Im_BradPitt.png', 'Im_DanielRadcliffe.png', 'Im_MattDamon.png', 'Im_LeonardoDiCaprio.png', 'Im_DanielCraig.png', 'Im_PatrickDempsey.png', 'Im_BenStiller.png', 'Im_RyanGosling.png'],same,1,0.5585707000000184,12,0,
MINA0205,train,inv,60,pos60_id4_im7.bmp_pos60_id19_im8.bmp,['Im_GeorgeClooney.png', 'Im_RobertPattinson.png', 'Im_BradPitt.png', 'Im_DanielRadcliffe.png', 'Im_MattDamon.png', 'Im_LeonardoDiCaprio.png', 'Im_DanielCraig.png', 'Im_PatrickDempsey.png', 'Im_BenStiller.png', 'Im_RyanGosling.png'],diff,1,1.0667183000000477,13,0,
MINA0205,train,inv,fs,posfs_id3_im17.bmp_posfs_id3_im8.bmp,['Im_GeorgeClooney.png', 'Im_RobertPattinson.png', 'Im_BradPitt.png', 'Im_DanielRadcliffe.png', 'Im_MattDamon.png', 'Im_LeonardoDiCaprio.png', 'Im_DanielCraig.png', 'Im_PatrickDempsey.png', 'Im_BenStiller.png', 'Im_RyanGosling.png'],diff,0,0.9251088999999411,13,0,
MINA0205,train,inv,120,pos120_id7_im26.bmp_pos120_id3_im8.bmp,['Im_GeorgeClooney.png', 'Im_RobertPattinson.png', 'Im_BradPitt.png', 'Im_DanielRadcliffe.png', 'Im_MattDamon.png', 'Im_LeonardoDiCaprio.png', 'Im_DanielCraig.png', 'Im_PatrickDempsey.png', 'Im_BenStiller.png', 'Im_RyanGosling.png'],same,0,0.6503901000000951,13,0,
MINA0205,train,inv,90,pos90_id5_im1.bmp_pos90_id13_im10.bmp,['Im_GeorgeClooney.png', 'Im_RobertPattinson.png', 'Im_BradPitt.png', 'Im_DanielRadcliffe.png', 'Im_MattDamon.png', 'Im_LeonardoDiCaprio.png', 'Im_DanielCraig.png', 'Im_PatrickDempsey.png', 'Im_BenStiller.png', 'Im_RyanGosling.png'],diff,1,0.5750183999998626,14,0,
MINA0205,train,inv,150,pos150_id14_im24.bmp_pos150_id3_im17.bmp,['Im_GeorgeClooney.png', 'Im_RobertPattinson.png', 'Im_BradPitt.png', 'Im_DanielRadcliffe.png', 'Im_MattDamon.png', 'Im_LeonardoDiCaprio.png', 'Im_DanielCraig.png', 'Im_PatrickDempsey.png', 'Im_BenStiller.png', 'Im_RyanGosling.png'],diff,1,0.8585711999999148,15,0,
MINA0205,train,inv,60,pos60_id2_im2.bmp_pos60_id2_im16.bmp,['Im_GeorgeClooney.png', 'Im_RobertPattinson.png', 'Im_BradPitt.png', 'Im_DanielRadcliffe.png', 'Im_MattDamon.png', 'Im_LeonardoDiCaprio.png', 'Im_DanielCraig.png', 'Im_PatrickDempsey.png', 'Im_BenStiller.png', 'Im_RyanGosling.png'],same,1,0.9165680999999495,16,0,
MINA0205,train,inv,30,pos30_id5_im10.bmp_pos30_id5_im20.bmp,['Im_GeorgeClooney.png', 'Im_RobertPattinson.png', 'Im_BradPitt.png', 'Im_DanielRadcliffe.png', 'Im_MattDamon.png', 'Im_LeonardoDiCaprio.png', 'Im_DanielCraig.png', 'Im_PatrickDempsey.png', 'Im_BenStiller.png', 'Im_RyanGosling.png'],diff,0,0.40849549999984447,16,0,
MINA0205,train,inv,30,pos30_id2_im2.bmp_pos30_id2_im16.bmp,['Im_GeorgeClooney.png', 'Im_RobertPattinson.png', 'Im_BradPitt.png', 'Im_DanielRadcliffe.png', 'Im_MattDamon.png', 'Im_LeonardoDiCaprio.png', 'Im_DanielCraig.png', 'Im_PatrickDempsey.png', 'Im_BenStiller.png', 'Im_RyanGosling.png'],same,1,0.9333264000001691,17,0,
MINA0205,train,inv,0,pos0_id4_im20.bmp_pos0_id7_im14.bmp,['Im_GeorgeClooney.png', 'Im_RobertPattinson.png', 'Im_BradPitt.png', 'Im_DanielRadcliffe.png', 'Im_MattDamon.png', 'Im_LeonardoDiCaprio.png', 'Im_DanielCraig.png', 'Im_PatrickDempsey.png', 'Im_BenStiller.png', 'Im_RyanGosling.png'],same,0,0.4165848999996342,17,0,
MINA0205,train,inv,90,pos90_id17_im9.bmp_pos90_id17_im14.bmp,['Im_GeorgeClooney.png', 'Im_RobertPattinson.png', 'Im_BradPitt.png', 'Im_DanielRadcliffe.png', 'Im_MattDamon.png', 'Im_LeonardoDiCaprio.png', 'Im_DanielCraig.png', 'Im_PatrickDempsey.png', 'Im_BenStiller.png', 'Im_RyanGosling.png'],same,1,1.1250592000001234,18,0,
MINA0205,train,inv,fs,posfs_id14_im16.bmp_posfs_id20_im30.bmp,['Im_GeorgeClooney.png', 'Im_RobertPattinson.png', 'Im_BradPitt.png', 'Im_DanielRadcliffe.png', 'Im_MattDamon.png', 'Im_LeonardoDiCaprio.png', 'Im_DanielCraig.png', 'Im_PatrickDempsey.png', 'Im_BenStiller.png', 'Im_RyanGosling.png'],same,0,1.0835017999997945,18,0,
MINA0205,train,inv,120,pos120_id5_im1.bmp_pos120_id5_im20.bmp,['Im_GeorgeClooney.png', 'Im_RobertPattinson.png', 'Im_BradPitt.png', 'Im_DanielRadcliffe.png', 'Im_MattDamon.png', 'Im_LeonardoDiCaprio.png', 'Im_DanielCraig.png', 'Im_PatrickDempsey.png', 'Im_BenStiller.png', 'Im_RyanGosling.png'],same,1,0.5333209000000352,19,0,
MINA0205,train,inv,150,pos150_id4_im20.bmp_pos150_id4_im7.bmp,['Im_GeorgeClooney.png', 'Im_RobertPattinson.png', 'Im_BradPitt.png', 'Im_DanielRadcliffe.png', 'Im_MattDamon.png', 'Im_LeonardoDiCaprio.png', 'Im_DanielCraig.png', 'Im_PatrickDempsey.png', 'Im_BenStiller.png', 'Im_RyanGosling.png'],same,1,0.6495397999997294,20,0,
MINA0205,train,inv,0,pos0_id14_im18.bmp_pos0_id19_im27.bmp,['Im_GeorgeClooney.png', 'Im_RobertPattinson.png', 'Im_BradPitt.png', 'Im_DanielRadcliffe.png', 'Im_MattDamon.png', 'Im_LeonardoDiCaprio.png', 'Im_DanielCraig.png', 'Im_PatrickDempsey.png', 'Im_BenStiller.png', 'Im_RyanGosling.png'],diff,1,0.7501729000000523,21,0,
MINA0205,train,neg,30,neg30_id19_im8.bmp_neg30_id3_im6.bmp,['Im_GeorgeClooney.png', 'Im_RobertPattinson.png', 'Im_BradPitt.png', 'Im_DanielRadcliffe.png', 'Im_MattDamon.png', 'Im_LeonardoDiCaprio.png', 'Im_DanielCraig.png', 'Im_PatrickDempsey.png', 'Im_BenStiller.png', 'Im_RyanGosling.png'],diff,1,1.0998723000002428,22,0,
MINA0205,train,neg,fs,negfs_id3_im8.bmp_negfs_id3_im17.bmp,['Im_GeorgeClooney.png', 'Im_RobertPattinson.png', 'Im_BradPitt.png', 'Im_DanielRadcliffe.png', 'Im_MattDamon.png', 'Im_LeonardoDiCaprio.png', 'Im_DanielCraig.png', 'Im_PatrickDempsey.png', 'Im_BenStiller.png', 'Im_RyanGosling.png'],same,1,1.1754448000001503,23,0,
MINA0205,train,neg,120,neg120_id2_im2.bmp_neg120_id5_im20.bmp,['Im_GeorgeClooney.png', 'Im_RobertPattinson.png', 'Im_BradPitt.png', 'Im_DanielRadcliffe.png', 'Im_MattDamon.png', 'Im_LeonardoDiCaprio.png', 'Im_DanielCraig.png', 'Im_PatrickDempsey.png', 'Im_BenStiller.png', 'Im_RyanGosling.png'],diff,1,0.7915818000001309,24,0,
MINA0205,train,neg,90,neg90_id5_im10.bmp_neg90_id5_im1.bmp,['Im_GeorgeClooney.png', 'Im_RobertPattinson.png', 'Im_BradPitt.png', 'Im_DanielRadcliffe.png', 'Im_MattDamon.png', 'Im_LeonardoDiCaprio.png', 'Im_DanielCraig.png', 'Im_PatrickDempsey.png', 'Im_BenStiller.png', 'Im_RyanGosling.png'],same,1,0.458781799999997,25,0,
MINA0205,train,neg,60,neg60_id7_im15.bmp_neg60_id7_im26.bmp,['Im_GeorgeClooney.png', 'Im_RobertPattinson.png', 'Im_BradPitt.png', 'Im_DanielRadcliffe.png', 'Im_MattDamon.png', 'Im_LeonardoDiCaprio.png', 'Im_DanielCraig.png', 'Im_PatrickDempsey.png', 'Im_BenStiller.png', 'Im_RyanGosling.png'],same,1,0.8836738999998488,26,0,
MINA0205,train,neg,30,neg30_id20_im12.bmp_neg30_id14_im18.bmp,['Im_GeorgeClooney.png', 'Im_RobertPattinson.png', 'Im_BradPitt.png', 'Im_DanielRadcliffe.png', 'Im_MattDamon.png', 'Im_LeonardoDiCaprio.png', 'Im_DanielCraig.png', 'Im_PatrickDempsey.png', 'Im_BenStiller.png', 'Im_RyanGosling.png'],diff,1,1.1002042000000074,27,0,
MINA0205,train,neg,90,neg90_id5_im10.bmp_neg90_id5_im20.bmp,['Im_GeorgeClooney.png', 'Im_RobertPattinson.png', 'Im_BradPitt.png', 'Im_DanielRadcliffe.png', 'Im_MattDamon.png', 'Im_LeonardoDiCaprio.png', 'Im_DanielCraig.png', 'Im_PatrickDempsey.png', 'Im_BenStiller.png', 'Im_RyanGosling.png'],same,1,0.9667725999997856,28,0,
MINA0205,train,neg,150,neg150_id14_im16.bmp_neg150_id20_im30.bmp,['Im_GeorgeClooney.png', 'Im_RobertPattinson.png', 'Im_BradPitt.png', 'Im_DanielRadcliffe.png', 'Im_MattDamon.png', 'Im_LeonardoDiCaprio.png', 'Im_DanielCraig.png', 'Im_PatrickDempsey.png', 'Im_BenStiller.png', 'Im_RyanGosling.png'],diff,1,1.0583003000001554,29,0,
MINA0205,train,neg,0,neg0_id7_im26.bmp_neg0_id20_im3.bmp,['Im_GeorgeClooney.png', 'Im_RobertPattinson.png', 'Im_BradPitt.png', 'Im_DanielRadcliffe.png', 'Im_MattDamon.png', 'Im_LeonardoDiCaprio.png', 'Im_DanielCraig.png', 'Im_PatrickDempsey.png', 'Im_BenStiller.png', 'Im_RyanGosling.png'],diff,1,1.0254094000001714,30,0,
MINA0205,train,neg,fs,negfs_id13_im29.bmp_negfs_id13_im10.bmp,['Im_GeorgeClooney.png', 'Im_RobertPattinson.png', 'Im_BradPitt.png', 'Im_DanielRadcliffe.png', 'Im_MattDamon.png', 'Im_LeonardoDiCaprio.png', 'Im_DanielCraig.png', 'Im_PatrickDempsey.png', 'Im_BenStiller.png', 'Im_RyanGosling.png'],same,1,0.7586272999997163,31,0,
MINA0205,train,neg,150,neg150_id3_im6.bmp_neg150_id3_im17.bmp,['Im_GeorgeClooney.png', 'Im_RobertPattinson.png', 'Im_BradPitt.png', 'Im_DanielRadcliffe.png', 'Im_MattDamon.png', 'Im_LeonardoDiCaprio.png', 'Im_DanielCraig.png', 'Im_PatrickDempsey.png', 'Im_BenStiller.png', 'Im_RyanGosling.png'],same,1,0.9252985999996781,32,0,
MINA0205,train,neg,60,neg60_id14_im16.bmp_neg60_id20_im30.bmp,['Im_GeorgeClooney.png', 'Im_RobertPattinson.png', 'Im_BradPitt.png', 'Im_DanielRadcliffe.png', 'Im_MattDamon.png', 'Im_LeonardoDiCaprio.png', 'Im_DanielCraig.png', 'Im_PatrickDempsey.png', 'Im_BenStiller.png', 'Im_RyanGosling.png'],diff,1,0.6998555000000124,33,0,
MINA0205,train,neg,120,neg120_id7_im14.bmp_neg120_id7_im15.bmp,['Im_GeorgeClooney.png', 'Im_RobertPattinson.png', 'Im_BradPitt.png', 'Im_DanielRadcliffe.png', 'Im_MattDamon.png', 'Im_LeonardoDiCaprio.png', 'Im_DanielCraig.png', 'Im_PatrickDempsey.png', 'Im_BenStiller.png', 'Im_RyanGosling.png'],same,1,0.7834449000001769,34,0,
MINA0205,train,neg,0,neg0_id20_im30.bmp_neg0_id14_im16.bmp,['Im_GeorgeClooney.png', 'Im_RobertPattinson.png', 'Im_BradPitt.png', 'Im_DanielRadcliffe.png', 'Im_MattDamon.png', 'Im_LeonardoDiCaprio.png', 'Im_DanielCraig.png', 'Im_PatrickDempsey.png', 'Im_BenStiller.png', 'Im_RyanGosling.png'],same,0,0.7329765000004045,34,0,
MINA0205,train,inv,fs,posfs_id5_im1.bmp_posfs_id5_im20.bmp,['Im_GeorgeClooney.png', 'Im_RobertPattinson.png', 'Im_BradPitt.png', 'Im_DanielRadcliffe.png', 'Im_MattDamon.png', 'Im_LeonardoDiCaprio.png', 'Im_DanielCraig.png', 'Im_PatrickDempsey.png', 'Im_BenStiller.png', 'Im_RyanGosling.png'],same,1,0.8834673000001203,1,80.95238095238095,
MINA0205,train,inv,30,pos30_id4_im20.bmp_pos30_id7_im14.bmp,['Im_GeorgeClooney.png', 'Im_RobertPattinson.png', 'Im_BradPitt.png', 'Im_DanielRadcliffe.png', 'Im_MattDamon.png', 'Im_LeonardoDiCaprio.png', 'Im_DanielCraig.png', 'Im_PatrickDempsey.png', 'Im_BenStiller.png', 'Im_RyanGosling.png'],diff,1,0.7419546999999511,2,80.95238095238095,
MINA0205,train,inv,90,pos90_id4_im20.bmp_pos90_id2_im3.bmp,['Im_GeorgeClooney.png', 'Im_RobertPattinson.png', 'Im_BradPitt.png', 'Im_DanielRadcliffe.png', 'Im_MattDamon.png', 'Im_LeonardoDiCaprio.png', 'Im_DanielCraig.png', 'Im_PatrickDempsey.png', 'Im_BenStiller.png', 'Im_RyanGosling.png'],same,0,0.8670315999997911,2,80.95238095238095,
MINA0205,train,inv,fs,posfs_id3_im8.bmp_posfs_id7_im26.bmp,['Im_GeorgeClooney.png', 'Im_RobertPattinson.png', 'Im_BradPitt.png', 'Im_DanielRadcliffe.png', 'Im_MattDamon.png', 'Im_LeonardoDiCaprio.png', 'Im_DanielCraig.png', 'Im_PatrickDempsey.png', 'Im_BenStiller.png', 'Im_RyanGosling.png'],diff,1,1.2503115999998045,3,80.95238095238095,
MINA0205,train,inv,0,pos0_id7_im14.bmp_pos0_id17_im9.bmp,['Im_GeorgeClooney.png', 'Im_RobertPattinson.png', 'Im_BradPitt.png', 'Im_DanielRadcliffe.png', 'Im_MattDamon.png', 'Im_LeonardoDiCaprio.png', 'Im_DanielCraig.png', 'Im_PatrickDempsey.png', 'Im_BenStiller.png', 'Im_RyanGosling.png'],diff,1,1.233933900000011,4,80.95238095238095,
MINA0205,train,inv,60,pos60_id13_im29.bmp_pos60_id2_im3.bmp,['Im_GeorgeClooney.png', 'Im_RobertPattinson.png', 'Im_BradPitt.png', 'Im_DanielRadcliffe.png', 'Im_MattDamon.png', 'Im_LeonardoDiCaprio.png', 'Im_DanielCraig.png', 'Im_PatrickDempsey.png', 'Im_BenStiller.png', 'Im_RyanGosling.png'],diff,1,0.5249110999998265,5,80.95238095238095,
MINA0205,train,inv,120,pos120_id20_im3.bmp_pos120_id7_im15.bmp,['Im_GeorgeClooney.png', 'Im_RobertPattinson.png', 'Im_BradPitt.png', 'Im_DanielRadcliffe.png', 'Im_MattDamon.png', 'Im_LeonardoDiCaprio.png', 'Im_DanielCraig.png', 'Im_PatrickDempsey.png', 'Im_BenStiller.png', 'Im_RyanGosling.png'],diff,1,0.7001690000001872,6,80.95238095238095,
MINA0205,train,inv,90,pos90_id4_im7.bmp_pos90_id4_im15.bmp,['Im_GeorgeClooney.png', 'Im_RobertPattinson.png', 'Im_BradPitt.png', 'Im_DanielRadcliffe.png', 'Im_MattDamon.png', 'Im_LeonardoDiCaprio.png', 'Im_DanielCraig.png', 'Im_PatrickDempsey.png', 'Im_BenStiller.png', 'Im_RyanGosling.png'],same,1,1.4169569000000592,7,80.95238095238095,
MINA0205,train,inv,120,pos120_id20_im30.bmp_pos120_id14_im16.bmp,['Im_GeorgeClooney.png', 'Im_RobertPattinson.png', 'Im_BradPitt.png', 'Im_DanielRadcliffe.png', 'Im_MattDamon.png', 'Im_LeonardoDiCaprio.png', 'Im_DanielCraig.png', 'Im_PatrickDempsey.png', 'Im_BenStiller.png', 'Im_RyanGosling.png'],diff,1,0.4666528000002472,8,80.95238095238095,
MINA0205,train,inv,60,pos60_id20_im30.bmp_pos60_id14_im16.bmp,['Im_GeorgeClooney.png', 'Im_RobertPattinson.png', 'Im_BradPitt.png', 'Im_DanielRadcliffe.png', 'Im_MattDamon.png', 'Im_LeonardoDiCaprio.png', 'Im_DanielCraig.png', 'Im_PatrickDempsey.png', 'Im_BenStiller.png', 'Im_RyanGosling.png'],diff,1,1.78342210000028,9,80.95238095238095,
MINA0205,train,inv,30,pos30_id17_im8.bmp_pos30_id17_im14.bmp,['Im_GeorgeClooney.png', 'Im_RobertPattinson.png', 'Im_BradPitt.png', 'Im_DanielRadcliffe.png', 'Im_MattDamon.png', 'Im_LeonardoDiCaprio.png', 'Im_DanielCraig.png', 'Im_PatrickDempsey.png', 'Im_BenStiller.png', 'Im_RyanGosling.png'],same,1,0.5169248000001971,10,80.95238095238095,
MINA0205,train,inv,150,pos150_id14_im16.bmp_pos150_id20_im30.bmp,['Im_GeorgeClooney.png', 'Im_RobertPattinson.png', 'Im_BradPitt.png', 'Im_DanielRadcliffe.png', 'Im_MattDamon.png', 'Im_LeonardoDiCaprio.png', 'Im_DanielCraig.png', 'Im_PatrickDempsey.png', 'Im_BenStiller.png', 'Im_RyanGosling.png'],diff,1,1.2833551000003354,11,80.95238095238095,
MINA0205,train,inv,150,pos150_id5_im10.bmp_pos150_id5_im20.bmp,['Im_GeorgeClooney.png', 'Im_RobertPattinson.png', 'Im_BradPitt.png', 'Im_DanielRadcliffe.png', 'Im_MattDamon.png', 'Im_LeonardoDiCaprio.png', 'Im_DanielCraig.png', 'Im_PatrickDempsey.png', 'Im_BenStiller.png', 'Im_RyanGosling.png'],same,1,0.6334212000001571,12,80.95238095238095,
MINA0205,train,inv,0,pos0_id5_im20.bmp_pos0_id17_im14.bmp,['Im_GeorgeClooney.png', 'Im_RobertPattinson.png', 'Im_BradPitt.png', 'Im_DanielRadcliffe.png', 'Im_MattDamon.png', 'Im_LeonardoDiCaprio.png', 'Im_DanielCraig.png', 'Im_PatrickDempsey.png', 'Im_BenStiller.png', 'Im_RyanGosling.png'],same,0,0.8334475999999995,12,80.95238095238095,
MINA0205,train,pos,120,pos120_id14_im24.bmp_pos120_id14_im18.bmp,['Im_GeorgeClooney.png', 'Im_RobertPattinson.png', 'Im_BradPitt.png', 'Im_DanielRadcliffe.png', 'Im_MattDamon.png', 'Im_LeonardoDiCaprio.png', 'Im_DanielCraig.png', 'Im_PatrickDempsey.png', 'Im_BenStiller.png', 'Im_RyanGosling.png'],same,1,0.8004175999999461,13,80.95238095238095,
MINA0205,train,pos,150,pos150_id20_im12.bmp_pos150_id4_im15.bmp,['Im_GeorgeClooney.png', 'Im_RobertPattinson.png', 'Im_BradPitt.png', 'Im_DanielRadcliffe.png', 'Im_MattDamon.png', 'Im_LeonardoDiCaprio.png', 'Im_DanielCraig.png', 'Im_PatrickDempsey.png', 'Im_BenStiller.png', 'Im_RyanGosling.png'],diff,1,1.0418594000002486,14,80.95238095238095,
MINA0205,train,pos,150,pos150_id7_im26.bmp_pos150_id7_im15.bmp,['Im_GeorgeClooney.png', 'Im_RobertPattinson.png', 'Im_BradPitt.png', 'Im_DanielRadcliffe.png', 'Im_MattDamon.png', 'Im_LeonardoDiCaprio.png', 'Im_DanielCraig.png', 'Im_PatrickDempsey.png', 'Im_BenStiller.png', 'Im_RyanGosling.png'],same,1,0.9835659999998825,15,80.95238095238095,
MINA0205,train,pos,0,pos0_id5_im20.bmp_pos0_id5_im10.bmp,['Im_GeorgeClooney.png', 'Im_RobertPattinson.png', 'Im_BradPitt.png', 'Im_DanielRadcliffe.png', 'Im_MattDamon.png', 'Im_LeonardoDiCaprio.png', 'Im_DanielCraig.png', 'Im_PatrickDempsey.png', 'Im_BenStiller.png', 'Im_RyanGosling.png'],same,1,0.483249099999739,16,80.95238095238095,
MINA0205,train,pos,60,pos60_id20_im12.bmp_pos60_id14_im18.bmp,['Im_GeorgeClooney.png', 'Im_RobertPattinson.png', 'Im_BradPitt.png', 'Im_DanielRadcliffe.png', 'Im_MattDamon.png', 'Im_LeonardoDiCaprio.png', 'Im_DanielCraig.png', 'Im_PatrickDempsey.png', 'Im_BenStiller.png', 'Im_RyanGosling.png'],diff,1,0.43335930000012013,17,80.95238095238095,
MINA0205,train,pos,30,pos30_id7_im15.bmp_pos30_id2_im16.bmp,['Im_GeorgeClooney.png', 'Im_RobertPattinson.png', 'Im_BradPitt.png', 'Im_DanielRadcliffe.png', 'Im_MattDamon.png', 'Im_LeonardoDiCaprio.png', 'Im_DanielCraig.png', 'Im_PatrickDempsey.png', 'Im_BenStiller.png', 'Im_RyanGosling.png'],diff,1,0.8167926999999509,18,80.95238095238095,
MINA0205,train,pos,0,pos0_id3_im17.bmp_pos0_id14_im24.bmp,['Im_GeorgeClooney.png', 'Im_RobertPattinson.png', 'Im_BradPitt.png', 'Im_DanielRadcliffe.png', 'Im_MattDamon.png', 'Im_LeonardoDiCaprio.png', 'Im_DanielCraig.png', 'Im_PatrickDempsey.png', 'Im_BenStiller.png', 'Im_RyanGosling.png'],diff,1,0.4834122000002026,19,80.95238095238095,
MINA0205,train,pos,30,pos30_id2_im2.bmp_pos30_id5_im10.bmp,['Im_GeorgeClooney.png', 'Im_RobertPattinson.png', 'Im_BradPitt.png', 'Im_DanielRadcliffe.png', 'Im_MattDamon.png', 'Im_LeonardoDiCaprio.png', 'Im_DanielCraig.png', 'Im_PatrickDempsey.png', 'Im_BenStiller.png', 'Im_RyanGosling.png'],diff,1,0.6082132000001366,20,80.95238095238095,
MINA0205,train,pos,fs,posfs_id4_im15.bmp_posfs_id20_im12.bmp,['Im_GeorgeClooney.png', 'Im_RobertPattinson.png', 'Im_BradPitt.png', 'Im_DanielRadcliffe.png', 'Im_MattDamon.png', 'Im_LeonardoDiCaprio.png', 'Im_DanielCraig.png', 'Im_PatrickDempsey.png', 'Im_BenStiller.png', 'Im_RyanGosling.png'],diff,1,0.5916190999996616,21,80.95238095238095,
MINA0205,train,pos,fs,posfs_id5_im1.bmp_posfs_id13_im10.bmp,['Im_GeorgeClooney.png', 'Im_RobertPattinson.png', 'Im_BradPitt.png', 'Im_DanielRadcliffe.png', 'Im_MattDamon.png', 'Im_LeonardoDiCaprio.png', 'Im_DanielCraig.png', 'Im_PatrickDempsey.png', 'Im_BenStiller.png', 'Im_RyanGosling.png'],diff,1,0.5585040999999364,22,80.95238095238095,
MINA0205,train,pos,60,pos60_id7_im26.bmp_pos60_id7_im15.bmp,['Im_GeorgeClooney.png', 'Im_RobertPattinson.png', 'Im_BradPitt.png', 'Im_DanielRadcliffe.png', 'Im_MattDamon.png', 'Im_LeonardoDiCaprio.png', 'Im_DanielCraig.png', 'Im_PatrickDempsey.png', 'Im_BenStiller.png', 'Im_RyanGosling.png'],same,1,0.6748765999996067,23,80.95238095238095,
MINA0205,train,pos,120,pos120_id3_im8.bmp_pos120_id19_im27.bmp,['Im_GeorgeClooney.png', 'Im_RobertPattinson.png', 'Im_BradPitt.png', 'Im_DanielRadcliffe.png', 'Im_MattDamon.png', 'Im_LeonardoDiCaprio.png', 'Im_DanielCraig.png', 'Im_PatrickDempsey.png', 'Im_BenStiller.png', 'Im_RyanGosling.png'],diff,1,0.4999417000003632,24,80.95238095238095,
MINA0205,train,pos,90,pos90_id13_im15.bmp_pos90_id13_im29.bmp,['Im_GeorgeClooney.png', 'Im_RobertPattinson.png', 'Im_BradPitt.png', 'Im_DanielRadcliffe.png', 'Im_MattDamon.png', 'Im_LeonardoDiCaprio.png', 'Im_DanielCraig.png', 'Im_PatrickDempsey.png', 'Im_BenStiller.png', 'Im_RyanGosling.png'],same,1,0.5913775999997597,25,80.95238095238095,
MINA0205,train,pos,90,pos90_id5_im10.bmp_pos90_id2_im2.bmp,['Im_GeorgeClooney.png', 'Im_RobertPattinson.png', 'Im_BradPitt.png', 'Im_DanielRadcliffe.png', 'Im_MattDamon.png', 'Im_LeonardoDiCaprio.png', 'Im_DanielCraig.png', 'Im_PatrickDempsey.png', 'Im_BenStiller.png', 'Im_RyanGosling.png'],diff,1,1.058784199999991,26,80.95238095238095,
MINA0205,train,neg,fs,negfs_id14_im18.bmp_negfs_id14_im24.bmp,['Im_GeorgeClooney.png', 'Im_RobertPattinson.png', 'Im_BradPitt.png', 'Im_DanielRadcliffe.png', 'Im_MattDamon.png', 'Im_LeonardoDiCaprio.png', 'Im_DanielCraig.png', 'Im_PatrickDempsey.png', 'Im_BenStiller.png', 'Im_RyanGosling.png'],same,1,0.5919432999999117,27,80.95238095238095,
MINA0205,train,neg,0,neg0_id13_im15.bmp_neg0_id13_im10.bmp,['Im_GeorgeClooney.png', 'Im_RobertPattinson.png', 'Im_BradPitt.png', 'Im_DanielRadcliffe.png', 'Im_MattDamon.png', 'Im_LeonardoDiCaprio.png', 'Im_DanielCraig.png', 'Im_PatrickDempsey.png', 'Im_BenStiller.png', 'Im_RyanGosling.png'],diff,0,0.8003985000000284,27,80.95238095238095,
MINA0205,train,neg,60,neg60_id4_im20.bmp_neg60_id7_im14.bmp,['Im_GeorgeClooney.png', 'Im_RobertPattinson.png', 'Im_BradPitt.png', 'Im_DanielRadcliffe.png', 'Im_MattDamon.png', 'Im_LeonardoDiCaprio.png', 'Im_DanielCraig.png', 'Im_PatrickDempsey.png', 'Im_BenStiller.png', 'Im_RyanGosling.png'],diff,1,0.4082631000001129,28,80.95238095238095,
MINA0205,train,neg,120,neg120_id14_im16.bmp_neg120_id17_im8.bmp,['Im_GeorgeClooney.png', 'Im_RobertPattinson.png', 'Im_BradPitt.png', 'Im_DanielRadcliffe.png', 'Im_MattDamon.png', 'Im_LeonardoDiCaprio.png', 'Im_DanielCraig.png', 'Im_PatrickDempsey.png', 'Im_BenStiller.png', 'Im_RyanGosling.png'],diff,1,0.8001570999999785,29,80.95238095238095,
MINA0205,train,neg,60,neg60_id7_im15.bmp_neg60_id20_im3.bmp,['Im_GeorgeClooney.png', 'Im_RobertPattinson.png', 'Im_BradPitt.png', 'Im_DanielRadcliffe.png', 'Im_MattDamon.png', 'Im_LeonardoDiCaprio.png', 'Im_DanielCraig.png', 'Im_PatrickDempsey.png', 'Im_BenStiller.png', 'Im_RyanGosling.png'],diff,1,0.4166749000000891,30,80.95238095238095,
MINA0205,train,neg,0,neg0_id4_im15.bmp_neg0_id20_im12.bmp,['Im_GeorgeClooney.png', 'Im_RobertPattinson.png', 'Im_BradPitt.png', 'Im_DanielRadcliffe.png', 'Im_MattDamon.png', 'Im_LeonardoDiCaprio.png', 'Im_DanielCraig.png', 'Im_PatrickDempsey.png', 'Im_BenStiller.png', 'Im_RyanGosling.png'],diff,1,0.40003299999989395,31,80.95238095238095,
MINA0205,train,neg,90,neg90_id3_im17.bmp_neg90_id3_im8.bmp,['Im_GeorgeClooney.png', 'Im_RobertPattinson.png', 'Im_BradPitt.png', 'Im_DanielRadcliffe.png', 'Im_MattDamon.png', 'Im_LeonardoDiCaprio.png', 'Im_DanielCraig.png', 'Im_PatrickDempsey.png', 'Im_BenStiller.png', 'Im_RyanGosling.png'],same,1,0.4167096999999558,32,80.95238095238095,
MINA0205,train,neg,30,neg30_id20_im3.bmp_neg30_id7_im26.bmp,['Im_GeorgeClooney.png', 'Im_RobertPattinson.png', 'Im_BradPitt.png', 'Im_DanielRadcliffe.png', 'Im_MattDamon.png', 'Im_LeonardoDiCaprio.png', 'Im_DanielCraig.png', 'Im_PatrickDempsey.png', 'Im_BenStiller.png', 'Im_RyanGosling.png'],same,0,0.44166439999980867,32,80.95238095238095,
MINA0205,train,neg,150,neg150_id3_im17.bmp_neg150_id3_im8.bmp,['Im_GeorgeClooney.png', 'Im_RobertPattinson.png', 'Im_BradPitt.png', 'Im_DanielRadcliffe.png', 'Im_MattDamon.png', 'Im_LeonardoDiCaprio.png', 'Im_DanielCraig.png', 'Im_PatrickDempsey.png', 'Im_BenStiller.png', 'Im_RyanGosling.png'],diff,0,0.7500154999997903,32,80.95238095238095,
MINA0205,train,neg,fs,negfs_id13_im29.bmp_negfs_id2_im3.bmp,['Im_GeorgeClooney.png', 'Im_RobertPattinson.png', 'Im_BradPitt.png', 'Im_DanielRadcliffe.png', 'Im_MattDamon.png', 'Im_LeonardoDiCaprio.png', 'Im_DanielCraig.png', 'Im_PatrickDempsey.png', 'Im_BenStiller.png', 'Im_RyanGosling.png'],diff,1,0.41670250000015585,33,80.95238095238095,
MINA0205,train,neg,90,neg90_id7_im26.bmp_neg90_id7_im14.bmp,['Im_GeorgeClooney.png', 'Im_RobertPattinson.png', 'Im_BradPitt.png', 'Im_DanielRadcliffe.png', 'Im_MattDamon.png', 'Im_LeonardoDiCaprio.png', 'Im_DanielCraig.png', 'Im_PatrickDempsey.png', 'Im_BenStiller.png', 'Im_RyanGosling.png'],diff,0,1.166657999999643,33,80.95238095238095,
MINA0205,train,neg,150,neg150_id7_im14.bmp_neg150_id17_im9.bmp,['Im_GeorgeClooney.png', 'Im_RobertPattinson.png', 'Im_BradPitt.png', 'Im_DanielRadcliffe.png', 'Im_MattDamon.png', 'Im_LeonardoDiCaprio.png', 'Im_DanielCraig.png', 'Im_PatrickDempsey.png', 'Im_BenStiller.png', 'Im_RyanGosling.png'],same,0,1.2166629999996985,33,80.95238095238095,
MINA0205,train,neg,30,neg30_id19_im27.bmp_neg30_id3_im8.bmp,['Im_GeorgeClooney.png', 'Im_RobertPattinson.png', 'Im_BradPitt.png', 'Im_DanielRadcliffe.png', 'Im_MattDamon.png', 'Im_LeonardoDiCaprio.png', 'Im_DanielCraig.png', 'Im_PatrickDempsey.png', 'Im_BenStiller.png', 'Im_RyanGosling.png'],diff,1,1.0335681999999906,34,80.95238095238095,
MINA0205,train,neg,120,neg120_id2_im16.bmp_neg120_id2_im2.bmp,['Im_GeorgeClooney.png', 'Im_RobertPattinson.png', 'Im_BradPitt.png', 'Im_DanielRadcliffe.png', 'Im_MattDamon.png', 'Im_LeonardoDiCaprio.png', 'Im_DanielCraig.png', 'Im_PatrickDempsey.png', 'Im_BenStiller.png', 'Im_RyanGosling.png'],diff,0,0.8003171999998813,34,80.95238095238095,
MINA0205,0,pos,150,pos150_id17_im14.bmp_pos150_id5_im20.bmp,['Im_GeorgeClooney.png', 'Im_RobertPattinson.png', 'Im_BradPitt.png', 'Im_DanielRadcliffe.png', 'Im_MattDamon.png', 'Im_LeonardoDiCaprio.png', 'Im_DanielCraig.png', 'Im_PatrickDempsey.png', 'Im_BenStiller.png', 'Im_RyanGosling.png'],diff,1,0.8667311999997764,1,0,
MINA0205,0,pos,90,pos90_id2_im3.bmp_pos90_id4_im20.bmp,['Im_GeorgeClooney.png', 'Im_RobertPattinson.png', 'Im_BradPitt.png', 'Im_DanielRadcliffe.png', 'Im_MattDamon.png', 'Im_LeonardoDiCaprio.png', 'Im_DanielCraig.png', 'Im_PatrickDempsey.png', 'Im_BenStiller.png', 'Im_RyanGosling.png'],diff,1,0.5252745999996478,2,0,
MINA0205,0,pos,30,pos30_id13_im10.bmp_pos30_id13_im15.bmp,['Im_GeorgeClooney.png', 'Im_RobertPattinson.png', 'Im_BradPitt.png', 'Im_DanielRadcliffe.png', 'Im_MattDamon.png', 'Im_LeonardoDiCaprio.png', 'Im_DanielCraig.png', 'Im_PatrickDempsey.png', 'Im_BenStiller.png', 'Im_RyanGosling.png'],same,1,0.5083639999998013,3,0,
MINA0205,0,pos,60,pos60_id13_im10.bmp_pos60_id3_im17.bmp,['Im_GeorgeClooney.png', 'Im_RobertPattinson.png', 'Im_BradPitt.png', 'Im_DanielRadcliffe.png', 'Im_MattDamon.png', 'Im_LeonardoDiCaprio.png', 'Im_DanielCraig.png', 'Im_PatrickDempsey.png', 'Im_BenStiller.png', 'Im_RyanGosling.png'],same,0,0.9002184999999372,3,0,
MINA0205,0,pos,150,pos150_id7_im15.bmp_pos150_id2_im16.bmp,['Im_GeorgeClooney.png', 'Im_RobertPattinson.png', 'Im_BradPitt.png', 'Im_DanielRadcliffe.png', 'Im_MattDamon.png', 'Im_LeonardoDiCaprio.png', 'Im_DanielCraig.png', 'Im_PatrickDempsey.png', 'Im_BenStiller.png', 'Im_RyanGosling.png'],diff,1,0.6083444999999301,4,0,
MINA0205,0,pos,0,pos0_id20_im30.bmp_pos0_id14_im16.bmp,['Im_GeorgeClooney.png', 'Im_RobertPattinson.png', 'Im_BradPitt.png', 'Im_DanielRadcliffe.png', 'Im_MattDamon.png', 'Im_LeonardoDiCaprio.png', 'Im_DanielCraig.png', 'Im_PatrickDempsey.png', 'Im_BenStiller.png', 'Im_RyanGosling.png'],same,0,0.5502239999996164,4,0,
MINA0205,0,pos,120,pos120_id19_im27.bmp_pos120_id19_im8.bmp,['Im_GeorgeClooney.png', 'Im_RobertPattinson.png', 'Im_BradPitt.png', 'Im_DanielRadcliffe.png', 'Im_MattDamon.png', 'Im_LeonardoDiCaprio.png', 'Im_DanielCraig.png', 'Im_PatrickDempsey.png', 'Im_BenStiller.png', 'Im_RyanGosling.png'],same,1,0.5087401000000682,5,0,
MINA0205,0,pos,fs,posfs_id13_im29.bmp_posfs_id13_im15.bmp,['Im_GeorgeClooney.png', 'Im_RobertPattinson.png', 'Im_BradPitt.png', 'Im_DanielRadcliffe.png', 'Im_MattDamon.png', 'Im_LeonardoDiCaprio.png', 'Im_DanielCraig.png', 'Im_PatrickDempsey.png', 'Im_BenStiller.png', 'Im_RyanGosling.png'],same,1,0.4254915000001347,6,0,
MINA0205,0,pos,0,pos0_id3_im17.bmp_pos0_id3_im6.bmp,['Im_GeorgeClooney.png', 'Im_RobertPattinson.png', 'Im_BradPitt.png', 'Im_DanielRadcliffe.png', 'Im_MattDamon.png', 'Im_LeonardoDiCaprio.png', 'Im_DanielCraig.png', 'Im_PatrickDempsey.png', 'Im_BenStiller.png', 'Im_RyanGosling.png'],diff,0,1.1250516000000061,6,0,
MINA0205,0,pos,60,pos60_id19_im4.bmp_pos60_id19_im8.bmp,['Im_GeorgeClooney.png', 'Im_RobertPattinson.png', 'Im_BradPitt.png', 'Im_DanielRadcliffe.png', 'Im_MattDamon.png', 'Im_LeonardoDiCaprio.png', 'Im_DanielCraig.png', 'Im_PatrickDempsey.png', 'Im_BenStiller.png', 'Im_RyanGosling.png'],same,1,0.525048599999991,7,0,
MINA0205,0,pos,30,pos30_id5_im20.bmp_pos30_id2_im2.bmp,['Im_GeorgeClooney.png', 'Im_RobertPattinson.png', 'Im_BradPitt.png', 'Im_DanielRadcliffe.png', 'Im_MattDamon.png', 'Im_LeonardoDiCaprio.png', 'Im_DanielCraig.png', 'Im_PatrickDempsey.png', 'Im_BenStiller.png', 'Im_RyanGosling.png'],diff,1,0.5418555999999626,8,0,
MINA0205,0,pos,90,pos90_id4_im7.bmp_pos90_id4_im15.bmp,['Im_GeorgeClooney.png', 'Im_RobertPattinson.png', 'Im_BradPitt.png', 'Im_DanielRadcliffe.png', 'Im_MattDamon.png', 'Im_LeonardoDiCaprio.png', 'Im_DanielCraig.png', 'Im_PatrickDempsey.png', 'Im_BenStiller.png', 'Im_RyanGosling.png'],same,1,0.408401899999717,9,0,
MINA0205,0,pos,120,pos120_id5_im1.bmp_pos120_id13_im10.bmp,['Im_GeorgeClooney.png', 'Im_RobertPattinson.png', 'Im_BradPitt.png', 'Im_DanielRadcliffe.png', 'Im_MattDamon.png', 'Im_LeonardoDiCaprio.png', 'Im_DanielCraig.png', 'Im_PatrickDempsey.png', 'Im_BenStiller.png', 'Im_RyanGosling.png'],diff,1,0.7751546999998027,10,0,
MINA0205,0,pos,fs,posfs_id5_im1.bmp_posfs_id5_im20.bmp,['Im_GeorgeClooney.png', 'Im_RobertPattinson.png', 'Im_BradPitt.png', 'Im_DanielRadcliffe.png', 'Im_MattDamon.png', 'Im_LeonardoDiCaprio.png', 'Im_DanielCraig.png', 'Im_PatrickDempsey.png', 'Im_BenStiller.png', 'Im_RyanGosling.png'],same,1,0.40024780000021565,11,0,
MINA0205,1,inv,30,pos30_id13_im29.bmp_pos30_id13_im15.bmp,['Im_GeorgeClooney.png', 'Im_RobertPattinson.png', 'Im_BradPitt.png', 'Im_DanielRadcliffe.png', 'Im_MattDamon.png', 'Im_LeonardoDiCaprio.png', 'Im_DanielCraig.png', 'Im_PatrickDempsey.png', 'Im_BenStiller.png', 'Im_RyanGosling.png'],diff,0,1.6252198000001954,11,0,
MINA0205,1,inv,fs,posfs_id13_im10.bmp_posfs_id5_im1.bmp,['Im_GeorgeClooney.png', 'Im_RobertPattinson.png', 'Im_BradPitt.png', 'Im_DanielRadcliffe.png', 'Im_MattDamon.png', 'Im_LeonardoDiCaprio.png', 'Im_DanielCraig.png', 'Im_PatrickDempsey.png', 'Im_BenStiller.png', 'Im_RyanGosling.png'],same,0,0.4252465999998094,11,0,
MINA0205,1,inv,120,pos120_id14_im24.bmp_pos120_id3_im17.bmp,['Im_GeorgeClooney.png', 'Im_RobertPattinson.png', 'Im_BradPitt.png', 'Im_DanielRadcliffe.png', 'Im_MattDamon.png', 'Im_LeonardoDiCaprio.png', 'Im_DanielCraig.png', 'Im_PatrickDempsey.png', 'Im_BenStiller.png', 'Im_RyanGosling.png'],same,0,0.41677160000017466,11,0,
MINA0205,1,inv,30,pos30_id19_im4.bmp_pos30_id4_im7.bmp,['Im_GeorgeClooney.png', 'Im_RobertPattinson.png', 'Im_BradPitt.png', 'Im_DanielRadcliffe.png', 'Im_MattDamon.png', 'Im_LeonardoDiCaprio.png', 'Im_DanielCraig.png', 'Im_PatrickDempsey.png', 'Im_BenStiller.png', 'Im_RyanGosling.png'],diff,1,0.46682419999979174,12,0,
MINA0205,1,inv,120,pos120_id3_im6.bmp_pos120_id13_im15.bmp,['Im_GeorgeClooney.png', 'Im_RobertPattinson.png', 'Im_BradPitt.png', 'Im_DanielRadcliffe.png', 'Im_MattDamon.png', 'Im_LeonardoDiCaprio.png', 'Im_DanielCraig.png', 'Im_PatrickDempsey.png', 'Im_BenStiller.png', 'Im_RyanGosling.png'],same,0,0.5666076000002249,12,0,
MINA0205,1,inv,60,pos60_id17_im8.bmp_pos60_id14_im16.bmp,['Im_GeorgeClooney.png', 'Im_RobertPattinson.png', 'Im_BradPitt.png', 'Im_DanielRadcliffe.png', 'Im_MattDamon.png', 'Im_LeonardoDiCaprio.png', 'Im_DanielCraig.png', 'Im_PatrickDempsey.png', 'Im_BenStiller.png', 'Im_RyanGosling.png'],same,0,0.6751502000001892,12,0,
MINA0205,1,inv,90,pos90_id14_im18.bmp_pos90_id14_im16.bmp,['Im_GeorgeClooney.png', 'Im_RobertPattinson.png', 'Im_BradPitt.png', 'Im_DanielRadcliffe.png', 'Im_MattDamon.png', 'Im_LeonardoDiCaprio.png', 'Im_DanielCraig.png', 'Im_PatrickDempsey.png', 'Im_BenStiller.png', 'Im_RyanGosling.png'],same,1,1.1753748999999516,13,0,
MINA0205,1,inv,fs,posfs_id5_im10.bmp_posfs_id2_im2.bmp,['Im_GeorgeClooney.png', 'Im_RobertPattinson.png', 'Im_BradPitt.png', 'Im_DanielRadcliffe.png', 'Im_MattDamon.png', 'Im_LeonardoDiCaprio.png', 'Im_DanielCraig.png', 'Im_PatrickDempsey.png', 'Im_BenStiller.png', 'Im_RyanGosling.png'],diff,1,0.41672820000030697,14,0,
MINA0205,1,inv,0,pos0_id17_im8.bmp_pos0_id5_im10.bmp,['Im_GeorgeClooney.png', 'Im_RobertPattinson.png', 'Im_BradPitt.png', 'Im_DanielRadcliffe.png', 'Im_MattDamon.png', 'Im_LeonardoDiCaprio.png', 'Im_DanielCraig.png', 'Im_PatrickDempsey.png', 'Im_BenStiller.png', 'Im_RyanGosling.png'],same,0,0.9584958999998889,14,0,
MINA0205,1,inv,60,pos60_id7_im14.bmp_pos60_id17_im9.bmp,['Im_GeorgeClooney.png', 'Im_RobertPattinson.png', 'Im_BradPitt.png', 'Im_DanielRadcliffe.png', 'Im_MattDamon.png', 'Im_LeonardoDiCaprio.png', 'Im_DanielCraig.png', 'Im_PatrickDempsey.png', 'Im_BenStiller.png', 'Im_RyanGosling.png'],diff,1,1.6582683000001452,15,0,
MINA0205,1,inv,90,pos90_id13_im15.bmp_pos90_id3_im6.bmp,['Im_GeorgeClooney.png', 'Im_RobertPattinson.png', 'Im_BradPitt.png', 'Im_DanielRadcliffe.png', 'Im_MattDamon.png', 'Im_LeonardoDiCaprio.png', 'Im_DanielCraig.png', 'Im_PatrickDempsey.png', 'Im_BenStiller.png', 'Im_RyanGosling.png'],diff,1,1.7749574999998003,16,0,
MINA0205,1,inv,150,pos150_id13_im15.bmp_pos150_id19_im4.bmp,['Im_GeorgeClooney.png', 'Im_RobertPattinson.png', 'Im_BradPitt.png', 'Im_DanielRadcliffe.png', 'Im_MattDamon.png', 'Im_LeonardoDiCaprio.png', 'Im_DanielCraig.png', 'Im_PatrickDempsey.png', 'Im_BenStiller.png', 'Im_RyanGosling.png'],diff,1,0.6506831000001512,17,0,
MINA0205,1,inv,0,pos0_id13_im29.bmp_pos0_id2_im3.bmp,['Im_GeorgeClooney.png', 'Im_RobertPattinson.png', 'Im_BradPitt.png', 'Im_DanielRadcliffe.png', 'Im_MattDamon.png', 'Im_LeonardoDiCaprio.png', 'Im_DanielCraig.png', 'Im_PatrickDempsey.png', 'Im_BenStiller.png', 'Im_RyanGosling.png'],diff,1,0.4417332000002716,18,0,
MINA0205,1,inv,150,pos150_id4_im7.bmp_pos150_id4_im15.bmp,['Im_GeorgeClooney.png', 'Im_RobertPattinson.png', 'Im_BradPitt.png', 'Im_DanielRadcliffe.png', 'Im_MattDamon.png', 'Im_LeonardoDiCaprio.png', 'Im_DanielCraig.png', 'Im_PatrickDempsey.png', 'Im_BenStiller.png', 'Im_RyanGosling.png'],same,1,0.5586906000003182,19,0,
MINA0205,2,neg,150,neg150_id2_im16.bmp_neg150_id2_im3.bmp,['Im_GeorgeClooney.png', 'Im_RobertPattinson.png', 'Im_BradPitt.png', 'Im_DanielRadcliffe.png', 'Im_MattDamon.png', 'Im_LeonardoDiCaprio.png', 'Im_DanielCraig.png', 'Im_PatrickDempsey.png', 'Im_BenStiller.png', 'Im_RyanGosling.png'],same,1,1.3168378999998822,20,0,
MINA0205,2,neg,90,neg90_id17_im8.bmp_neg90_id17_im14.bmp,['Im_GeorgeClooney.png', 'Im_RobertPattinson.png', 'Im_BradPitt.png', 'Im_DanielRadcliffe.png', 'Im_MattDamon.png', 'Im_LeonardoDiCaprio.png', 'Im_DanielCraig.png', 'Im_PatrickDempsey.png', 'Im_BenStiller.png', 'Im_RyanGosling.png'],diff,0,0.45059399999991,20,0,
MINA0205,2,neg,60,neg60_id3_im6.bmp_neg60_id13_im15.bmp,['Im_GeorgeClooney.png', 'Im_RobertPattinson.png', 'Im_BradPitt.png', 'Im_DanielRadcliffe.png', 'Im_MattDamon.png', 'Im_LeonardoDiCaprio.png', 'Im_DanielCraig.png', 'Im_PatrickDempsey.png', 'Im_BenStiller.png', 'Im_RyanGosling.png'],diff,1,0.78333049999992,21,0,
MINA0205,2,neg,fs,negfs_id20_im3.bmp_negfs_id7_im15.bmp,['Im_GeorgeClooney.png', 'Im_RobertPattinson.png', 'Im_BradPitt.png', 'Im_DanielRadcliffe.png', 'Im_MattDamon.png', 'Im_LeonardoDiCaprio.png', 'Im_DanielCraig.png', 'Im_PatrickDempsey.png', 'Im_BenStiller.png', 'Im_RyanGosling.png'],diff,1,0.40848789999972723,22,0,
MINA0205,2,neg,150,neg150_id3_im8.bmp_neg150_id19_im27.bmp,['Im_GeorgeClooney.png', 'Im_RobertPattinson.png', 'Im_BradPitt.png', 'Im_DanielRadcliffe.png', 'Im_MattDamon.png', 'Im_LeonardoDiCaprio.png', 'Im_DanielCraig.png', 'Im_PatrickDempsey.png', 'Im_BenStiller.png', 'Im_RyanGosling.png'],diff,1,0.875113500000225,23,0,
MINA0205,2,neg,fs,negfs_id13_im10.bmp_negfs_id5_im1.bmp,['Im_GeorgeClooney.png', 'Im_RobertPattinson.png', 'Im_BradPitt.png', 'Im_DanielRadcliffe.png', 'Im_MattDamon.png', 'Im_LeonardoDiCaprio.png', 'Im_DanielCraig.png', 'Im_PatrickDempsey.png', 'Im_BenStiller.png', 'Im_RyanGosling.png'],diff,1,0.45845220000001063,24,0,
MINA0205,2,neg,120,neg120_id2_im3.bmp_neg120_id2_im2.bmp,['Im_GeorgeClooney.png', 'Im_RobertPattinson.png', 'Im_BradPitt.png', 'Im_DanielRadcliffe.png', 'Im_MattDamon.png', 'Im_LeonardoDiCaprio.png', 'Im_DanielCraig.png', 'Im_PatrickDempsey.png', 'Im_BenStiller.png', 'Im_RyanGosling.png'],diff,0,1.3833392000001368,24,0,
MINA0205,2,neg,60,neg60_id2_im2.bmp_neg60_id2_im3.bmp,['Im_GeorgeClooney.png', 'Im_RobertPattinson.png', 'Im_BradPitt.png', 'Im_DanielRadcliffe.png', 'Im_MattDamon.png', 'Im_LeonardoDiCaprio.png', 'Im_DanielCraig.png', 'Im_PatrickDempsey.png', 'Im_BenStiller.png', 'Im_RyanGosling.png'],diff,0,0.5168103000000883,24,0,
MINA0205,2,neg,30,neg30_id19_im27.bmp_neg30_id19_im4.bmp,['Im_GeorgeClooney.png', 'Im_RobertPattinson.png', 'Im_BradPitt.png', 'Im_DanielRadcliffe.png', 'Im_MattDamon.png', 'Im_LeonardoDiCaprio.png', 'Im_DanielCraig.png', 'Im_PatrickDempsey.png', 'Im_BenStiller.png', 'Im_RyanGosling.png'],same,1,0.41672680000010587,25,0,
MINA0205,2,neg,0,neg0_id7_im15.bmp_neg0_id7_im14.bmp,['Im_GeorgeClooney.png', 'Im_RobertPattinson.png', 'Im_BradPitt.png', 'Im_DanielRadcliffe.png', 'Im_MattDamon.png', 'Im_LeonardoDiCaprio.png', 'Im_DanielCraig.png', 'Im_PatrickDempsey.png', 'Im_BenStiller.png', 'Im_RyanGosling.png'],diff,0,1.349974299999758,25,0,
MINA0205,2,neg,0,neg0_id3_im6.bmp_neg0_id3_im8.bmp,['Im_GeorgeClooney.png', 'Im_RobertPattinson.png', 'Im_BradPitt.png', 'Im_DanielRadcliffe.png', 'Im_MattDamon.png', 'Im_LeonardoDiCaprio.png', 'Im_DanielCraig.png', 'Im_PatrickDempsey.png', 'Im_BenStiller.png', 'Im_RyanGosling.png'],same,1,0.6005199000001085,26,0,
MINA0205,2,neg,120,neg120_id20_im30.bmp_neg120_id17_im9.bmp,['Im_GeorgeClooney.png', 'Im_RobertPattinson.png', 'Im_BradPitt.png', 'Im_DanielRadcliffe.png', 'Im_MattDamon.png', 'Im_LeonardoDiCaprio.png', 'Im_DanielCraig.png', 'Im_PatrickDempsey.png', 'Im_BenStiller.png', 'Im_RyanGosling.png'],same,0,0.8416282000002866,26,0,
MINA0205,2,neg,90,neg90_id19_im27.bmp_neg90_id19_im8.bmp,['Im_GeorgeClooney.png', 'Im_RobertPattinson.png', 'Im_BradPitt.png', 'Im_DanielRadcliffe.png', 'Im_MattDamon.png', 'Im_LeonardoDiCaprio.png', 'Im_DanielCraig.png', 'Im_PatrickDempsey.png', 'Im_BenStiller.png', 'Im_RyanGosling.png'],same,1,0.9338238000000274,27,0,
MINA0205,2,neg,30,neg30_id2_im3.bmp_neg30_id2_im2.bmp,['Im_GeorgeClooney.png', 'Im_RobertPattinson.png', 'Im_BradPitt.png', 'Im_DanielRadcliffe.png', 'Im_MattDamon.png', 'Im_LeonardoDiCaprio.png', 'Im_DanielCraig.png', 'Im_PatrickDempsey.png', 'Im_BenStiller.png', 'Im_RyanGosling.png'],diff,0,1.2087534000002051,27,0,
MINA0205,3,neg,fs,negfs_id14_im18.bmp_negfs_id14_im16.bmp,['Im_GeorgeClooney.png', 'Im_RobertPattinson.png', 'Im_BradPitt.png', 'Im_DanielRadcliffe.png', 'Im_MattDamon.png', 'Im_LeonardoDiCaprio.png', 'Im_DanielCraig.png', 'Im_PatrickDempsey.png', 'Im_BenStiller.png', 'Im_RyanGosling.png'],same,1,0.4421335000001818,1,64.28571428571429,
MINA0205,3,neg,60,neg60_id2_im16.bmp_neg60_id17_im14.bmp,['Im_GeorgeClooney.png', 'Im_RobertPattinson.png', 'Im_BradPitt.png', 'Im_DanielRadcliffe.png', 'Im_MattDamon.png', 'Im_LeonardoDiCaprio.png', 'Im_DanielCraig.png', 'Im_PatrickDempsey.png', 'Im_BenStiller.png', 'Im_RyanGosling.png'],same,0,0.4666597999998885,1,64.28571428571429,
MINA0205,3,neg,120,neg120_id7_im14.bmp_neg120_id7_im26.bmp,['Im_GeorgeClooney.png', 'Im_RobertPattinson.png', 'Im_BradPitt.png', 'Im_DanielRadcliffe.png', 'Im_MattDamon.png', 'Im_LeonardoDiCaprio.png', 'Im_DanielCraig.png', 'Im_PatrickDempsey.png', 'Im_BenStiller.png', 'Im_RyanGosling.png'],diff,0,0.4671167000001333,1,64.28571428571429,
MINA0205,3,neg,150,neg150_id3_im6.bmp_neg150_id19_im8.bmp,['Im_GeorgeClooney.png', 'Im_RobertPattinson.png', 'Im_BradPitt.png', 'Im_DanielRadcliffe.png', 'Im_MattDamon.png', 'Im_LeonardoDiCaprio.png', 'Im_DanielCraig.png', 'Im_PatrickDempsey.png', 'Im_BenStiller.png', 'Im_RyanGosling.png'],same,0,0.700492999999824,1,64.28571428571429,
MINA0205,3,neg,0,neg0_id3_im6.bmp_neg0_id19_im8.bmp,['Im_GeorgeClooney.png', 'Im_RobertPattinson.png', 'Im_BradPitt.png', 'Im_DanielRadcliffe.png', 'Im_MattDamon.png', 'Im_LeonardoDiCaprio.png', 'Im_DanielCraig.png', 'Im_PatrickDempsey.png', 'Im_BenStiller.png', 'Im_RyanGosling.png'],same,0,0.4670544999999038,1,64.28571428571429,
MINA0205,3,neg,fs,negfs_id20_im30.bmp_negfs_id20_im3.bmp,['Im_GeorgeClooney.png', 'Im_RobertPattinson.png', 'Im_BradPitt.png', 'Im_DanielRadcliffe.png', 'Im_MattDamon.png', 'Im_LeonardoDiCaprio.png', 'Im_DanielCraig.png', 'Im_PatrickDempsey.png', 'Im_BenStiller.png', 'Im_RyanGosling.png'],same,1,0.46652709999989384,2,64.28571428571429,
MINA0205,3,neg,60,neg60_id20_im3.bmp_neg60_id20_im12.bmp,['Im_GeorgeClooney.png', 'Im_RobertPattinson.png', 'Im_BradPitt.png', 'Im_DanielRadcliffe.png', 'Im_MattDamon.png', 'Im_LeonardoDiCaprio.png', 'Im_DanielCraig.png', 'Im_PatrickDempsey.png', 'Im_BenStiller.png', 'Im_RyanGosling.png'],same,1,0.40840309999975943,3,64.28571428571429,
MINA0205,3,neg,30,neg30_id20_im30.bmp_neg30_id20_im12.bmp,['Im_GeorgeClooney.png', 'Im_RobertPattinson.png', 'Im_BradPitt.png', 'Im_DanielRadcliffe.png', 'Im_MattDamon.png', 'Im_LeonardoDiCaprio.png', 'Im_DanielCraig.png', 'Im_PatrickDempsey.png', 'Im_BenStiller.png', 'Im_RyanGosling.png'],same,1,0.5253305999999611,4,64.28571428571429,
MINA0205,3,neg,0,neg0_id3_im17.bmp_neg0_id3_im8.bmp,['Im_GeorgeClooney.png', 'Im_RobertPattinson.png', 'Im_BradPitt.png', 'Im_DanielRadcliffe.png', 'Im_MattDamon.png', 'Im_LeonardoDiCaprio.png', 'Im_DanielCraig.png', 'Im_PatrickDempsey.png', 'Im_BenStiller.png', 'Im_RyanGosling.png'],same,1,0.5749257000002217,5,64.28571428571429,
MINA0205,3,neg,30,neg30_id4_im15.bmp_neg30_id5_im1.bmp,['Im_GeorgeClooney.png', 'Im_RobertPattinson.png', 'Im_BradPitt.png', 'Im_DanielRadcliffe.png', 'Im_MattDamon.png', 'Im_LeonardoDiCaprio.png', 'Im_DanielCraig.png', 'Im_PatrickDempsey.png', 'Im_BenStiller.png', 'Im_RyanGosling.png'],diff,1,0.47497729999986404,6,64.28571428571429,
MINA0205,3,neg,150,neg150_id3_im17.bmp_neg150_id14_im24.bmp,['Im_GeorgeClooney.png', 'Im_RobertPattinson.png', 'Im_BradPitt.png', 'Im_DanielRadcliffe.png', 'Im_MattDamon.png', 'Im_LeonardoDiCaprio.png', 'Im_DanielCraig.png', 'Im_PatrickDempsey.png', 'Im_BenStiller.png', 'Im_RyanGosling.png'],diff,1,2.241938300000129,7,64.28571428571429,
MINA0205,3,neg,90,neg90_id5_im10.bmp_neg90_id2_im2.bmp,['Im_GeorgeClooney.png', 'Im_RobertPattinson.png', 'Im_BradPitt.png', 'Im_DanielRadcliffe.png', 'Im_MattDamon.png', 'Im_LeonardoDiCaprio.png', 'Im_DanielCraig.png', 'Im_PatrickDempsey.png', 'Im_BenStiller.png', 'Im_RyanGosling.png'],diff,1,0.4668790999999146,8,64.28571428571429,
MINA0205,3,neg,120,neg120_id5_im1.bmp_neg120_id5_im20.bmp,['Im_GeorgeClooney.png', 'Im_RobertPattinson.png', 'Im_BradPitt.png', 'Im_DanielRadcliffe.png', 'Im_MattDamon.png', 'Im_LeonardoDiCaprio.png', 'Im_DanielCraig.png', 'Im_PatrickDempsey.png', 'Im_BenStiller.png', 'Im_RyanGosling.png'],same,1,0.7499880999998823,9,64.28571428571429,
MINA0205,3,neg,90,neg90_id20_im12.bmp_neg90_id4_im15.bmp,['Im_GeorgeClooney.png', 'Im_RobertPattinson.png', 'Im_BradPitt.png', 'Im_DanielRadcliffe.png', 'Im_MattDamon.png', 'Im_LeonardoDiCaprio.png', 'Im_DanielCraig.png', 'Im_PatrickDempsey.png', 'Im_BenStiller.png', 'Im_RyanGosling.png'],diff,1,0.7758370999999897,10,64.28571428571429,
MINA0205,4,pos,90,pos90_id3_im6.bmp_pos90_id19_im8.bmp,['Im_GeorgeClooney.png', 'Im_RobertPattinson.png', 'Im_BradPitt.png', 'Im_DanielRadcliffe.png', 'Im_MattDamon.png', 'Im_LeonardoDiCaprio.png', 'Im_DanielCraig.png', 'Im_PatrickDempsey.png', 'Im_BenStiller.png', 'Im_RyanGosling.png'],diff,1,0.4248176999999487,11,64.28571428571429,
MINA0205,4,pos,0,pos0_id2_im16.bmp_pos0_id7_im15.bmp,['Im_GeorgeClooney.png', 'Im_RobertPattinson.png', 'Im_BradPitt.png', 'Im_DanielRadcliffe.png', 'Im_MattDamon.png', 'Im_LeonardoDiCaprio.png', 'Im_DanielCraig.png', 'Im_PatrickDempsey.png', 'Im_BenStiller.png', 'Im_RyanGosling.png'],same,0,0.8168488000001162,11,64.28571428571429,
MINA0205,4,pos,0,pos0_id13_im10.bmp_pos0_id13_im15.bmp,['Im_GeorgeClooney.png', 'Im_RobertPattinson.png', 'Im_BradPitt.png', 'Im_DanielRadcliffe.png', 'Im_MattDamon.png', 'Im_LeonardoDiCaprio.png', 'Im_DanielCraig.png', 'Im_PatrickDempsey.png', 'Im_BenStiller.png', 'Im_RyanGosling.png'],same,1,2.2834896000003937,12,64.28571428571429,
MINA0205,4,pos,90,pos90_id19_im4.bmp_pos90_id19_im8.bmp,['Im_GeorgeClooney.png', 'Im_RobertPattinson.png', 'Im_BradPitt.png', 'Im_DanielRadcliffe.png', 'Im_MattDamon.png', 'Im_LeonardoDiCaprio.png', 'Im_DanielCraig.png', 'Im_PatrickDempsey.png', 'Im_BenStiller.png', 'Im_RyanGosling.png'],same,1,0.41678289999981644,13,64.28571428571429,
MINA0205,4,pos,60,pos60_id4_im15.bmp_pos60_id4_im7.bmp,['Im_GeorgeClooney.png', 'Im_RobertPattinson.png', 'Im_BradPitt.png', 'Im_DanielRadcliffe.png', 'Im_MattDamon.png', 'Im_LeonardoDiCaprio.png', 'Im_DanielCraig.png', 'Im_PatrickDempsey.png', 'Im_BenStiller.png', 'Im_RyanGosling.png'],same,1,0.4334382000001824,14,64.28571428571429,
MINA0205,4,pos,fs,posfs_id14_im18.bmp_posfs_id14_im24.bmp,['Im_GeorgeClooney.png', 'Im_RobertPattinson.png', 'Im_BradPitt.png', 'Im_DanielRadcliffe.png', 'Im_MattDamon.png', 'Im_LeonardoDiCaprio.png', 'Im_DanielCraig.png', 'Im_PatrickDempsey.png', 'Im_BenStiller.png', 'Im_RyanGosling.png'],same,1,0.42505419999997684,15,64.28571428571429,
MINA0205,4,pos,30,pos30_id2_im2.bmp_pos30_id2_im16.bmp,['Im_GeorgeClooney.png', 'Im_RobertPattinson.png', 'Im_BradPitt.png', 'Im_DanielRadcliffe.png', 'Im_MattDamon.png', 'Im_LeonardoDiCaprio.png', 'Im_DanielCraig.png', 'Im_PatrickDempsey.png', 'Im_BenStiller.png', 'Im_RyanGosling.png'],same,1,0.4250670999999784,16,64.28571428571429,
MINA0205,4,pos,150,pos150_id3_im17.bmp_pos150_id13_im10.bmp,['Im_GeorgeClooney.png', 'Im_RobertPattinson.png', 'Im_BradPitt.png', 'Im_DanielRadcliffe.png', 'Im_MattDamon.png', 'Im_LeonardoDiCaprio.png', 'Im_DanielCraig.png', 'Im_PatrickDempsey.png', 'Im_BenStiller.png', 'Im_RyanGosling.png'],diff,1,0.4167354000001069,17,64.28571428571429,
MINA0205,4,pos,60,pos60_id2_im16.bmp_pos60_id2_im2.bmp,['Im_GeorgeClooney.png', 'Im_RobertPattinson.png', 'Im_BradPitt.png', 'Im_DanielRadcliffe.png', 'Im_MattDamon.png', 'Im_LeonardoDiCaprio.png', 'Im_DanielCraig.png', 'Im_PatrickDempsey.png', 'Im_BenStiller.png', 'Im_RyanGosling.png'],diff,0,0.4164577999999892,17,64.28571428571429,
MINA0205,4,pos,120,pos120_id13_im29.bmp_pos120_id2_im3.bmp,['Im_GeorgeClooney.png', 'Im_RobertPattinson.png', 'Im_BradPitt.png', 'Im_DanielRadcliffe.png', 'Im_MattDamon.png', 'Im_LeonardoDiCaprio.png', 'Im_DanielCraig.png', 'Im_PatrickDempsey.png', 'Im_BenStiller.png', 'Im_RyanGosling.png'],diff,1,0.4249715999999353,18,64.28571428571429,
MINA0205,4,pos,30,pos30_id17_im8.bmp_pos30_id17_im9.bmp,['Im_GeorgeClooney.png', 'Im_RobertPattinson.png', 'Im_BradPitt.png', 'Im_DanielRadcliffe.png', 'Im_MattDamon.png', 'Im_LeonardoDiCaprio.png', 'Im_DanielCraig.png', 'Im_PatrickDempsey.png', 'Im_BenStiller.png', 'Im_RyanGosling.png'],same,1,0.4250716999999895,19,64.28571428571429,
MINA0205,4,pos,150,pos150_id5_im10.bmp_pos150_id5_im20.bmp,['Im_GeorgeClooney.png', 'Im_RobertPattinson.png', 'Im_BradPitt.png', 'Im_DanielRadcliffe.png', 'Im_MattDamon.png', 'Im_LeonardoDiCaprio.png', 'Im_DanielCraig.png', 'Im_PatrickDempsey.png', 'Im_BenStiller.png', 'Im_RyanGosling.png'],diff,0,0.4167851000001974,19,64.28571428571429,
MINA0205,4,pos,fs,posfs_id2_im2.bmp_posfs_id2_im16.bmp,['Im_GeorgeClooney.png', 'Im_RobertPattinson.png', 'Im_BradPitt.png', 'Im_DanielRadcliffe.png', 'Im_MattDamon.png', 'Im_LeonardoDiCaprio.png', 'Im_DanielCraig.png', 'Im_PatrickDempsey.png', 'Im_BenStiller.png', 'Im_RyanGosling.png'],same,1,0.5668472999996084,20,64.28571428571429,
MINA0205,4,pos,120,pos120_id7_im26.bmp_pos120_id3_im8.bmp,['Im_GeorgeClooney.png', 'Im_RobertPattinson.png', 'Im_BradPitt.png', 'Im_DanielRadcliffe.png', 'Im_MattDamon.png', 'Im_LeonardoDiCaprio.png', 'Im_DanielCraig.png', 'Im_PatrickDempsey.png', 'Im_BenStiller.png', 'Im_RyanGosling.png'],diff,1,0.43351790000042456,21,64.28571428571429,
MINA0205,5,inv,60,pos60_id5_im10.bmp_pos60_id2_im2.bmp,['Im_GeorgeClooney.png', 'Im_RobertPattinson.png', 'Im_BradPitt.png', 'Im_DanielRadcliffe.png', 'Im_MattDamon.png', 'Im_LeonardoDiCaprio.png', 'Im_DanielCraig.png', 'Im_PatrickDempsey.png', 'Im_BenStiller.png', 'Im_RyanGosling.png'],diff,1,0.41676890000007916,22,64.28571428571429,
MINA0205,5,inv,90,pos90_id13_im29.bmp_pos90_id2_im3.bmp,['Im_GeorgeClooney.png', 'Im_RobertPattinson.png', 'Im_BradPitt.png', 'Im_DanielRadcliffe.png', 'Im_MattDamon.png', 'Im_LeonardoDiCaprio.png', 'Im_DanielCraig.png', 'Im_PatrickDempsey.png', 'Im_BenStiller.png', 'Im_RyanGosling.png'],diff,1,0.6252299999996467,23,64.28571428571429,
MINA0205,5,inv,30,pos30_id3_im8.bmp_pos30_id7_im26.bmp,['Im_GeorgeClooney.png', 'Im_RobertPattinson.png', 'Im_BradPitt.png', 'Im_DanielRadcliffe.png', 'Im_MattDamon.png', 'Im_LeonardoDiCaprio.png', 'Im_DanielCraig.png', 'Im_PatrickDempsey.png', 'Im_BenStiller.png', 'Im_RyanGosling.png'],diff,1,1.0084406999999374,24,64.28571428571429,
MINA0205,5,inv,60,pos60_id2_im16.bmp_pos60_id7_im15.bmp,['Im_GeorgeClooney.png', 'Im_RobertPattinson.png', 'Im_BradPitt.png', 'Im_DanielRadcliffe.png', 'Im_MattDamon.png', 'Im_LeonardoDiCaprio.png', 'Im_DanielCraig.png', 'Im_PatrickDempsey.png', 'Im_BenStiller.png', 'Im_RyanGosling.png'],diff,1,0.5253697999996803,25,64.28571428571429,
MINA0205,5,inv,0,pos0_id14_im16.bmp_pos0_id14_im24.bmp,['Im_GeorgeClooney.png', 'Im_RobertPattinson.png', 'Im_BradPitt.png', 'Im_DanielRadcliffe.png', 'Im_MattDamon.png', 'Im_LeonardoDiCaprio.png', 'Im_DanielCraig.png', 'Im_PatrickDempsey.png', 'Im_BenStiller.png', 'Im_RyanGosling.png'],same,1,0.5583868000003349,26,64.28571428571429,
MINA0205,5,inv,0,pos0_id14_im16.bmp_pos0_id20_im30.bmp,['Im_GeorgeClooney.png', 'Im_RobertPattinson.png', 'Im_BradPitt.png', 'Im_DanielRadcliffe.png', 'Im_MattDamon.png', 'Im_LeonardoDiCaprio.png', 'Im_DanielCraig.png', 'Im_PatrickDempsey.png', 'Im_BenStiller.png', 'Im_RyanGosling.png'],diff,1,0.5250184000001354,27,64.28571428571429,
MINA0205,5,inv,30,pos30_id14_im24.bmp_pos30_id14_im16.bmp,['Im_GeorgeClooney.png', 'Im_RobertPattinson.png', 'Im_BradPitt.png', 'Im_DanielRadcliffe.png', 'Im_MattDamon.png', 'Im_LeonardoDiCaprio.png', 'Im_DanielCraig.png', 'Im_PatrickDempsey.png', 'Im_BenStiller.png', 'Im_RyanGosling.png'],diff,0,0.4832013999998708,27,64.28571428571429,
MINA0205,5,inv,120,pos120_id17_im8.bmp_pos120_id17_im14.bmp,['Im_GeorgeClooney.png', 'Im_RobertPattinson.png', 'Im_BradPitt.png', 'Im_DanielRadcliffe.png', 'Im_MattDamon.png', 'Im_LeonardoDiCaprio.png', 'Im_DanielCraig.png', 'Im_PatrickDempsey.png', 'Im_BenStiller.png', 'Im_RyanGosling.png'],same,1,0.5333913999998003,28,64.28571428571429,
MINA0205,5,inv,90,pos90_id4_im7.bmp_pos90_id19_im4.bmp,['Im_GeorgeClooney.png', 'Im_RobertPattinson.png', 'Im_BradPitt.png', 'Im_DanielRadcliffe.png', 'Im_MattDamon.png', 'Im_LeonardoDiCaprio.png', 'Im_DanielCraig.png', 'Im_PatrickDempsey.png', 'Im_BenStiller.png', 'Im_RyanGosling.png'],diff,1,0.5498993999999584,29,64.28571428571429,
MINA0205,5,inv,120,pos120_id20_im3.bmp_pos120_id7_im26.bmp,['Im_GeorgeClooney.png', 'Im_RobertPattinson.png', 'Im_BradPitt.png', 'Im_DanielRadcliffe.png', 'Im_MattDamon.png', 'Im_LeonardoDiCaprio.png', 'Im_DanielCraig.png', 'Im_PatrickDempsey.png', 'Im_BenStiller.png', 'Im_RyanGosling.png'],diff,1,0.550284300000385,30,64.28571428571429,
MINA0205,5,inv,150,pos150_id3_im17.bmp_pos150_id13_im10.bmp,['Im_GeorgeClooney.png', 'Im_RobertPattinson.png', 'Im_BradPitt.png', 'Im_DanielRadcliffe.png', 'Im_MattDamon.png', 'Im_LeonardoDiCaprio.png', 'Im_DanielCraig.png', 'Im_PatrickDempsey.png', 'Im_BenStiller.png', 'Im_RyanGosling.png'],same,0,0.7168467999999848,30,64.28571428571429,
MINA0205,5,inv,fs,posfs_id7_im14.bmp_posfs_id4_im20.bmp,['Im_GeorgeClooney.png', 'Im_RobertPattinson.png', 'Im_BradPitt.png', 'Im_DanielRadcliffe.png', 'Im_MattDamon.png', 'Im_LeonardoDiCaprio.png', 'Im_DanielCraig.png', 'Im_PatrickDempsey.png', 'Im_BenStiller.png', 'Im_RyanGosling.png'],diff,1,0.8334193000000596,31,64.28571428571429,
MINA0205,5,inv,150,pos150_id2_im2.bmp_pos150_id2_im3.bmp,['Im_GeorgeClooney.png', 'Im_RobertPattinson.png', 'Im_BradPitt.png', 'Im_DanielRadcliffe.png', 'Im_MattDamon.png', 'Im_LeonardoDiCaprio.png', 'Im_DanielCraig.png', 'Im_PatrickDempsey.png', 'Im_BenStiller.png', 'Im_RyanGosling.png'],same,1,0.6084233999999924,32,64.28571428571429,
MINA0205,5,inv,fs,posfs_id14_im16.bmp_posfs_id14_im24.bmp,['Im_GeorgeClooney.png', 'Im_RobertPattinson.png', 'Im_BradPitt.png', 'Im_DanielRadcliffe.png', 'Im_MattDamon.png', 'Im_LeonardoDiCaprio.png', 'Im_DanielCraig.png', 'Im_PatrickDempsey.png', 'Im_BenStiller.png', 'Im_RyanGosling.png'],same,1,0.9749523999998928,33,64.28571428571429,
MINA0205,6,inv,60,pos60_id20_im3.bmp_pos60_id20_im30.bmp,['Im_GeorgeClooney.png', 'Im_RobertPattinson.png', 'Im_BradPitt.png', 'Im_DanielRadcliffe.png', 'Im_MattDamon.png', 'Im_LeonardoDiCaprio.png', 'Im_DanielCraig.png', 'Im_PatrickDempsey.png', 'Im_BenStiller.png', 'Im_RyanGosling.png'],same,1,0.4252017999997406,1,78.57142857142857,
MINA0205,6,inv,30,pos30_id7_im14.bmp_pos30_id7_im26.bmp,['Im_GeorgeClooney.png', 'Im_RobertPattinson.png', 'Im_BradPitt.png', 'Im_DanielRadcliffe.png', 'Im_MattDamon.png', 'Im_LeonardoDiCaprio.png', 'Im_DanielCraig.png', 'Im_PatrickDempsey.png', 'Im_BenStiller.png', 'Im_RyanGosling.png'],same,1,0.5253458000001956,2,78.57142857142857,
MINA0205,6,inv,60,pos60_id7_im14.bmp_pos60_id7_im26.bmp,['Im_GeorgeClooney.png', 'Im_RobertPattinson.png', 'Im_BradPitt.png', 'Im_DanielRadcliffe.png', 'Im_MattDamon.png', 'Im_LeonardoDiCaprio.png', 'Im_DanielCraig.png', 'Im_PatrickDempsey.png', 'Im_BenStiller.png', 'Im_RyanGosling.png'],diff,0,1.0501804000000448,2,78.57142857142857,
MINA0205,6,inv,fs,posfs_id19_im27.bmp_posfs_id19_im8.bmp,['Im_GeorgeClooney.png', 'Im_RobertPattinson.png', 'Im_BradPitt.png', 'Im_DanielRadcliffe.png', 'Im_MattDamon.png', 'Im_LeonardoDiCaprio.png', 'Im_DanielCraig.png', 'Im_PatrickDempsey.png', 'Im_BenStiller.png', 'Im_RyanGosling.png'],same,1,0.4252630999999383,3,78.57142857142857,
MINA0205,6,inv,120,pos120_id14_im24.bmp_pos120_id14_im18.bmp,['Im_GeorgeClooney.png', 'Im_RobertPattinson.png', 'Im_BradPitt.png', 'Im_DanielRadcliffe.png', 'Im_MattDamon.png', 'Im_LeonardoDiCaprio.png', 'Im_DanielCraig.png', 'Im_PatrickDempsey.png', 'Im_BenStiller.png', 'Im_RyanGosling.png'],same,1,0.425111200000174,4,78.57142857142857,
MINA0205,6,inv,150,pos150_id17_im8.bmp_pos150_id5_im10.bmp,['Im_GeorgeClooney.png', 'Im_RobertPattinson.png', 'Im_BradPitt.png', 'Im_DanielRadcliffe.png', 'Im_MattDamon.png', 'Im_LeonardoDiCaprio.png', 'Im_DanielCraig.png', 'Im_PatrickDempsey.png', 'Im_BenStiller.png', 'Im_RyanGosling.png'],same,0,1.1501181999997243,4,78.57142857142857,
MINA0205,6,inv,0,pos0_id14_im16.bmp_pos0_id14_im18.bmp,['Im_GeorgeClooney.png', 'Im_RobertPattinson.png', 'Im_BradPitt.png', 'Im_DanielRadcliffe.png', 'Im_MattDamon.png', 'Im_LeonardoDiCaprio.png', 'Im_DanielCraig.png', 'Im_PatrickDempsey.png', 'Im_BenStiller.png', 'Im_RyanGosling.png'],same,1,0.4090492999998787,5,78.57142857142857,
MINA0205,6,inv,90,pos90_id14_im24.bmp_pos90_id13_im29.bmp,['Im_GeorgeClooney.png', 'Im_RobertPattinson.png', 'Im_BradPitt.png', 'Im_DanielRadcliffe.png', 'Im_MattDamon.png', 'Im_LeonardoDiCaprio.png', 'Im_DanielCraig.png', 'Im_PatrickDempsey.png', 'Im_BenStiller.png', 'Im_RyanGosling.png'],same,0,0.42493560000002617,5,78.57142857142857,
MINA0205,6,inv,0,pos0_id20_im12.bmp_pos0_id14_im18.bmp,['Im_GeorgeClooney.png', 'Im_RobertPattinson.png', 'Im_BradPitt.png', 'Im_DanielRadcliffe.png', 'Im_MattDamon.png', 'Im_LeonardoDiCaprio.png', 'Im_DanielCraig.png', 'Im_PatrickDempsey.png', 'Im_BenStiller.png', 'Im_RyanGosling.png'],same,0,0.6334399000002122,5,78.57142857142857,
MINA0205,6,inv,30,pos30_id3_im17.bmp_pos30_id13_im10.bmp,['Im_GeorgeClooney.png', 'Im_RobertPattinson.png', 'Im_BradPitt.png', 'Im_DanielRadcliffe.png', 'Im_MattDamon.png', 'Im_LeonardoDiCaprio.png', 'Im_DanielCraig.png', 'Im_PatrickDempsey.png', 'Im_BenStiller.png', 'Im_RyanGosling.png'],diff,1,0.4501108999997996,6,78.57142857142857,
MINA0205,6,inv,fs,posfs_id14_im24.bmp_posfs_id13_im29.bmp,['Im_GeorgeClooney.png', 'Im_RobertPattinson.png', 'Im_BradPitt.png', 'Im_DanielRadcliffe.png', 'Im_MattDamon.png', 'Im_LeonardoDiCaprio.png', 'Im_DanielCraig.png', 'Im_PatrickDempsey.png', 'Im_BenStiller.png', 'Im_RyanGosling.png'],diff,1,0.5007432999996126,7,78.57142857142857,
MINA0205,6,inv,90,pos90_id5_im10.bmp_pos90_id17_im8.bmp,['Im_GeorgeClooney.png', 'Im_RobertPattinson.png', 'Im_BradPitt.png', 'Im_DanielRadcliffe.png', 'Im_MattDamon.png', 'Im_LeonardoDiCaprio.png', 'Im_DanielCraig.png', 'Im_PatrickDempsey.png', 'Im_BenStiller.png', 'Im_RyanGosling.png'],diff,1,0.41692620000003444,8,78.57142857142857,
MINA0205,6,inv,150,pos150_id3_im8.bmp_pos150_id7_im26.bmp,['Im_GeorgeClooney.png', 'Im_RobertPattinson.png', 'Im_BradPitt.png', 'Im_DanielRadcliffe.png', 'Im_MattDamon.png', 'Im_LeonardoDiCaprio.png', 'Im_DanielCraig.png', 'Im_PatrickDempsey.png', 'Im_BenStiller.png', 'Im_RyanGosling.png'],diff,1,0.6505329000001439,9,78.57142857142857,
MINA0205,6,inv,120,pos120_id19_im4.bmp_pos120_id4_im7.bmp,['Im_GeorgeClooney.png', 'Im_RobertPattinson.png', 'Im_BradPitt.png', 'Im_DanielRadcliffe.png', 'Im_MattDamon.png', 'Im_LeonardoDiCaprio.png', 'Im_DanielCraig.png', 'Im_PatrickDempsey.png', 'Im_BenStiller.png', 'Im_RyanGosling.png'],diff,1,0.42540710000002946,10,78.57142857142857,
MINA0205,7,neg,60,neg60_id20_im12.bmp_neg60_id20_im30.bmp,['Im_GeorgeClooney.png', 'Im_RobertPattinson.png', 'Im_BradPitt.png', 'Im_DanielRadcliffe.png', 'Im_MattDamon.png', 'Im_LeonardoDiCaprio.png', 'Im_DanielCraig.png', 'Im_PatrickDempsey.png', 'Im_BenStiller.png', 'Im_RyanGosling.png'],same,1,0.41697290000001885,11,78.57142857142857,
MINA0205,7,neg,0,neg0_id17_im14.bmp_neg0_id17_im8.bmp,['Im_GeorgeClooney.png', 'Im_RobertPattinson.png', 'Im_BradPitt.png', 'Im_DanielRadcliffe.png', 'Im_MattDamon.png', 'Im_LeonardoDiCaprio.png', 'Im_DanielCraig.png', 'Im_PatrickDempsey.png', 'Im_BenStiller.png', 'Im_RyanGosling.png'],same,1,0.42516109999996843,12,78.57142857142857,
MINA0205,7,neg,150,neg150_id13_im29.bmp_neg150_id14_im24.bmp,['Im_GeorgeClooney.png', 'Im_RobertPattinson.png', 'Im_BradPitt.png', 'Im_DanielRadcliffe.png', 'Im_MattDamon.png', 'Im_LeonardoDiCaprio.png', 'Im_DanielCraig.png', 'Im_PatrickDempsey.png', 'Im_BenStiller.png', 'Im_RyanGosling.png'],diff,1,0.4250611999996181,13,78.57142857142857,
MINA0205,7,neg,150,neg150_id7_im15.bmp_neg150_id7_im26.bmp,['Im_GeorgeClooney.png', 'Im_RobertPattinson.png', 'Im_BradPitt.png', 'Im_DanielRadcliffe.png', 'Im_MattDamon.png', 'Im_LeonardoDiCaprio.png', 'Im_DanielCraig.png', 'Im_PatrickDempsey.png', 'Im_BenStiller.png', 'Im_RyanGosling.png'],diff,0,0.4165477000001374,13,78.57142857142857,
MINA0205,7,neg,fs,negfs_id2_im2.bmp_negfs_id5_im20.bmp,['Im_GeorgeClooney.png', 'Im_RobertPattinson.png', 'Im_BradPitt.png', 'Im_DanielRadcliffe.png', 'Im_MattDamon.png', 'Im_LeonardoDiCaprio.png', 'Im_DanielCraig.png', 'Im_PatrickDempsey.png', 'Im_BenStiller.png', 'Im_RyanGosling.png'],diff,1,0.4166113999999652,14,78.57142857142857,
MINA0205,7,neg,0,neg0_id4_im7.bmp_neg0_id4_im20.bmp,['Im_GeorgeClooney.png', 'Im_RobertPattinson.png', 'Im_BradPitt.png', 'Im_DanielRadcliffe.png', 'Im_MattDamon.png', 'Im_LeonardoDiCaprio.png', 'Im_DanielCraig.png', 'Im_PatrickDempsey.png', 'Im_BenStiller.png', 'Im_RyanGosling.png'],same,1,0.6666967000001023,15,78.57142857142857,
MINA0205,7,neg,30,neg30_id3_im6.bmp_neg30_id3_im8.bmp,['Im_GeorgeClooney.png', 'Im_RobertPattinson.png', 'Im_BradPitt.png', 'Im_DanielRadcliffe.png', 'Im_MattDamon.png', 'Im_LeonardoDiCaprio.png', 'Im_DanielCraig.png', 'Im_PatrickDempsey.png', 'Im_BenStiller.png', 'Im_RyanGosling.png'],same,1,0.41674379999994926,16,78.57142857142857,
MINA0205,7,neg,60,neg60_id2_im16.bmp_neg60_id7_im15.bmp,['Im_GeorgeClooney.png', 'Im_RobertPattinson.png', 'Im_BradPitt.png', 'Im_DanielRadcliffe.png', 'Im_MattDamon.png', 'Im_LeonardoDiCaprio.png', 'Im_DanielCraig.png', 'Im_PatrickDempsey.png', 'Im_BenStiller.png', 'Im_RyanGosling.png'],same,0,0.4499943999999232,16,78.57142857142857,
MINA0205,7,neg,30,neg30_id3_im17.bmp_neg30_id3_im8.bmp,['Im_GeorgeClooney.png', 'Im_RobertPattinson.png', 'Im_BradPitt.png', 'Im_DanielRadcliffe.png', 'Im_MattDamon.png', 'Im_LeonardoDiCaprio.png', 'Im_DanielCraig.png', 'Im_PatrickDempsey.png', 'Im_BenStiller.png', 'Im_RyanGosling.png'],same,1,0.4249933000000965,17,78.57142857142857,
MINA0205,7,neg,fs,negfs_id3_im6.bmp_negfs_id13_im15.bmp,['Im_GeorgeClooney.png', 'Im_RobertPattinson.png', 'Im_BradPitt.png', 'Im_DanielRadcliffe.png', 'Im_MattDamon.png', 'Im_LeonardoDiCaprio.png', 'Im_DanielCraig.png', 'Im_PatrickDempsey.png', 'Im_BenStiller.png', 'Im_RyanGosling.png'],diff,1,0.4168123999997988,18,78.57142857142857,
MINA0205,7,neg,90,neg90_id3_im17.bmp_neg90_id3_im6.bmp,['Im_GeorgeClooney.png', 'Im_RobertPattinson.png', 'Im_BradPitt.png', 'Im_DanielRadcliffe.png', 'Im_MattDamon.png', 'Im_LeonardoDiCaprio.png', 'Im_DanielCraig.png', 'Im_PatrickDempsey.png', 'Im_BenStiller.png', 'Im_RyanGosling.png'],same,1,0.42505489999985,19,78.57142857142857,
MINA0205,7,neg,120,neg120_id13_im29.bmp_neg120_id13_im15.bmp,['Im_GeorgeClooney.png', 'Im_RobertPattinson.png', 'Im_BradPitt.png', 'Im_DanielRadcliffe.png', 'Im_MattDamon.png', 'Im_LeonardoDiCaprio.png', 'Im_DanielCraig.png', 'Im_PatrickDempsey.png', 'Im_BenStiller.png', 'Im_RyanGosling.png'],diff,0,0.41658630000029007,19,78.57142857142857,
MINA0205,7,neg,90,neg90_id7_im15.bmp_neg90_id20_im3.bmp,['Im_GeorgeClooney.png', 'Im_RobertPattinson.png', 'Im_BradPitt.png', 'Im_DanielRadcliffe.png', 'Im_MattDamon.png', 'Im_LeonardoDiCaprio.png', 'Im_DanielCraig.png', 'Im_PatrickDempsey.png', 'Im_BenStiller.png', 'Im_RyanGosling.png'],diff,1,1.2083130999999412,20,78.57142857142857,
MINA0205,7,neg,120,neg120_id17_im14.bmp_neg120_id5_im20.bmp,['Im_GeorgeClooney.png', 'Im_RobertPattinson.png', 'Im_BradPitt.png', 'Im_DanielRadcliffe.png', 'Im_MattDamon.png', 'Im_LeonardoDiCaprio.png', 'Im_DanielCraig.png', 'Im_PatrickDempsey.png', 'Im_BenStiller.png', 'Im_RyanGosling.png'],diff,1,0.4420618999997714,21,78.57142857142857,
MINA0205,8,pos,30,pos30_id20_im12.bmp_pos30_id20_im30.bmp,['Im_GeorgeClooney.png', 'Im_RobertPattinson.png', 'Im_BradPitt.png', 'Im_DanielRadcliffe.png', 'Im_MattDamon.png', 'Im_LeonardoDiCaprio.png', 'Im_DanielCraig.png', 'Im_PatrickDempsey.png', 'Im_BenStiller.png', 'Im_RyanGosling.png'],same,1,0.41663459999972474,22,78.57142857142857,
MINA0205,8,pos,60,pos60_id4_im20.bmp_pos60_id4_im7.bmp,['Im_GeorgeClooney.png', 'Im_RobertPattinson.png', 'Im_BradPitt.png', 'Im_DanielRadcliffe.png', 'Im_MattDamon.png', 'Im_LeonardoDiCaprio.png', 'Im_DanielCraig.png', 'Im_PatrickDempsey.png', 'Im_BenStiller.png', 'Im_RyanGosling.png'],same,1,0.4166947999997319,23,78.57142857142857,
MINA0205,8,pos,0,pos0_id2_im3.bmp_pos0_id2_im16.bmp,['Im_GeorgeClooney.png', 'Im_RobertPattinson.png', 'Im_BradPitt.png', 'Im_DanielRadcliffe.png', 'Im_MattDamon.png', 'Im_LeonardoDiCaprio.png', 'Im_DanielCraig.png', 'Im_PatrickDempsey.png', 'Im_BenStiller.png', 'Im_RyanGosling.png'],same,1,0.4167347999996309,24,78.57142857142857,
MINA0205,8,pos,30,pos30_id7_im26.bmp_pos30_id3_im8.bmp,['Im_GeorgeClooney.png', 'Im_RobertPattinson.png', 'Im_BradPitt.png', 'Im_DanielRadcliffe.png', 'Im_MattDamon.png', 'Im_LeonardoDiCaprio.png', 'Im_DanielCraig.png', 'Im_PatrickDempsey.png', 'Im_BenStiller.png', 'Im_RyanGosling.png'],diff,1,0.4250781000000643,25,78.57142857142857,
MINA0205,8,pos,150,pos150_id3_im8.bmp_pos150_id3_im17.bmp,['Im_GeorgeClooney.png', 'Im_RobertPattinson.png', 'Im_BradPitt.png', 'Im_DanielRadcliffe.png', 'Im_MattDamon.png', 'Im_LeonardoDiCaprio.png', 'Im_DanielCraig.png', 'Im_PatrickDempsey.png', 'Im_BenStiller.png', 'Im_RyanGosling.png'],same,1,0.6916980000000876,26,78.57142857142857,
MINA0205,8,pos,120,pos120_id17_im14.bmp_pos120_id5_im20.bmp,['Im_GeorgeClooney.png', 'Im_RobertPattinson.png', 'Im_BradPitt.png', 'Im_DanielRadcliffe.png', 'Im_MattDamon.png', 'Im_LeonardoDiCaprio.png', 'Im_DanielCraig.png', 'Im_PatrickDempsey.png', 'Im_BenStiller.png', 'Im_RyanGosling.png'],diff,1,0.4166149000002406,27,78.57142857142857,
MINA0205,8,pos,90,pos90_id5_im1.bmp_pos90_id13_im10.bmp,['Im_GeorgeClooney.png', 'Im_RobertPattinson.png', 'Im_BradPitt.png', 'Im_DanielRadcliffe.png', 'Im_MattDamon.png', 'Im_LeonardoDiCaprio.png', 'Im_DanielCraig.png', 'Im_PatrickDempsey.png', 'Im_BenStiller.png', 'Im_RyanGosling.png'],diff,1,0.40825169999970967,28,78.57142857142857,
MINA0205,8,pos,90,pos90_id17_im8.bmp_pos90_id17_im9.bmp,['Im_GeorgeClooney.png', 'Im_RobertPattinson.png', 'Im_BradPitt.png', 'Im_DanielRadcliffe.png', 'Im_MattDamon.png', 'Im_LeonardoDiCaprio.png', 'Im_DanielCraig.png', 'Im_PatrickDempsey.png', 'Im_BenStiller.png', 'Im_RyanGosling.png'],same,1,1.0084279000002425,29,78.57142857142857,
MINA0205,8,pos,fs,posfs_id5_im10.bmp_posfs_id17_im8.bmp,['Im_GeorgeClooney.png', 'Im_RobertPattinson.png', 'Im_BradPitt.png', 'Im_DanielRadcliffe.png', 'Im_MattDamon.png', 'Im_LeonardoDiCaprio.png', 'Im_DanielCraig.png', 'Im_PatrickDempsey.png', 'Im_BenStiller.png', 'Im_RyanGosling.png'],diff,1,1.0086562999999842,30,78.57142857142857,
MINA0205,8,pos,fs,posfs_id19_im4.bmp_posfs_id13_im15.bmp,['Im_GeorgeClooney.png', 'Im_RobertPattinson.png', 'Im_BradPitt.png', 'Im_DanielRadcliffe.png', 'Im_MattDamon.png', 'Im_LeonardoDiCaprio.png', 'Im_DanielCraig.png', 'Im_PatrickDempsey.png', 'Im_BenStiller.png', 'Im_RyanGosling.png'],diff,1,0.5422060999999303,31,78.57142857142857,
MINA0205,8,pos,0,pos0_id14_im18.bmp_pos0_id14_im24.bmp,['Im_GeorgeClooney.png', 'Im_RobertPattinson.png', 'Im_BradPitt.png', 'Im_DanielRadcliffe.png', 'Im_MattDamon.png', 'Im_LeonardoDiCaprio.png', 'Im_DanielCraig.png', 'Im_PatrickDempsey.png', 'Im_BenStiller.png', 'Im_RyanGosling.png'],same,1,0.44173559999990175,32,78.57142857142857,
MINA0205,8,pos,150,pos150_id4_im15.bmp_pos150_id4_im7.bmp,['Im_GeorgeClooney.png', 'Im_RobertPattinson.png', 'Im_BradPitt.png', 'Im_DanielRadcliffe.png', 'Im_MattDamon.png', 'Im_LeonardoDiCaprio.png', 'Im_DanielCraig.png', 'Im_PatrickDempsey.png', 'Im_BenStiller.png', 'Im_RyanGosling.png'],same,1,0.41671120000000883,33,78.57142857142857,
MINA0205,8,pos,60,pos60_id14_im18.bmp_pos60_id14_im24.bmp,['Im_GeorgeClooney.png', 'Im_RobertPattinson.png', 'Im_BradPitt.png', 'Im_DanielRadcliffe.png', 'Im_MattDamon.png', 'Im_LeonardoDiCaprio.png', 'Im_DanielCraig.png', 'Im_PatrickDempsey.png', 'Im_BenStiller.png', 'Im_RyanGosling.png'],same,1,0.42513700000017707,34,78.57142857142857,
MINA0205,8,pos,120,pos120_id3_im6.bmp_pos120_id13_im15.bmp,['Im_GeorgeClooney.png', 'Im_RobertPattinson.png', 'Im_BradPitt.png', 'Im_DanielRadcliffe.png', 'Im_MattDamon.png', 'Im_LeonardoDiCaprio.png', 'Im_DanielCraig.png', 'Im_PatrickDempsey.png', 'Im_BenStiller.png', 'Im_RyanGosling.png'],same,0,0.4332574999998542,34,78.57142857142857,
MINA0205,9,inv,60,pos60_id17_im9.bmp_pos60_id20_im30.bmp,['Im_GeorgeClooney.png', 'Im_RobertPattinson.png', 'Im_BradPitt.png', 'Im_DanielRadcliffe.png', 'Im_MattDamon.png', 'Im_LeonardoDiCaprio.png', 'Im_DanielCraig.png', 'Im_PatrickDempsey.png', 'Im_BenStiller.png', 'Im_RyanGosling.png'],diff,1,0.41672550000021147,1,80.95238095238095,
MINA0205,9,inv,fs,posfs_id4_im15.bmp_posfs_id20_im12.bmp,['Im_GeorgeClooney.png', 'Im_RobertPattinson.png', 'Im_BradPitt.png', 'Im_DanielRadcliffe.png', 'Im_MattDamon.png', 'Im_LeonardoDiCaprio.png', 'Im_DanielCraig.png', 'Im_PatrickDempsey.png', 'Im_BenStiller.png', 'Im_RyanGosling.png'],diff,1,0.4250059999999394,2,80.95238095238095,
MINA0205,9,inv,120,pos120_id19_im8.bmp_pos120_id19_im27.bmp,['Im_GeorgeClooney.png', 'Im_RobertPattinson.png', 'Im_BradPitt.png', 'Im_DanielRadcliffe.png', 'Im_MattDamon.png', 'Im_LeonardoDiCaprio.png', 'Im_DanielCraig.png', 'Im_PatrickDempsey.png', 'Im_BenStiller.png', 'Im_RyanGosling.png'],same,1,0.4250127000000248,3,80.95238095238095,
MINA0205,9,inv,150,pos150_id4_im7.bmp_pos150_id19_im4.bmp,['Im_GeorgeClooney.png', 'Im_RobertPattinson.png', 'Im_BradPitt.png', 'Im_DanielRadcliffe.png', 'Im_MattDamon.png', 'Im_LeonardoDiCaprio.png', 'Im_DanielCraig.png', 'Im_PatrickDempsey.png', 'Im_BenStiller.png', 'Im_RyanGosling.png'],diff,1,0.425138799999786,4,80.95238095238095,
MINA0205,9,inv,60,pos60_id20_im12.bmp_pos60_id20_im30.bmp,['Im_GeorgeClooney.png', 'Im_RobertPattinson.png', 'Im_BradPitt.png', 'Im_DanielRadcliffe.png', 'Im_MattDamon.png', 'Im_LeonardoDiCaprio.png', 'Im_DanielCraig.png', 'Im_PatrickDempsey.png', 'Im_BenStiller.png', 'Im_RyanGosling.png'],same,1,0.5086059000000205,5,80.95238095238095,
MINA0205,9,inv,fs,posfs_id20_im3.bmp_posfs_id20_im12.bmp,['Im_GeorgeClooney.png', 'Im_RobertPattinson.png', 'Im_BradPitt.png', 'Im_DanielRadcliffe.png', 'Im_MattDamon.png', 'Im_LeonardoDiCaprio.png', 'Im_DanielCraig.png', 'Im_PatrickDempsey.png', 'Im_BenStiller.png', 'Im_RyanGosling.png'],same,1,0.4085080999998354,6,80.95238095238095,
MINA0205,9,inv,30,pos30_id2_im3.bmp_pos30_id2_im16.bmp,['Im_GeorgeClooney.png', 'Im_RobertPattinson.png', 'Im_BradPitt.png', 'Im_DanielRadcliffe.png', 'Im_MattDamon.png', 'Im_LeonardoDiCaprio.png', 'Im_DanielCraig.png', 'Im_PatrickDempsey.png', 'Im_BenStiller.png', 'Im_RyanGosling.png'],same,1,0.40847519999988435,7,80.95238095238095,
MINA0205,9,inv,120,pos120_id5_im1.bmp_pos120_id4_im15.bmp,['Im_GeorgeClooney.png', 'Im_RobertPattinson.png', 'Im_BradPitt.png', 'Im_DanielRadcliffe.png', 'Im_MattDamon.png', 'Im_LeonardoDiCaprio.png', 'Im_DanielCraig.png', 'Im_PatrickDempsey.png', 'Im_BenStiller.png', 'Im_RyanGosling.png'],diff,1,0.4166597000003094,8,80.95238095238095,
MINA0205,9,inv,30,pos30_id19_im8.bmp_pos30_id19_im27.bmp,['Im_GeorgeClooney.png', 'Im_RobertPattinson.png', 'Im_BradPitt.png', 'Im_DanielRadcliffe.png', 'Im_MattDamon.png', 'Im_LeonardoDiCaprio.png', 'Im_DanielCraig.png', 'Im_PatrickDempsey.png', 'Im_BenStiller.png', 'Im_RyanGosling.png'],same,1,0.44998820000000705,9,80.95238095238095,
MINA0205,9,inv,90,pos90_id3_im6.bmp_pos90_id3_im8.bmp,['Im_GeorgeClooney.png', 'Im_RobertPattinson.png', 'Im_BradPitt.png', 'Im_DanielRadcliffe.png', 'Im_MattDamon.png', 'Im_LeonardoDiCaprio.png', 'Im_DanielCraig.png', 'Im_PatrickDempsey.png', 'Im_BenStiller.png', 'Im_RyanGosling.png'],same,1,0.4167203000001791,10,80.95238095238095,
MINA0205,9,inv,90,pos90_id5_im10.bmp_pos90_id2_im2.bmp,['Im_GeorgeClooney.png', 'Im_RobertPattinson.png', 'Im_BradPitt.png', 'Im_DanielRadcliffe.png', 'Im_MattDamon.png', 'Im_LeonardoDiCaprio.png', 'Im_DanielCraig.png', 'Im_PatrickDempsey.png', 'Im_BenStiller.png', 'Im_RyanGosling.png'],diff,1,0.425048400000378,11,80.95238095238095,
MINA0205,9,inv,0,pos0_id13_im10.bmp_pos0_id3_im17.bmp,['Im_GeorgeClooney.png', 'Im_RobertPattinson.png', 'Im_BradPitt.png', 'Im_DanielRadcliffe.png', 'Im_MattDamon.png', 'Im_LeonardoDiCaprio.png', 'Im_DanielCraig.png', 'Im_PatrickDempsey.png', 'Im_BenStiller.png', 'Im_RyanGosling.png'],same,0,0.4833742999999231,11,80.95238095238095,
MINA0205,9,inv,150,pos150_id5_im20.bmp_pos150_id17_im14.bmp,['Im_GeorgeClooney.png', 'Im_RobertPattinson.png', 'Im_BradPitt.png', 'Im_DanielRadcliffe.png', 'Im_MattDamon.png', 'Im_LeonardoDiCaprio.png', 'Im_DanielCraig.png', 'Im_PatrickDempsey.png', 'Im_BenStiller.png', 'Im_RyanGosling.png'],diff,1,0.9918608000002678,12,80.95238095238095,
MINA0205,9,inv,0,pos0_id4_im7.bmp_pos0_id4_im15.bmp,['Im_GeorgeClooney.png', 'Im_RobertPattinson.png', 'Im_BradPitt.png', 'Im_DanielRadcliffe.png', 'Im_MattDamon.png', 'Im_LeonardoDiCaprio.png', 'Im_DanielCraig.png', 'Im_PatrickDempsey.png', 'Im_BenStiller.png', 'Im_RyanGosling.png'],diff,0,0.4336526000001868,12,80.95238095238095,
MINA0205,10,pos,0,pos0_id20_im30.bmp_pos0_id17_im9.bmp,['Im_GeorgeClooney.png', 'Im_RobertPattinson.png', 'Im_BradPitt.png', 'Im_DanielRadcliffe.png', 'Im_MattDamon.png', 'Im_LeonardoDiCaprio.png', 'Im_DanielCraig.png', 'Im_PatrickDempsey.png', 'Im_BenStiller.png', 'Im_RyanGosling.png'],diff,1,0.5334010000001399,13,80.95238095238095,
MINA0205,10,pos,fs,posfs_id20_im3.bmp_posfs_id20_im30.bmp,['Im_GeorgeClooney.png', 'Im_RobertPattinson.png', 'Im_BradPitt.png', 'Im_DanielRadcliffe.png', 'Im_MattDamon.png', 'Im_LeonardoDiCaprio.png', 'Im_DanielCraig.png', 'Im_PatrickDempsey.png', 'Im_BenStiller.png', 'Im_RyanGosling.png'],same,1,0.4083693000002313,14,80.95238095238095,
MINA0205,10,pos,60,pos60_id4_im7.bmp_pos60_id19_im8.bmp,['Im_GeorgeClooney.png', 'Im_RobertPattinson.png', 'Im_BradPitt.png', 'Im_DanielRadcliffe.png', 'Im_MattDamon.png', 'Im_LeonardoDiCaprio.png', 'Im_DanielCraig.png', 'Im_PatrickDempsey.png', 'Im_BenStiller.png', 'Im_RyanGosling.png'],diff,1,0.42500079999990703,15,80.95238095238095,
