Sujet,Trial,Condition,Filter,Imname,Actor0,Actor1,Actor2,Actor3,Actor4,Actor5,Actor6,Actor7,Actor8,Actor9,Answer,Accu,RT,Score,Scoreperc, 
MINA0205,train,pos,fs,posfs_id7_im15.bmp_posfs_id7_im26.bmp,['Im_RyanGosling.png', 'Im_LeonardoDiCaprio.png', 'Im_RobertPattinson.png', 'Im_PatrickDempsey.png', 'Im_BenStiller.png', 'Im_BradPitt.png', 'Im_DanielRadcliffe.png', 'Im_GeorgeClooney.png', 'Im_DanielCraig.png', 'Im_MattDamon.png'],diff,0,2.0668350999999916,0,0,
MINA0205,train,pos,fs,posfs_id3_im6.bmp_posfs_id3_im8.bmp,['Im_RyanGosling.png', 'Im_LeonardoDiCaprio.png', 'Im_RobertPattinson.png', 'Im_PatrickDempsey.png', 'Im_BenStiller.png', 'Im_BradPitt.png', 'Im_DanielRadcliffe.png', 'Im_GeorgeClooney.png', 'Im_DanielCraig.png', 'Im_MattDamon.png'],same,1,0.40837419999999724,1,0,
MINA0205,train,pos,120,pos120_id13_im15.bmp_pos120_id19_im4.bmp,['Im_RyanGosling.png', 'Im_LeonardoDiCaprio.png', 'Im_RobertPattinson.png', 'Im_PatrickDempsey.png', 'Im_BenStiller.png', 'Im_BradPitt.png', 'Im_DanielRadcliffe.png', 'Im_GeorgeClooney.png', 'Im_DanielCraig.png', 'Im_MattDamon.png'],diff,1,0.6332742999999823,2,0,
MINA0205,train,pos,90,pos90_id19_im4.bmp_pos90_id4_im7.bmp,['Im_RyanGosling.png', 'Im_LeonardoDiCaprio.png', 'Im_RobertPattinson.png', 'Im_PatrickDempsey.png', 'Im_BenStiller.png', 'Im_BradPitt.png', 'Im_DanielRadcliffe.png', 'Im_GeorgeClooney.png', 'Im_DanielCraig.png', 'Im_MattDamon.png'],diff,1,0.41672300000001883,3,0,
MINA0205,train,pos,120,pos120_id2_im2.bmp_pos120_id5_im10.bmp,['Im_RyanGosling.png', 'Im_LeonardoDiCaprio.png', 'Im_RobertPattinson.png', 'Im_PatrickDempsey.png', 'Im_BenStiller.png', 'Im_BradPitt.png', 'Im_DanielRadcliffe.png', 'Im_GeorgeClooney.png', 'Im_DanielCraig.png', 'Im_MattDamon.png'],diff,1,0.4167018999999925,4,0,
MINA0205,train,pos,60,pos60_id20_im12.bmp_pos60_id20_im3.bmp,['Im_RyanGosling.png', 'Im_LeonardoDiCaprio.png', 'Im_RobertPattinson.png', 'Im_PatrickDempsey.png', 'Im_BenStiller.png', 'Im_BradPitt.png', 'Im_DanielRadcliffe.png', 'Im_GeorgeClooney.png', 'Im_DanielCraig.png', 'Im_MattDamon.png'],same,1,0.7332236999999964,5,0,
MINA0205,train,pos,150,pos150_id19_im27.bmp_pos150_id19_im4.bmp,['Im_RyanGosling.png', 'Im_LeonardoDiCaprio.png', 'Im_RobertPattinson.png', 'Im_PatrickDempsey.png', 'Im_BenStiller.png', 'Im_BradPitt.png', 'Im_DanielRadcliffe.png', 'Im_GeorgeClooney.png', 'Im_DanielCraig.png', 'Im_MattDamon.png'],same,1,0.4168540000000007,6,0,
MINA0205,train,pos,90,pos90_id13_im10.bmp_pos90_id13_im29.bmp,['Im_RyanGosling.png', 'Im_LeonardoDiCaprio.png', 'Im_RobertPattinson.png', 'Im_PatrickDempsey.png', 'Im_BenStiller.png', 'Im_BradPitt.png', 'Im_DanielRadcliffe.png', 'Im_GeorgeClooney.png', 'Im_DanielCraig.png', 'Im_MattDamon.png'],same,1,0.5007254999999873,7,0,
MINA0205,train,pos,0,pos0_id14_im16.bmp_pos0_id14_im24.bmp,['Im_RyanGosling.png', 'Im_LeonardoDiCaprio.png', 'Im_RobertPattinson.png', 'Im_PatrickDempsey.png', 'Im_BenStiller.png', 'Im_BradPitt.png', 'Im_DanielRadcliffe.png', 'Im_GeorgeClooney.png', 'Im_DanielCraig.png', 'Im_MattDamon.png'],diff,0,0.6419923000000267,7,0,
MINA0205,train,pos,150,pos150_id4_im7.bmp_pos150_id19_im4.bmp,['Im_RyanGosling.png', 'Im_LeonardoDiCaprio.png', 'Im_RobertPattinson.png', 'Im_PatrickDempsey.png', 'Im_BenStiller.png', 'Im_BradPitt.png', 'Im_DanielRadcliffe.png', 'Im_GeorgeClooney.png', 'Im_DanielCraig.png', 'Im_MattDamon.png'],diff,1,0.41654510000000755,8,0,
MINA0205,train,pos,0,pos0_id4_im20.bmp_pos0_id7_im14.bmp,['Im_RyanGosling.png', 'Im_LeonardoDiCaprio.png', 'Im_RobertPattinson.png', 'Im_PatrickDempsey.png', 'Im_BenStiller.png', 'Im_BradPitt.png', 'Im_DanielRadcliffe.png', 'Im_GeorgeClooney.png', 'Im_DanielCraig.png', 'Im_MattDamon.png'],diff,1,0.41671060000004445,9,0,
MINA0205,train,pos,60,pos60_id2_im3.bmp_pos60_id13_im29.bmp,['Im_RyanGosling.png', 'Im_LeonardoDiCaprio.png', 'Im_RobertPattinson.png', 'Im_PatrickDempsey.png', 'Im_BenStiller.png', 'Im_BradPitt.png', 'Im_DanielRadcliffe.png', 'Im_GeorgeClooney.png', 'Im_DanielCraig.png', 'Im_MattDamon.png'],diff,1,0.48350440000001527,10,0,
MINA0205,train,pos,30,pos30_id7_im26.bmp_pos30_id7_im15.bmp,['Im_RyanGosling.png', 'Im_LeonardoDiCaprio.png', 'Im_RobertPattinson.png', 'Im_PatrickDempsey.png', 'Im_BenStiller.png', 'Im_BradPitt.png', 'Im_DanielRadcliffe.png', 'Im_GeorgeClooney.png', 'Im_DanielCraig.png', 'Im_MattDamon.png'],same,1,0.5083338999999683,11,0,
MINA0205,train,pos,30,pos30_id17_im14.bmp_pos30_id5_im20.bmp,['Im_RyanGosling.png', 'Im_LeonardoDiCaprio.png', 'Im_RobertPattinson.png', 'Im_PatrickDempsey.png', 'Im_BenStiller.png', 'Im_BradPitt.png', 'Im_DanielRadcliffe.png', 'Im_GeorgeClooney.png', 'Im_DanielCraig.png', 'Im_MattDamon.png'],diff,1,0.5998570999999515,12,0,
MINA0205,train,pos,fs,posfs_id17_im9.bmp_posfs_id20_im30.bmp,['Im_RyanGosling.png', 'Im_LeonardoDiCaprio.png', 'Im_RobertPattinson.png', 'Im_PatrickDempsey.png', 'Im_BenStiller.png', 'Im_BradPitt.png', 'Im_DanielRadcliffe.png', 'Im_GeorgeClooney.png', 'Im_DanielCraig.png', 'Im_MattDamon.png'],diff,1,0.41647199999999884,13,0,
MINA0205,train,pos,60,pos60_id7_im14.bmp_pos60_id7_im15.bmp,['Im_RyanGosling.png', 'Im_LeonardoDiCaprio.png', 'Im_RobertPattinson.png', 'Im_PatrickDempsey.png', 'Im_BenStiller.png', 'Im_BradPitt.png', 'Im_DanielRadcliffe.png', 'Im_GeorgeClooney.png', 'Im_DanielCraig.png', 'Im_MattDamon.png'],same,1,0.4669799999999782,14,0,
MINA0205,train,pos,0,pos0_id20_im3.bmp_pos0_id20_im12.bmp,['Im_RyanGosling.png', 'Im_LeonardoDiCaprio.png', 'Im_RobertPattinson.png', 'Im_PatrickDempsey.png', 'Im_BenStiller.png', 'Im_BradPitt.png', 'Im_DanielRadcliffe.png', 'Im_GeorgeClooney.png', 'Im_DanielCraig.png', 'Im_MattDamon.png'],same,1,0.4168617999999924,15,0,
MINA0205,train,pos,90,pos90_id5_im20.bmp_pos90_id5_im1.bmp,['Im_RyanGosling.png', 'Im_LeonardoDiCaprio.png', 'Im_RobertPattinson.png', 'Im_PatrickDempsey.png', 'Im_BenStiller.png', 'Im_BradPitt.png', 'Im_DanielRadcliffe.png', 'Im_GeorgeClooney.png', 'Im_DanielCraig.png', 'Im_MattDamon.png'],same,1,0.4082055000000082,16,0,
MINA0205,train,pos,0,pos0_id5_im20.bmp_pos0_id5_im1.bmp,['Im_RyanGosling.png', 'Im_LeonardoDiCaprio.png', 'Im_RobertPattinson.png', 'Im_PatrickDempsey.png', 'Im_BenStiller.png', 'Im_BradPitt.png', 'Im_DanielRadcliffe.png', 'Im_GeorgeClooney.png', 'Im_DanielCraig.png', 'Im_MattDamon.png'],same,1,0.41675259999999525,17,0,
MINA0205,train,pos,120,pos120_id20_im3.bmp_pos120_id7_im26.bmp,['Im_RyanGosling.png', 'Im_LeonardoDiCaprio.png', 'Im_RobertPattinson.png', 'Im_PatrickDempsey.png', 'Im_BenStiller.png', 'Im_BradPitt.png', 'Im_DanielRadcliffe.png', 'Im_GeorgeClooney.png', 'Im_DanielCraig.png', 'Im_MattDamon.png'],diff,1,0.4331055000000106,18,0,
MINA0205,train,pos,30,pos30_id13_im10.bmp_pos30_id5_im1.bmp,['Im_RyanGosling.png', 'Im_LeonardoDiCaprio.png', 'Im_RobertPattinson.png', 'Im_PatrickDempsey.png', 'Im_BenStiller.png', 'Im_BradPitt.png', 'Im_DanielRadcliffe.png', 'Im_GeorgeClooney.png', 'Im_DanielCraig.png', 'Im_MattDamon.png'],diff,1,0.4084058999999911,19,0,
MINA0205,train,pos,90,pos90_id3_im17.bmp_pos90_id3_im6.bmp,['Im_RyanGosling.png', 'Im_LeonardoDiCaprio.png', 'Im_RobertPattinson.png', 'Im_PatrickDempsey.png', 'Im_BenStiller.png', 'Im_BradPitt.png', 'Im_DanielRadcliffe.png', 'Im_GeorgeClooney.png', 'Im_DanielCraig.png', 'Im_MattDamon.png'],same,1,0.7105351999999812,20,0,
MINA0205,train,pos,fs,posfs_id2_im3.bmp_posfs_id13_im29.bmp,['Im_RyanGosling.png', 'Im_LeonardoDiCaprio.png', 'Im_RobertPattinson.png', 'Im_PatrickDempsey.png', 'Im_BenStiller.png', 'Im_BradPitt.png', 'Im_DanielRadcliffe.png', 'Im_GeorgeClooney.png', 'Im_DanielCraig.png', 'Im_MattDamon.png'],diff,1,0.43342219999999543,21,0,
MINA0205,train,pos,30,pos30_id4_im20.bmp_pos30_id2_im3.bmp,['Im_RyanGosling.png', 'Im_LeonardoDiCaprio.png', 'Im_RobertPattinson.png', 'Im_PatrickDempsey.png', 'Im_BenStiller.png', 'Im_BradPitt.png', 'Im_DanielRadcliffe.png', 'Im_GeorgeClooney.png', 'Im_DanielCraig.png', 'Im_MattDamon.png'],diff,1,0.416724400000021,22,0,
MINA0205,train,pos,60,pos60_id4_im7.bmp_pos60_id19_im4.bmp,['Im_RyanGosling.png', 'Im_LeonardoDiCaprio.png', 'Im_RobertPattinson.png', 'Im_PatrickDempsey.png', 'Im_BenStiller.png', 'Im_BradPitt.png', 'Im_DanielRadcliffe.png', 'Im_GeorgeClooney.png', 'Im_DanielCraig.png', 'Im_MattDamon.png'],diff,1,0.4001818000000412,23,0,
MINA0205,train,pos,120,pos120_id13_im10.bmp_pos120_id13_im29.bmp,['Im_RyanGosling.png', 'Im_LeonardoDiCaprio.png', 'Im_RobertPattinson.png', 'Im_PatrickDempsey.png', 'Im_BenStiller.png', 'Im_BradPitt.png', 'Im_DanielRadcliffe.png', 'Im_GeorgeClooney.png', 'Im_DanielCraig.png', 'Im_MattDamon.png'],same,1,0.4754105000000095,24,0,
MINA0205,train,pos,150,pos150_id7_im14.bmp_pos150_id7_im15.bmp,['Im_RyanGosling.png', 'Im_LeonardoDiCaprio.png', 'Im_RobertPattinson.png', 'Im_PatrickDempsey.png', 'Im_BenStiller.png', 'Im_BradPitt.png', 'Im_DanielRadcliffe.png', 'Im_GeorgeClooney.png', 'Im_DanielCraig.png', 'Im_MattDamon.png'],same,1,0.8580776000000014,25,0,
MINA0205,train,pos,150,pos150_id4_im7.bmp_pos150_id4_im20.bmp,['Im_RyanGosling.png', 'Im_LeonardoDiCaprio.png', 'Im_RobertPattinson.png', 'Im_PatrickDempsey.png', 'Im_BenStiller.png', 'Im_BradPitt.png', 'Im_DanielRadcliffe.png', 'Im_GeorgeClooney.png', 'Im_DanielCraig.png', 'Im_MattDamon.png'],same,1,0.4177680000000237,26,0,
MINA0205,train,neg,90,neg90_id17_im8.bmp_neg90_id5_im10.bmp,['Im_RyanGosling.png', 'Im_LeonardoDiCaprio.png', 'Im_RobertPattinson.png', 'Im_PatrickDempsey.png', 'Im_BenStiller.png', 'Im_BradPitt.png', 'Im_DanielRadcliffe.png', 'Im_GeorgeClooney.png', 'Im_DanielCraig.png', 'Im_MattDamon.png'],diff,1,0.4166048999999816,27,0,
MINA0205,train,neg,120,neg120_id14_im18.bmp_neg120_id20_im12.bmp,['Im_RyanGosling.png', 'Im_LeonardoDiCaprio.png', 'Im_RobertPattinson.png', 'Im_PatrickDempsey.png', 'Im_BenStiller.png', 'Im_BradPitt.png', 'Im_DanielRadcliffe.png', 'Im_GeorgeClooney.png', 'Im_DanielCraig.png', 'Im_MattDamon.png'],diff,1,0.6836117000000286,28,0,
MINA0205,train,neg,0,neg0_id14_im24.bmp_neg0_id14_im16.bmp,['Im_RyanGosling.png', 'Im_LeonardoDiCaprio.png', 'Im_RobertPattinson.png', 'Im_PatrickDempsey.png', 'Im_BenStiller.png', 'Im_BradPitt.png', 'Im_DanielRadcliffe.png', 'Im_GeorgeClooney.png', 'Im_DanielCraig.png', 'Im_MattDamon.png'],same,1,0.4085234999999443,29,0,
MINA0205,train,neg,150,neg150_id7_im14.bmp_neg150_id7_im15.bmp,['Im_RyanGosling.png', 'Im_LeonardoDiCaprio.png', 'Im_RobertPattinson.png', 'Im_PatrickDempsey.png', 'Im_BenStiller.png', 'Im_BradPitt.png', 'Im_DanielRadcliffe.png', 'Im_GeorgeClooney.png', 'Im_DanielCraig.png', 'Im_MattDamon.png'],diff,0,0.3998000999999931,29,0,
MINA0205,train,neg,fs,negfs_id5_im20.bmp_negfs_id5_im1.bmp,['Im_RyanGosling.png', 'Im_LeonardoDiCaprio.png', 'Im_RobertPattinson.png', 'Im_PatrickDempsey.png', 'Im_BenStiller.png', 'Im_BradPitt.png', 'Im_DanielRadcliffe.png', 'Im_GeorgeClooney.png', 'Im_DanielCraig.png', 'Im_MattDamon.png'],same,1,0.4083564000000024,30,0,
MINA0205,train,neg,fs,negfs_id4_im15.bmp_negfs_id5_im1.bmp,['Im_RyanGosling.png', 'Im_LeonardoDiCaprio.png', 'Im_RobertPattinson.png', 'Im_PatrickDempsey.png', 'Im_BenStiller.png', 'Im_BradPitt.png', 'Im_DanielRadcliffe.png', 'Im_GeorgeClooney.png', 'Im_DanielCraig.png', 'Im_MattDamon.png'],diff,1,0.4168328000000088,31,0,
MINA0205,train,neg,30,neg30_id14_im24.bmp_neg30_id14_im18.bmp,['Im_RyanGosling.png', 'Im_LeonardoDiCaprio.png', 'Im_RobertPattinson.png', 'Im_PatrickDempsey.png', 'Im_BenStiller.png', 'Im_BradPitt.png', 'Im_DanielRadcliffe.png', 'Im_GeorgeClooney.png', 'Im_DanielCraig.png', 'Im_MattDamon.png'],same,1,0.4166792999999984,32,0,
MINA0205,train,neg,0,neg0_id13_im15.bmp_neg0_id19_im4.bmp,['Im_RyanGosling.png', 'Im_LeonardoDiCaprio.png', 'Im_RobertPattinson.png', 'Im_PatrickDempsey.png', 'Im_BenStiller.png', 'Im_BradPitt.png', 'Im_DanielRadcliffe.png', 'Im_GeorgeClooney.png', 'Im_DanielCraig.png', 'Im_MattDamon.png'],same,0,0.411572700000022,32,0,
MINA0205,train,neg,120,neg120_id3_im17.bmp_neg120_id3_im8.bmp,['Im_RyanGosling.png', 'Im_LeonardoDiCaprio.png', 'Im_RobertPattinson.png', 'Im_PatrickDempsey.png', 'Im_BenStiller.png', 'Im_BradPitt.png', 'Im_DanielRadcliffe.png', 'Im_GeorgeClooney.png', 'Im_DanielCraig.png', 'Im_MattDamon.png'],diff,0,1.266267800000037,32,0,
MINA0205,train,neg,90,neg90_id2_im3.bmp_neg90_id13_im29.bmp,['Im_RyanGosling.png', 'Im_LeonardoDiCaprio.png', 'Im_RobertPattinson.png', 'Im_PatrickDempsey.png', 'Im_BenStiller.png', 'Im_BradPitt.png', 'Im_DanielRadcliffe.png', 'Im_GeorgeClooney.png', 'Im_DanielCraig.png', 'Im_MattDamon.png'],diff,1,0.46712939999997616,33,0,
MINA0205,train,neg,60,neg60_id4_im15.bmp_neg60_id20_im12.bmp,['Im_RyanGosling.png', 'Im_LeonardoDiCaprio.png', 'Im_RobertPattinson.png', 'Im_PatrickDempsey.png', 'Im_BenStiller.png', 'Im_BradPitt.png', 'Im_DanielRadcliffe.png', 'Im_GeorgeClooney.png', 'Im_DanielCraig.png', 'Im_MattDamon.png'],diff,1,0.7836085000000139,34,0,
MINA0205,train,neg,30,neg30_id14_im18.bmp_neg30_id14_im16.bmp,['Im_RyanGosling.png', 'Im_LeonardoDiCaprio.png', 'Im_RobertPattinson.png', 'Im_PatrickDempsey.png', 'Im_BenStiller.png', 'Im_BradPitt.png', 'Im_DanielRadcliffe.png', 'Im_GeorgeClooney.png', 'Im_DanielCraig.png', 'Im_MattDamon.png'],same,1,0.6587724999999978,35,0,
MINA0205,train,neg,60,neg60_id5_im20.bmp_neg60_id5_im10.bmp,['Im_RyanGosling.png', 'Im_LeonardoDiCaprio.png', 'Im_RobertPattinson.png', 'Im_PatrickDempsey.png', 'Im_BenStiller.png', 'Im_BradPitt.png', 'Im_DanielRadcliffe.png', 'Im_GeorgeClooney.png', 'Im_DanielCraig.png', 'Im_MattDamon.png'],diff,0,1.0337470000000053,35,0,
MINA0205,train,neg,150,neg150_id17_im8.bmp_neg150_id14_im16.bmp,['Im_RyanGosling.png', 'Im_LeonardoDiCaprio.png', 'Im_RobertPattinson.png', 'Im_PatrickDempsey.png', 'Im_BenStiller.png', 'Im_BradPitt.png', 'Im_DanielRadcliffe.png', 'Im_GeorgeClooney.png', 'Im_DanielCraig.png', 'Im_MattDamon.png'],same,0,1.050077299999998,35,0,
MINA0205,train,inv,60,pos60_id19_im8.bmp_pos60_id19_im4.bmp,['Im_RyanGosling.png', 'Im_LeonardoDiCaprio.png', 'Im_RobertPattinson.png', 'Im_PatrickDempsey.png', 'Im_BenStiller.png', 'Im_BradPitt.png', 'Im_DanielRadcliffe.png', 'Im_GeorgeClooney.png', 'Im_DanielCraig.png', 'Im_MattDamon.png'],same,1,0.4167863000000125,1,83.33333333333333,
MINA0205,train,inv,90,pos90_id19_im27.bmp_pos90_id14_im18.bmp,['Im_RyanGosling.png', 'Im_LeonardoDiCaprio.png', 'Im_RobertPattinson.png', 'Im_PatrickDempsey.png', 'Im_BenStiller.png', 'Im_BradPitt.png', 'Im_DanielRadcliffe.png', 'Im_GeorgeClooney.png', 'Im_DanielCraig.png', 'Im_MattDamon.png'],diff,1,0.4327764999999886,2,83.33333333333333,
MINA0205,train,inv,fs,posfs_id7_im26.bmp_posfs_id20_im3.bmp,['Im_RyanGosling.png', 'Im_LeonardoDiCaprio.png', 'Im_RobertPattinson.png', 'Im_PatrickDempsey.png', 'Im_BenStiller.png', 'Im_BradPitt.png', 'Im_DanielRadcliffe.png', 'Im_GeorgeClooney.png', 'Im_DanielCraig.png', 'Im_MattDamon.png'],diff,1,0.40835149999998066,3,83.33333333333333,
MINA0205,train,inv,0,pos0_id3_im17.bmp_pos0_id14_im24.bmp,['Im_RyanGosling.png', 'Im_LeonardoDiCaprio.png', 'Im_RobertPattinson.png', 'Im_PatrickDempsey.png', 'Im_BenStiller.png', 'Im_BradPitt.png', 'Im_DanielRadcliffe.png', 'Im_GeorgeClooney.png', 'Im_DanielCraig.png', 'Im_MattDamon.png'],same,0,0.48391329999998334,3,83.33333333333333,
MINA0205,train,inv,30,pos30_id5_im1.bmp_pos30_id5_im10.bmp,['Im_RyanGosling.png', 'Im_LeonardoDiCaprio.png', 'Im_RobertPattinson.png', 'Im_PatrickDempsey.png', 'Im_BenStiller.png', 'Im_BradPitt.png', 'Im_DanielRadcliffe.png', 'Im_GeorgeClooney.png', 'Im_DanielCraig.png', 'Im_MattDamon.png'],same,1,0.434198600000002,4,83.33333333333333,
MINA0205,train,inv,90,pos90_id20_im3.bmp_pos90_id7_im15.bmp,['Im_RyanGosling.png', 'Im_LeonardoDiCaprio.png', 'Im_RobertPattinson.png', 'Im_PatrickDempsey.png', 'Im_BenStiller.png', 'Im_BradPitt.png', 'Im_DanielRadcliffe.png', 'Im_GeorgeClooney.png', 'Im_DanielCraig.png', 'Im_MattDamon.png'],same,0,0.4166005000000155,4,83.33333333333333,
MINA0205,train,inv,150,pos150_id4_im20.bmp_pos150_id2_im3.bmp,['Im_RyanGosling.png', 'Im_LeonardoDiCaprio.png', 'Im_RobertPattinson.png', 'Im_PatrickDempsey.png', 'Im_BenStiller.png', 'Im_BradPitt.png', 'Im_DanielRadcliffe.png', 'Im_GeorgeClooney.png', 'Im_DanielCraig.png', 'Im_MattDamon.png'],diff,1,0.624916799999994,5,83.33333333333333,
MINA0205,train,inv,150,pos150_id20_im12.bmp_pos150_id4_im15.bmp,['Im_RyanGosling.png', 'Im_LeonardoDiCaprio.png', 'Im_RobertPattinson.png', 'Im_PatrickDempsey.png', 'Im_BenStiller.png', 'Im_BradPitt.png', 'Im_DanielRadcliffe.png', 'Im_GeorgeClooney.png', 'Im_DanielCraig.png', 'Im_MattDamon.png'],diff,1,1.1451251999999954,6,83.33333333333333,
MINA0205,train,inv,30,pos30_id5_im1.bmp_pos30_id13_im10.bmp,['Im_RyanGosling.png', 'Im_LeonardoDiCaprio.png', 'Im_RobertPattinson.png', 'Im_PatrickDempsey.png', 'Im_BenStiller.png', 'Im_BradPitt.png', 'Im_DanielRadcliffe.png', 'Im_GeorgeClooney.png', 'Im_DanielCraig.png', 'Im_MattDamon.png'],diff,1,0.47703689999997323,7,83.33333333333333,
MINA0205,train,inv,60,pos60_id5_im10.bmp_pos60_id5_im1.bmp,['Im_RyanGosling.png', 'Im_LeonardoDiCaprio.png', 'Im_RobertPattinson.png', 'Im_PatrickDempsey.png', 'Im_BenStiller.png', 'Im_BradPitt.png', 'Im_DanielRadcliffe.png', 'Im_GeorgeClooney.png', 'Im_DanielCraig.png', 'Im_MattDamon.png'],same,1,0.408673599999986,8,83.33333333333333,
MINA0205,train,inv,fs,posfs_id17_im14.bmp_posfs_id2_im16.bmp,['Im_RyanGosling.png', 'Im_LeonardoDiCaprio.png', 'Im_RobertPattinson.png', 'Im_PatrickDempsey.png', 'Im_BenStiller.png', 'Im_BradPitt.png', 'Im_DanielRadcliffe.png', 'Im_GeorgeClooney.png', 'Im_DanielCraig.png', 'Im_MattDamon.png'],diff,1,0.44964389999995547,9,83.33333333333333,
MINA0205,train,inv,120,pos120_id13_im10.bmp_pos120_id13_im15.bmp,['Im_RyanGosling.png', 'Im_LeonardoDiCaprio.png', 'Im_RobertPattinson.png', 'Im_PatrickDempsey.png', 'Im_BenStiller.png', 'Im_BradPitt.png', 'Im_DanielRadcliffe.png', 'Im_GeorgeClooney.png', 'Im_DanielCraig.png', 'Im_MattDamon.png'],same,1,0.39968599999997423,10,83.33333333333333,
MINA0205,train,inv,0,pos0_id19_im8.bmp_pos0_id19_im27.bmp,['Im_RyanGosling.png', 'Im_LeonardoDiCaprio.png', 'Im_RobertPattinson.png', 'Im_PatrickDempsey.png', 'Im_BenStiller.png', 'Im_BradPitt.png', 'Im_DanielRadcliffe.png', 'Im_GeorgeClooney.png', 'Im_DanielCraig.png', 'Im_MattDamon.png'],same,1,0.41678330000002006,11,83.33333333333333,
MINA0205,train,inv,120,pos120_id4_im7.bmp_pos120_id4_im15.bmp,['Im_RyanGosling.png', 'Im_LeonardoDiCaprio.png', 'Im_RobertPattinson.png', 'Im_PatrickDempsey.png', 'Im_BenStiller.png', 'Im_BradPitt.png', 'Im_DanielRadcliffe.png', 'Im_GeorgeClooney.png', 'Im_DanielCraig.png', 'Im_MattDamon.png'],same,1,0.4586520999999948,12,83.33333333333333,
MINA0205,train,inv,60,pos60_id7_im15.bmp_pos60_id7_im14.bmp,['Im_RyanGosling.png', 'Im_LeonardoDiCaprio.png', 'Im_RobertPattinson.png', 'Im_PatrickDempsey.png', 'Im_BenStiller.png', 'Im_BradPitt.png', 'Im_DanielRadcliffe.png', 'Im_GeorgeClooney.png', 'Im_DanielCraig.png', 'Im_MattDamon.png'],same,1,0.5835641999999552,13,83.33333333333333,
MINA0205,train,inv,30,pos30_id14_im24.bmp_pos30_id3_im17.bmp,['Im_RyanGosling.png', 'Im_LeonardoDiCaprio.png', 'Im_RobertPattinson.png', 'Im_PatrickDempsey.png', 'Im_BenStiller.png', 'Im_BradPitt.png', 'Im_DanielRadcliffe.png', 'Im_GeorgeClooney.png', 'Im_DanielCraig.png', 'Im_MattDamon.png'],same,0,0.4085709999999949,13,83.33333333333333,
MINA0205,train,inv,30,pos30_id20_im12.bmp_pos30_id14_im18.bmp,['Im_RyanGosling.png', 'Im_LeonardoDiCaprio.png', 'Im_RobertPattinson.png', 'Im_PatrickDempsey.png', 'Im_BenStiller.png', 'Im_BradPitt.png', 'Im_DanielRadcliffe.png', 'Im_GeorgeClooney.png', 'Im_DanielCraig.png', 'Im_MattDamon.png'],same,0,0.4081764000000021,13,83.33333333333333,
MINA0205,train,inv,fs,posfs_id17_im9.bmp_posfs_id7_im14.bmp,['Im_RyanGosling.png', 'Im_LeonardoDiCaprio.png', 'Im_RobertPattinson.png', 'Im_PatrickDempsey.png', 'Im_BenStiller.png', 'Im_BradPitt.png', 'Im_DanielRadcliffe.png', 'Im_GeorgeClooney.png', 'Im_DanielCraig.png', 'Im_MattDamon.png'],diff,1,0.41671509999997625,14,83.33333333333333,
MINA0205,train,inv,90,pos90_id17_im14.bmp_pos90_id17_im8.bmp,['Im_RyanGosling.png', 'Im_LeonardoDiCaprio.png', 'Im_RobertPattinson.png', 'Im_PatrickDempsey.png', 'Im_BenStiller.png', 'Im_BradPitt.png', 'Im_DanielRadcliffe.png', 'Im_GeorgeClooney.png', 'Im_DanielCraig.png', 'Im_MattDamon.png'],diff,0,0.8332911999999624,14,83.33333333333333,
MINA0205,train,inv,fs,posfs_id4_im7.bmp_posfs_id4_im15.bmp,['Im_RyanGosling.png', 'Im_LeonardoDiCaprio.png', 'Im_RobertPattinson.png', 'Im_PatrickDempsey.png', 'Im_BenStiller.png', 'Im_BradPitt.png', 'Im_DanielRadcliffe.png', 'Im_GeorgeClooney.png', 'Im_DanielCraig.png', 'Im_MattDamon.png'],same,1,1.033650200000011,15,83.33333333333333,
MINA0205,train,inv,120,pos120_id7_im15.bmp_pos120_id2_im16.bmp,['Im_RyanGosling.png', 'Im_LeonardoDiCaprio.png', 'Im_RobertPattinson.png', 'Im_PatrickDempsey.png', 'Im_BenStiller.png', 'Im_BradPitt.png', 'Im_DanielRadcliffe.png', 'Im_GeorgeClooney.png', 'Im_DanielCraig.png', 'Im_MattDamon.png'],same,0,0.41665199999999913,15,83.33333333333333,
MINA0205,train,inv,150,pos150_id19_im8.bmp_pos150_id19_im27.bmp,['Im_RyanGosling.png', 'Im_LeonardoDiCaprio.png', 'Im_RobertPattinson.png', 'Im_PatrickDempsey.png', 'Im_BenStiller.png', 'Im_BradPitt.png', 'Im_DanielRadcliffe.png', 'Im_GeorgeClooney.png', 'Im_DanielCraig.png', 'Im_MattDamon.png'],same,1,0.41710460000001603,16,83.33333333333333,
MINA0205,train,inv,90,pos90_id13_im15.bmp_pos90_id13_im10.bmp,['Im_RyanGosling.png', 'Im_LeonardoDiCaprio.png', 'Im_RobertPattinson.png', 'Im_PatrickDempsey.png', 'Im_BenStiller.png', 'Im_BradPitt.png', 'Im_DanielRadcliffe.png', 'Im_GeorgeClooney.png', 'Im_DanielCraig.png', 'Im_MattDamon.png'],same,1,0.41688569999996616,17,83.33333333333333,
MINA0205,train,inv,150,pos150_id3_im8.bmp_pos150_id19_im27.bmp,['Im_RyanGosling.png', 'Im_LeonardoDiCaprio.png', 'Im_RobertPattinson.png', 'Im_PatrickDempsey.png', 'Im_BenStiller.png', 'Im_BradPitt.png', 'Im_DanielRadcliffe.png', 'Im_GeorgeClooney.png', 'Im_DanielCraig.png', 'Im_MattDamon.png'],same,0,0.7501584000000321,17,83.33333333333333,
MINA0205,train,inv,0,pos0_id2_im3.bmp_pos0_id2_im16.bmp,['Im_RyanGosling.png', 'Im_LeonardoDiCaprio.png', 'Im_RobertPattinson.png', 'Im_PatrickDempsey.png', 'Im_BenStiller.png', 'Im_BradPitt.png', 'Im_DanielRadcliffe.png', 'Im_GeorgeClooney.png', 'Im_DanielCraig.png', 'Im_MattDamon.png'],same,1,0.408218799999986,18,83.33333333333333,
MINA0205,train,inv,120,pos120_id13_im15.bmp_pos120_id13_im29.bmp,['Im_RyanGosling.png', 'Im_LeonardoDiCaprio.png', 'Im_RobertPattinson.png', 'Im_PatrickDempsey.png', 'Im_BenStiller.png', 'Im_BradPitt.png', 'Im_DanielRadcliffe.png', 'Im_GeorgeClooney.png', 'Im_DanielCraig.png', 'Im_MattDamon.png'],same,1,0.5667601000000104,19,83.33333333333333,
MINA0205,train,inv,0,pos0_id13_im15.bmp_pos0_id19_im4.bmp,['Im_RyanGosling.png', 'Im_LeonardoDiCaprio.png', 'Im_RobertPattinson.png', 'Im_PatrickDempsey.png', 'Im_BenStiller.png', 'Im_BradPitt.png', 'Im_DanielRadcliffe.png', 'Im_GeorgeClooney.png', 'Im_DanielCraig.png', 'Im_MattDamon.png'],diff,1,0.5503223000000617,20,83.33333333333333,
MINA0205,train,inv,60,pos60_id17_im9.bmp_pos60_id17_im14.bmp,['Im_RyanGosling.png', 'Im_LeonardoDiCaprio.png', 'Im_RobertPattinson.png', 'Im_PatrickDempsey.png', 'Im_BenStiller.png', 'Im_BradPitt.png', 'Im_DanielRadcliffe.png', 'Im_GeorgeClooney.png', 'Im_DanielCraig.png', 'Im_MattDamon.png'],diff,0,1.049868800000013,20,83.33333333333333,
MINA0205,train,neg,90,neg90_id7_im15.bmp_neg90_id2_im16.bmp,['Im_RyanGosling.png', 'Im_LeonardoDiCaprio.png', 'Im_RobertPattinson.png', 'Im_PatrickDempsey.png', 'Im_BenStiller.png', 'Im_BradPitt.png', 'Im_DanielRadcliffe.png', 'Im_GeorgeClooney.png', 'Im_DanielCraig.png', 'Im_MattDamon.png'],diff,1,0.5083855999999969,21,83.33333333333333,
MINA0205,train,neg,60,neg60_id7_im14.bmp_neg60_id17_im9.bmp,['Im_RyanGosling.png', 'Im_LeonardoDiCaprio.png', 'Im_RobertPattinson.png', 'Im_PatrickDempsey.png', 'Im_BenStiller.png', 'Im_BradPitt.png', 'Im_DanielRadcliffe.png', 'Im_GeorgeClooney.png', 'Im_DanielCraig.png', 'Im_MattDamon.png'],diff,1,1.0919518999999127,22,83.33333333333333,
MINA0205,train,neg,120,neg120_id13_im29.bmp_neg120_id14_im24.bmp,['Im_RyanGosling.png', 'Im_LeonardoDiCaprio.png', 'Im_RobertPattinson.png', 'Im_PatrickDempsey.png', 'Im_BenStiller.png', 'Im_BradPitt.png', 'Im_DanielRadcliffe.png', 'Im_GeorgeClooney.png', 'Im_DanielCraig.png', 'Im_MattDamon.png'],same,0,0.6500479000000041,22,83.33333333333333,
MINA0205,train,neg,90,neg90_id7_im26.bmp_neg90_id7_im15.bmp,['Im_RyanGosling.png', 'Im_LeonardoDiCaprio.png', 'Im_RobertPattinson.png', 'Im_PatrickDempsey.png', 'Im_BenStiller.png', 'Im_BradPitt.png', 'Im_DanielRadcliffe.png', 'Im_GeorgeClooney.png', 'Im_DanielCraig.png', 'Im_MattDamon.png'],diff,0,0.516953199999989,22,83.33333333333333,
MINA0205,train,neg,0,neg0_id13_im10.bmp_neg0_id3_im17.bmp,['Im_RyanGosling.png', 'Im_LeonardoDiCaprio.png', 'Im_RobertPattinson.png', 'Im_PatrickDempsey.png', 'Im_BenStiller.png', 'Im_BradPitt.png', 'Im_DanielRadcliffe.png', 'Im_GeorgeClooney.png', 'Im_DanielCraig.png', 'Im_MattDamon.png'],same,0,0.5336955999999873,22,83.33333333333333,
MINA0205,train,neg,0,neg0_id5_im1.bmp_neg0_id13_im10.bmp,['Im_RyanGosling.png', 'Im_LeonardoDiCaprio.png', 'Im_RobertPattinson.png', 'Im_PatrickDempsey.png', 'Im_BenStiller.png', 'Im_BradPitt.png', 'Im_DanielRadcliffe.png', 'Im_GeorgeClooney.png', 'Im_DanielCraig.png', 'Im_MattDamon.png'],diff,1,0.4083658000000696,23,83.33333333333333,
MINA0205,train,neg,150,neg150_id19_im4.bmp_neg150_id4_im7.bmp,['Im_RyanGosling.png', 'Im_LeonardoDiCaprio.png', 'Im_RobertPattinson.png', 'Im_PatrickDempsey.png', 'Im_BenStiller.png', 'Im_BradPitt.png', 'Im_DanielRadcliffe.png', 'Im_GeorgeClooney.png', 'Im_DanielCraig.png', 'Im_MattDamon.png'],same,0,0.9918981000000713,23,83.33333333333333,
MINA0205,train,neg,30,neg30_id5_im10.bmp_neg30_id17_im8.bmp,['Im_RyanGosling.png', 'Im_LeonardoDiCaprio.png', 'Im_RobertPattinson.png', 'Im_PatrickDempsey.png', 'Im_BenStiller.png', 'Im_BradPitt.png', 'Im_DanielRadcliffe.png', 'Im_GeorgeClooney.png', 'Im_DanielCraig.png', 'Im_MattDamon.png'],diff,1,0.4167052999999896,24,83.33333333333333,
MINA0205,train,neg,60,neg60_id19_im27.bmp_neg60_id19_im4.bmp,['Im_RyanGosling.png', 'Im_LeonardoDiCaprio.png', 'Im_RobertPattinson.png', 'Im_PatrickDempsey.png', 'Im_BenStiller.png', 'Im_BradPitt.png', 'Im_DanielRadcliffe.png', 'Im_GeorgeClooney.png', 'Im_DanielCraig.png', 'Im_MattDamon.png'],diff,0,0.48352380000005724,24,83.33333333333333,
MINA0205,train,neg,fs,negfs_id7_im15.bmp_negfs_id7_im26.bmp,['Im_RyanGosling.png', 'Im_LeonardoDiCaprio.png', 'Im_RobertPattinson.png', 'Im_PatrickDempsey.png', 'Im_BenStiller.png', 'Im_BradPitt.png', 'Im_DanielRadcliffe.png', 'Im_GeorgeClooney.png', 'Im_DanielCraig.png', 'Im_MattDamon.png'],same,1,0.4918089999999893,25,83.33333333333333,
MINA0205,train,neg,fs,negfs_id4_im7.bmp_negfs_id4_im20.bmp,['Im_RyanGosling.png', 'Im_LeonardoDiCaprio.png', 'Im_RobertPattinson.png', 'Im_PatrickDempsey.png', 'Im_BenStiller.png', 'Im_BradPitt.png', 'Im_DanielRadcliffe.png', 'Im_GeorgeClooney.png', 'Im_DanielCraig.png', 'Im_MattDamon.png'],same,1,0.4167340000000195,26,83.33333333333333,
MINA0205,train,neg,120,neg120_id19_im8.bmp_neg120_id19_im4.bmp,['Im_RyanGosling.png', 'Im_LeonardoDiCaprio.png', 'Im_RobertPattinson.png', 'Im_PatrickDempsey.png', 'Im_BenStiller.png', 'Im_BradPitt.png', 'Im_DanielRadcliffe.png', 'Im_GeorgeClooney.png', 'Im_DanielCraig.png', 'Im_MattDamon.png'],same,1,0.4166272999999592,27,83.33333333333333,
MINA0205,train,neg,150,neg150_id20_im30.bmp_neg150_id20_im3.bmp,['Im_RyanGosling.png', 'Im_LeonardoDiCaprio.png', 'Im_RobertPattinson.png', 'Im_PatrickDempsey.png', 'Im_BenStiller.png', 'Im_BradPitt.png', 'Im_DanielRadcliffe.png', 'Im_GeorgeClooney.png', 'Im_DanielCraig.png', 'Im_MattDamon.png'],same,1,0.41690349999998944,28,83.33333333333333,
MINA0205,train,neg,30,neg30_id2_im16.bmp_neg30_id7_im15.bmp,['Im_RyanGosling.png', 'Im_LeonardoDiCaprio.png', 'Im_RobertPattinson.png', 'Im_PatrickDempsey.png', 'Im_BenStiller.png', 'Im_BradPitt.png', 'Im_DanielRadcliffe.png', 'Im_GeorgeClooney.png', 'Im_DanielCraig.png', 'Im_MattDamon.png'],diff,1,0.40837820000001557,29,83.33333333333333,
MINA0205,train,pos,30,pos30_id19_im8.bmp_pos30_id19_im4.bmp,['Im_RyanGosling.png', 'Im_LeonardoDiCaprio.png', 'Im_RobertPattinson.png', 'Im_PatrickDempsey.png', 'Im_BenStiller.png', 'Im_BradPitt.png', 'Im_DanielRadcliffe.png', 'Im_GeorgeClooney.png', 'Im_DanielCraig.png', 'Im_MattDamon.png'],same,1,0.41672379999999976,1,69.04761904761905,
MINA0205,train,pos,150,pos150_id2_im2.bmp_pos150_id2_im3.bmp,['Im_RyanGosling.png', 'Im_LeonardoDiCaprio.png', 'Im_RobertPattinson.png', 'Im_PatrickDempsey.png', 'Im_BenStiller.png', 'Im_BradPitt.png', 'Im_DanielRadcliffe.png', 'Im_GeorgeClooney.png', 'Im_DanielCraig.png', 'Im_MattDamon.png'],same,1,0.41077500000005784,2,69.04761904761905,
MINA0205,train,pos,0,pos0_id7_im15.bmp_pos0_id7_im14.bmp,['Im_RyanGosling.png', 'Im_LeonardoDiCaprio.png', 'Im_RobertPattinson.png', 'Im_PatrickDempsey.png', 'Im_BenStiller.png', 'Im_BradPitt.png', 'Im_DanielRadcliffe.png', 'Im_GeorgeClooney.png', 'Im_DanielCraig.png', 'Im_MattDamon.png'],same,1,0.40837650000003123,3,69.04761904761905,
MINA0205,train,pos,0,pos0_id5_im1.bmp_pos0_id5_im10.bmp,['Im_RyanGosling.png', 'Im_LeonardoDiCaprio.png', 'Im_RobertPattinson.png', 'Im_PatrickDempsey.png', 'Im_BenStiller.png', 'Im_BradPitt.png', 'Im_DanielRadcliffe.png', 'Im_GeorgeClooney.png', 'Im_DanielCraig.png', 'Im_MattDamon.png'],same,1,0.41676570000004176,4,69.04761904761905,
MINA0205,train,pos,120,pos120_id5_im20.bmp_pos120_id5_im1.bmp,['Im_RyanGosling.png', 'Im_LeonardoDiCaprio.png', 'Im_RobertPattinson.png', 'Im_PatrickDempsey.png', 'Im_BenStiller.png', 'Im_BradPitt.png', 'Im_DanielRadcliffe.png', 'Im_GeorgeClooney.png', 'Im_DanielCraig.png', 'Im_MattDamon.png'],same,1,0.4084085999999161,5,69.04761904761905,
MINA0205,train,pos,60,pos60_id3_im8.bmp_pos60_id7_im26.bmp,['Im_RyanGosling.png', 'Im_LeonardoDiCaprio.png', 'Im_RobertPattinson.png', 'Im_PatrickDempsey.png', 'Im_BenStiller.png', 'Im_BradPitt.png', 'Im_DanielRadcliffe.png', 'Im_GeorgeClooney.png', 'Im_DanielCraig.png', 'Im_MattDamon.png'],diff,1,0.7001451999999517,6,69.04761904761905,
MINA0205,train,pos,90,pos90_id13_im10.bmp_pos90_id3_im17.bmp,['Im_RyanGosling.png', 'Im_LeonardoDiCaprio.png', 'Im_RobertPattinson.png', 'Im_PatrickDempsey.png', 'Im_BenStiller.png', 'Im_BradPitt.png', 'Im_DanielRadcliffe.png', 'Im_GeorgeClooney.png', 'Im_DanielCraig.png', 'Im_MattDamon.png'],same,0,0.5918133999999782,6,69.04761904761905,
MINA0205,train,pos,90,pos90_id20_im12.bmp_pos90_id14_im18.bmp,['Im_RyanGosling.png', 'Im_LeonardoDiCaprio.png', 'Im_RobertPattinson.png', 'Im_PatrickDempsey.png', 'Im_BenStiller.png', 'Im_BradPitt.png', 'Im_DanielRadcliffe.png', 'Im_GeorgeClooney.png', 'Im_DanielCraig.png', 'Im_MattDamon.png'],same,0,0.39974449999999706,6,69.04761904761905,
MINA0205,train,pos,60,pos60_id13_im15.bmp_pos60_id13_im10.bmp,['Im_RyanGosling.png', 'Im_LeonardoDiCaprio.png', 'Im_RobertPattinson.png', 'Im_PatrickDempsey.png', 'Im_BenStiller.png', 'Im_BradPitt.png', 'Im_DanielRadcliffe.png', 'Im_GeorgeClooney.png', 'Im_DanielCraig.png', 'Im_MattDamon.png'],same,1,0.5253980999999612,7,69.04761904761905,
MINA0205,train,pos,fs,posfs_id5_im20.bmp_posfs_id5_im10.bmp,['Im_RyanGosling.png', 'Im_LeonardoDiCaprio.png', 'Im_RobertPattinson.png', 'Im_PatrickDempsey.png', 'Im_BenStiller.png', 'Im_BradPitt.png', 'Im_DanielRadcliffe.png', 'Im_GeorgeClooney.png', 'Im_DanielCraig.png', 'Im_MattDamon.png'],same,1,0.3999466999999868,8,69.04761904761905,
MINA0205,train,pos,150,pos150_id2_im16.bmp_pos150_id2_im3.bmp,['Im_RyanGosling.png', 'Im_LeonardoDiCaprio.png', 'Im_RobertPattinson.png', 'Im_PatrickDempsey.png', 'Im_BenStiller.png', 'Im_BradPitt.png', 'Im_DanielRadcliffe.png', 'Im_GeorgeClooney.png', 'Im_DanielCraig.png', 'Im_MattDamon.png'],same,1,0.4167234000000235,9,69.04761904761905,
MINA0205,train,pos,fs,posfs_id4_im15.bmp_posfs_id4_im20.bmp,['Im_RyanGosling.png', 'Im_LeonardoDiCaprio.png', 'Im_RobertPattinson.png', 'Im_PatrickDempsey.png', 'Im_BenStiller.png', 'Im_BradPitt.png', 'Im_DanielRadcliffe.png', 'Im_GeorgeClooney.png', 'Im_DanielCraig.png', 'Im_MattDamon.png'],same,1,0.41660890000002837,10,69.04761904761905,
MINA0205,train,pos,120,pos120_id20_im12.bmp_pos120_id4_im15.bmp,['Im_RyanGosling.png', 'Im_LeonardoDiCaprio.png', 'Im_RobertPattinson.png', 'Im_PatrickDempsey.png', 'Im_BenStiller.png', 'Im_BradPitt.png', 'Im_DanielRadcliffe.png', 'Im_GeorgeClooney.png', 'Im_DanielCraig.png', 'Im_MattDamon.png'],diff,1,0.42500459999996565,11,69.04761904761905,
MINA0205,train,pos,30,pos30_id2_im2.bmp_pos30_id2_im3.bmp,['Im_RyanGosling.png', 'Im_LeonardoDiCaprio.png', 'Im_RobertPattinson.png', 'Im_PatrickDempsey.png', 'Im_BenStiller.png', 'Im_BradPitt.png', 'Im_DanielRadcliffe.png', 'Im_GeorgeClooney.png', 'Im_DanielCraig.png', 'Im_MattDamon.png'],same,1,0.41703400000005786,12,69.04761904761905,
MINA0205,train,neg,90,neg90_id5_im1.bmp_neg90_id5_im20.bmp,['Im_RyanGosling.png', 'Im_LeonardoDiCaprio.png', 'Im_RobertPattinson.png', 'Im_PatrickDempsey.png', 'Im_BenStiller.png', 'Im_BradPitt.png', 'Im_DanielRadcliffe.png', 'Im_GeorgeClooney.png', 'Im_DanielCraig.png', 'Im_MattDamon.png'],same,1,0.3996872000000167,13,69.04761904761905,
MINA0205,train,neg,fs,negfs_id7_im26.bmp_negfs_id20_im3.bmp,['Im_RyanGosling.png', 'Im_LeonardoDiCaprio.png', 'Im_RobertPattinson.png', 'Im_PatrickDempsey.png', 'Im_BenStiller.png', 'Im_BradPitt.png', 'Im_DanielRadcliffe.png', 'Im_GeorgeClooney.png', 'Im_DanielCraig.png', 'Im_MattDamon.png'],diff,1,0.4168740999999727,14,69.04761904761905,
MINA0205,train,neg,120,neg120_id5_im1.bmp_neg120_id4_im15.bmp,['Im_RyanGosling.png', 'Im_LeonardoDiCaprio.png', 'Im_RobertPattinson.png', 'Im_PatrickDempsey.png', 'Im_BenStiller.png', 'Im_BradPitt.png', 'Im_DanielRadcliffe.png', 'Im_GeorgeClooney.png', 'Im_DanielCraig.png', 'Im_MattDamon.png'],diff,1,0.4832799000000705,15,69.04761904761905,
MINA0205,train,neg,60,neg60_id7_im15.bmp_neg60_id7_im14.bmp,['Im_RyanGosling.png', 'Im_LeonardoDiCaprio.png', 'Im_RobertPattinson.png', 'Im_PatrickDempsey.png', 'Im_BenStiller.png', 'Im_BradPitt.png', 'Im_DanielRadcliffe.png', 'Im_GeorgeClooney.png', 'Im_DanielCraig.png', 'Im_MattDamon.png'],diff,0,0.40852369999993243,15,69.04761904761905,
MINA0205,train,neg,150,neg150_id5_im1.bmp_neg150_id13_im10.bmp,['Im_RyanGosling.png', 'Im_LeonardoDiCaprio.png', 'Im_RobertPattinson.png', 'Im_PatrickDempsey.png', 'Im_BenStiller.png', 'Im_BradPitt.png', 'Im_DanielRadcliffe.png', 'Im_GeorgeClooney.png', 'Im_DanielCraig.png', 'Im_MattDamon.png'],diff,1,0.7505796999998893,16,69.04761904761905,
MINA0205,train,neg,fs,negfs_id19_im27.bmp_negfs_id14_im18.bmp,['Im_RyanGosling.png', 'Im_LeonardoDiCaprio.png', 'Im_RobertPattinson.png', 'Im_PatrickDempsey.png', 'Im_BenStiller.png', 'Im_BradPitt.png', 'Im_DanielRadcliffe.png', 'Im_GeorgeClooney.png', 'Im_DanielCraig.png', 'Im_MattDamon.png'],diff,1,0.47520829999996295,17,69.04761904761905,
MINA0205,train,neg,0,neg0_id19_im8.bmp_neg0_id4_im7.bmp,['Im_RyanGosling.png', 'Im_LeonardoDiCaprio.png', 'Im_RobertPattinson.png', 'Im_PatrickDempsey.png', 'Im_BenStiller.png', 'Im_BradPitt.png', 'Im_DanielRadcliffe.png', 'Im_GeorgeClooney.png', 'Im_DanielCraig.png', 'Im_MattDamon.png'],diff,1,1.1333720000000085,18,69.04761904761905,
MINA0205,train,neg,90,neg90_id3_im8.bmp_neg90_id19_im27.bmp,['Im_RyanGosling.png', 'Im_LeonardoDiCaprio.png', 'Im_RobertPattinson.png', 'Im_PatrickDempsey.png', 'Im_BenStiller.png', 'Im_BradPitt.png', 'Im_DanielRadcliffe.png', 'Im_GeorgeClooney.png', 'Im_DanielCraig.png', 'Im_MattDamon.png'],diff,1,0.7329643000000488,19,69.04761904761905,
MINA0205,train,neg,150,neg150_id4_im15.bmp_neg150_id5_im1.bmp,['Im_RyanGosling.png', 'Im_LeonardoDiCaprio.png', 'Im_RobertPattinson.png', 'Im_PatrickDempsey.png', 'Im_BenStiller.png', 'Im_BradPitt.png', 'Im_DanielRadcliffe.png', 'Im_GeorgeClooney.png', 'Im_DanielCraig.png', 'Im_MattDamon.png'],diff,1,0.89984979999997,20,69.04761904761905,
MINA0205,train,neg,60,neg60_id17_im14.bmp_neg60_id5_im20.bmp,['Im_RyanGosling.png', 'Im_LeonardoDiCaprio.png', 'Im_RobertPattinson.png', 'Im_PatrickDempsey.png', 'Im_BenStiller.png', 'Im_BradPitt.png', 'Im_DanielRadcliffe.png', 'Im_GeorgeClooney.png', 'Im_DanielCraig.png', 'Im_MattDamon.png'],same,0,0.5581604999999854,20,69.04761904761905,
MINA0205,train,neg,0,neg0_id2_im3.bmp_neg0_id2_im16.bmp,['Im_RyanGosling.png', 'Im_LeonardoDiCaprio.png', 'Im_RobertPattinson.png', 'Im_PatrickDempsey.png', 'Im_BenStiller.png', 'Im_BradPitt.png', 'Im_DanielRadcliffe.png', 'Im_GeorgeClooney.png', 'Im_DanielCraig.png', 'Im_MattDamon.png'],same,1,0.7416911000000255,21,69.04761904761905,
MINA0205,train,neg,30,neg30_id4_im20.bmp_neg30_id7_im14.bmp,['Im_RyanGosling.png', 'Im_LeonardoDiCaprio.png', 'Im_RobertPattinson.png', 'Im_PatrickDempsey.png', 'Im_BenStiller.png', 'Im_BradPitt.png', 'Im_DanielRadcliffe.png', 'Im_GeorgeClooney.png', 'Im_DanielCraig.png', 'Im_MattDamon.png'],diff,1,0.41670269999997345,22,69.04761904761905,
MINA0205,train,neg,30,neg30_id7_im26.bmp_neg30_id7_im15.bmp,['Im_RyanGosling.png', 'Im_LeonardoDiCaprio.png', 'Im_RobertPattinson.png', 'Im_PatrickDempsey.png', 'Im_BenStiller.png', 'Im_BradPitt.png', 'Im_DanielRadcliffe.png', 'Im_GeorgeClooney.png', 'Im_DanielCraig.png', 'Im_MattDamon.png'],diff,0,0.41668989999993755,22,69.04761904761905,
MINA0205,train,neg,120,neg120_id2_im3.bmp_neg120_id4_im20.bmp,['Im_RyanGosling.png', 'Im_LeonardoDiCaprio.png', 'Im_RobertPattinson.png', 'Im_PatrickDempsey.png', 'Im_BenStiller.png', 'Im_BradPitt.png', 'Im_DanielRadcliffe.png', 'Im_GeorgeClooney.png', 'Im_DanielCraig.png', 'Im_MattDamon.png'],diff,1,0.617053100000021,23,69.04761904761905,
MINA0205,train,pos,90,pos90_id20_im3.bmp_pos90_id7_im15.bmp,['Im_RyanGosling.png', 'Im_LeonardoDiCaprio.png', 'Im_RobertPattinson.png', 'Im_PatrickDempsey.png', 'Im_BenStiller.png', 'Im_BradPitt.png', 'Im_DanielRadcliffe.png', 'Im_GeorgeClooney.png', 'Im_DanielCraig.png', 'Im_MattDamon.png'],same,0,0.7418329999999287,23,69.04761904761905,
MINA0205,train,pos,150,pos150_id7_im26.bmp_pos150_id20_im3.bmp,['Im_RyanGosling.png', 'Im_LeonardoDiCaprio.png', 'Im_RobertPattinson.png', 'Im_PatrickDempsey.png', 'Im_BenStiller.png', 'Im_BradPitt.png', 'Im_DanielRadcliffe.png', 'Im_GeorgeClooney.png', 'Im_DanielCraig.png', 'Im_MattDamon.png'],same,0,0.5333840000000691,23,69.04761904761905,
MINA0205,train,pos,fs,posfs_id20_im30.bmp_posfs_id14_im16.bmp,['Im_RyanGosling.png', 'Im_LeonardoDiCaprio.png', 'Im_RobertPattinson.png', 'Im_PatrickDempsey.png', 'Im_BenStiller.png', 'Im_BradPitt.png', 'Im_DanielRadcliffe.png', 'Im_GeorgeClooney.png', 'Im_DanielCraig.png', 'Im_MattDamon.png'],diff,1,0.9498612000001003,24,69.04761904761905,
MINA0205,train,pos,fs,posfs_id17_im14.bmp_posfs_id17_im9.bmp,['Im_RyanGosling.png', 'Im_LeonardoDiCaprio.png', 'Im_RobertPattinson.png', 'Im_PatrickDempsey.png', 'Im_BenStiller.png', 'Im_BradPitt.png', 'Im_DanielRadcliffe.png', 'Im_GeorgeClooney.png', 'Im_DanielCraig.png', 'Im_MattDamon.png'],same,1,0.7003202000000783,25,69.04761904761905,
MINA0205,train,pos,30,pos30_id2_im16.bmp_pos30_id2_im3.bmp,['Im_RyanGosling.png', 'Im_LeonardoDiCaprio.png', 'Im_RobertPattinson.png', 'Im_PatrickDempsey.png', 'Im_BenStiller.png', 'Im_BradPitt.png', 'Im_DanielRadcliffe.png', 'Im_GeorgeClooney.png', 'Im_DanielCraig.png', 'Im_MattDamon.png'],same,1,0.5834194999999909,26,69.04761904761905,
MINA0205,train,pos,0,pos0_id7_im15.bmp_pos0_id20_im3.bmp,['Im_RyanGosling.png', 'Im_LeonardoDiCaprio.png', 'Im_RobertPattinson.png', 'Im_PatrickDempsey.png', 'Im_BenStiller.png', 'Im_BradPitt.png', 'Im_DanielRadcliffe.png', 'Im_GeorgeClooney.png', 'Im_DanielCraig.png', 'Im_MattDamon.png'],same,0,0.41668620000007195,26,69.04761904761905,
MINA0205,train,pos,150,pos150_id19_im4.bmp_pos150_id19_im8.bmp,['Im_RyanGosling.png', 'Im_LeonardoDiCaprio.png', 'Im_RobertPattinson.png', 'Im_PatrickDempsey.png', 'Im_BenStiller.png', 'Im_BradPitt.png', 'Im_DanielRadcliffe.png', 'Im_GeorgeClooney.png', 'Im_DanielCraig.png', 'Im_MattDamon.png'],same,1,0.48336489999996957,27,69.04761904761905,
MINA0205,train,pos,60,pos60_id17_im9.bmp_pos60_id17_im14.bmp,['Im_RyanGosling.png', 'Im_LeonardoDiCaprio.png', 'Im_RobertPattinson.png', 'Im_PatrickDempsey.png', 'Im_BenStiller.png', 'Im_BradPitt.png', 'Im_DanielRadcliffe.png', 'Im_GeorgeClooney.png', 'Im_DanielCraig.png', 'Im_MattDamon.png'],same,1,0.4082505000000083,28,69.04761904761905,
MINA0205,train,pos,90,pos90_id2_im3.bmp_pos90_id2_im2.bmp,['Im_RyanGosling.png', 'Im_LeonardoDiCaprio.png', 'Im_RobertPattinson.png', 'Im_PatrickDempsey.png', 'Im_BenStiller.png', 'Im_BradPitt.png', 'Im_DanielRadcliffe.png', 'Im_GeorgeClooney.png', 'Im_DanielCraig.png', 'Im_MattDamon.png'],same,1,0.4667237999999543,29,69.04761904761905,
MINA0205,train,pos,60,pos60_id20_im30.bmp_pos60_id20_im12.bmp,['Im_RyanGosling.png', 'Im_LeonardoDiCaprio.png', 'Im_RobertPattinson.png', 'Im_PatrickDempsey.png', 'Im_BenStiller.png', 'Im_BradPitt.png', 'Im_DanielRadcliffe.png', 'Im_GeorgeClooney.png', 'Im_DanielCraig.png', 'Im_MattDamon.png'],same,1,0.4167254999999841,30,69.04761904761905,
MINA0205,train,pos,120,pos120_id5_im1.bmp_pos120_id4_im15.bmp,['Im_RyanGosling.png', 'Im_LeonardoDiCaprio.png', 'Im_RobertPattinson.png', 'Im_PatrickDempsey.png', 'Im_BenStiller.png', 'Im_BradPitt.png', 'Im_DanielRadcliffe.png', 'Im_GeorgeClooney.png', 'Im_DanielCraig.png', 'Im_MattDamon.png'],diff,1,0.5838138000000299,31,69.04761904761905,
MINA0205,train,pos,0,pos0_id7_im26.bmp_pos0_id20_im3.bmp,['Im_RyanGosling.png', 'Im_LeonardoDiCaprio.png', 'Im_RobertPattinson.png', 'Im_PatrickDempsey.png', 'Im_BenStiller.png', 'Im_BradPitt.png', 'Im_DanielRadcliffe.png', 'Im_GeorgeClooney.png', 'Im_DanielCraig.png', 'Im_MattDamon.png'],same,0,0.8083774000000403,31,69.04761904761905,
MINA0205,train,pos,120,pos120_id14_im16.bmp_pos120_id14_im24.bmp,['Im_RyanGosling.png', 'Im_LeonardoDiCaprio.png', 'Im_RobertPattinson.png', 'Im_PatrickDempsey.png', 'Im_BenStiller.png', 'Im_BradPitt.png', 'Im_DanielRadcliffe.png', 'Im_GeorgeClooney.png', 'Im_DanielCraig.png', 'Im_MattDamon.png'],same,1,0.48373400000002675,32,69.04761904761905,
MINA0205,train,pos,30,pos30_id4_im20.bmp_pos30_id4_im15.bmp,['Im_RyanGosling.png', 'Im_LeonardoDiCaprio.png', 'Im_RobertPattinson.png', 'Im_PatrickDempsey.png', 'Im_BenStiller.png', 'Im_BradPitt.png', 'Im_DanielRadcliffe.png', 'Im_GeorgeClooney.png', 'Im_DanielCraig.png', 'Im_MattDamon.png'],same,1,0.4082392999999911,33,69.04761904761905,
MINA0205,train,inv,30,pos30_id20_im3.bmp_pos30_id20_im12.bmp,['Im_RyanGosling.png', 'Im_LeonardoDiCaprio.png', 'Im_RobertPattinson.png', 'Im_PatrickDempsey.png', 'Im_BenStiller.png', 'Im_BradPitt.png', 'Im_DanielRadcliffe.png', 'Im_GeorgeClooney.png', 'Im_DanielCraig.png', 'Im_MattDamon.png'],same,1,0.4084831000000122,1,78.57142857142857,
MINA0205,train,inv,90,pos90_id20_im30.bmp_pos90_id17_im9.bmp,['Im_RyanGosling.png', 'Im_LeonardoDiCaprio.png', 'Im_RobertPattinson.png', 'Im_PatrickDempsey.png', 'Im_BenStiller.png', 'Im_BradPitt.png', 'Im_DanielRadcliffe.png', 'Im_GeorgeClooney.png', 'Im_DanielCraig.png', 'Im_MattDamon.png'],same,0,0.40854909999995925,1,78.57142857142857,
MINA0205,train,inv,90,pos90_id17_im14.bmp_pos90_id5_im20.bmp,['Im_RyanGosling.png', 'Im_LeonardoDiCaprio.png', 'Im_RobertPattinson.png', 'Im_PatrickDempsey.png', 'Im_BenStiller.png', 'Im_BradPitt.png', 'Im_DanielRadcliffe.png', 'Im_GeorgeClooney.png', 'Im_DanielCraig.png', 'Im_MattDamon.png'],same,0,0.41675820000000385,1,78.57142857142857,
MINA0205,train,inv,60,pos60_id7_im26.bmp_pos60_id20_im3.bmp,['Im_RyanGosling.png', 'Im_LeonardoDiCaprio.png', 'Im_RobertPattinson.png', 'Im_PatrickDempsey.png', 'Im_BenStiller.png', 'Im_BradPitt.png', 'Im_DanielRadcliffe.png', 'Im_GeorgeClooney.png', 'Im_DanielCraig.png', 'Im_MattDamon.png'],same,0,0.39960339999993266,1,78.57142857142857,
MINA0205,train,inv,120,pos120_id5_im10.bmp_pos120_id17_im8.bmp,['Im_RyanGosling.png', 'Im_LeonardoDiCaprio.png', 'Im_RobertPattinson.png', 'Im_PatrickDempsey.png', 'Im_BenStiller.png', 'Im_BradPitt.png', 'Im_DanielRadcliffe.png', 'Im_GeorgeClooney.png', 'Im_DanielCraig.png', 'Im_MattDamon.png'],diff,1,0.4085473000000093,2,78.57142857142857,
MINA0205,train,inv,30,pos30_id20_im30.bmp_pos30_id20_im3.bmp,['Im_RyanGosling.png', 'Im_LeonardoDiCaprio.png', 'Im_RobertPattinson.png', 'Im_PatrickDempsey.png', 'Im_BenStiller.png', 'Im_BradPitt.png', 'Im_DanielRadcliffe.png', 'Im_GeorgeClooney.png', 'Im_DanielCraig.png', 'Im_MattDamon.png'],same,1,0.5915336999998999,3,78.57142857142857,
MINA0205,train,inv,120,pos120_id2_im3.bmp_pos120_id13_im29.bmp,['Im_RyanGosling.png', 'Im_LeonardoDiCaprio.png', 'Im_RobertPattinson.png', 'Im_PatrickDempsey.png', 'Im_BenStiller.png', 'Im_BradPitt.png', 'Im_DanielRadcliffe.png', 'Im_GeorgeClooney.png', 'Im_DanielCraig.png', 'Im_MattDamon.png'],diff,1,0.8087070999999924,4,78.57142857142857,
MINA0205,train,inv,0,pos0_id3_im6.bmp_pos0_id3_im17.bmp,['Im_RyanGosling.png', 'Im_LeonardoDiCaprio.png', 'Im_RobertPattinson.png', 'Im_PatrickDempsey.png', 'Im_BenStiller.png', 'Im_BradPitt.png', 'Im_DanielRadcliffe.png', 'Im_GeorgeClooney.png', 'Im_DanielCraig.png', 'Im_MattDamon.png'],same,1,0.9753471000000218,5,78.57142857142857,
MINA0205,train,inv,0,pos0_id13_im10.bmp_pos0_id13_im15.bmp,['Im_RyanGosling.png', 'Im_LeonardoDiCaprio.png', 'Im_RobertPattinson.png', 'Im_PatrickDempsey.png', 'Im_BenStiller.png', 'Im_BradPitt.png', 'Im_DanielRadcliffe.png', 'Im_GeorgeClooney.png', 'Im_DanielCraig.png', 'Im_MattDamon.png'],same,1,0.7169979999999896,6,78.57142857142857,
MINA0205,train,inv,150,pos150_id14_im16.bmp_pos150_id14_im18.bmp,['Im_RyanGosling.png', 'Im_LeonardoDiCaprio.png', 'Im_RobertPattinson.png', 'Im_PatrickDempsey.png', 'Im_BenStiller.png', 'Im_BradPitt.png', 'Im_DanielRadcliffe.png', 'Im_GeorgeClooney.png', 'Im_DanielCraig.png', 'Im_MattDamon.png'],same,1,0.4167317000000139,7,78.57142857142857,
MINA0205,train,inv,fs,posfs_id2_im3.bmp_posfs_id4_im20.bmp,['Im_RyanGosling.png', 'Im_LeonardoDiCaprio.png', 'Im_RobertPattinson.png', 'Im_PatrickDempsey.png', 'Im_BenStiller.png', 'Im_BradPitt.png', 'Im_DanielRadcliffe.png', 'Im_GeorgeClooney.png', 'Im_DanielCraig.png', 'Im_MattDamon.png'],diff,1,0.4167833999999857,8,78.57142857142857,
MINA0205,train,inv,fs,posfs_id17_im14.bmp_posfs_id17_im8.bmp,['Im_RyanGosling.png', 'Im_LeonardoDiCaprio.png', 'Im_RobertPattinson.png', 'Im_PatrickDempsey.png', 'Im_BenStiller.png', 'Im_BradPitt.png', 'Im_DanielRadcliffe.png', 'Im_GeorgeClooney.png', 'Im_DanielCraig.png', 'Im_MattDamon.png'],same,1,0.44205619999991086,9,78.57142857142857,
MINA0205,train,inv,60,pos60_id4_im15.bmp_pos60_id20_im12.bmp,['Im_RyanGosling.png', 'Im_LeonardoDiCaprio.png', 'Im_RobertPattinson.png', 'Im_PatrickDempsey.png', 'Im_BenStiller.png', 'Im_BradPitt.png', 'Im_DanielRadcliffe.png', 'Im_GeorgeClooney.png', 'Im_DanielCraig.png', 'Im_MattDamon.png'],diff,1,0.6668094000000337,10,78.57142857142857,
MINA0205,train,inv,150,pos150_id5_im1.bmp_pos150_id13_im10.bmp,['Im_RyanGosling.png', 'Im_LeonardoDiCaprio.png', 'Im_RobertPattinson.png', 'Im_PatrickDempsey.png', 'Im_BenStiller.png', 'Im_BradPitt.png', 'Im_DanielRadcliffe.png', 'Im_GeorgeClooney.png', 'Im_DanielCraig.png', 'Im_MattDamon.png'],diff,1,1.1917786999999862,11,78.57142857142857,
MINA0205,train,inv,0,pos0_id14_im24.bmp_pos0_id13_im29.bmp,['Im_RyanGosling.png', 'Im_LeonardoDiCaprio.png', 'Im_RobertPattinson.png', 'Im_PatrickDempsey.png', 'Im_BenStiller.png', 'Im_BradPitt.png', 'Im_DanielRadcliffe.png', 'Im_GeorgeClooney.png', 'Im_DanielCraig.png', 'Im_MattDamon.png'],same,0,0.6667128000000275,11,78.57142857142857,
MINA0205,train,inv,120,pos120_id17_im8.bmp_pos120_id17_im9.bmp,['Im_RyanGosling.png', 'Im_LeonardoDiCaprio.png', 'Im_RobertPattinson.png', 'Im_PatrickDempsey.png', 'Im_BenStiller.png', 'Im_BradPitt.png', 'Im_DanielRadcliffe.png', 'Im_GeorgeClooney.png', 'Im_DanielCraig.png', 'Im_MattDamon.png'],diff,0,0.8502313000000186,11,78.57142857142857,
MINA0205,train,inv,150,pos150_id20_im3.bmp_pos150_id20_im30.bmp,['Im_RyanGosling.png', 'Im_LeonardoDiCaprio.png', 'Im_RobertPattinson.png', 'Im_PatrickDempsey.png', 'Im_BenStiller.png', 'Im_BradPitt.png', 'Im_DanielRadcliffe.png', 'Im_GeorgeClooney.png', 'Im_DanielCraig.png', 'Im_MattDamon.png'],same,1,0.4167334999999639,12,78.57142857142857,
MINA0205,train,inv,120,pos120_id20_im12.bmp_pos120_id20_im30.bmp,['Im_RyanGosling.png', 'Im_LeonardoDiCaprio.png', 'Im_RobertPattinson.png', 'Im_PatrickDempsey.png', 'Im_BenStiller.png', 'Im_BradPitt.png', 'Im_DanielRadcliffe.png', 'Im_GeorgeClooney.png', 'Im_DanielCraig.png', 'Im_MattDamon.png'],same,1,0.41659839999999804,13,78.57142857142857,
MINA0205,train,inv,90,pos90_id7_im14.bmp_pos90_id7_im15.bmp,['Im_RyanGosling.png', 'Im_LeonardoDiCaprio.png', 'Im_RobertPattinson.png', 'Im_PatrickDempsey.png', 'Im_BenStiller.png', 'Im_BradPitt.png', 'Im_DanielRadcliffe.png', 'Im_GeorgeClooney.png', 'Im_DanielCraig.png', 'Im_MattDamon.png'],same,1,0.4085479000000305,14,78.57142857142857,
MINA0205,train,inv,90,pos90_id2_im3.bmp_pos90_id2_im16.bmp,['Im_RyanGosling.png', 'Im_LeonardoDiCaprio.png', 'Im_RobertPattinson.png', 'Im_PatrickDempsey.png', 'Im_BenStiller.png', 'Im_BradPitt.png', 'Im_DanielRadcliffe.png', 'Im_GeorgeClooney.png', 'Im_DanielCraig.png', 'Im_MattDamon.png'],same,1,0.40831839999998465,15,78.57142857142857,
MINA0205,train,inv,30,pos30_id2_im2.bmp_pos30_id2_im3.bmp,['Im_RyanGosling.png', 'Im_LeonardoDiCaprio.png', 'Im_RobertPattinson.png', 'Im_PatrickDempsey.png', 'Im_BenStiller.png', 'Im_BradPitt.png', 'Im_DanielRadcliffe.png', 'Im_GeorgeClooney.png', 'Im_DanielCraig.png', 'Im_MattDamon.png'],same,1,0.4163591000000224,16,78.57142857142857,
MINA0205,train,inv,150,pos150_id20_im30.bmp_pos150_id17_im9.bmp,['Im_RyanGosling.png', 'Im_LeonardoDiCaprio.png', 'Im_RobertPattinson.png', 'Im_PatrickDempsey.png', 'Im_BenStiller.png', 'Im_BradPitt.png', 'Im_DanielRadcliffe.png', 'Im_GeorgeClooney.png', 'Im_DanielCraig.png', 'Im_MattDamon.png'],same,0,0.4998613000000205,16,78.57142857142857,
MINA0205,train,inv,0,pos0_id17_im8.bmp_pos0_id17_im9.bmp,['Im_RyanGosling.png', 'Im_LeonardoDiCaprio.png', 'Im_RobertPattinson.png', 'Im_PatrickDempsey.png', 'Im_BenStiller.png', 'Im_BradPitt.png', 'Im_DanielRadcliffe.png', 'Im_GeorgeClooney.png', 'Im_DanielCraig.png', 'Im_MattDamon.png'],same,1,0.41693320000001677,17,78.57142857142857,
MINA0205,train,inv,30,pos30_id5_im10.bmp_pos30_id2_im2.bmp,['Im_RyanGosling.png', 'Im_LeonardoDiCaprio.png', 'Im_RobertPattinson.png', 'Im_PatrickDempsey.png', 'Im_BenStiller.png', 'Im_BradPitt.png', 'Im_DanielRadcliffe.png', 'Im_GeorgeClooney.png', 'Im_DanielCraig.png', 'Im_MattDamon.png'],diff,1,0.4168975999999702,18,78.57142857142857,
MINA0205,train,inv,60,pos60_id14_im16.bmp_pos60_id14_im18.bmp,['Im_RyanGosling.png', 'Im_LeonardoDiCaprio.png', 'Im_RobertPattinson.png', 'Im_PatrickDempsey.png', 'Im_BenStiller.png', 'Im_BradPitt.png', 'Im_DanielRadcliffe.png', 'Im_GeorgeClooney.png', 'Im_DanielCraig.png', 'Im_MattDamon.png'],same,1,0.6332175000000007,19,78.57142857142857,
MINA0205,train,inv,fs,posfs_id19_im27.bmp_posfs_id14_im18.bmp,['Im_RyanGosling.png', 'Im_LeonardoDiCaprio.png', 'Im_RobertPattinson.png', 'Im_PatrickDempsey.png', 'Im_BenStiller.png', 'Im_BradPitt.png', 'Im_DanielRadcliffe.png', 'Im_GeorgeClooney.png', 'Im_DanielCraig.png', 'Im_MattDamon.png'],diff,1,0.5833890999999767,20,78.57142857142857,
MINA0205,train,inv,fs,posfs_id14_im18.bmp_posfs_id20_im12.bmp,['Im_RyanGosling.png', 'Im_LeonardoDiCaprio.png', 'Im_RobertPattinson.png', 'Im_PatrickDempsey.png', 'Im_BenStiller.png', 'Im_BradPitt.png', 'Im_DanielRadcliffe.png', 'Im_GeorgeClooney.png', 'Im_DanielCraig.png', 'Im_MattDamon.png'],diff,1,0.5170523000000458,21,78.57142857142857,
MINA0205,train,inv,60,pos60_id13_im10.bmp_pos60_id13_im15.bmp,['Im_RyanGosling.png', 'Im_LeonardoDiCaprio.png', 'Im_RobertPattinson.png', 'Im_PatrickDempsey.png', 'Im_BenStiller.png', 'Im_BradPitt.png', 'Im_DanielRadcliffe.png', 'Im_GeorgeClooney.png', 'Im_DanielCraig.png', 'Im_MattDamon.png'],same,1,0.9003308000000061,22,78.57142857142857,
MINA0205,train,neg,60,neg60_id13_im15.bmp_neg60_id19_im4.bmp,['Im_RyanGosling.png', 'Im_LeonardoDiCaprio.png', 'Im_RobertPattinson.png', 'Im_PatrickDempsey.png', 'Im_BenStiller.png', 'Im_BradPitt.png', 'Im_DanielRadcliffe.png', 'Im_GeorgeClooney.png', 'Im_DanielCraig.png', 'Im_MattDamon.png'],same,0,0.4082102999999506,22,78.57142857142857,
MINA0205,train,neg,fs,negfs_id2_im3.bmp_negfs_id2_im2.bmp,['Im_RyanGosling.png', 'Im_LeonardoDiCaprio.png', 'Im_RobertPattinson.png', 'Im_PatrickDempsey.png', 'Im_BenStiller.png', 'Im_BradPitt.png', 'Im_DanielRadcliffe.png', 'Im_GeorgeClooney.png', 'Im_DanielCraig.png', 'Im_MattDamon.png'],same,1,0.46656849999999395,23,78.57142857142857,
MINA0205,train,neg,90,neg90_id2_im16.bmp_neg90_id2_im2.bmp,['Im_RyanGosling.png', 'Im_LeonardoDiCaprio.png', 'Im_RobertPattinson.png', 'Im_PatrickDempsey.png', 'Im_BenStiller.png', 'Im_BradPitt.png', 'Im_DanielRadcliffe.png', 'Im_GeorgeClooney.png', 'Im_DanielCraig.png', 'Im_MattDamon.png'],same,1,0.41665760000000773,24,78.57142857142857,
MINA0205,train,neg,0,neg0_id13_im29.bmp_neg0_id2_im3.bmp,['Im_RyanGosling.png', 'Im_LeonardoDiCaprio.png', 'Im_RobertPattinson.png', 'Im_PatrickDempsey.png', 'Im_BenStiller.png', 'Im_BradPitt.png', 'Im_DanielRadcliffe.png', 'Im_GeorgeClooney.png', 'Im_DanielCraig.png', 'Im_MattDamon.png'],diff,1,0.4082041000000345,25,78.57142857142857,
MINA0205,train,neg,30,neg30_id13_im29.bmp_neg30_id13_im15.bmp,['Im_RyanGosling.png', 'Im_LeonardoDiCaprio.png', 'Im_RobertPattinson.png', 'Im_PatrickDempsey.png', 'Im_BenStiller.png', 'Im_BradPitt.png', 'Im_DanielRadcliffe.png', 'Im_GeorgeClooney.png', 'Im_DanielCraig.png', 'Im_MattDamon.png'],same,1,0.9512184000000161,26,78.57142857142857,
MINA0205,train,neg,fs,negfs_id2_im3.bmp_negfs_id4_im20.bmp,['Im_RyanGosling.png', 'Im_LeonardoDiCaprio.png', 'Im_RobertPattinson.png', 'Im_PatrickDempsey.png', 'Im_BenStiller.png', 'Im_BradPitt.png', 'Im_DanielRadcliffe.png', 'Im_GeorgeClooney.png', 'Im_DanielCraig.png', 'Im_MattDamon.png'],diff,1,0.7001566000000139,27,78.57142857142857,
MINA0205,train,neg,90,neg90_id20_im12.bmp_neg90_id20_im3.bmp,['Im_RyanGosling.png', 'Im_LeonardoDiCaprio.png', 'Im_RobertPattinson.png', 'Im_PatrickDempsey.png', 'Im_BenStiller.png', 'Im_BradPitt.png', 'Im_DanielRadcliffe.png', 'Im_GeorgeClooney.png', 'Im_DanielCraig.png', 'Im_MattDamon.png'],same,1,0.40847889999997733,28,78.57142857142857,
MINA0205,train,neg,60,neg60_id17_im8.bmp_neg60_id14_im16.bmp,['Im_RyanGosling.png', 'Im_LeonardoDiCaprio.png', 'Im_RobertPattinson.png', 'Im_PatrickDempsey.png', 'Im_BenStiller.png', 'Im_BradPitt.png', 'Im_DanielRadcliffe.png', 'Im_GeorgeClooney.png', 'Im_DanielCraig.png', 'Im_MattDamon.png'],same,0,1.1083895000000439,28,78.57142857142857,
MINA0205,train,neg,150,neg150_id14_im18.bmp_neg150_id14_im24.bmp,['Im_RyanGosling.png', 'Im_LeonardoDiCaprio.png', 'Im_RobertPattinson.png', 'Im_PatrickDempsey.png', 'Im_BenStiller.png', 'Im_BradPitt.png', 'Im_DanielRadcliffe.png', 'Im_GeorgeClooney.png', 'Im_DanielCraig.png', 'Im_MattDamon.png'],diff,0,0.5835846999999603,28,78.57142857142857,
MINA0205,train,neg,150,neg150_id17_im8.bmp_neg150_id17_im9.bmp,['Im_RyanGosling.png', 'Im_LeonardoDiCaprio.png', 'Im_RobertPattinson.png', 'Im_PatrickDempsey.png', 'Im_BenStiller.png', 'Im_BradPitt.png', 'Im_DanielRadcliffe.png', 'Im_GeorgeClooney.png', 'Im_DanielCraig.png', 'Im_MattDamon.png'],same,1,0.41668059999994966,29,78.57142857142857,
MINA0205,train,neg,0,neg0_id5_im20.bmp_neg0_id5_im1.bmp,['Im_RyanGosling.png', 'Im_LeonardoDiCaprio.png', 'Im_RobertPattinson.png', 'Im_PatrickDempsey.png', 'Im_BenStiller.png', 'Im_BradPitt.png', 'Im_DanielRadcliffe.png', 'Im_GeorgeClooney.png', 'Im_DanielCraig.png', 'Im_MattDamon.png'],diff,0,0.46683440000003884,29,78.57142857142857,
MINA0205,train,neg,30,neg30_id3_im8.bmp_neg30_id7_im26.bmp,['Im_RyanGosling.png', 'Im_LeonardoDiCaprio.png', 'Im_RobertPattinson.png', 'Im_PatrickDempsey.png', 'Im_BenStiller.png', 'Im_BradPitt.png', 'Im_DanielRadcliffe.png', 'Im_GeorgeClooney.png', 'Im_DanielCraig.png', 'Im_MattDamon.png'],same,0,0.4002197999999453,29,78.57142857142857,
MINA0205,train,neg,120,neg120_id20_im30.bmp_neg120_id20_im3.bmp,['Im_RyanGosling.png', 'Im_LeonardoDiCaprio.png', 'Im_RobertPattinson.png', 'Im_PatrickDempsey.png', 'Im_BenStiller.png', 'Im_BradPitt.png', 'Im_DanielRadcliffe.png', 'Im_GeorgeClooney.png', 'Im_DanielCraig.png', 'Im_MattDamon.png'],same,1,0.4250380999999379,30,78.57142857142857,
MINA0205,train,neg,120,neg120_id20_im12.bmp_neg120_id20_im30.bmp,['Im_RyanGosling.png', 'Im_LeonardoDiCaprio.png', 'Im_RobertPattinson.png', 'Im_PatrickDempsey.png', 'Im_BenStiller.png', 'Im_BradPitt.png', 'Im_DanielRadcliffe.png', 'Im_GeorgeClooney.png', 'Im_DanielCraig.png', 'Im_MattDamon.png'],same,1,0.41669980000006035,31,78.57142857142857,
MINA0205,train,pos,0,pos0_id20_im30.bmp_pos0_id20_im3.bmp,['Im_RyanGosling.png', 'Im_LeonardoDiCaprio.png', 'Im_RobertPattinson.png', 'Im_PatrickDempsey.png', 'Im_BenStiller.png', 'Im_BradPitt.png', 'Im_DanielRadcliffe.png', 'Im_GeorgeClooney.png', 'Im_DanielCraig.png', 'Im_MattDamon.png'],same,1,0.41651390000015454,1,73.80952380952381,
MINA0205,train,pos,150,pos150_id7_im14.bmp_pos150_id17_im9.bmp,['Im_RyanGosling.png', 'Im_LeonardoDiCaprio.png', 'Im_RobertPattinson.png', 'Im_PatrickDempsey.png', 'Im_BenStiller.png', 'Im_BradPitt.png', 'Im_DanielRadcliffe.png', 'Im_GeorgeClooney.png', 'Im_DanielCraig.png', 'Im_MattDamon.png'],diff,1,0.466547300000002,2,73.80952380952381,
MINA0205,train,pos,30,pos30_id14_im16.bmp_pos30_id14_im18.bmp,['Im_RyanGosling.png', 'Im_LeonardoDiCaprio.png', 'Im_RobertPattinson.png', 'Im_PatrickDempsey.png', 'Im_BenStiller.png', 'Im_BradPitt.png', 'Im_DanielRadcliffe.png', 'Im_GeorgeClooney.png', 'Im_DanielCraig.png', 'Im_MattDamon.png'],same,1,0.4166964999999436,3,73.80952380952381,
MINA0205,train,pos,0,pos0_id4_im20.bmp_pos0_id2_im3.bmp,['Im_RyanGosling.png', 'Im_LeonardoDiCaprio.png', 'Im_RobertPattinson.png', 'Im_PatrickDempsey.png', 'Im_BenStiller.png', 'Im_BradPitt.png', 'Im_DanielRadcliffe.png', 'Im_GeorgeClooney.png', 'Im_DanielCraig.png', 'Im_MattDamon.png'],diff,1,0.6833746999998311,4,73.80952380952381,
MINA0205,train,pos,fs,posfs_id4_im7.bmp_posfs_id19_im4.bmp,['Im_RyanGosling.png', 'Im_LeonardoDiCaprio.png', 'Im_RobertPattinson.png', 'Im_PatrickDempsey.png', 'Im_BenStiller.png', 'Im_BradPitt.png', 'Im_DanielRadcliffe.png', 'Im_GeorgeClooney.png', 'Im_DanielCraig.png', 'Im_MattDamon.png'],diff,1,0.9420247000000472,5,73.80952380952381,
MINA0205,train,pos,fs,posfs_id7_im26.bmp_posfs_id3_im8.bmp,['Im_RyanGosling.png', 'Im_LeonardoDiCaprio.png', 'Im_RobertPattinson.png', 'Im_PatrickDempsey.png', 'Im_BenStiller.png', 'Im_BradPitt.png', 'Im_DanielRadcliffe.png', 'Im_GeorgeClooney.png', 'Im_DanielCraig.png', 'Im_MattDamon.png'],diff,1,0.4754244999999173,6,73.80952380952381,
MINA0205,train,pos,30,pos30_id4_im15.bmp_pos30_id4_im7.bmp,['Im_RyanGosling.png', 'Im_LeonardoDiCaprio.png', 'Im_RobertPattinson.png', 'Im_PatrickDempsey.png', 'Im_BenStiller.png', 'Im_BradPitt.png', 'Im_DanielRadcliffe.png', 'Im_GeorgeClooney.png', 'Im_DanielCraig.png', 'Im_MattDamon.png'],same,1,0.4167578000001413,7,73.80952380952381,
MINA0205,train,pos,120,pos120_id19_im4.bmp_pos120_id4_im7.bmp,['Im_RyanGosling.png', 'Im_LeonardoDiCaprio.png', 'Im_RobertPattinson.png', 'Im_PatrickDempsey.png', 'Im_BenStiller.png', 'Im_BradPitt.png', 'Im_DanielRadcliffe.png', 'Im_GeorgeClooney.png', 'Im_DanielCraig.png', 'Im_MattDamon.png'],diff,1,0.40840270000012424,8,73.80952380952381,
MINA0205,train,pos,60,pos60_id17_im8.bmp_pos60_id14_im16.bmp,['Im_RyanGosling.png', 'Im_LeonardoDiCaprio.png', 'Im_RobertPattinson.png', 'Im_PatrickDempsey.png', 'Im_BenStiller.png', 'Im_BradPitt.png', 'Im_DanielRadcliffe.png', 'Im_GeorgeClooney.png', 'Im_DanielCraig.png', 'Im_MattDamon.png'],diff,1,0.6668447000001834,9,73.80952380952381,
MINA0205,train,pos,150,pos150_id14_im18.bmp_pos150_id20_im12.bmp,['Im_RyanGosling.png', 'Im_LeonardoDiCaprio.png', 'Im_RobertPattinson.png', 'Im_PatrickDempsey.png', 'Im_BenStiller.png', 'Im_BradPitt.png', 'Im_DanielRadcliffe.png', 'Im_GeorgeClooney.png', 'Im_DanielCraig.png', 'Im_MattDamon.png'],diff,1,0.4166743000000679,10,73.80952380952381,
MINA0205,train,pos,120,pos120_id3_im17.bmp_pos120_id13_im10.bmp,['Im_RyanGosling.png', 'Im_LeonardoDiCaprio.png', 'Im_RobertPattinson.png', 'Im_PatrickDempsey.png', 'Im_BenStiller.png', 'Im_BradPitt.png', 'Im_DanielRadcliffe.png', 'Im_GeorgeClooney.png', 'Im_DanielCraig.png', 'Im_MattDamon.png'],same,0,0.641905799999904,10,73.80952380952381,
MINA0205,train,pos,90,pos90_id5_im1.bmp_pos90_id5_im10.bmp,['Im_RyanGosling.png', 'Im_LeonardoDiCaprio.png', 'Im_RobertPattinson.png', 'Im_PatrickDempsey.png', 'Im_BenStiller.png', 'Im_BradPitt.png', 'Im_DanielRadcliffe.png', 'Im_GeorgeClooney.png', 'Im_DanielCraig.png', 'Im_MattDamon.png'],same,1,0.4168778000000657,11,73.80952380952381,
MINA0205,train,pos,90,pos90_id2_im3.bmp_pos90_id2_im16.bmp,['Im_RyanGosling.png', 'Im_LeonardoDiCaprio.png', 'Im_RobertPattinson.png', 'Im_PatrickDempsey.png', 'Im_BenStiller.png', 'Im_BradPitt.png', 'Im_DanielRadcliffe.png', 'Im_GeorgeClooney.png', 'Im_DanielCraig.png', 'Im_MattDamon.png'],same,1,0.4167042000001402,12,73.80952380952381,
MINA0205,train,pos,60,pos60_id3_im8.bmp_pos60_id3_im6.bmp,['Im_RyanGosling.png', 'Im_LeonardoDiCaprio.png', 'Im_RobertPattinson.png', 'Im_PatrickDempsey.png', 'Im_BenStiller.png', 'Im_BradPitt.png', 'Im_DanielRadcliffe.png', 'Im_GeorgeClooney.png', 'Im_DanielCraig.png', 'Im_MattDamon.png'],same,1,0.41686830000003283,13,73.80952380952381,
MINA0205,train,inv,60,pos60_id3_im6.bmp_pos60_id3_im17.bmp,['Im_RyanGosling.png', 'Im_LeonardoDiCaprio.png', 'Im_RobertPattinson.png', 'Im_PatrickDempsey.png', 'Im_BenStiller.png', 'Im_BradPitt.png', 'Im_DanielRadcliffe.png', 'Im_GeorgeClooney.png', 'Im_DanielCraig.png', 'Im_MattDamon.png'],same,1,0.4168683999998848,14,73.80952380952381,
MINA0205,train,inv,150,pos150_id7_im15.bmp_pos150_id2_im16.bmp,['Im_RyanGosling.png', 'Im_LeonardoDiCaprio.png', 'Im_RobertPattinson.png', 'Im_PatrickDempsey.png', 'Im_BenStiller.png', 'Im_BradPitt.png', 'Im_DanielRadcliffe.png', 'Im_GeorgeClooney.png', 'Im_DanielCraig.png', 'Im_MattDamon.png'],same,0,0.44166309999991427,14,73.80952380952381,
MINA0205,train,inv,120,pos120_id20_im12.bmp_pos120_id14_im18.bmp,['Im_RyanGosling.png', 'Im_LeonardoDiCaprio.png', 'Im_RobertPattinson.png', 'Im_PatrickDempsey.png', 'Im_BenStiller.png', 'Im_BradPitt.png', 'Im_DanielRadcliffe.png', 'Im_GeorgeClooney.png', 'Im_DanielCraig.png', 'Im_MattDamon.png'],same,0,0.4835841999999957,14,73.80952380952381,
MINA0205,train,inv,120,pos120_id3_im17.bmp_pos120_id3_im8.bmp,['Im_RyanGosling.png', 'Im_LeonardoDiCaprio.png', 'Im_RobertPattinson.png', 'Im_PatrickDempsey.png', 'Im_BenStiller.png', 'Im_BradPitt.png', 'Im_DanielRadcliffe.png', 'Im_GeorgeClooney.png', 'Im_DanielCraig.png', 'Im_MattDamon.png'],same,1,0.3998855999998341,15,73.80952380952381,
MINA0205,train,inv,60,pos60_id2_im16.bmp_pos60_id2_im3.bmp,['Im_RyanGosling.png', 'Im_LeonardoDiCaprio.png', 'Im_RobertPattinson.png', 'Im_PatrickDempsey.png', 'Im_BenStiller.png', 'Im_BradPitt.png', 'Im_DanielRadcliffe.png', 'Im_GeorgeClooney.png', 'Im_DanielCraig.png', 'Im_MattDamon.png'],same,1,0.4498873000000003,16,73.80952380952381,
MINA0205,train,inv,fs,posfs_id17_im14.bmp_posfs_id17_im9.bmp,['Im_RyanGosling.png', 'Im_LeonardoDiCaprio.png', 'Im_RobertPattinson.png', 'Im_PatrickDempsey.png', 'Im_BenStiller.png', 'Im_BradPitt.png', 'Im_DanielRadcliffe.png', 'Im_GeorgeClooney.png', 'Im_DanielCraig.png', 'Im_MattDamon.png'],same,1,0.4833558999998786,17,73.80952380952381,
MINA0205,train,inv,30,pos30_id13_im10.bmp_pos30_id13_im29.bmp,['Im_RyanGosling.png', 'Im_LeonardoDiCaprio.png', 'Im_RobertPattinson.png', 'Im_PatrickDempsey.png', 'Im_BenStiller.png', 'Im_BradPitt.png', 'Im_DanielRadcliffe.png', 'Im_GeorgeClooney.png', 'Im_DanielCraig.png', 'Im_MattDamon.png'],same,1,0.6998884999998154,18,73.80952380952381,
MINA0205,train,inv,150,pos150_id3_im6.bmp_pos150_id13_im15.bmp,['Im_RyanGosling.png', 'Im_LeonardoDiCaprio.png', 'Im_RobertPattinson.png', 'Im_PatrickDempsey.png', 'Im_BenStiller.png', 'Im_BradPitt.png', 'Im_DanielRadcliffe.png', 'Im_GeorgeClooney.png', 'Im_DanielCraig.png', 'Im_MattDamon.png'],same,0,1.058375500000011,18,73.80952380952381,
MINA0205,train,inv,30,pos30_id3_im6.bmp_pos30_id3_im17.bmp,['Im_RyanGosling.png', 'Im_LeonardoDiCaprio.png', 'Im_RobertPattinson.png', 'Im_PatrickDempsey.png', 'Im_BenStiller.png', 'Im_BradPitt.png', 'Im_DanielRadcliffe.png', 'Im_GeorgeClooney.png', 'Im_DanielCraig.png', 'Im_MattDamon.png'],same,1,1.233371100000113,19,73.80952380952381,
MINA0205,train,inv,90,pos90_id4_im20.bmp_pos90_id7_im14.bmp,['Im_RyanGosling.png', 'Im_LeonardoDiCaprio.png', 'Im_RobertPattinson.png', 'Im_PatrickDempsey.png', 'Im_BenStiller.png', 'Im_BradPitt.png', 'Im_DanielRadcliffe.png', 'Im_GeorgeClooney.png', 'Im_DanielCraig.png', 'Im_MattDamon.png'],diff,1,0.8837101999999959,20,73.80952380952381,
MINA0205,train,inv,90,pos90_id19_im4.bmp_pos90_id19_im27.bmp,['Im_RyanGosling.png', 'Im_LeonardoDiCaprio.png', 'Im_RobertPattinson.png', 'Im_PatrickDempsey.png', 'Im_BenStiller.png', 'Im_BradPitt.png', 'Im_DanielRadcliffe.png', 'Im_GeorgeClooney.png', 'Im_DanielCraig.png', 'Im_MattDamon.png'],diff,0,0.4750321999999869,20,73.80952380952381,
MINA0205,train,inv,0,pos0_id4_im7.bmp_pos0_id19_im8.bmp,['Im_RyanGosling.png', 'Im_LeonardoDiCaprio.png', 'Im_RobertPattinson.png', 'Im_PatrickDempsey.png', 'Im_BenStiller.png', 'Im_BradPitt.png', 'Im_DanielRadcliffe.png', 'Im_GeorgeClooney.png', 'Im_DanielCraig.png', 'Im_MattDamon.png'],same,0,0.4166898000000856,20,73.80952380952381,
MINA0205,train,inv,fs,posfs_id2_im16.bmp_posfs_id7_im15.bmp,['Im_RyanGosling.png', 'Im_LeonardoDiCaprio.png', 'Im_RobertPattinson.png', 'Im_PatrickDempsey.png', 'Im_BenStiller.png', 'Im_BradPitt.png', 'Im_DanielRadcliffe.png', 'Im_GeorgeClooney.png', 'Im_DanielCraig.png', 'Im_MattDamon.png'],same,0,0.45095249999985754,20,73.80952380952381,
MINA0205,train,inv,0,pos0_id13_im29.bmp_pos0_id13_im15.bmp,['Im_RyanGosling.png', 'Im_LeonardoDiCaprio.png', 'Im_RobertPattinson.png', 'Im_PatrickDempsey.png', 'Im_BenStiller.png', 'Im_BradPitt.png', 'Im_DanielRadcliffe.png', 'Im_GeorgeClooney.png', 'Im_DanielCraig.png', 'Im_MattDamon.png'],diff,0,0.4165632000001551,20,73.80952380952381,
MINA0205,train,neg,150,neg150_id7_im15.bmp_neg150_id20_im3.bmp,['Im_RyanGosling.png', 'Im_LeonardoDiCaprio.png', 'Im_RobertPattinson.png', 'Im_PatrickDempsey.png', 'Im_BenStiller.png', 'Im_BradPitt.png', 'Im_DanielRadcliffe.png', 'Im_GeorgeClooney.png', 'Im_DanielCraig.png', 'Im_MattDamon.png'],same,0,0.7166634000000158,20,73.80952380952381,
MINA0205,train,neg,60,neg60_id17_im8.bmp_neg60_id5_im10.bmp,['Im_RyanGosling.png', 'Im_LeonardoDiCaprio.png', 'Im_RobertPattinson.png', 'Im_PatrickDempsey.png', 'Im_BenStiller.png', 'Im_BradPitt.png', 'Im_DanielRadcliffe.png', 'Im_GeorgeClooney.png', 'Im_DanielCraig.png', 'Im_MattDamon.png'],diff,1,0.7170567000000574,21,73.80952380952381,
MINA0205,train,neg,30,neg30_id13_im15.bmp_neg30_id3_im6.bmp,['Im_RyanGosling.png', 'Im_LeonardoDiCaprio.png', 'Im_RobertPattinson.png', 'Im_PatrickDempsey.png', 'Im_BenStiller.png', 'Im_BradPitt.png', 'Im_DanielRadcliffe.png', 'Im_GeorgeClooney.png', 'Im_DanielCraig.png', 'Im_MattDamon.png'],same,0,0.5668201000000863,21,73.80952380952381,
MINA0205,train,neg,90,neg90_id2_im16.bmp_neg90_id2_im3.bmp,['Im_RyanGosling.png', 'Im_LeonardoDiCaprio.png', 'Im_RobertPattinson.png', 'Im_PatrickDempsey.png', 'Im_BenStiller.png', 'Im_BradPitt.png', 'Im_DanielRadcliffe.png', 'Im_GeorgeClooney.png', 'Im_DanielCraig.png', 'Im_MattDamon.png'],same,1,0.5252661000001808,22,73.80952380952381,
MINA0205,train,neg,30,neg30_id19_im4.bmp_neg30_id13_im15.bmp,['Im_RyanGosling.png', 'Im_LeonardoDiCaprio.png', 'Im_RobertPattinson.png', 'Im_PatrickDempsey.png', 'Im_BenStiller.png', 'Im_BradPitt.png', 'Im_DanielRadcliffe.png', 'Im_GeorgeClooney.png', 'Im_DanielCraig.png', 'Im_MattDamon.png'],diff,1,0.41672449999987293,23,73.80952380952381,
MINA0205,train,neg,150,neg150_id14_im18.bmp_neg150_id14_im16.bmp,['Im_RyanGosling.png', 'Im_LeonardoDiCaprio.png', 'Im_RobertPattinson.png', 'Im_PatrickDempsey.png', 'Im_BenStiller.png', 'Im_BradPitt.png', 'Im_DanielRadcliffe.png', 'Im_GeorgeClooney.png', 'Im_DanielCraig.png', 'Im_MattDamon.png'],diff,0,0.9001403999998274,23,73.80952380952381,
MINA0205,train,neg,120,neg120_id2_im2.bmp_neg120_id5_im10.bmp,['Im_RyanGosling.png', 'Im_LeonardoDiCaprio.png', 'Im_RobertPattinson.png', 'Im_PatrickDempsey.png', 'Im_BenStiller.png', 'Im_BradPitt.png', 'Im_DanielRadcliffe.png', 'Im_GeorgeClooney.png', 'Im_DanielCraig.png', 'Im_MattDamon.png'],diff,1,0.4000141999999869,24,73.80952380952381,
MINA0205,train,neg,fs,negfs_id7_im26.bmp_negfs_id3_im8.bmp,['Im_RyanGosling.png', 'Im_LeonardoDiCaprio.png', 'Im_RobertPattinson.png', 'Im_PatrickDempsey.png', 'Im_BenStiller.png', 'Im_BradPitt.png', 'Im_DanielRadcliffe.png', 'Im_GeorgeClooney.png', 'Im_DanielCraig.png', 'Im_MattDamon.png'],diff,1,0.7999202999999397,25,73.80952380952381,
MINA0205,train,neg,fs,negfs_id7_im14.bmp_negfs_id7_im15.bmp,['Im_RyanGosling.png', 'Im_LeonardoDiCaprio.png', 'Im_RobertPattinson.png', 'Im_PatrickDempsey.png', 'Im_BenStiller.png', 'Im_BradPitt.png', 'Im_DanielRadcliffe.png', 'Im_GeorgeClooney.png', 'Im_DanielCraig.png', 'Im_MattDamon.png'],same,1,0.4836325000001125,26,73.80952380952381,
MINA0205,train,neg,0,neg0_id7_im14.bmp_neg0_id17_im9.bmp,['Im_RyanGosling.png', 'Im_LeonardoDiCaprio.png', 'Im_RobertPattinson.png', 'Im_PatrickDempsey.png', 'Im_BenStiller.png', 'Im_BradPitt.png', 'Im_DanielRadcliffe.png', 'Im_GeorgeClooney.png', 'Im_DanielCraig.png', 'Im_MattDamon.png'],same,0,1.12529359999985,26,73.80952380952381,
MINA0205,train,neg,0,neg0_id5_im10.bmp_neg0_id2_im2.bmp,['Im_RyanGosling.png', 'Im_LeonardoDiCaprio.png', 'Im_RobertPattinson.png', 'Im_PatrickDempsey.png', 'Im_BenStiller.png', 'Im_BradPitt.png', 'Im_DanielRadcliffe.png', 'Im_GeorgeClooney.png', 'Im_DanielCraig.png', 'Im_MattDamon.png'],diff,1,0.5666879000000336,27,73.80952380952381,
MINA0205,train,neg,60,neg60_id17_im8.bmp_neg60_id17_im9.bmp,['Im_RyanGosling.png', 'Im_LeonardoDiCaprio.png', 'Im_RobertPattinson.png', 'Im_PatrickDempsey.png', 'Im_BenStiller.png', 'Im_BradPitt.png', 'Im_DanielRadcliffe.png', 'Im_GeorgeClooney.png', 'Im_DanielCraig.png', 'Im_MattDamon.png'],same,1,1.549904799999922,28,73.80952380952381,
MINA0205,train,neg,90,neg90_id17_im9.bmp_neg90_id7_im14.bmp,['Im_RyanGosling.png', 'Im_LeonardoDiCaprio.png', 'Im_RobertPattinson.png', 'Im_PatrickDempsey.png', 'Im_BenStiller.png', 'Im_BradPitt.png', 'Im_DanielRadcliffe.png', 'Im_GeorgeClooney.png', 'Im_DanielCraig.png', 'Im_MattDamon.png'],diff,1,0.41679950000002464,29,73.80952380952381,
MINA0205,train,neg,120,neg120_id2_im16.bmp_neg120_id17_im14.bmp,['Im_RyanGosling.png', 'Im_LeonardoDiCaprio.png', 'Im_RobertPattinson.png', 'Im_PatrickDempsey.png', 'Im_BenStiller.png', 'Im_BradPitt.png', 'Im_DanielRadcliffe.png', 'Im_GeorgeClooney.png', 'Im_DanielCraig.png', 'Im_MattDamon.png'],same,0,0.7916000999998687,29,73.80952380952381,
MINA0205,train,pos,120,pos120_id2_im2.bmp_pos120_id2_im3.bmp,['Im_RyanGosling.png', 'Im_LeonardoDiCaprio.png', 'Im_RobertPattinson.png', 'Im_PatrickDempsey.png', 'Im_BenStiller.png', 'Im_BradPitt.png', 'Im_DanielRadcliffe.png', 'Im_GeorgeClooney.png', 'Im_DanielCraig.png', 'Im_MattDamon.png'],same,1,0.3998781999998755,1,69.04761904761905,
MINA0205,train,pos,fs,posfs_id19_im4.bmp_posfs_id19_im8.bmp,['Im_RyanGosling.png', 'Im_LeonardoDiCaprio.png', 'Im_RobertPattinson.png', 'Im_PatrickDempsey.png', 'Im_BenStiller.png', 'Im_BradPitt.png', 'Im_DanielRadcliffe.png', 'Im_GeorgeClooney.png', 'Im_DanielCraig.png', 'Im_MattDamon.png'],same,1,0.4166904999999588,2,69.04761904761905,
MINA0205,train,pos,0,pos0_id17_im8.bmp_pos0_id17_im9.bmp,['Im_RyanGosling.png', 'Im_LeonardoDiCaprio.png', 'Im_RobertPattinson.png', 'Im_PatrickDempsey.png', 'Im_BenStiller.png', 'Im_BradPitt.png', 'Im_DanielRadcliffe.png', 'Im_GeorgeClooney.png', 'Im_DanielCraig.png', 'Im_MattDamon.png'],same,1,0.4168761999999333,3,69.04761904761905,
MINA0205,train,pos,30,pos30_id14_im18.bmp_pos30_id19_im27.bmp,['Im_RyanGosling.png', 'Im_LeonardoDiCaprio.png', 'Im_RobertPattinson.png', 'Im_PatrickDempsey.png', 'Im_BenStiller.png', 'Im_BradPitt.png', 'Im_DanielRadcliffe.png', 'Im_GeorgeClooney.png', 'Im_DanielCraig.png', 'Im_MattDamon.png'],diff,1,0.8166115999999874,4,69.04761904761905,
MINA0205,train,pos,90,pos90_id4_im15.bmp_pos90_id4_im20.bmp,['Im_RyanGosling.png', 'Im_LeonardoDiCaprio.png', 'Im_RobertPattinson.png', 'Im_PatrickDempsey.png', 'Im_BenStiller.png', 'Im_BradPitt.png', 'Im_DanielRadcliffe.png', 'Im_GeorgeClooney.png', 'Im_DanielCraig.png', 'Im_MattDamon.png'],same,1,0.40821809999988545,5,69.04761904761905,
MINA0205,train,pos,60,pos60_id14_im24.bmp_pos60_id3_im17.bmp,['Im_RyanGosling.png', 'Im_LeonardoDiCaprio.png', 'Im_RobertPattinson.png', 'Im_PatrickDempsey.png', 'Im_BenStiller.png', 'Im_BradPitt.png', 'Im_DanielRadcliffe.png', 'Im_GeorgeClooney.png', 'Im_DanielCraig.png', 'Im_MattDamon.png'],same,0,0.4084509000001617,5,69.04761904761905,
MINA0205,train,pos,150,pos150_id14_im18.bmp_pos150_id14_im24.bmp,['Im_RyanGosling.png', 'Im_LeonardoDiCaprio.png', 'Im_RobertPattinson.png', 'Im_PatrickDempsey.png', 'Im_BenStiller.png', 'Im_BradPitt.png', 'Im_DanielRadcliffe.png', 'Im_GeorgeClooney.png', 'Im_DanielCraig.png', 'Im_MattDamon.png'],same,1,0.4084607000002052,6,69.04761904761905,
MINA0205,train,pos,fs,posfs_id2_im16.bmp_posfs_id2_im3.bmp,['Im_RyanGosling.png', 'Im_LeonardoDiCaprio.png', 'Im_RobertPattinson.png', 'Im_PatrickDempsey.png', 'Im_BenStiller.png', 'Im_BradPitt.png', 'Im_DanielRadcliffe.png', 'Im_GeorgeClooney.png', 'Im_DanielCraig.png', 'Im_MattDamon.png'],same,1,0.43346150000002126,7,69.04761904761905,
MINA0205,train,pos,0,pos0_id4_im7.bmp_pos0_id19_im8.bmp,['Im_RyanGosling.png', 'Im_LeonardoDiCaprio.png', 'Im_RobertPattinson.png', 'Im_PatrickDempsey.png', 'Im_BenStiller.png', 'Im_BradPitt.png', 'Im_DanielRadcliffe.png', 'Im_GeorgeClooney.png', 'Im_DanielCraig.png', 'Im_MattDamon.png'],diff,1,0.40849039999989145,8,69.04761904761905,
MINA0205,train,pos,60,pos60_id19_im4.bmp_pos60_id19_im27.bmp,['Im_RyanGosling.png', 'Im_LeonardoDiCaprio.png', 'Im_RobertPattinson.png', 'Im_PatrickDempsey.png', 'Im_BenStiller.png', 'Im_BradPitt.png', 'Im_DanielRadcliffe.png', 'Im_GeorgeClooney.png', 'Im_DanielCraig.png', 'Im_MattDamon.png'],same,1,0.4085950999999568,9,69.04761904761905,
MINA0205,train,pos,120,pos120_id20_im12.bmp_pos120_id14_im18.bmp,['Im_RyanGosling.png', 'Im_LeonardoDiCaprio.png', 'Im_RobertPattinson.png', 'Im_PatrickDempsey.png', 'Im_BenStiller.png', 'Im_BradPitt.png', 'Im_DanielRadcliffe.png', 'Im_GeorgeClooney.png', 'Im_DanielCraig.png', 'Im_MattDamon.png'],diff,1,0.5748796999998831,10,69.04761904761905,
MINA0205,train,pos,30,pos30_id7_im14.bmp_pos30_id17_im9.bmp,['Im_RyanGosling.png', 'Im_LeonardoDiCaprio.png', 'Im_RobertPattinson.png', 'Im_PatrickDempsey.png', 'Im_BenStiller.png', 'Im_BradPitt.png', 'Im_DanielRadcliffe.png', 'Im_GeorgeClooney.png', 'Im_DanielCraig.png', 'Im_MattDamon.png'],diff,1,0.4502456999998685,11,69.04761904761905,
MINA0205,train,pos,150,pos150_id19_im27.bmp_pos150_id19_im8.bmp,['Im_RyanGosling.png', 'Im_LeonardoDiCaprio.png', 'Im_RobertPattinson.png', 'Im_PatrickDempsey.png', 'Im_BenStiller.png', 'Im_BradPitt.png', 'Im_DanielRadcliffe.png', 'Im_GeorgeClooney.png', 'Im_DanielCraig.png', 'Im_MattDamon.png'],same,1,0.4497450999999728,12,69.04761904761905,
MINA0205,train,pos,90,pos90_id3_im8.bmp_pos90_id3_im17.bmp,['Im_RyanGosling.png', 'Im_LeonardoDiCaprio.png', 'Im_RobertPattinson.png', 'Im_PatrickDempsey.png', 'Im_BenStiller.png', 'Im_BradPitt.png', 'Im_DanielRadcliffe.png', 'Im_GeorgeClooney.png', 'Im_DanielCraig.png', 'Im_MattDamon.png'],same,1,0.8000187999998616,13,69.04761904761905,
MINA0205,train,pos,30,pos30_id14_im24.bmp_pos30_id3_im17.bmp,['Im_RyanGosling.png', 'Im_LeonardoDiCaprio.png', 'Im_RobertPattinson.png', 'Im_PatrickDempsey.png', 'Im_BenStiller.png', 'Im_BradPitt.png', 'Im_DanielRadcliffe.png', 'Im_GeorgeClooney.png', 'Im_DanielCraig.png', 'Im_MattDamon.png'],same,0,0.40841759999989335,13,69.04761904761905,
MINA0205,train,pos,120,pos120_id19_im4.bmp_pos120_id19_im8.bmp,['Im_RyanGosling.png', 'Im_LeonardoDiCaprio.png', 'Im_RobertPattinson.png', 'Im_PatrickDempsey.png', 'Im_BenStiller.png', 'Im_BradPitt.png', 'Im_DanielRadcliffe.png', 'Im_GeorgeClooney.png', 'Im_DanielCraig.png', 'Im_MattDamon.png'],same,1,0.4085658000001331,14,69.04761904761905,
MINA0205,train,pos,90,pos90_id13_im15.bmp_pos90_id3_im6.bmp,['Im_RyanGosling.png', 'Im_LeonardoDiCaprio.png', 'Im_RobertPattinson.png', 'Im_PatrickDempsey.png', 'Im_BenStiller.png', 'Im_BradPitt.png', 'Im_DanielRadcliffe.png', 'Im_GeorgeClooney.png', 'Im_DanielCraig.png', 'Im_MattDamon.png'],same,0,0.7166661000001113,14,69.04761904761905,
MINA0205,train,pos,0,pos0_id4_im7.bmp_pos0_id4_im15.bmp,['Im_RyanGosling.png', 'Im_LeonardoDiCaprio.png', 'Im_RobertPattinson.png', 'Im_PatrickDempsey.png', 'Im_BenStiller.png', 'Im_BradPitt.png', 'Im_DanielRadcliffe.png', 'Im_GeorgeClooney.png', 'Im_DanielCraig.png', 'Im_MattDamon.png'],same,1,0.41644879999989826,15,69.04761904761905,
MINA0205,train,pos,150,pos150_id19_im27.bmp_pos150_id14_im18.bmp,['Im_RyanGosling.png', 'Im_LeonardoDiCaprio.png', 'Im_RobertPattinson.png', 'Im_PatrickDempsey.png', 'Im_BenStiller.png', 'Im_BradPitt.png', 'Im_DanielRadcliffe.png', 'Im_GeorgeClooney.png', 'Im_DanielCraig.png', 'Im_MattDamon.png'],diff,1,0.433492299999898,16,69.04761904761905,
MINA0205,train,pos,60,pos60_id14_im16.bmp_pos60_id14_im18.bmp,['Im_RyanGosling.png', 'Im_LeonardoDiCaprio.png', 'Im_RobertPattinson.png', 'Im_PatrickDempsey.png', 'Im_BenStiller.png', 'Im_BradPitt.png', 'Im_DanielRadcliffe.png', 'Im_GeorgeClooney.png', 'Im_DanielCraig.png', 'Im_MattDamon.png'],same,1,0.4084006999999019,17,69.04761904761905,
MINA0205,train,pos,150,pos150_id3_im6.bmp_pos150_id13_im15.bmp,['Im_RyanGosling.png', 'Im_LeonardoDiCaprio.png', 'Im_RobertPattinson.png', 'Im_PatrickDempsey.png', 'Im_BenStiller.png', 'Im_BradPitt.png', 'Im_DanielRadcliffe.png', 'Im_GeorgeClooney.png', 'Im_DanielCraig.png', 'Im_MattDamon.png'],same,0,1.4584706000000551,17,69.04761904761905,
MINA0205,train,pos,60,pos60_id17_im9.bmp_pos60_id20_im30.bmp,['Im_RyanGosling.png', 'Im_LeonardoDiCaprio.png', 'Im_RobertPattinson.png', 'Im_PatrickDempsey.png', 'Im_BenStiller.png', 'Im_BradPitt.png', 'Im_DanielRadcliffe.png', 'Im_GeorgeClooney.png', 'Im_DanielCraig.png', 'Im_MattDamon.png'],diff,1,0.5330856000000495,18,69.04761904761905,
MINA0205,train,pos,0,pos0_id13_im10.bmp_pos0_id5_im1.bmp,['Im_RyanGosling.png', 'Im_LeonardoDiCaprio.png', 'Im_RobertPattinson.png', 'Im_PatrickDempsey.png', 'Im_BenStiller.png', 'Im_BradPitt.png', 'Im_DanielRadcliffe.png', 'Im_GeorgeClooney.png', 'Im_DanielCraig.png', 'Im_MattDamon.png'],diff,1,0.4168316000000232,19,69.04761904761905,
MINA0205,train,pos,120,pos120_id14_im18.bmp_pos120_id14_im16.bmp,['Im_RyanGosling.png', 'Im_LeonardoDiCaprio.png', 'Im_RobertPattinson.png', 'Im_PatrickDempsey.png', 'Im_BenStiller.png', 'Im_BradPitt.png', 'Im_DanielRadcliffe.png', 'Im_GeorgeClooney.png', 'Im_DanielCraig.png', 'Im_MattDamon.png'],same,1,0.5166278000001512,20,69.04761904761905,
MINA0205,train,pos,fs,posfs_id19_im27.bmp_posfs_id14_im18.bmp,['Im_RyanGosling.png', 'Im_LeonardoDiCaprio.png', 'Im_RobertPattinson.png', 'Im_PatrickDempsey.png', 'Im_BenStiller.png', 'Im_BradPitt.png', 'Im_DanielRadcliffe.png', 'Im_GeorgeClooney.png', 'Im_DanielCraig.png', 'Im_MattDamon.png'],diff,1,0.9585124000000178,21,69.04761904761905,
MINA0205,train,pos,fs,posfs_id20_im12.bmp_posfs_id20_im3.bmp,['Im_RyanGosling.png', 'Im_LeonardoDiCaprio.png', 'Im_RobertPattinson.png', 'Im_PatrickDempsey.png', 'Im_BenStiller.png', 'Im_BradPitt.png', 'Im_DanielRadcliffe.png', 'Im_GeorgeClooney.png', 'Im_DanielCraig.png', 'Im_MattDamon.png'],same,1,0.4167139999999563,22,69.04761904761905,
MINA0205,train,pos,30,pos30_id17_im9.bmp_pos30_id17_im14.bmp,['Im_RyanGosling.png', 'Im_LeonardoDiCaprio.png', 'Im_RobertPattinson.png', 'Im_PatrickDempsey.png', 'Im_BenStiller.png', 'Im_BradPitt.png', 'Im_DanielRadcliffe.png', 'Im_GeorgeClooney.png', 'Im_DanielCraig.png', 'Im_MattDamon.png'],same,1,0.4081498000000465,23,69.04761904761905,
MINA0205,train,pos,90,pos90_id4_im20.bmp_pos90_id4_im7.bmp,['Im_RyanGosling.png', 'Im_LeonardoDiCaprio.png', 'Im_RobertPattinson.png', 'Im_PatrickDempsey.png', 'Im_BenStiller.png', 'Im_BradPitt.png', 'Im_DanielRadcliffe.png', 'Im_GeorgeClooney.png', 'Im_DanielCraig.png', 'Im_MattDamon.png'],same,1,0.41674620000003415,24,69.04761904761905,
MINA0205,train,neg,60,neg60_id14_im24.bmp_neg60_id3_im17.bmp,['Im_RyanGosling.png', 'Im_LeonardoDiCaprio.png', 'Im_RobertPattinson.png', 'Im_PatrickDempsey.png', 'Im_BenStiller.png', 'Im_BradPitt.png', 'Im_DanielRadcliffe.png', 'Im_GeorgeClooney.png', 'Im_DanielCraig.png', 'Im_MattDamon.png'],same,0,0.4083499999999276,24,69.04761904761905,
MINA0205,train,neg,60,neg60_id4_im7.bmp_neg60_id4_im20.bmp,['Im_RyanGosling.png', 'Im_LeonardoDiCaprio.png', 'Im_RobertPattinson.png', 'Im_PatrickDempsey.png', 'Im_BenStiller.png', 'Im_BradPitt.png', 'Im_DanielRadcliffe.png', 'Im_GeorgeClooney.png', 'Im_DanielCraig.png', 'Im_MattDamon.png'],same,1,0.41652750000002925,25,69.04761904761905,
MINA0205,train,neg,fs,negfs_id20_im30.bmp_negfs_id14_im16.bmp,['Im_RyanGosling.png', 'Im_LeonardoDiCaprio.png', 'Im_RobertPattinson.png', 'Im_PatrickDempsey.png', 'Im_BenStiller.png', 'Im_BradPitt.png', 'Im_DanielRadcliffe.png', 'Im_GeorgeClooney.png', 'Im_DanielCraig.png', 'Im_MattDamon.png'],same,0,0.575105399999984,25,69.04761904761905,
MINA0205,train,neg,120,neg120_id19_im4.bmp_neg120_id4_im7.bmp,['Im_RyanGosling.png', 'Im_LeonardoDiCaprio.png', 'Im_RobertPattinson.png', 'Im_PatrickDempsey.png', 'Im_BenStiller.png', 'Im_BradPitt.png', 'Im_DanielRadcliffe.png', 'Im_GeorgeClooney.png', 'Im_DanielCraig.png', 'Im_MattDamon.png'],same,0,0.4168502999998509,25,69.04761904761905,
MINA0205,train,neg,120,neg120_id4_im7.bmp_neg120_id19_im8.bmp,['Im_RyanGosling.png', 'Im_LeonardoDiCaprio.png', 'Im_RobertPattinson.png', 'Im_PatrickDempsey.png', 'Im_BenStiller.png', 'Im_BradPitt.png', 'Im_DanielRadcliffe.png', 'Im_GeorgeClooney.png', 'Im_DanielCraig.png', 'Im_MattDamon.png'],diff,1,1.4002995999999257,26,69.04761904761905,
MINA0205,train,neg,150,neg150_id4_im20.bmp_neg150_id7_im14.bmp,['Im_RyanGosling.png', 'Im_LeonardoDiCaprio.png', 'Im_RobertPattinson.png', 'Im_PatrickDempsey.png', 'Im_BenStiller.png', 'Im_BradPitt.png', 'Im_DanielRadcliffe.png', 'Im_GeorgeClooney.png', 'Im_DanielCraig.png', 'Im_MattDamon.png'],diff,1,0.8834570999999869,27,69.04761904761905,
MINA0205,train,neg,30,neg30_id13_im10.bmp_neg30_id13_im15.bmp,['Im_RyanGosling.png', 'Im_LeonardoDiCaprio.png', 'Im_RobertPattinson.png', 'Im_PatrickDempsey.png', 'Im_BenStiller.png', 'Im_BradPitt.png', 'Im_DanielRadcliffe.png', 'Im_GeorgeClooney.png', 'Im_DanielCraig.png', 'Im_MattDamon.png'],same,1,0.7748886000001676,28,69.04761904761905,
MINA0205,train,neg,0,neg0_id13_im29.bmp_neg0_id14_im24.bmp,['Im_RyanGosling.png', 'Im_LeonardoDiCaprio.png', 'Im_RobertPattinson.png', 'Im_PatrickDempsey.png', 'Im_BenStiller.png', 'Im_BradPitt.png', 'Im_DanielRadcliffe.png', 'Im_GeorgeClooney.png', 'Im_DanielCraig.png', 'Im_MattDamon.png'],diff,1,0.7169671999999991,29,69.04761904761905,
MINA0205,train,neg,90,neg90_id5_im20.bmp_neg90_id17_im14.bmp,['Im_RyanGosling.png', 'Im_LeonardoDiCaprio.png', 'Im_RobertPattinson.png', 'Im_PatrickDempsey.png', 'Im_BenStiller.png', 'Im_BradPitt.png', 'Im_DanielRadcliffe.png', 'Im_GeorgeClooney.png', 'Im_DanielCraig.png', 'Im_MattDamon.png'],diff,1,0.5837109000001419,30,69.04761904761905,
MINA0205,train,neg,0,neg0_id2_im2.bmp_neg0_id2_im3.bmp,['Im_RyanGosling.png', 'Im_LeonardoDiCaprio.png', 'Im_RobertPattinson.png', 'Im_PatrickDempsey.png', 'Im_BenStiller.png', 'Im_BradPitt.png', 'Im_DanielRadcliffe.png', 'Im_GeorgeClooney.png', 'Im_DanielCraig.png', 'Im_MattDamon.png'],diff,0,0.4837878000000728,30,69.04761904761905,
MINA0205,train,neg,90,neg90_id13_im15.bmp_neg90_id13_im29.bmp,['Im_RyanGosling.png', 'Im_LeonardoDiCaprio.png', 'Im_RobertPattinson.png', 'Im_PatrickDempsey.png', 'Im_BenStiller.png', 'Im_BradPitt.png', 'Im_DanielRadcliffe.png', 'Im_GeorgeClooney.png', 'Im_DanielCraig.png', 'Im_MattDamon.png'],same,1,0.4166416999999001,31,69.04761904761905,
MINA0205,train,neg,150,neg150_id2_im3.bmp_neg150_id4_im20.bmp,['Im_RyanGosling.png', 'Im_LeonardoDiCaprio.png', 'Im_RobertPattinson.png', 'Im_PatrickDempsey.png', 'Im_BenStiller.png', 'Im_BradPitt.png', 'Im_DanielRadcliffe.png', 'Im_GeorgeClooney.png', 'Im_DanielCraig.png', 'Im_MattDamon.png'],diff,1,0.40837779999992563,32,69.04761904761905,
MINA0205,train,neg,fs,negfs_id19_im27.bmp_negfs_id3_im8.bmp,['Im_RyanGosling.png', 'Im_LeonardoDiCaprio.png', 'Im_RobertPattinson.png', 'Im_PatrickDempsey.png', 'Im_BenStiller.png', 'Im_BradPitt.png', 'Im_DanielRadcliffe.png', 'Im_GeorgeClooney.png', 'Im_DanielCraig.png', 'Im_MattDamon.png'],diff,1,0.5252206000000115,33,69.04761904761905,
MINA0205,train,neg,30,neg30_id2_im3.bmp_neg30_id4_im20.bmp,['Im_RyanGosling.png', 'Im_LeonardoDiCaprio.png', 'Im_RobertPattinson.png', 'Im_PatrickDempsey.png', 'Im_BenStiller.png', 'Im_BradPitt.png', 'Im_DanielRadcliffe.png', 'Im_GeorgeClooney.png', 'Im_DanielCraig.png', 'Im_MattDamon.png'],diff,1,0.4915856000000076,34,69.04761904761905,
MINA0205,train,inv,0,pos0_id20_im12.bmp_pos0_id4_im15.bmp,['Im_RyanGosling.png', 'Im_LeonardoDiCaprio.png', 'Im_RobertPattinson.png', 'Im_PatrickDempsey.png', 'Im_BenStiller.png', 'Im_BradPitt.png', 'Im_DanielRadcliffe.png', 'Im_GeorgeClooney.png', 'Im_DanielCraig.png', 'Im_MattDamon.png'],same,0,0.41629280000006474,0,80.95238095238095,
MINA0205,train,inv,0,pos0_id14_im24.bmp_pos0_id14_im18.bmp,['Im_RyanGosling.png', 'Im_LeonardoDiCaprio.png', 'Im_RobertPattinson.png', 'Im_PatrickDempsey.png', 'Im_BenStiller.png', 'Im_BradPitt.png', 'Im_DanielRadcliffe.png', 'Im_GeorgeClooney.png', 'Im_DanielCraig.png', 'Im_MattDamon.png'],same,1,0.4166827999999896,1,80.95238095238095,
MINA0205,train,inv,30,pos30_id13_im15.bmp_pos30_id13_im10.bmp,['Im_RyanGosling.png', 'Im_LeonardoDiCaprio.png', 'Im_RobertPattinson.png', 'Im_PatrickDempsey.png', 'Im_BenStiller.png', 'Im_BradPitt.png', 'Im_DanielRadcliffe.png', 'Im_GeorgeClooney.png', 'Im_DanielCraig.png', 'Im_MattDamon.png'],same,1,0.40840989999992416,2,80.95238095238095,
MINA0205,train,inv,fs,posfs_id4_im20.bmp_posfs_id4_im7.bmp,['Im_RyanGosling.png', 'Im_LeonardoDiCaprio.png', 'Im_RobertPattinson.png', 'Im_PatrickDempsey.png', 'Im_BenStiller.png', 'Im_BradPitt.png', 'Im_DanielRadcliffe.png', 'Im_GeorgeClooney.png', 'Im_DanielCraig.png', 'Im_MattDamon.png'],same,1,0.40847370000005867,3,80.95238095238095,
MINA0205,train,inv,30,pos30_id17_im8.bmp_pos30_id14_im16.bmp,['Im_RyanGosling.png', 'Im_LeonardoDiCaprio.png', 'Im_RobertPattinson.png', 'Im_PatrickDempsey.png', 'Im_BenStiller.png', 'Im_BradPitt.png', 'Im_DanielRadcliffe.png', 'Im_GeorgeClooney.png', 'Im_DanielCraig.png', 'Im_MattDamon.png'],same,0,0.4083610000000135,3,80.95238095238095,
MINA0205,train,inv,150,pos150_id7_im15.bmp_pos150_id7_im14.bmp,['Im_RyanGosling.png', 'Im_LeonardoDiCaprio.png', 'Im_RobertPattinson.png', 'Im_PatrickDempsey.png', 'Im_BenStiller.png', 'Im_BradPitt.png', 'Im_DanielRadcliffe.png', 'Im_GeorgeClooney.png', 'Im_DanielCraig.png', 'Im_MattDamon.png'],diff,0,1.8251573999998527,3,80.95238095238095,
MINA0205,train,inv,120,pos120_id3_im17.bmp_pos120_id3_im6.bmp,['Im_RyanGosling.png', 'Im_LeonardoDiCaprio.png', 'Im_RobertPattinson.png', 'Im_PatrickDempsey.png', 'Im_BenStiller.png', 'Im_BradPitt.png', 'Im_DanielRadcliffe.png', 'Im_GeorgeClooney.png', 'Im_DanielCraig.png', 'Im_MattDamon.png'],same,1,1.7332584999999199,4,80.95238095238095,
MINA0205,train,inv,fs,posfs_id20_im3.bmp_posfs_id20_im30.bmp,['Im_RyanGosling.png', 'Im_LeonardoDiCaprio.png', 'Im_RobertPattinson.png', 'Im_PatrickDempsey.png', 'Im_BenStiller.png', 'Im_BradPitt.png', 'Im_DanielRadcliffe.png', 'Im_GeorgeClooney.png', 'Im_DanielCraig.png', 'Im_MattDamon.png'],same,1,0.45849459999999453,5,80.95238095238095,
MINA0205,train,inv,150,pos150_id19_im4.bmp_pos150_id19_im8.bmp,['Im_RyanGosling.png', 'Im_LeonardoDiCaprio.png', 'Im_RobertPattinson.png', 'Im_PatrickDempsey.png', 'Im_BenStiller.png', 'Im_BradPitt.png', 'Im_DanielRadcliffe.png', 'Im_GeorgeClooney.png', 'Im_DanielCraig.png', 'Im_MattDamon.png'],diff,0,0.8252270999998927,5,80.95238095238095,
MINA0205,train,inv,60,pos60_id19_im4.bmp_pos60_id13_im15.bmp,['Im_RyanGosling.png', 'Im_LeonardoDiCaprio.png', 'Im_RobertPattinson.png', 'Im_PatrickDempsey.png', 'Im_BenStiller.png', 'Im_BradPitt.png', 'Im_DanielRadcliffe.png', 'Im_GeorgeClooney.png', 'Im_DanielCraig.png', 'Im_MattDamon.png'],diff,1,0.6419468999999935,6,80.95238095238095,
MINA0205,train,inv,90,pos90_id2_im16.bmp_pos90_id7_im15.bmp,['Im_RyanGosling.png', 'Im_LeonardoDiCaprio.png', 'Im_RobertPattinson.png', 'Im_PatrickDempsey.png', 'Im_BenStiller.png', 'Im_BradPitt.png', 'Im_DanielRadcliffe.png', 'Im_GeorgeClooney.png', 'Im_DanielCraig.png', 'Im_MattDamon.png'],same,0,0.40848890000006577,6,80.95238095238095,
MINA0205,train,inv,90,pos90_id5_im1.bmp_pos90_id5_im10.bmp,['Im_RyanGosling.png', 'Im_LeonardoDiCaprio.png', 'Im_RobertPattinson.png', 'Im_PatrickDempsey.png', 'Im_BenStiller.png', 'Im_BradPitt.png', 'Im_DanielRadcliffe.png', 'Im_GeorgeClooney.png', 'Im_DanielCraig.png', 'Im_MattDamon.png'],same,1,0.40837909999982,7,80.95238095238095,
MINA0205,train,inv,60,pos60_id7_im15.bmp_pos60_id20_im3.bmp,['Im_RyanGosling.png', 'Im_LeonardoDiCaprio.png', 'Im_RobertPattinson.png', 'Im_PatrickDempsey.png', 'Im_BenStiller.png', 'Im_BradPitt.png', 'Im_DanielRadcliffe.png', 'Im_GeorgeClooney.png', 'Im_DanielCraig.png', 'Im_MattDamon.png'],same,0,0.3998215000001437,7,80.95238095238095,
MINA0205,train,inv,120,pos120_id3_im17.bmp_pos120_id13_im10.bmp,['Im_RyanGosling.png', 'Im_LeonardoDiCaprio.png', 'Im_RobertPattinson.png', 'Im_PatrickDempsey.png', 'Im_BenStiller.png', 'Im_BradPitt.png', 'Im_DanielRadcliffe.png', 'Im_GeorgeClooney.png', 'Im_DanielCraig.png', 'Im_MattDamon.png'],same,0,0.40844189999984337,7,80.95238095238095,
MINA0205,train,inv,0,pos0_id4_im20.bmp_pos0_id4_im15.bmp,['Im_RyanGosling.png', 'Im_LeonardoDiCaprio.png', 'Im_RobertPattinson.png', 'Im_PatrickDempsey.png', 'Im_BenStiller.png', 'Im_BradPitt.png', 'Im_DanielRadcliffe.png', 'Im_GeorgeClooney.png', 'Im_DanielCraig.png', 'Im_MattDamon.png'],same,1,0.43361939999999777,8,80.95238095238095,
MINA0205,train,inv,90,pos90_id14_im16.bmp_pos90_id20_im30.bmp,['Im_RyanGosling.png', 'Im_LeonardoDiCaprio.png', 'Im_RobertPattinson.png', 'Im_PatrickDempsey.png', 'Im_BenStiller.png', 'Im_BradPitt.png', 'Im_DanielRadcliffe.png', 'Im_GeorgeClooney.png', 'Im_DanielCraig.png', 'Im_MattDamon.png'],diff,1,4.050275300000067,9,80.95238095238095,
MINA0205,train,inv,120,pos120_id19_im8.bmp_pos120_id4_im7.bmp,['Im_RyanGosling.png', 'Im_LeonardoDiCaprio.png', 'Im_RobertPattinson.png', 'Im_PatrickDempsey.png', 'Im_BenStiller.png', 'Im_BradPitt.png', 'Im_DanielRadcliffe.png', 'Im_GeorgeClooney.png', 'Im_DanielCraig.png', 'Im_MattDamon.png'],diff,1,0.4082734999999502,10,80.95238095238095,
MINA0205,train,inv,90,pos90_id20_im30.bmp_pos90_id20_im3.bmp,['Im_RyanGosling.png', 'Im_LeonardoDiCaprio.png', 'Im_RobertPattinson.png', 'Im_PatrickDempsey.png', 'Im_BenStiller.png', 'Im_BradPitt.png', 'Im_DanielRadcliffe.png', 'Im_GeorgeClooney.png', 'Im_DanielCraig.png', 'Im_MattDamon.png'],same,1,0.6499742000000879,11,80.95238095238095,
MINA0205,train,inv,fs,posfs_id3_im8.bmp_posfs_id19_im27.bmp,['Im_RyanGosling.png', 'Im_LeonardoDiCaprio.png', 'Im_RobertPattinson.png', 'Im_PatrickDempsey.png', 'Im_BenStiller.png', 'Im_BradPitt.png', 'Im_DanielRadcliffe.png', 'Im_GeorgeClooney.png', 'Im_DanielCraig.png', 'Im_MattDamon.png'],diff,1,1.208337899999833,12,80.95238095238095,
MINA0205,train,inv,30,pos30_id3_im17.bmp_pos30_id3_im8.bmp,['Im_RyanGosling.png', 'Im_LeonardoDiCaprio.png', 'Im_RobertPattinson.png', 'Im_PatrickDempsey.png', 'Im_BenStiller.png', 'Im_BradPitt.png', 'Im_DanielRadcliffe.png', 'Im_GeorgeClooney.png', 'Im_DanielCraig.png', 'Im_MattDamon.png'],diff,0,1.0084933000000547,12,80.95238095238095,
MINA0205,train,inv,150,pos150_id7_im15.bmp_pos150_id7_im26.bmp,['Im_RyanGosling.png', 'Im_LeonardoDiCaprio.png', 'Im_RobertPattinson.png', 'Im_PatrickDempsey.png', 'Im_BenStiller.png', 'Im_BradPitt.png', 'Im_DanielRadcliffe.png', 'Im_GeorgeClooney.png', 'Im_DanielCraig.png', 'Im_MattDamon.png'],same,1,0.3996766000000207,13,80.95238095238095,
MINA0205,train,inv,30,pos30_id7_im26.bmp_pos30_id7_im15.bmp,['Im_RyanGosling.png', 'Im_LeonardoDiCaprio.png', 'Im_RobertPattinson.png', 'Im_PatrickDempsey.png', 'Im_BenStiller.png', 'Im_BradPitt.png', 'Im_DanielRadcliffe.png', 'Im_GeorgeClooney.png', 'Im_DanielCraig.png', 'Im_MattDamon.png'],same,1,0.41685179999990396,14,80.95238095238095,
MINA0205,train,inv,60,pos60_id4_im20.bmp_pos60_id4_im15.bmp,['Im_RyanGosling.png', 'Im_LeonardoDiCaprio.png', 'Im_RobertPattinson.png', 'Im_PatrickDempsey.png', 'Im_BenStiller.png', 'Im_BradPitt.png', 'Im_DanielRadcliffe.png', 'Im_GeorgeClooney.png', 'Im_DanielCraig.png', 'Im_MattDamon.png'],same,1,0.6500682999999299,15,80.95238095238095,
MINA0205,train,inv,0,pos0_id2_im2.bmp_pos0_id2_im3.bmp,['Im_RyanGosling.png', 'Im_LeonardoDiCaprio.png', 'Im_RobertPattinson.png', 'Im_PatrickDempsey.png', 'Im_BenStiller.png', 'Im_BradPitt.png', 'Im_DanielRadcliffe.png', 'Im_GeorgeClooney.png', 'Im_DanielCraig.png', 'Im_MattDamon.png'],diff,0,0.7919446000000789,15,80.95238095238095,
MINA0205,train,inv,120,pos120_id20_im30.bmp_pos120_id17_im9.bmp,['Im_RyanGosling.png', 'Im_LeonardoDiCaprio.png', 'Im_RobertPattinson.png', 'Im_PatrickDempsey.png', 'Im_BenStiller.png', 'Im_BradPitt.png', 'Im_DanielRadcliffe.png', 'Im_GeorgeClooney.png', 'Im_DanielCraig.png', 'Im_MattDamon.png'],same,0,0.41670639999983905,15,80.95238095238095,
MINA0205,train,inv,150,pos150_id3_im8.bmp_pos150_id3_im17.bmp,['Im_RyanGosling.png', 'Im_LeonardoDiCaprio.png', 'Im_RobertPattinson.png', 'Im_PatrickDempsey.png', 'Im_BenStiller.png', 'Im_BradPitt.png', 'Im_DanielRadcliffe.png', 'Im_GeorgeClooney.png', 'Im_DanielCraig.png', 'Im_MattDamon.png'],diff,0,0.4086042000001271,15,80.95238095238095,
MINA0205,train,inv,60,pos60_id2_im3.bmp_pos60_id2_im2.bmp,['Im_RyanGosling.png', 'Im_LeonardoDiCaprio.png', 'Im_RobertPattinson.png', 'Im_PatrickDempsey.png', 'Im_BenStiller.png', 'Im_BradPitt.png', 'Im_DanielRadcliffe.png', 'Im_GeorgeClooney.png', 'Im_DanielCraig.png', 'Im_MattDamon.png'],same,1,0.5165249000001495,16,80.95238095238095,
MINA0205,train,inv,fs,posfs_id2_im2.bmp_posfs_id2_im16.bmp,['Im_RyanGosling.png', 'Im_LeonardoDiCaprio.png', 'Im_RobertPattinson.png', 'Im_PatrickDempsey.png', 'Im_BenStiller.png', 'Im_BradPitt.png', 'Im_DanielRadcliffe.png', 'Im_GeorgeClooney.png', 'Im_DanielCraig.png', 'Im_MattDamon.png'],same,1,0.8668142999999873,17,80.95238095238095,
MINA0205,train,pos,fs,posfs_id13_im29.bmp_posfs_id14_im24.bmp,['Im_RyanGosling.png', 'Im_LeonardoDiCaprio.png', 'Im_RobertPattinson.png', 'Im_PatrickDempsey.png', 'Im_BenStiller.png', 'Im_BradPitt.png', 'Im_DanielRadcliffe.png', 'Im_GeorgeClooney.png', 'Im_DanielCraig.png', 'Im_MattDamon.png'],diff,1,1.4000195999999505,18,80.95238095238095,
MINA0205,train,pos,150,pos150_id17_im8.bmp_pos150_id5_im10.bmp,['Im_RyanGosling.png', 'Im_LeonardoDiCaprio.png', 'Im_RobertPattinson.png', 'Im_PatrickDempsey.png', 'Im_BenStiller.png', 'Im_BradPitt.png', 'Im_DanielRadcliffe.png', 'Im_GeorgeClooney.png', 'Im_DanielCraig.png', 'Im_MattDamon.png'],diff,1,0.42544580000003407,19,80.95238095238095,
MINA0205,train,pos,150,pos150_id5_im10.bmp_pos150_id5_im1.bmp,['Im_RyanGosling.png', 'Im_LeonardoDiCaprio.png', 'Im_RobertPattinson.png', 'Im_PatrickDempsey.png', 'Im_BenStiller.png', 'Im_BradPitt.png', 'Im_DanielRadcliffe.png', 'Im_GeorgeClooney.png', 'Im_DanielCraig.png', 'Im_MattDamon.png'],same,1,0.40853420000007645,20,80.95238095238095,
MINA0205,train,pos,0,pos0_id4_im20.bmp_pos0_id4_im15.bmp,['Im_RyanGosling.png', 'Im_LeonardoDiCaprio.png', 'Im_RobertPattinson.png', 'Im_PatrickDempsey.png', 'Im_BenStiller.png', 'Im_BradPitt.png', 'Im_DanielRadcliffe.png', 'Im_GeorgeClooney.png', 'Im_DanielCraig.png', 'Im_MattDamon.png'],same,1,0.41681100000005245,21,80.95238095238095,
MINA0205,train,pos,0,pos0_id2_im2.bmp_pos0_id5_im20.bmp,['Im_RyanGosling.png', 'Im_LeonardoDiCaprio.png', 'Im_RobertPattinson.png', 'Im_PatrickDempsey.png', 'Im_BenStiller.png', 'Im_BradPitt.png', 'Im_DanielRadcliffe.png', 'Im_GeorgeClooney.png', 'Im_DanielCraig.png', 'Im_MattDamon.png'],diff,1,0.4584666000000652,22,80.95238095238095,
MINA0205,train,pos,60,pos60_id2_im16.bmp_pos60_id2_im3.bmp,['Im_RyanGosling.png', 'Im_LeonardoDiCaprio.png', 'Im_RobertPattinson.png', 'Im_PatrickDempsey.png', 'Im_BenStiller.png', 'Im_BradPitt.png', 'Im_DanielRadcliffe.png', 'Im_GeorgeClooney.png', 'Im_DanielCraig.png', 'Im_MattDamon.png'],same,1,0.41689739999992526,23,80.95238095238095,
MINA0205,train,pos,30,pos30_id5_im10.bmp_pos30_id5_im20.bmp,['Im_RyanGosling.png', 'Im_LeonardoDiCaprio.png', 'Im_RobertPattinson.png', 'Im_PatrickDempsey.png', 'Im_BenStiller.png', 'Im_BradPitt.png', 'Im_DanielRadcliffe.png', 'Im_GeorgeClooney.png', 'Im_DanielCraig.png', 'Im_MattDamon.png'],diff,0,0.4165181000000757,23,80.95238095238095,
MINA0205,train,pos,120,pos120_id19_im4.bmp_pos120_id19_im27.bmp,['Im_RyanGosling.png', 'Im_LeonardoDiCaprio.png', 'Im_RobertPattinson.png', 'Im_PatrickDempsey.png', 'Im_BenStiller.png', 'Im_BradPitt.png', 'Im_DanielRadcliffe.png', 'Im_GeorgeClooney.png', 'Im_DanielCraig.png', 'Im_MattDamon.png'],same,1,0.5916288999999324,24,80.95238095238095,
MINA0205,train,pos,90,pos90_id14_im16.bmp_pos90_id20_im30.bmp,['Im_RyanGosling.png', 'Im_LeonardoDiCaprio.png', 'Im_RobertPattinson.png', 'Im_PatrickDempsey.png', 'Im_BenStiller.png', 'Im_BradPitt.png', 'Im_DanielRadcliffe.png', 'Im_GeorgeClooney.png', 'Im_DanielCraig.png', 'Im_MattDamon.png'],diff,1,0.41672090000020034,25,80.95238095238095,
MINA0205,train,pos,120,pos120_id17_im8.bmp_pos120_id5_im10.bmp,['Im_RyanGosling.png', 'Im_LeonardoDiCaprio.png', 'Im_RobertPattinson.png', 'Im_PatrickDempsey.png', 'Im_BenStiller.png', 'Im_BradPitt.png', 'Im_DanielRadcliffe.png', 'Im_GeorgeClooney.png', 'Im_DanielCraig.png', 'Im_MattDamon.png'],diff,1,0.39974129999995967,26,80.95238095238095,
MINA0205,train,pos,fs,posfs_id5_im20.bmp_posfs_id2_im2.bmp,['Im_RyanGosling.png', 'Im_LeonardoDiCaprio.png', 'Im_RobertPattinson.png', 'Im_PatrickDempsey.png', 'Im_BenStiller.png', 'Im_BradPitt.png', 'Im_DanielRadcliffe.png', 'Im_GeorgeClooney.png', 'Im_DanielCraig.png', 'Im_MattDamon.png'],diff,1,0.4168646999999055,27,80.95238095238095,
MINA0205,train,pos,60,pos60_id4_im15.bmp_pos60_id20_im12.bmp,['Im_RyanGosling.png', 'Im_LeonardoDiCaprio.png', 'Im_RobertPattinson.png', 'Im_PatrickDempsey.png', 'Im_BenStiller.png', 'Im_BradPitt.png', 'Im_DanielRadcliffe.png', 'Im_GeorgeClooney.png', 'Im_DanielCraig.png', 'Im_MattDamon.png'],diff,1,0.4415632000000187,28,80.95238095238095,
MINA0205,train,pos,90,pos90_id17_im14.bmp_pos90_id17_im9.bmp,['Im_RyanGosling.png', 'Im_LeonardoDiCaprio.png', 'Im_RobertPattinson.png', 'Im_PatrickDempsey.png', 'Im_BenStiller.png', 'Im_BradPitt.png', 'Im_DanielRadcliffe.png', 'Im_GeorgeClooney.png', 'Im_DanielCraig.png', 'Im_MattDamon.png'],same,1,0.7584549999999126,29,80.95238095238095,
