Sujet,Trial,Condition,Filter,Imname,Actor0,Actor1,Actor2,Actor3,Actor4,Actor5,Actor6,Actor7,Actor8,Actor9,Answer,Accu,RT,Score,Scoreperc, 
PHAN0707,train,pos,120,pos120_id11_im1.bmp_pos120_id4_im15.bmp,['Im_LeonardoDiCaprio.png', 'Im_RobertDowneyJr.png', 'Im_RyanReynolds.png', 'Im_MattDamon.png', 'Im_ElijahWood.png', 'Im_DanielCraig.png', 'Im_BenStiller.png', 'Im_KeanuReeves.png', 'Im_BradPitt.png', 'Im_RobertPattinson.png'],diff,1,3.2584565000015573,1,0,
PHAN0707,train,pos,120,pos120_id4_im20.bmp_pos120_id21_im17.bmp,['Im_LeonardoDiCaprio.png', 'Im_RobertDowneyJr.png', 'Im_RyanReynolds.png', 'Im_MattDamon.png', 'Im_ElijahWood.png', 'Im_DanielCraig.png', 'Im_BenStiller.png', 'Im_KeanuReeves.png', 'Im_BradPitt.png', 'Im_RobertPattinson.png'],same,0,3.0500448000002507,1,0,
PHAN0707,train,pos,60,pos60_id19_im27.bmp_pos60_id13_im15.bmp,['Im_LeonardoDiCaprio.png', 'Im_RobertDowneyJr.png', 'Im_RyanReynolds.png', 'Im_MattDamon.png', 'Im_ElijahWood.png', 'Im_DanielCraig.png', 'Im_BenStiller.png', 'Im_KeanuReeves.png', 'Im_BradPitt.png', 'Im_RobertPattinson.png'],diff,1,0.42497739999998885,2,0,
PHAN0707,train,pos,0,pos0_id4_im7.bmp_pos0_id4_im20.bmp,['Im_LeonardoDiCaprio.png', 'Im_RobertDowneyJr.png', 'Im_RyanReynolds.png', 'Im_MattDamon.png', 'Im_ElijahWood.png', 'Im_DanielCraig.png', 'Im_BenStiller.png', 'Im_KeanuReeves.png', 'Im_BradPitt.png', 'Im_RobertPattinson.png'],same,1,0.8750222999988182,3,0,
PHAN0707,train,pos,60,pos60_id3_im8.bmp_pos60_id3_im17.bmp,['Im_LeonardoDiCaprio.png', 'Im_RobertDowneyJr.png', 'Im_RyanReynolds.png', 'Im_MattDamon.png', 'Im_ElijahWood.png', 'Im_DanielCraig.png', 'Im_BenStiller.png', 'Im_KeanuReeves.png', 'Im_BradPitt.png', 'Im_RobertPattinson.png'],same,1,0.45007100000111677,4,0,
PHAN0707,train,pos,150,pos150_id13_im10.bmp_pos150_id14_im18.bmp,['Im_LeonardoDiCaprio.png', 'Im_RobertDowneyJr.png', 'Im_RyanReynolds.png', 'Im_MattDamon.png', 'Im_ElijahWood.png', 'Im_DanielCraig.png', 'Im_BenStiller.png', 'Im_KeanuReeves.png', 'Im_BradPitt.png', 'Im_RobertPattinson.png'],diff,1,0.942050300000119,5,0,
PHAN0707,train,pos,fs,posfs_id4_im7.bmp_posfs_id21_im17.bmp,['Im_LeonardoDiCaprio.png', 'Im_RobertDowneyJr.png', 'Im_RyanReynolds.png', 'Im_MattDamon.png', 'Im_ElijahWood.png', 'Im_DanielCraig.png', 'Im_BenStiller.png', 'Im_KeanuReeves.png', 'Im_BradPitt.png', 'Im_RobertPattinson.png'],diff,1,0.4081889000008232,6,0,
PHAN0707,train,pos,0,pos0_id2_im16.bmp_pos0_id13_im29.bmp,['Im_LeonardoDiCaprio.png', 'Im_RobertDowneyJr.png', 'Im_RyanReynolds.png', 'Im_MattDamon.png', 'Im_ElijahWood.png', 'Im_DanielCraig.png', 'Im_BenStiller.png', 'Im_KeanuReeves.png', 'Im_BradPitt.png', 'Im_RobertPattinson.png'],same,0,0.7998646999985795,6,0,
PHAN0707,train,pos,fs,posfs_id14_im18.bmp_posfs_id14_im16.bmp,['Im_LeonardoDiCaprio.png', 'Im_RobertDowneyJr.png', 'Im_RyanReynolds.png', 'Im_MattDamon.png', 'Im_ElijahWood.png', 'Im_DanielCraig.png', 'Im_BenStiller.png', 'Im_KeanuReeves.png', 'Im_BradPitt.png', 'Im_RobertPattinson.png'],same,1,0.6081324000006134,7,0,
PHAN0707,train,pos,30,pos30_id6_im19.bmp_pos30_id6_im18.bmp,['Im_LeonardoDiCaprio.png', 'Im_RobertDowneyJr.png', 'Im_RyanReynolds.png', 'Im_MattDamon.png', 'Im_ElijahWood.png', 'Im_DanielCraig.png', 'Im_BenStiller.png', 'Im_KeanuReeves.png', 'Im_BradPitt.png', 'Im_RobertPattinson.png'],same,1,0.42506540000067616,8,0,
PHAN0707,train,pos,90,pos90_id4_im15.bmp_pos90_id4_im20.bmp,['Im_LeonardoDiCaprio.png', 'Im_RobertDowneyJr.png', 'Im_RyanReynolds.png', 'Im_MattDamon.png', 'Im_ElijahWood.png', 'Im_DanielCraig.png', 'Im_BenStiller.png', 'Im_KeanuReeves.png', 'Im_BradPitt.png', 'Im_RobertPattinson.png'],same,1,0.4248875000012049,9,0,
PHAN0707,train,pos,90,pos90_id11_im10.bmp_pos90_id2_im2.bmp,['Im_LeonardoDiCaprio.png', 'Im_RobertDowneyJr.png', 'Im_RyanReynolds.png', 'Im_MattDamon.png', 'Im_ElijahWood.png', 'Im_DanielCraig.png', 'Im_BenStiller.png', 'Im_KeanuReeves.png', 'Im_BradPitt.png', 'Im_RobertPattinson.png'],diff,1,0.8748491999995167,10,0,
PHAN0707,train,pos,150,pos150_id13_im15.bmp_pos150_id19_im27.bmp,['Im_LeonardoDiCaprio.png', 'Im_RobertDowneyJr.png', 'Im_RyanReynolds.png', 'Im_MattDamon.png', 'Im_ElijahWood.png', 'Im_DanielCraig.png', 'Im_BenStiller.png', 'Im_KeanuReeves.png', 'Im_BradPitt.png', 'Im_RobertPattinson.png'],diff,1,0.4250042999992729,11,0,
PHAN0707,train,pos,30,pos30_id18_im19.bmp_pos30_id18_im11.bmp,['Im_LeonardoDiCaprio.png', 'Im_RobertDowneyJr.png', 'Im_RyanReynolds.png', 'Im_MattDamon.png', 'Im_ElijahWood.png', 'Im_DanielCraig.png', 'Im_BenStiller.png', 'Im_KeanuReeves.png', 'Im_BradPitt.png', 'Im_RobertPattinson.png'],same,1,0.41690400000152295,12,0,
PHAN0707,train,neg,60,neg60_id11_im2.bmp_neg60_id11_im1.bmp,['Im_LeonardoDiCaprio.png', 'Im_RobertDowneyJr.png', 'Im_RyanReynolds.png', 'Im_MattDamon.png', 'Im_ElijahWood.png', 'Im_DanielCraig.png', 'Im_BenStiller.png', 'Im_KeanuReeves.png', 'Im_BradPitt.png', 'Im_RobertPattinson.png'],diff,0,0.751019900000756,12,0,
PHAN0707,train,neg,fs,negfs_id19_im4.bmp_negfs_id6_im18.bmp,['Im_LeonardoDiCaprio.png', 'Im_RobertDowneyJr.png', 'Im_RyanReynolds.png', 'Im_MattDamon.png', 'Im_ElijahWood.png', 'Im_DanielCraig.png', 'Im_BenStiller.png', 'Im_KeanuReeves.png', 'Im_BradPitt.png', 'Im_RobertPattinson.png'],same,0,0.4167433999991772,12,0,
PHAN0707,train,neg,60,neg60_id19_im8.bmp_neg60_id19_im4.bmp,['Im_LeonardoDiCaprio.png', 'Im_RobertDowneyJr.png', 'Im_RyanReynolds.png', 'Im_MattDamon.png', 'Im_ElijahWood.png', 'Im_DanielCraig.png', 'Im_BenStiller.png', 'Im_KeanuReeves.png', 'Im_BradPitt.png', 'Im_RobertPattinson.png'],diff,0,1.0584029000001465,12,0,
PHAN0707,train,neg,120,neg120_id6_im18.bmp_neg120_id6_im19.bmp,['Im_LeonardoDiCaprio.png', 'Im_RobertDowneyJr.png', 'Im_RyanReynolds.png', 'Im_MattDamon.png', 'Im_ElijahWood.png', 'Im_DanielCraig.png', 'Im_BenStiller.png', 'Im_KeanuReeves.png', 'Im_BradPitt.png', 'Im_RobertPattinson.png'],same,1,0.8252018999992288,13,0,
PHAN0707,train,neg,90,neg90_id13_im29.bmp_neg90_id13_im15.bmp,['Im_LeonardoDiCaprio.png', 'Im_RobertDowneyJr.png', 'Im_RyanReynolds.png', 'Im_MattDamon.png', 'Im_ElijahWood.png', 'Im_DanielCraig.png', 'Im_BenStiller.png', 'Im_KeanuReeves.png', 'Im_BradPitt.png', 'Im_RobertPattinson.png'],diff,0,0.41656479999983276,13,0,
PHAN0707,train,neg,0,neg0_id11_im1.bmp_neg0_id4_im15.bmp,['Im_LeonardoDiCaprio.png', 'Im_RobertDowneyJr.png', 'Im_RyanReynolds.png', 'Im_MattDamon.png', 'Im_ElijahWood.png', 'Im_DanielCraig.png', 'Im_BenStiller.png', 'Im_KeanuReeves.png', 'Im_BradPitt.png', 'Im_RobertPattinson.png'],same,0,1.1332281999984843,13,0,
PHAN0707,train,neg,fs,negfs_id4_im20.bmp_negfs_id21_im17.bmp,['Im_LeonardoDiCaprio.png', 'Im_RobertDowneyJr.png', 'Im_RyanReynolds.png', 'Im_MattDamon.png', 'Im_ElijahWood.png', 'Im_DanielCraig.png', 'Im_BenStiller.png', 'Im_KeanuReeves.png', 'Im_BradPitt.png', 'Im_RobertPattinson.png'],diff,1,0.4083387999999104,14,0,
PHAN0707,train,neg,30,neg30_id18_im18.bmp_neg30_id11_im10.bmp,['Im_LeonardoDiCaprio.png', 'Im_RobertDowneyJr.png', 'Im_RyanReynolds.png', 'Im_MattDamon.png', 'Im_ElijahWood.png', 'Im_DanielCraig.png', 'Im_BenStiller.png', 'Im_KeanuReeves.png', 'Im_BradPitt.png', 'Im_RobertPattinson.png'],none,1,4.408260000000155,14,0,
PHAN0707,train,neg,150,neg150_id6_im18.bmp_neg150_id6_im12.bmp,['Im_LeonardoDiCaprio.png', 'Im_RobertDowneyJr.png', 'Im_RyanReynolds.png', 'Im_MattDamon.png', 'Im_ElijahWood.png', 'Im_DanielCraig.png', 'Im_BenStiller.png', 'Im_KeanuReeves.png', 'Im_BradPitt.png', 'Im_RobertPattinson.png'],same,1,0.9333630000000994,15,0,
PHAN0707,train,neg,0,neg0_id11_im1.bmp_neg0_id2_im16.bmp,['Im_LeonardoDiCaprio.png', 'Im_RobertDowneyJr.png', 'Im_RyanReynolds.png', 'Im_MattDamon.png', 'Im_ElijahWood.png', 'Im_DanielCraig.png', 'Im_BenStiller.png', 'Im_KeanuReeves.png', 'Im_BradPitt.png', 'Im_RobertPattinson.png'],diff,1,0.42507339999974647,16,0,
PHAN0707,train,neg,30,neg30_id2_im2.bmp_neg30_id2_im3.bmp,['Im_LeonardoDiCaprio.png', 'Im_RobertDowneyJr.png', 'Im_RyanReynolds.png', 'Im_MattDamon.png', 'Im_ElijahWood.png', 'Im_DanielCraig.png', 'Im_BenStiller.png', 'Im_KeanuReeves.png', 'Im_BradPitt.png', 'Im_RobertPattinson.png'],same,1,0.6417068999999174,17,0,
PHAN0707,train,neg,150,neg150_id3_im17.bmp_neg150_id19_im27.bmp,['Im_LeonardoDiCaprio.png', 'Im_RobertDowneyJr.png', 'Im_RyanReynolds.png', 'Im_MattDamon.png', 'Im_ElijahWood.png', 'Im_DanielCraig.png', 'Im_BenStiller.png', 'Im_KeanuReeves.png', 'Im_BradPitt.png', 'Im_RobertPattinson.png'],diff,1,0.5000557000003027,18,0,
PHAN0707,train,neg,120,neg120_id19_im8.bmp_neg120_id19_im27.bmp,['Im_LeonardoDiCaprio.png', 'Im_RobertDowneyJr.png', 'Im_RyanReynolds.png', 'Im_MattDamon.png', 'Im_ElijahWood.png', 'Im_DanielCraig.png', 'Im_BenStiller.png', 'Im_KeanuReeves.png', 'Im_BradPitt.png', 'Im_RobertPattinson.png'],same,1,0.4167105000014999,19,0,
PHAN0707,train,neg,90,neg90_id4_im20.bmp_neg90_id4_im7.bmp,['Im_LeonardoDiCaprio.png', 'Im_RobertDowneyJr.png', 'Im_RyanReynolds.png', 'Im_MattDamon.png', 'Im_ElijahWood.png', 'Im_DanielCraig.png', 'Im_BenStiller.png', 'Im_KeanuReeves.png', 'Im_BradPitt.png', 'Im_RobertPattinson.png'],same,1,1.2253516000000673,20,0,
PHAN0707,train,pos,90,pos90_id21_im22.bmp_pos90_id11_im2.bmp,['Im_LeonardoDiCaprio.png', 'Im_RobertDowneyJr.png', 'Im_RyanReynolds.png', 'Im_MattDamon.png', 'Im_ElijahWood.png', 'Im_DanielCraig.png', 'Im_BenStiller.png', 'Im_KeanuReeves.png', 'Im_BradPitt.png', 'Im_RobertPattinson.png'],diff,1,0.40829370000028575,21,0,
PHAN0707,train,pos,120,pos120_id6_im18.bmp_pos120_id21_im16.bmp,['Im_LeonardoDiCaprio.png', 'Im_RobertDowneyJr.png', 'Im_RyanReynolds.png', 'Im_MattDamon.png', 'Im_ElijahWood.png', 'Im_DanielCraig.png', 'Im_BenStiller.png', 'Im_KeanuReeves.png', 'Im_BradPitt.png', 'Im_RobertPattinson.png'],diff,1,0.42522859999917273,22,0,
PHAN0707,train,pos,90,pos90_id3_im17.bmp_pos90_id19_im27.bmp,['Im_LeonardoDiCaprio.png', 'Im_RobertDowneyJr.png', 'Im_RyanReynolds.png', 'Im_MattDamon.png', 'Im_ElijahWood.png', 'Im_DanielCraig.png', 'Im_BenStiller.png', 'Im_KeanuReeves.png', 'Im_BradPitt.png', 'Im_RobertPattinson.png'],diff,1,0.4083395000016026,23,0,
PHAN0707,train,pos,150,pos150_id19_im27.bmp_pos150_id19_im4.bmp,['Im_LeonardoDiCaprio.png', 'Im_RobertDowneyJr.png', 'Im_RyanReynolds.png', 'Im_MattDamon.png', 'Im_ElijahWood.png', 'Im_DanielCraig.png', 'Im_BenStiller.png', 'Im_KeanuReeves.png', 'Im_BradPitt.png', 'Im_RobertPattinson.png'],same,1,0.6173318000001018,24,0,
PHAN0707,train,pos,fs,posfs_id19_im8.bmp_posfs_id19_im4.bmp,['Im_LeonardoDiCaprio.png', 'Im_RobertDowneyJr.png', 'Im_RyanReynolds.png', 'Im_MattDamon.png', 'Im_ElijahWood.png', 'Im_DanielCraig.png', 'Im_BenStiller.png', 'Im_KeanuReeves.png', 'Im_BradPitt.png', 'Im_RobertPattinson.png'],same,1,0.40840299999945273,25,0,
PHAN0707,train,pos,120,pos120_id3_im17.bmp_pos120_id3_im6.bmp,['Im_LeonardoDiCaprio.png', 'Im_RobertDowneyJr.png', 'Im_RyanReynolds.png', 'Im_MattDamon.png', 'Im_ElijahWood.png', 'Im_DanielCraig.png', 'Im_BenStiller.png', 'Im_KeanuReeves.png', 'Im_BradPitt.png', 'Im_RobertPattinson.png'],same,1,0.425076600000466,26,0,
PHAN0707,train,pos,0,pos0_id21_im22.bmp_pos0_id3_im6.bmp,['Im_LeonardoDiCaprio.png', 'Im_RobertDowneyJr.png', 'Im_RyanReynolds.png', 'Im_MattDamon.png', 'Im_ElijahWood.png', 'Im_DanielCraig.png', 'Im_BenStiller.png', 'Im_KeanuReeves.png', 'Im_BradPitt.png', 'Im_RobertPattinson.png'],diff,1,0.7419340999986161,27,0,
PHAN0707,train,pos,60,pos60_id13_im15.bmp_pos60_id18_im11.bmp,['Im_LeonardoDiCaprio.png', 'Im_RobertDowneyJr.png', 'Im_RyanReynolds.png', 'Im_MattDamon.png', 'Im_ElijahWood.png', 'Im_DanielCraig.png', 'Im_BenStiller.png', 'Im_KeanuReeves.png', 'Im_BradPitt.png', 'Im_RobertPattinson.png'],diff,1,0.6251229000008607,28,0,
PHAN0707,train,pos,30,pos30_id13_im29.bmp_pos30_id2_im16.bmp,['Im_LeonardoDiCaprio.png', 'Im_RobertDowneyJr.png', 'Im_RyanReynolds.png', 'Im_MattDamon.png', 'Im_ElijahWood.png', 'Im_DanielCraig.png', 'Im_BenStiller.png', 'Im_KeanuReeves.png', 'Im_BradPitt.png', 'Im_RobertPattinson.png'],same,0,1.041622600001574,28,0,
PHAN0707,train,pos,0,pos0_id6_im19.bmp_pos0_id19_im4.bmp,['Im_LeonardoDiCaprio.png', 'Im_RobertDowneyJr.png', 'Im_RyanReynolds.png', 'Im_MattDamon.png', 'Im_ElijahWood.png', 'Im_DanielCraig.png', 'Im_BenStiller.png', 'Im_KeanuReeves.png', 'Im_BradPitt.png', 'Im_RobertPattinson.png'],same,0,0.725190000001021,28,0,
PHAN0707,train,pos,30,pos30_id2_im2.bmp_pos30_id11_im10.bmp,['Im_LeonardoDiCaprio.png', 'Im_RobertDowneyJr.png', 'Im_RyanReynolds.png', 'Im_MattDamon.png', 'Im_ElijahWood.png', 'Im_DanielCraig.png', 'Im_BenStiller.png', 'Im_KeanuReeves.png', 'Im_BradPitt.png', 'Im_RobertPattinson.png'],diff,1,0.48321580000083486,29,0,
PHAN0707,train,pos,fs,posfs_id14_im18.bmp_posfs_id14_im24.bmp,['Im_LeonardoDiCaprio.png', 'Im_RobertDowneyJr.png', 'Im_RyanReynolds.png', 'Im_MattDamon.png', 'Im_ElijahWood.png', 'Im_DanielCraig.png', 'Im_BenStiller.png', 'Im_KeanuReeves.png', 'Im_BradPitt.png', 'Im_RobertPattinson.png'],same,1,0.4666914999997971,30,0,
PHAN0707,train,pos,60,pos60_id11_im1.bmp_pos60_id11_im10.bmp,['Im_LeonardoDiCaprio.png', 'Im_RobertDowneyJr.png', 'Im_RyanReynolds.png', 'Im_MattDamon.png', 'Im_ElijahWood.png', 'Im_DanielCraig.png', 'Im_BenStiller.png', 'Im_KeanuReeves.png', 'Im_BradPitt.png', 'Im_RobertPattinson.png'],same,1,0.40838930000063556,31,0,
PHAN0707,train,pos,150,pos150_id18_im18.bmp_pos150_id18_im19.bmp,['Im_LeonardoDiCaprio.png', 'Im_RobertDowneyJr.png', 'Im_RyanReynolds.png', 'Im_MattDamon.png', 'Im_ElijahWood.png', 'Im_DanielCraig.png', 'Im_BenStiller.png', 'Im_KeanuReeves.png', 'Im_BradPitt.png', 'Im_RobertPattinson.png'],same,1,0.41667769999912707,32,0,
PHAN0707,train,inv,120,pos120_id18_im18.bmp_pos120_id18_im11.bmp,['Im_LeonardoDiCaprio.png', 'Im_RobertDowneyJr.png', 'Im_RyanReynolds.png', 'Im_MattDamon.png', 'Im_ElijahWood.png', 'Im_DanielCraig.png', 'Im_BenStiller.png', 'Im_KeanuReeves.png', 'Im_BradPitt.png', 'Im_RobertPattinson.png'],same,1,0.7250418000003265,1,76.19047619047619,
PHAN0707,train,inv,fs,posfs_id14_im18.bmp_posfs_id14_im16.bmp,['Im_LeonardoDiCaprio.png', 'Im_RobertDowneyJr.png', 'Im_RyanReynolds.png', 'Im_MattDamon.png', 'Im_ElijahWood.png', 'Im_DanielCraig.png', 'Im_BenStiller.png', 'Im_KeanuReeves.png', 'Im_BradPitt.png', 'Im_RobertPattinson.png'],same,1,0.4421840000013617,2,76.19047619047619,
PHAN0707,train,inv,90,pos90_id18_im11.bmp_pos90_id2_im3.bmp,['Im_LeonardoDiCaprio.png', 'Im_RobertDowneyJr.png', 'Im_RyanReynolds.png', 'Im_MattDamon.png', 'Im_ElijahWood.png', 'Im_DanielCraig.png', 'Im_BenStiller.png', 'Im_KeanuReeves.png', 'Im_BradPitt.png', 'Im_RobertPattinson.png'],same,0,0.9418359000010241,2,76.19047619047619,
PHAN0707,train,inv,90,pos90_id21_im16.bmp_pos90_id21_im22.bmp,['Im_LeonardoDiCaprio.png', 'Im_RobertDowneyJr.png', 'Im_RyanReynolds.png', 'Im_MattDamon.png', 'Im_ElijahWood.png', 'Im_DanielCraig.png', 'Im_BenStiller.png', 'Im_KeanuReeves.png', 'Im_BradPitt.png', 'Im_RobertPattinson.png'],none,0,4.416516199999023,2,76.19047619047619,
PHAN0707,train,inv,0,pos0_id13_im10.bmp_pos0_id13_im29.bmp,['Im_LeonardoDiCaprio.png', 'Im_RobertDowneyJr.png', 'Im_RyanReynolds.png', 'Im_MattDamon.png', 'Im_ElijahWood.png', 'Im_DanielCraig.png', 'Im_BenStiller.png', 'Im_KeanuReeves.png', 'Im_BradPitt.png', 'Im_RobertPattinson.png'],same,1,0.4581512000004295,3,76.19047619047619,
PHAN0707,train,inv,30,pos30_id13_im15.bmp_pos30_id18_im11.bmp,['Im_LeonardoDiCaprio.png', 'Im_RobertDowneyJr.png', 'Im_RyanReynolds.png', 'Im_MattDamon.png', 'Im_ElijahWood.png', 'Im_DanielCraig.png', 'Im_BenStiller.png', 'Im_KeanuReeves.png', 'Im_BradPitt.png', 'Im_RobertPattinson.png'],same,0,0.42531939999935275,3,76.19047619047619,
PHAN0707,train,inv,60,pos60_id13_im10.bmp_pos60_id14_im18.bmp,['Im_LeonardoDiCaprio.png', 'Im_RobertDowneyJr.png', 'Im_RyanReynolds.png', 'Im_MattDamon.png', 'Im_ElijahWood.png', 'Im_DanielCraig.png', 'Im_BenStiller.png', 'Im_KeanuReeves.png', 'Im_BradPitt.png', 'Im_RobertPattinson.png'],same,0,2.791602299999795,3,76.19047619047619,
PHAN0707,train,inv,30,pos30_id6_im18.bmp_pos30_id6_im19.bmp,['Im_LeonardoDiCaprio.png', 'Im_RobertDowneyJr.png', 'Im_RyanReynolds.png', 'Im_MattDamon.png', 'Im_ElijahWood.png', 'Im_DanielCraig.png', 'Im_BenStiller.png', 'Im_KeanuReeves.png', 'Im_BradPitt.png', 'Im_RobertPattinson.png'],same,1,0.7332705999997415,4,76.19047619047619,
PHAN0707,train,inv,150,pos150_id6_im12.bmp_pos150_id3_im6.bmp,['Im_LeonardoDiCaprio.png', 'Im_RobertDowneyJr.png', 'Im_RyanReynolds.png', 'Im_MattDamon.png', 'Im_ElijahWood.png', 'Im_DanielCraig.png', 'Im_BenStiller.png', 'Im_KeanuReeves.png', 'Im_BradPitt.png', 'Im_RobertPattinson.png'],diff,1,0.8250324000000546,5,76.19047619047619,
PHAN0707,train,inv,60,pos60_id13_im10.bmp_pos60_id13_im15.bmp,['Im_LeonardoDiCaprio.png', 'Im_RobertDowneyJr.png', 'Im_RyanReynolds.png', 'Im_MattDamon.png', 'Im_ElijahWood.png', 'Im_DanielCraig.png', 'Im_BenStiller.png', 'Im_KeanuReeves.png', 'Im_BradPitt.png', 'Im_RobertPattinson.png'],same,1,0.766907799999899,6,76.19047619047619,
PHAN0707,train,inv,120,pos120_id14_im18.bmp_pos120_id13_im10.bmp,['Im_LeonardoDiCaprio.png', 'Im_RobertDowneyJr.png', 'Im_RyanReynolds.png', 'Im_MattDamon.png', 'Im_ElijahWood.png', 'Im_DanielCraig.png', 'Im_BenStiller.png', 'Im_KeanuReeves.png', 'Im_BradPitt.png', 'Im_RobertPattinson.png'],same,0,0.8333605000007083,6,76.19047619047619,
PHAN0707,train,inv,150,pos150_id6_im19.bmp_pos150_id19_im4.bmp,['Im_LeonardoDiCaprio.png', 'Im_RobertDowneyJr.png', 'Im_RyanReynolds.png', 'Im_MattDamon.png', 'Im_ElijahWood.png', 'Im_DanielCraig.png', 'Im_BenStiller.png', 'Im_KeanuReeves.png', 'Im_BradPitt.png', 'Im_RobertPattinson.png'],same,0,0.4250720000000001,6,76.19047619047619,
PHAN0707,train,inv,fs,posfs_id2_im2.bmp_posfs_id2_im16.bmp,['Im_LeonardoDiCaprio.png', 'Im_RobertDowneyJr.png', 'Im_RyanReynolds.png', 'Im_MattDamon.png', 'Im_ElijahWood.png', 'Im_DanielCraig.png', 'Im_BenStiller.png', 'Im_KeanuReeves.png', 'Im_BradPitt.png', 'Im_RobertPattinson.png'],same,1,0.4250910999999178,7,76.19047619047619,
PHAN0707,train,inv,0,pos0_id6_im12.bmp_pos0_id6_im19.bmp,['Im_LeonardoDiCaprio.png', 'Im_RobertDowneyJr.png', 'Im_RyanReynolds.png', 'Im_MattDamon.png', 'Im_ElijahWood.png', 'Im_DanielCraig.png', 'Im_BenStiller.png', 'Im_KeanuReeves.png', 'Im_BradPitt.png', 'Im_RobertPattinson.png'],same,1,0.40833609999936016,8,76.19047619047619,
PHAN0707,0,neg,60,neg60_id2_im16.bmp_neg60_id2_im3.bmp,['Im_LeonardoDiCaprio.png', 'Im_RobertDowneyJr.png', 'Im_RyanReynolds.png', 'Im_MattDamon.png', 'Im_ElijahWood.png', 'Im_DanielCraig.png', 'Im_BenStiller.png', 'Im_KeanuReeves.png', 'Im_BradPitt.png', 'Im_RobertPattinson.png'],same,1,0.408239099999264,1,0,
PHAN0707,0,neg,90,neg90_id13_im29.bmp_neg90_id11_im2.bmp,['Im_LeonardoDiCaprio.png', 'Im_RobertDowneyJr.png', 'Im_RyanReynolds.png', 'Im_MattDamon.png', 'Im_ElijahWood.png', 'Im_DanielCraig.png', 'Im_BenStiller.png', 'Im_KeanuReeves.png', 'Im_BradPitt.png', 'Im_RobertPattinson.png'],diff,1,0.4167577000007441,2,0,
PHAN0707,0,neg,150,neg150_id3_im8.bmp_neg150_id18_im18.bmp,['Im_LeonardoDiCaprio.png', 'Im_RobertDowneyJr.png', 'Im_RyanReynolds.png', 'Im_MattDamon.png', 'Im_ElijahWood.png', 'Im_DanielCraig.png', 'Im_BenStiller.png', 'Im_KeanuReeves.png', 'Im_BradPitt.png', 'Im_RobertPattinson.png'],diff,1,0.4168489000003319,3,0,
PHAN0707,0,neg,0,neg0_id3_im17.bmp_neg0_id4_im15.bmp,['Im_LeonardoDiCaprio.png', 'Im_RobertDowneyJr.png', 'Im_RyanReynolds.png', 'Im_MattDamon.png', 'Im_ElijahWood.png', 'Im_DanielCraig.png', 'Im_BenStiller.png', 'Im_KeanuReeves.png', 'Im_BradPitt.png', 'Im_RobertPattinson.png'],diff,1,0.4250628999998298,4,0,
PHAN0707,0,neg,0,neg0_id13_im10.bmp_neg0_id14_im18.bmp,['Im_LeonardoDiCaprio.png', 'Im_RobertDowneyJr.png', 'Im_RyanReynolds.png', 'Im_MattDamon.png', 'Im_ElijahWood.png', 'Im_DanielCraig.png', 'Im_BenStiller.png', 'Im_KeanuReeves.png', 'Im_BradPitt.png', 'Im_RobertPattinson.png'],same,0,0.40854380000018864,4,0,
PHAN0707,0,neg,120,neg120_id21_im16.bmp_neg120_id14_im16.bmp,['Im_LeonardoDiCaprio.png', 'Im_RobertDowneyJr.png', 'Im_RyanReynolds.png', 'Im_MattDamon.png', 'Im_ElijahWood.png', 'Im_DanielCraig.png', 'Im_BenStiller.png', 'Im_KeanuReeves.png', 'Im_BradPitt.png', 'Im_RobertPattinson.png'],diff,1,0.425101500000892,5,0,
PHAN0707,0,neg,90,neg90_id18_im11.bmp_neg90_id18_im18.bmp,['Im_LeonardoDiCaprio.png', 'Im_RobertDowneyJr.png', 'Im_RyanReynolds.png', 'Im_MattDamon.png', 'Im_ElijahWood.png', 'Im_DanielCraig.png', 'Im_BenStiller.png', 'Im_KeanuReeves.png', 'Im_BradPitt.png', 'Im_RobertPattinson.png'],diff,0,0.42510650000076566,5,0,
PHAN0707,0,neg,fs,negfs_id11_im2.bmp_negfs_id11_im10.bmp,['Im_LeonardoDiCaprio.png', 'Im_RobertDowneyJr.png', 'Im_RyanReynolds.png', 'Im_MattDamon.png', 'Im_ElijahWood.png', 'Im_DanielCraig.png', 'Im_BenStiller.png', 'Im_KeanuReeves.png', 'Im_BradPitt.png', 'Im_RobertPattinson.png'],same,1,0.4587322999996104,6,0,
PHAN0707,0,neg,30,neg30_id11_im10.bmp_neg30_id11_im2.bmp,['Im_LeonardoDiCaprio.png', 'Im_RobertDowneyJr.png', 'Im_RyanReynolds.png', 'Im_MattDamon.png', 'Im_ElijahWood.png', 'Im_DanielCraig.png', 'Im_BenStiller.png', 'Im_KeanuReeves.png', 'Im_BradPitt.png', 'Im_RobertPattinson.png'],same,1,0.4250381000001653,7,0,
PHAN0707,0,neg,60,neg60_id21_im17.bmp_neg60_id21_im22.bmp,['Im_LeonardoDiCaprio.png', 'Im_RobertDowneyJr.png', 'Im_RyanReynolds.png', 'Im_MattDamon.png', 'Im_ElijahWood.png', 'Im_DanielCraig.png', 'Im_BenStiller.png', 'Im_KeanuReeves.png', 'Im_BradPitt.png', 'Im_RobertPattinson.png'],same,1,0.44202170000062324,8,0,
PHAN0707,0,neg,150,neg150_id2_im16.bmp_neg150_id2_im2.bmp,['Im_LeonardoDiCaprio.png', 'Im_RobertDowneyJr.png', 'Im_RyanReynolds.png', 'Im_MattDamon.png', 'Im_ElijahWood.png', 'Im_DanielCraig.png', 'Im_BenStiller.png', 'Im_KeanuReeves.png', 'Im_BradPitt.png', 'Im_RobertPattinson.png'],same,1,0.41670849999900383,9,0,
PHAN0707,0,neg,120,neg120_id4_im20.bmp_neg120_id14_im18.bmp,['Im_LeonardoDiCaprio.png', 'Im_RobertDowneyJr.png', 'Im_RyanReynolds.png', 'Im_MattDamon.png', 'Im_ElijahWood.png', 'Im_DanielCraig.png', 'Im_BenStiller.png', 'Im_KeanuReeves.png', 'Im_BradPitt.png', 'Im_RobertPattinson.png'],diff,1,0.4167081999985385,10,0,
PHAN0707,0,neg,fs,negfs_id19_im8.bmp_negfs_id19_im27.bmp,['Im_LeonardoDiCaprio.png', 'Im_RobertDowneyJr.png', 'Im_RyanReynolds.png', 'Im_MattDamon.png', 'Im_ElijahWood.png', 'Im_DanielCraig.png', 'Im_BenStiller.png', 'Im_KeanuReeves.png', 'Im_BradPitt.png', 'Im_RobertPattinson.png'],same,1,0.450315000000046,11,0,
PHAN0707,0,neg,30,neg30_id18_im11.bmp_neg30_id2_im3.bmp,['Im_LeonardoDiCaprio.png', 'Im_RobertDowneyJr.png', 'Im_RyanReynolds.png', 'Im_MattDamon.png', 'Im_ElijahWood.png', 'Im_DanielCraig.png', 'Im_BenStiller.png', 'Im_KeanuReeves.png', 'Im_BradPitt.png', 'Im_RobertPattinson.png'],diff,1,0.6503490000013699,12,0,
PHAN0707,1,inv,30,pos30_id4_im20.bmp_pos30_id4_im7.bmp,['Im_LeonardoDiCaprio.png', 'Im_RobertDowneyJr.png', 'Im_RyanReynolds.png', 'Im_MattDamon.png', 'Im_ElijahWood.png', 'Im_DanielCraig.png', 'Im_BenStiller.png', 'Im_KeanuReeves.png', 'Im_BradPitt.png', 'Im_RobertPattinson.png'],same,1,0.425181499998871,13,0,
PHAN0707,1,inv,fs,posfs_id18_im18.bmp_posfs_id11_im10.bmp,['Im_LeonardoDiCaprio.png', 'Im_RobertDowneyJr.png', 'Im_RyanReynolds.png', 'Im_MattDamon.png', 'Im_ElijahWood.png', 'Im_DanielCraig.png', 'Im_BenStiller.png', 'Im_KeanuReeves.png', 'Im_BradPitt.png', 'Im_RobertPattinson.png'],diff,1,0.4081951999996818,14,0,
PHAN0707,1,inv,60,pos60_id18_im19.bmp_pos60_id2_im2.bmp,['Im_LeonardoDiCaprio.png', 'Im_RobertDowneyJr.png', 'Im_RyanReynolds.png', 'Im_MattDamon.png', 'Im_ElijahWood.png', 'Im_DanielCraig.png', 'Im_BenStiller.png', 'Im_KeanuReeves.png', 'Im_BradPitt.png', 'Im_RobertPattinson.png'],diff,1,0.6583586000015202,15,0,
PHAN0707,1,inv,fs,posfs_id6_im18.bmp_posfs_id21_im16.bmp,['Im_LeonardoDiCaprio.png', 'Im_RobertDowneyJr.png', 'Im_RyanReynolds.png', 'Im_MattDamon.png', 'Im_ElijahWood.png', 'Im_DanielCraig.png', 'Im_BenStiller.png', 'Im_KeanuReeves.png', 'Im_BradPitt.png', 'Im_RobertPattinson.png'],diff,1,0.41673980000086885,16,0,
PHAN0707,1,inv,150,pos150_id6_im18.bmp_pos150_id6_im12.bmp,['Im_LeonardoDiCaprio.png', 'Im_RobertDowneyJr.png', 'Im_RyanReynolds.png', 'Im_MattDamon.png', 'Im_ElijahWood.png', 'Im_DanielCraig.png', 'Im_BenStiller.png', 'Im_KeanuReeves.png', 'Im_BradPitt.png', 'Im_RobertPattinson.png'],diff,0,0.4831861000002391,16,0,
PHAN0707,1,inv,0,pos0_id19_im27.bmp_pos0_id19_im8.bmp,['Im_LeonardoDiCaprio.png', 'Im_RobertDowneyJr.png', 'Im_RyanReynolds.png', 'Im_MattDamon.png', 'Im_ElijahWood.png', 'Im_DanielCraig.png', 'Im_BenStiller.png', 'Im_KeanuReeves.png', 'Im_BradPitt.png', 'Im_RobertPattinson.png'],diff,0,0.5919088999999076,16,0,
PHAN0707,1,inv,120,pos120_id4_im20.bmp_pos120_id21_im17.bmp,['Im_LeonardoDiCaprio.png', 'Im_RobertDowneyJr.png', 'Im_RyanReynolds.png', 'Im_MattDamon.png', 'Im_ElijahWood.png', 'Im_DanielCraig.png', 'Im_BenStiller.png', 'Im_KeanuReeves.png', 'Im_BradPitt.png', 'Im_RobertPattinson.png'],diff,1,0.4251820999998017,17,0,
PHAN0707,1,inv,0,pos0_id11_im2.bmp_pos0_id13_im29.bmp,['Im_LeonardoDiCaprio.png', 'Im_RobertDowneyJr.png', 'Im_RyanReynolds.png', 'Im_MattDamon.png', 'Im_ElijahWood.png', 'Im_DanielCraig.png', 'Im_BenStiller.png', 'Im_KeanuReeves.png', 'Im_BradPitt.png', 'Im_RobertPattinson.png'],diff,1,0.41671859999951266,18,0,
PHAN0707,1,inv,150,pos150_id2_im3.bmp_pos150_id2_im2.bmp,['Im_LeonardoDiCaprio.png', 'Im_RobertDowneyJr.png', 'Im_RyanReynolds.png', 'Im_MattDamon.png', 'Im_ElijahWood.png', 'Im_DanielCraig.png', 'Im_BenStiller.png', 'Im_KeanuReeves.png', 'Im_BradPitt.png', 'Im_RobertPattinson.png'],same,1,0.4084146999994118,19,0,
PHAN0707,1,inv,30,pos30_id18_im18.bmp_pos30_id3_im8.bmp,['Im_LeonardoDiCaprio.png', 'Im_RobertDowneyJr.png', 'Im_RyanReynolds.png', 'Im_MattDamon.png', 'Im_ElijahWood.png', 'Im_DanielCraig.png', 'Im_BenStiller.png', 'Im_KeanuReeves.png', 'Im_BradPitt.png', 'Im_RobertPattinson.png'],diff,1,0.4167840999998589,20,0,
PHAN0707,1,inv,60,pos60_id18_im18.bmp_pos60_id11_im10.bmp,['Im_LeonardoDiCaprio.png', 'Im_RobertDowneyJr.png', 'Im_RyanReynolds.png', 'Im_MattDamon.png', 'Im_ElijahWood.png', 'Im_DanielCraig.png', 'Im_BenStiller.png', 'Im_KeanuReeves.png', 'Im_BradPitt.png', 'Im_RobertPattinson.png'],same,0,0.4498497000004136,20,0,
PHAN0707,1,inv,120,pos120_id13_im10.bmp_pos120_id13_im15.bmp,['Im_LeonardoDiCaprio.png', 'Im_RobertDowneyJr.png', 'Im_RyanReynolds.png', 'Im_MattDamon.png', 'Im_ElijahWood.png', 'Im_DanielCraig.png', 'Im_BenStiller.png', 'Im_KeanuReeves.png', 'Im_BradPitt.png', 'Im_RobertPattinson.png'],diff,0,0.4168556000004173,20,0,
PHAN0707,1,inv,90,pos90_id13_im10.bmp_pos90_id14_im18.bmp,['Im_LeonardoDiCaprio.png', 'Im_RobertDowneyJr.png', 'Im_RyanReynolds.png', 'Im_MattDamon.png', 'Im_ElijahWood.png', 'Im_DanielCraig.png', 'Im_BenStiller.png', 'Im_KeanuReeves.png', 'Im_BradPitt.png', 'Im_RobertPattinson.png'],diff,1,1.6000476999997773,21,0,
PHAN0707,1,inv,90,pos90_id13_im15.bmp_pos90_id18_im11.bmp,['Im_LeonardoDiCaprio.png', 'Im_RobertDowneyJr.png', 'Im_RyanReynolds.png', 'Im_MattDamon.png', 'Im_ElijahWood.png', 'Im_DanielCraig.png', 'Im_BenStiller.png', 'Im_KeanuReeves.png', 'Im_BradPitt.png', 'Im_RobertPattinson.png'],diff,1,0.4252969999997731,22,0,
PHAN0707,2,neg,120,neg120_id6_im12.bmp_neg120_id6_im19.bmp,['Im_LeonardoDiCaprio.png', 'Im_RobertDowneyJr.png', 'Im_RyanReynolds.png', 'Im_MattDamon.png', 'Im_ElijahWood.png', 'Im_DanielCraig.png', 'Im_BenStiller.png', 'Im_KeanuReeves.png', 'Im_BradPitt.png', 'Im_RobertPattinson.png'],same,1,0.42509740000059537,23,0,
PHAN0707,2,neg,fs,negfs_id21_im22.bmp_negfs_id3_im6.bmp,['Im_LeonardoDiCaprio.png', 'Im_RobertDowneyJr.png', 'Im_RyanReynolds.png', 'Im_MattDamon.png', 'Im_ElijahWood.png', 'Im_DanielCraig.png', 'Im_BenStiller.png', 'Im_KeanuReeves.png', 'Im_BradPitt.png', 'Im_RobertPattinson.png'],diff,1,0.4167809999999008,24,0,
PHAN0707,2,neg,0,neg0_id11_im10.bmp_neg0_id11_im1.bmp,['Im_LeonardoDiCaprio.png', 'Im_RobertDowneyJr.png', 'Im_RyanReynolds.png', 'Im_MattDamon.png', 'Im_ElijahWood.png', 'Im_DanielCraig.png', 'Im_BenStiller.png', 'Im_KeanuReeves.png', 'Im_BradPitt.png', 'Im_RobertPattinson.png'],diff,0,0.42488779999985127,24,0,
PHAN0707,2,neg,60,neg60_id11_im10.bmp_neg60_id2_im2.bmp,['Im_LeonardoDiCaprio.png', 'Im_RobertDowneyJr.png', 'Im_RyanReynolds.png', 'Im_MattDamon.png', 'Im_ElijahWood.png', 'Im_DanielCraig.png', 'Im_BenStiller.png', 'Im_KeanuReeves.png', 'Im_BradPitt.png', 'Im_RobertPattinson.png'],same,0,0.9755769000003056,24,0,
PHAN0707,2,neg,fs,negfs_id13_im10.bmp_negfs_id13_im29.bmp,['Im_LeonardoDiCaprio.png', 'Im_RobertDowneyJr.png', 'Im_RyanReynolds.png', 'Im_MattDamon.png', 'Im_ElijahWood.png', 'Im_DanielCraig.png', 'Im_BenStiller.png', 'Im_KeanuReeves.png', 'Im_BradPitt.png', 'Im_RobertPattinson.png'],diff,0,0.7499869000002946,24,0,
PHAN0707,2,neg,30,neg30_id21_im22.bmp_neg30_id21_im16.bmp,['Im_LeonardoDiCaprio.png', 'Im_RobertDowneyJr.png', 'Im_RyanReynolds.png', 'Im_MattDamon.png', 'Im_ElijahWood.png', 'Im_DanielCraig.png', 'Im_BenStiller.png', 'Im_KeanuReeves.png', 'Im_BradPitt.png', 'Im_RobertPattinson.png'],same,1,0.5583626999996341,25,0,
PHAN0707,2,neg,120,neg120_id4_im15.bmp_neg120_id3_im17.bmp,['Im_LeonardoDiCaprio.png', 'Im_RobertDowneyJr.png', 'Im_RyanReynolds.png', 'Im_MattDamon.png', 'Im_ElijahWood.png', 'Im_DanielCraig.png', 'Im_BenStiller.png', 'Im_KeanuReeves.png', 'Im_BradPitt.png', 'Im_RobertPattinson.png'],diff,1,0.4084104000012303,26,0,
PHAN0707,2,neg,30,neg30_id14_im24.bmp_neg30_id19_im8.bmp,['Im_LeonardoDiCaprio.png', 'Im_RobertDowneyJr.png', 'Im_RyanReynolds.png', 'Im_MattDamon.png', 'Im_ElijahWood.png', 'Im_DanielCraig.png', 'Im_BenStiller.png', 'Im_KeanuReeves.png', 'Im_BradPitt.png', 'Im_RobertPattinson.png'],same,0,0.4165971999991598,26,0,
PHAN0707,2,neg,60,neg60_id13_im29.bmp_neg60_id13_im10.bmp,['Im_LeonardoDiCaprio.png', 'Im_RobertDowneyJr.png', 'Im_RyanReynolds.png', 'Im_MattDamon.png', 'Im_ElijahWood.png', 'Im_DanielCraig.png', 'Im_BenStiller.png', 'Im_KeanuReeves.png', 'Im_BradPitt.png', 'Im_RobertPattinson.png'],diff,0,0.41680230000019947,26,0,
PHAN0707,2,neg,90,neg90_id21_im16.bmp_neg90_id21_im22.bmp,['Im_LeonardoDiCaprio.png', 'Im_RobertDowneyJr.png', 'Im_RyanReynolds.png', 'Im_MattDamon.png', 'Im_ElijahWood.png', 'Im_DanielCraig.png', 'Im_BenStiller.png', 'Im_KeanuReeves.png', 'Im_BradPitt.png', 'Im_RobertPattinson.png'],same,1,0.45837609999944107,27,0,
PHAN0707,2,neg,90,neg90_id11_im1.bmp_neg90_id11_im10.bmp,['Im_LeonardoDiCaprio.png', 'Im_RobertDowneyJr.png', 'Im_RyanReynolds.png', 'Im_MattDamon.png', 'Im_ElijahWood.png', 'Im_DanielCraig.png', 'Im_BenStiller.png', 'Im_KeanuReeves.png', 'Im_BradPitt.png', 'Im_RobertPattinson.png'],same,1,0.48343559999921126,28,0,
PHAN0707,2,neg,150,neg150_id14_im18.bmp_neg150_id4_im20.bmp,['Im_LeonardoDiCaprio.png', 'Im_RobertDowneyJr.png', 'Im_RyanReynolds.png', 'Im_MattDamon.png', 'Im_ElijahWood.png', 'Im_DanielCraig.png', 'Im_BenStiller.png', 'Im_KeanuReeves.png', 'Im_BradPitt.png', 'Im_RobertPattinson.png'],same,0,0.42500079999990703,28,0,
PHAN0707,2,neg,150,neg150_id18_im18.bmp_neg150_id18_im19.bmp,['Im_LeonardoDiCaprio.png', 'Im_RobertDowneyJr.png', 'Im_RyanReynolds.png', 'Im_MattDamon.png', 'Im_ElijahWood.png', 'Im_DanielCraig.png', 'Im_BenStiller.png', 'Im_KeanuReeves.png', 'Im_BradPitt.png', 'Im_RobertPattinson.png'],same,1,0.42502110000168614,29,0,
PHAN0707,2,neg,0,neg0_id14_im24.bmp_neg0_id6_im12.bmp,['Im_LeonardoDiCaprio.png', 'Im_RobertDowneyJr.png', 'Im_RyanReynolds.png', 'Im_MattDamon.png', 'Im_ElijahWood.png', 'Im_DanielCraig.png', 'Im_BenStiller.png', 'Im_KeanuReeves.png', 'Im_BradPitt.png', 'Im_RobertPattinson.png'],diff,1,0.41678850000062084,30,0,
PHAN0707,3,pos,fs,posfs_id21_im22.bmp_posfs_id3_im6.bmp,['Im_LeonardoDiCaprio.png', 'Im_RobertDowneyJr.png', 'Im_RyanReynolds.png', 'Im_MattDamon.png', 'Im_ElijahWood.png', 'Im_DanielCraig.png', 'Im_BenStiller.png', 'Im_KeanuReeves.png', 'Im_BradPitt.png', 'Im_RobertPattinson.png'],diff,1,0.4250298999995721,1,71.42857142857143,
PHAN0707,3,pos,150,pos150_id11_im1.bmp_pos150_id4_im15.bmp,['Im_LeonardoDiCaprio.png', 'Im_RobertDowneyJr.png', 'Im_RyanReynolds.png', 'Im_MattDamon.png', 'Im_ElijahWood.png', 'Im_DanielCraig.png', 'Im_BenStiller.png', 'Im_KeanuReeves.png', 'Im_BradPitt.png', 'Im_RobertPattinson.png'],diff,1,0.4168635000005452,2,71.42857142857143,
PHAN0707,3,pos,30,pos30_id2_im3.bmp_pos30_id2_im2.bmp,['Im_LeonardoDiCaprio.png', 'Im_RobertDowneyJr.png', 'Im_RyanReynolds.png', 'Im_MattDamon.png', 'Im_ElijahWood.png', 'Im_DanielCraig.png', 'Im_BenStiller.png', 'Im_KeanuReeves.png', 'Im_BradPitt.png', 'Im_RobertPattinson.png'],same,1,0.42507000000114203,3,71.42857142857143,
PHAN0707,3,pos,0,pos0_id4_im7.bmp_pos0_id14_im16.bmp,['Im_LeonardoDiCaprio.png', 'Im_RobertDowneyJr.png', 'Im_RyanReynolds.png', 'Im_MattDamon.png', 'Im_ElijahWood.png', 'Im_DanielCraig.png', 'Im_BenStiller.png', 'Im_KeanuReeves.png', 'Im_BradPitt.png', 'Im_RobertPattinson.png'],diff,1,0.6668276000000333,4,71.42857142857143,
PHAN0707,3,pos,60,pos60_id19_im4.bmp_pos60_id19_im27.bmp,['Im_LeonardoDiCaprio.png', 'Im_RobertDowneyJr.png', 'Im_RyanReynolds.png', 'Im_MattDamon.png', 'Im_ElijahWood.png', 'Im_DanielCraig.png', 'Im_BenStiller.png', 'Im_KeanuReeves.png', 'Im_BradPitt.png', 'Im_RobertPattinson.png'],same,1,0.4166067000005569,5,71.42857142857143,
PHAN0707,3,pos,90,pos90_id18_im11.bmp_pos90_id18_im19.bmp,['Im_LeonardoDiCaprio.png', 'Im_RobertDowneyJr.png', 'Im_RyanReynolds.png', 'Im_MattDamon.png', 'Im_ElijahWood.png', 'Im_DanielCraig.png', 'Im_BenStiller.png', 'Im_KeanuReeves.png', 'Im_BradPitt.png', 'Im_RobertPattinson.png'],same,1,0.433383400000821,6,71.42857142857143,
PHAN0707,3,pos,90,pos90_id4_im7.bmp_pos90_id4_im20.bmp,['Im_LeonardoDiCaprio.png', 'Im_RobertDowneyJr.png', 'Im_RyanReynolds.png', 'Im_MattDamon.png', 'Im_ElijahWood.png', 'Im_DanielCraig.png', 'Im_BenStiller.png', 'Im_KeanuReeves.png', 'Im_BradPitt.png', 'Im_RobertPattinson.png'],same,1,0.4333996000004845,7,71.42857142857143,
PHAN0707,3,pos,120,pos120_id14_im24.bmp_pos120_id14_im16.bmp,['Im_LeonardoDiCaprio.png', 'Im_RobertDowneyJr.png', 'Im_RyanReynolds.png', 'Im_MattDamon.png', 'Im_ElijahWood.png', 'Im_DanielCraig.png', 'Im_BenStiller.png', 'Im_KeanuReeves.png', 'Im_BradPitt.png', 'Im_RobertPattinson.png'],same,1,0.41674329999841575,8,71.42857142857143,
PHAN0707,3,pos,fs,posfs_id19_im27.bmp_posfs_id19_im8.bmp,['Im_LeonardoDiCaprio.png', 'Im_RobertDowneyJr.png', 'Im_RyanReynolds.png', 'Im_MattDamon.png', 'Im_ElijahWood.png', 'Im_DanielCraig.png', 'Im_BenStiller.png', 'Im_KeanuReeves.png', 'Im_BradPitt.png', 'Im_RobertPattinson.png'],same,1,0.41679800000019895,9,71.42857142857143,
PHAN0707,3,pos,30,pos30_id2_im3.bmp_pos30_id18_im11.bmp,['Im_LeonardoDiCaprio.png', 'Im_RobertDowneyJr.png', 'Im_RyanReynolds.png', 'Im_MattDamon.png', 'Im_ElijahWood.png', 'Im_DanielCraig.png', 'Im_BenStiller.png', 'Im_KeanuReeves.png', 'Im_BradPitt.png', 'Im_RobertPattinson.png'],diff,1,0.4083888000004663,10,71.42857142857143,
PHAN0707,3,pos,120,pos120_id3_im17.bmp_pos120_id19_im27.bmp,['Im_LeonardoDiCaprio.png', 'Im_RobertDowneyJr.png', 'Im_RyanReynolds.png', 'Im_MattDamon.png', 'Im_ElijahWood.png', 'Im_DanielCraig.png', 'Im_BenStiller.png', 'Im_KeanuReeves.png', 'Im_BradPitt.png', 'Im_RobertPattinson.png'],diff,1,0.40844019999894954,11,71.42857142857143,
PHAN0707,3,pos,150,pos150_id13_im15.bmp_pos150_id13_im10.bmp,['Im_LeonardoDiCaprio.png', 'Im_RobertDowneyJr.png', 'Im_RyanReynolds.png', 'Im_MattDamon.png', 'Im_ElijahWood.png', 'Im_DanielCraig.png', 'Im_BenStiller.png', 'Im_KeanuReeves.png', 'Im_BradPitt.png', 'Im_RobertPattinson.png'],same,1,0.408544100000654,12,71.42857142857143,
PHAN0707,3,pos,60,pos60_id11_im2.bmp_pos60_id11_im1.bmp,['Im_LeonardoDiCaprio.png', 'Im_RobertDowneyJr.png', 'Im_RyanReynolds.png', 'Im_MattDamon.png', 'Im_ElijahWood.png', 'Im_DanielCraig.png', 'Im_BenStiller.png', 'Im_KeanuReeves.png', 'Im_BradPitt.png', 'Im_RobertPattinson.png'],diff,0,0.8251075000007404,12,71.42857142857143,
PHAN0707,3,pos,0,pos0_id11_im2.bmp_pos0_id11_im1.bmp,['Im_LeonardoDiCaprio.png', 'Im_RobertDowneyJr.png', 'Im_RyanReynolds.png', 'Im_MattDamon.png', 'Im_ElijahWood.png', 'Im_DanielCraig.png', 'Im_BenStiller.png', 'Im_KeanuReeves.png', 'Im_BradPitt.png', 'Im_RobertPattinson.png'],diff,0,0.6250528000000486,12,71.42857142857143,
PHAN0707,4,pos,fs,posfs_id14_im16.bmp_posfs_id14_im24.bmp,['Im_LeonardoDiCaprio.png', 'Im_RobertDowneyJr.png', 'Im_RyanReynolds.png', 'Im_MattDamon.png', 'Im_ElijahWood.png', 'Im_DanielCraig.png', 'Im_BenStiller.png', 'Im_KeanuReeves.png', 'Im_BradPitt.png', 'Im_RobertPattinson.png'],same,1,0.41676010000082897,13,71.42857142857143,
PHAN0707,4,pos,150,pos150_id14_im24.bmp_pos150_id19_im8.bmp,['Im_LeonardoDiCaprio.png', 'Im_RobertDowneyJr.png', 'Im_RyanReynolds.png', 'Im_MattDamon.png', 'Im_ElijahWood.png', 'Im_DanielCraig.png', 'Im_BenStiller.png', 'Im_KeanuReeves.png', 'Im_BradPitt.png', 'Im_RobertPattinson.png'],diff,1,0.43352649999906134,14,71.42857142857143,
PHAN0707,4,pos,0,pos0_id18_im19.bmp_pos0_id18_im18.bmp,['Im_LeonardoDiCaprio.png', 'Im_RobertDowneyJr.png', 'Im_RyanReynolds.png', 'Im_MattDamon.png', 'Im_ElijahWood.png', 'Im_DanielCraig.png', 'Im_BenStiller.png', 'Im_KeanuReeves.png', 'Im_BradPitt.png', 'Im_RobertPattinson.png'],same,1,0.4167853999988438,15,71.42857142857143,
PHAN0707,4,pos,30,pos30_id6_im19.bmp_pos30_id19_im4.bmp,['Im_LeonardoDiCaprio.png', 'Im_RobertDowneyJr.png', 'Im_RyanReynolds.png', 'Im_MattDamon.png', 'Im_ElijahWood.png', 'Im_DanielCraig.png', 'Im_BenStiller.png', 'Im_KeanuReeves.png', 'Im_BradPitt.png', 'Im_RobertPattinson.png'],diff,1,0.41689149999911024,16,71.42857142857143,
PHAN0707,4,pos,90,pos90_id2_im3.bmp_pos90_id2_im16.bmp,['Im_LeonardoDiCaprio.png', 'Im_RobertDowneyJr.png', 'Im_RyanReynolds.png', 'Im_MattDamon.png', 'Im_ElijahWood.png', 'Im_DanielCraig.png', 'Im_BenStiller.png', 'Im_KeanuReeves.png', 'Im_BradPitt.png', 'Im_RobertPattinson.png'],same,1,0.4171131000002788,17,71.42857142857143,
PHAN0707,4,pos,60,pos60_id2_im2.bmp_pos60_id2_im16.bmp,['Im_LeonardoDiCaprio.png', 'Im_RobertDowneyJr.png', 'Im_RyanReynolds.png', 'Im_MattDamon.png', 'Im_ElijahWood.png', 'Im_DanielCraig.png', 'Im_BenStiller.png', 'Im_KeanuReeves.png', 'Im_BradPitt.png', 'Im_RobertPattinson.png'],same,1,0.41812729999946896,18,71.42857142857143,
PHAN0707,4,pos,150,pos150_id6_im19.bmp_pos150_id6_im12.bmp,['Im_LeonardoDiCaprio.png', 'Im_RobertDowneyJr.png', 'Im_RyanReynolds.png', 'Im_MattDamon.png', 'Im_ElijahWood.png', 'Im_DanielCraig.png', 'Im_BenStiller.png', 'Im_KeanuReeves.png', 'Im_BradPitt.png', 'Im_RobertPattinson.png'],same,1,0.4167827000001125,19,71.42857142857143,
PHAN0707,4,pos,0,pos0_id6_im18.bmp_pos0_id19_im4.bmp,['Im_LeonardoDiCaprio.png', 'Im_RobertDowneyJr.png', 'Im_RyanReynolds.png', 'Im_MattDamon.png', 'Im_ElijahWood.png', 'Im_DanielCraig.png', 'Im_BenStiller.png', 'Im_KeanuReeves.png', 'Im_BradPitt.png', 'Im_RobertPattinson.png'],diff,1,0.42526750000070024,20,71.42857142857143,
PHAN0707,4,pos,60,pos60_id2_im3.bmp_pos60_id6_im19.bmp,['Im_LeonardoDiCaprio.png', 'Im_RobertDowneyJr.png', 'Im_RyanReynolds.png', 'Im_MattDamon.png', 'Im_ElijahWood.png', 'Im_DanielCraig.png', 'Im_BenStiller.png', 'Im_KeanuReeves.png', 'Im_BradPitt.png', 'Im_RobertPattinson.png'],diff,1,0.41668010000103095,21,71.42857142857143,
PHAN0707,4,pos,fs,posfs_id6_im12.bmp_posfs_id3_im6.bmp,['Im_LeonardoDiCaprio.png', 'Im_RobertDowneyJr.png', 'Im_RyanReynolds.png', 'Im_MattDamon.png', 'Im_ElijahWood.png', 'Im_DanielCraig.png', 'Im_BenStiller.png', 'Im_KeanuReeves.png', 'Im_BradPitt.png', 'Im_RobertPattinson.png'],diff,1,0.4167446999999811,22,71.42857142857143,
PHAN0707,4,pos,90,pos90_id14_im16.bmp_pos90_id21_im16.bmp,['Im_LeonardoDiCaprio.png', 'Im_RobertDowneyJr.png', 'Im_RyanReynolds.png', 'Im_MattDamon.png', 'Im_ElijahWood.png', 'Im_DanielCraig.png', 'Im_BenStiller.png', 'Im_KeanuReeves.png', 'Im_BradPitt.png', 'Im_RobertPattinson.png'],diff,1,0.4166328999999678,23,71.42857142857143,
PHAN0707,4,pos,120,pos120_id2_im16.bmp_pos120_id11_im1.bmp,['Im_LeonardoDiCaprio.png', 'Im_RobertDowneyJr.png', 'Im_RyanReynolds.png', 'Im_MattDamon.png', 'Im_ElijahWood.png', 'Im_DanielCraig.png', 'Im_BenStiller.png', 'Im_KeanuReeves.png', 'Im_BradPitt.png', 'Im_RobertPattinson.png'],diff,1,0.41673200000150246,24,71.42857142857143,
PHAN0707,4,pos,120,pos120_id6_im12.bmp_pos120_id14_im24.bmp,['Im_LeonardoDiCaprio.png', 'Im_RobertDowneyJr.png', 'Im_RyanReynolds.png', 'Im_MattDamon.png', 'Im_ElijahWood.png', 'Im_DanielCraig.png', 'Im_BenStiller.png', 'Im_KeanuReeves.png', 'Im_BradPitt.png', 'Im_RobertPattinson.png'],diff,1,0.4416672000006656,25,71.42857142857143,
PHAN0707,4,pos,30,pos30_id19_im27.bmp_pos30_id13_im15.bmp,['Im_LeonardoDiCaprio.png', 'Im_RobertDowneyJr.png', 'Im_RyanReynolds.png', 'Im_MattDamon.png', 'Im_ElijahWood.png', 'Im_DanielCraig.png', 'Im_BenStiller.png', 'Im_KeanuReeves.png', 'Im_BradPitt.png', 'Im_RobertPattinson.png'],diff,1,0.4167421000001923,26,71.42857142857143,
PHAN0707,5,neg,150,neg150_id14_im16.bmp_neg150_id14_im24.bmp,['Im_LeonardoDiCaprio.png', 'Im_RobertDowneyJr.png', 'Im_RyanReynolds.png', 'Im_MattDamon.png', 'Im_ElijahWood.png', 'Im_DanielCraig.png', 'Im_BenStiller.png', 'Im_KeanuReeves.png', 'Im_BradPitt.png', 'Im_RobertPattinson.png'],same,1,0.4250812999998743,27,71.42857142857143,
PHAN0707,5,neg,60,neg60_id18_im19.bmp_neg60_id2_im2.bmp,['Im_LeonardoDiCaprio.png', 'Im_RobertDowneyJr.png', 'Im_RyanReynolds.png', 'Im_MattDamon.png', 'Im_ElijahWood.png', 'Im_DanielCraig.png', 'Im_BenStiller.png', 'Im_KeanuReeves.png', 'Im_BradPitt.png', 'Im_RobertPattinson.png'],same,0,0.41670199999862234,27,71.42857142857143,
PHAN0707,5,neg,30,neg30_id18_im19.bmp_neg30_id2_im2.bmp,['Im_LeonardoDiCaprio.png', 'Im_RobertDowneyJr.png', 'Im_RyanReynolds.png', 'Im_MattDamon.png', 'Im_ElijahWood.png', 'Im_DanielCraig.png', 'Im_BenStiller.png', 'Im_KeanuReeves.png', 'Im_BradPitt.png', 'Im_RobertPattinson.png'],same,0,0.4083965999998327,27,71.42857142857143,
PHAN0707,5,neg,90,neg90_id19_im27.bmp_neg90_id19_im8.bmp,['Im_LeonardoDiCaprio.png', 'Im_RobertDowneyJr.png', 'Im_RyanReynolds.png', 'Im_MattDamon.png', 'Im_ElijahWood.png', 'Im_DanielCraig.png', 'Im_BenStiller.png', 'Im_KeanuReeves.png', 'Im_BradPitt.png', 'Im_RobertPattinson.png'],same,1,0.41675709999981336,28,71.42857142857143,
PHAN0707,5,neg,0,neg0_id19_im4.bmp_neg0_id6_im19.bmp,['Im_LeonardoDiCaprio.png', 'Im_RobertDowneyJr.png', 'Im_RyanReynolds.png', 'Im_MattDamon.png', 'Im_ElijahWood.png', 'Im_DanielCraig.png', 'Im_BenStiller.png', 'Im_KeanuReeves.png', 'Im_BradPitt.png', 'Im_RobertPattinson.png'],diff,1,0.41674809999858553,29,71.42857142857143,
PHAN0707,5,neg,120,neg120_id11_im2.bmp_neg120_id13_im29.bmp,['Im_LeonardoDiCaprio.png', 'Im_RobertDowneyJr.png', 'Im_RyanReynolds.png', 'Im_MattDamon.png', 'Im_ElijahWood.png', 'Im_DanielCraig.png', 'Im_BenStiller.png', 'Im_KeanuReeves.png', 'Im_BradPitt.png', 'Im_RobertPattinson.png'],diff,1,0.4334000000017113,30,71.42857142857143,
PHAN0707,5,neg,0,neg0_id19_im4.bmp_neg0_id6_im18.bmp,['Im_LeonardoDiCaprio.png', 'Im_RobertDowneyJr.png', 'Im_RyanReynolds.png', 'Im_MattDamon.png', 'Im_ElijahWood.png', 'Im_DanielCraig.png', 'Im_BenStiller.png', 'Im_KeanuReeves.png', 'Im_BradPitt.png', 'Im_RobertPattinson.png'],diff,1,0.6501163000011729,31,71.42857142857143,
PHAN0707,5,neg,fs,negfs_id2_im2.bmp_negfs_id2_im16.bmp,['Im_LeonardoDiCaprio.png', 'Im_RobertDowneyJr.png', 'Im_RyanReynolds.png', 'Im_MattDamon.png', 'Im_ElijahWood.png', 'Im_DanielCraig.png', 'Im_BenStiller.png', 'Im_KeanuReeves.png', 'Im_BradPitt.png', 'Im_RobertPattinson.png'],same,1,0.4167742999998154,32,71.42857142857143,
PHAN0707,5,neg,60,neg60_id18_im19.bmp_neg60_id3_im8.bmp,['Im_LeonardoDiCaprio.png', 'Im_RobertDowneyJr.png', 'Im_RyanReynolds.png', 'Im_MattDamon.png', 'Im_ElijahWood.png', 'Im_DanielCraig.png', 'Im_BenStiller.png', 'Im_KeanuReeves.png', 'Im_BradPitt.png', 'Im_RobertPattinson.png'],diff,1,0.42506159999902593,33,71.42857142857143,
PHAN0707,5,neg,90,neg90_id19_im4.bmp_neg90_id6_im19.bmp,['Im_LeonardoDiCaprio.png', 'Im_RobertDowneyJr.png', 'Im_RyanReynolds.png', 'Im_MattDamon.png', 'Im_ElijahWood.png', 'Im_DanielCraig.png', 'Im_BenStiller.png', 'Im_KeanuReeves.png', 'Im_BradPitt.png', 'Im_RobertPattinson.png'],diff,1,0.41673379999883764,34,71.42857142857143,
PHAN0707,5,neg,120,neg120_id6_im19.bmp_neg120_id2_im3.bmp,['Im_LeonardoDiCaprio.png', 'Im_RobertDowneyJr.png', 'Im_RyanReynolds.png', 'Im_MattDamon.png', 'Im_ElijahWood.png', 'Im_DanielCraig.png', 'Im_BenStiller.png', 'Im_KeanuReeves.png', 'Im_BradPitt.png', 'Im_RobertPattinson.png'],diff,1,0.4167376000004879,35,71.42857142857143,
PHAN0707,5,neg,30,neg30_id3_im8.bmp_neg30_id3_im6.bmp,['Im_LeonardoDiCaprio.png', 'Im_RobertDowneyJr.png', 'Im_RyanReynolds.png', 'Im_MattDamon.png', 'Im_ElijahWood.png', 'Im_DanielCraig.png', 'Im_BenStiller.png', 'Im_KeanuReeves.png', 'Im_BradPitt.png', 'Im_RobertPattinson.png'],same,1,0.41675369999938994,36,71.42857142857143,
PHAN0707,5,neg,150,neg150_id19_im8.bmp_neg150_id19_im4.bmp,['Im_LeonardoDiCaprio.png', 'Im_RobertDowneyJr.png', 'Im_RyanReynolds.png', 'Im_MattDamon.png', 'Im_ElijahWood.png', 'Im_DanielCraig.png', 'Im_BenStiller.png', 'Im_KeanuReeves.png', 'Im_BradPitt.png', 'Im_RobertPattinson.png'],same,1,0.43321389999982785,37,71.42857142857143,
PHAN0707,5,neg,fs,negfs_id4_im7.bmp_negfs_id4_im20.bmp,['Im_LeonardoDiCaprio.png', 'Im_RobertDowneyJr.png', 'Im_RyanReynolds.png', 'Im_MattDamon.png', 'Im_ElijahWood.png', 'Im_DanielCraig.png', 'Im_BenStiller.png', 'Im_KeanuReeves.png', 'Im_BradPitt.png', 'Im_RobertPattinson.png'],same,1,0.4250893000007636,38,71.42857142857143,
PHAN0707,6,inv,90,pos90_id6_im19.bmp_pos90_id6_im12.bmp,['Im_LeonardoDiCaprio.png', 'Im_RobertDowneyJr.png', 'Im_RyanReynolds.png', 'Im_MattDamon.png', 'Im_ElijahWood.png', 'Im_DanielCraig.png', 'Im_BenStiller.png', 'Im_KeanuReeves.png', 'Im_BradPitt.png', 'Im_RobertPattinson.png'],same,1,0.42509079999945243,1,90.47619047619048,
PHAN0707,6,inv,0,pos0_id2_im16.bmp_pos0_id2_im3.bmp,['Im_LeonardoDiCaprio.png', 'Im_RobertDowneyJr.png', 'Im_RyanReynolds.png', 'Im_MattDamon.png', 'Im_ElijahWood.png', 'Im_DanielCraig.png', 'Im_BenStiller.png', 'Im_KeanuReeves.png', 'Im_BradPitt.png', 'Im_RobertPattinson.png'],same,1,0.4167517999994743,2,90.47619047619048,
PHAN0707,6,inv,120,pos120_id13_im29.bmp_pos120_id13_im15.bmp,['Im_LeonardoDiCaprio.png', 'Im_RobertDowneyJr.png', 'Im_RyanReynolds.png', 'Im_MattDamon.png', 'Im_ElijahWood.png', 'Im_DanielCraig.png', 'Im_BenStiller.png', 'Im_KeanuReeves.png', 'Im_BradPitt.png', 'Im_RobertPattinson.png'],same,1,0.41671230000065407,3,90.47619047619048,
PHAN0707,6,inv,150,pos150_id21_im17.bmp_pos150_id4_im20.bmp,['Im_LeonardoDiCaprio.png', 'Im_RobertDowneyJr.png', 'Im_RyanReynolds.png', 'Im_MattDamon.png', 'Im_ElijahWood.png', 'Im_DanielCraig.png', 'Im_BenStiller.png', 'Im_KeanuReeves.png', 'Im_BradPitt.png', 'Im_RobertPattinson.png'],same,0,0.4250584000001254,3,90.47619047619048,
PHAN0707,6,inv,30,pos30_id3_im17.bmp_pos30_id3_im8.bmp,['Im_LeonardoDiCaprio.png', 'Im_RobertDowneyJr.png', 'Im_RyanReynolds.png', 'Im_MattDamon.png', 'Im_ElijahWood.png', 'Im_DanielCraig.png', 'Im_BenStiller.png', 'Im_KeanuReeves.png', 'Im_BradPitt.png', 'Im_RobertPattinson.png'],diff,0,0.42508119999911287,3,90.47619047619048,
PHAN0707,6,inv,fs,posfs_id3_im6.bmp_posfs_id3_im8.bmp,['Im_LeonardoDiCaprio.png', 'Im_RobertDowneyJr.png', 'Im_RyanReynolds.png', 'Im_MattDamon.png', 'Im_ElijahWood.png', 'Im_DanielCraig.png', 'Im_BenStiller.png', 'Im_KeanuReeves.png', 'Im_BradPitt.png', 'Im_RobertPattinson.png'],same,1,0.416687599999932,4,90.47619047619048,
PHAN0707,6,inv,60,pos60_id4_im15.bmp_pos60_id3_im17.bmp,['Im_LeonardoDiCaprio.png', 'Im_RobertDowneyJr.png', 'Im_RyanReynolds.png', 'Im_MattDamon.png', 'Im_ElijahWood.png', 'Im_DanielCraig.png', 'Im_BenStiller.png', 'Im_KeanuReeves.png', 'Im_BradPitt.png', 'Im_RobertPattinson.png'],diff,1,0.5918021999987104,5,90.47619047619048,
PHAN0707,6,inv,0,pos0_id14_im24.bmp_pos0_id14_im18.bmp,['Im_LeonardoDiCaprio.png', 'Im_RobertDowneyJr.png', 'Im_RyanReynolds.png', 'Im_MattDamon.png', 'Im_ElijahWood.png', 'Im_DanielCraig.png', 'Im_BenStiller.png', 'Im_KeanuReeves.png', 'Im_BradPitt.png', 'Im_RobertPattinson.png'],same,1,1.7919421000005968,6,90.47619047619048,
PHAN0707,6,inv,150,pos150_id14_im16.bmp_pos150_id14_im24.bmp,['Im_LeonardoDiCaprio.png', 'Im_RobertDowneyJr.png', 'Im_RyanReynolds.png', 'Im_MattDamon.png', 'Im_ElijahWood.png', 'Im_DanielCraig.png', 'Im_BenStiller.png', 'Im_KeanuReeves.png', 'Im_BradPitt.png', 'Im_RobertPattinson.png'],diff,0,0.45828379999875324,6,90.47619047619048,
PHAN0707,6,inv,120,pos120_id21_im22.bmp_pos120_id21_im16.bmp,['Im_LeonardoDiCaprio.png', 'Im_RobertDowneyJr.png', 'Im_RyanReynolds.png', 'Im_MattDamon.png', 'Im_ElijahWood.png', 'Im_DanielCraig.png', 'Im_BenStiller.png', 'Im_KeanuReeves.png', 'Im_BradPitt.png', 'Im_RobertPattinson.png'],same,1,0.4250723000004655,7,90.47619047619048,
PHAN0707,6,inv,fs,posfs_id2_im3.bmp_posfs_id2_im16.bmp,['Im_LeonardoDiCaprio.png', 'Im_RobertDowneyJr.png', 'Im_RyanReynolds.png', 'Im_MattDamon.png', 'Im_ElijahWood.png', 'Im_DanielCraig.png', 'Im_BenStiller.png', 'Im_KeanuReeves.png', 'Im_BradPitt.png', 'Im_RobertPattinson.png'],same,1,0.4250406999999541,8,90.47619047619048,
PHAN0707,6,inv,90,pos90_id4_im7.bmp_pos90_id21_im17.bmp,['Im_LeonardoDiCaprio.png', 'Im_RobertDowneyJr.png', 'Im_RyanReynolds.png', 'Im_MattDamon.png', 'Im_ElijahWood.png', 'Im_DanielCraig.png', 'Im_BenStiller.png', 'Im_KeanuReeves.png', 'Im_BradPitt.png', 'Im_RobertPattinson.png'],same,0,0.4167257000008249,8,90.47619047619048,
PHAN0707,6,inv,30,pos30_id13_im29.bmp_pos30_id11_im2.bmp,['Im_LeonardoDiCaprio.png', 'Im_RobertDowneyJr.png', 'Im_RyanReynolds.png', 'Im_MattDamon.png', 'Im_ElijahWood.png', 'Im_DanielCraig.png', 'Im_BenStiller.png', 'Im_KeanuReeves.png', 'Im_BradPitt.png', 'Im_RobertPattinson.png'],diff,1,0.983253499998682,9,90.47619047619048,
PHAN0707,6,inv,60,pos60_id19_im8.bmp_pos60_id13_im10.bmp,['Im_LeonardoDiCaprio.png', 'Im_RobertDowneyJr.png', 'Im_RyanReynolds.png', 'Im_MattDamon.png', 'Im_ElijahWood.png', 'Im_DanielCraig.png', 'Im_BenStiller.png', 'Im_KeanuReeves.png', 'Im_BradPitt.png', 'Im_RobertPattinson.png'],diff,1,0.4168591000016022,10,90.47619047619048,
PHAN0707,7,pos,90,pos90_id19_im27.bmp_pos90_id19_im8.bmp,['Im_LeonardoDiCaprio.png', 'Im_RobertDowneyJr.png', 'Im_RyanReynolds.png', 'Im_MattDamon.png', 'Im_ElijahWood.png', 'Im_DanielCraig.png', 'Im_BenStiller.png', 'Im_KeanuReeves.png', 'Im_BradPitt.png', 'Im_RobertPattinson.png'],same,1,0.4167660999992222,11,90.47619047619048,
PHAN0707,7,pos,120,pos120_id13_im10.bmp_pos120_id14_im18.bmp,['Im_LeonardoDiCaprio.png', 'Im_RobertDowneyJr.png', 'Im_RyanReynolds.png', 'Im_MattDamon.png', 'Im_ElijahWood.png', 'Im_DanielCraig.png', 'Im_BenStiller.png', 'Im_KeanuReeves.png', 'Im_BradPitt.png', 'Im_RobertPattinson.png'],same,0,0.41676409999854513,11,90.47619047619048,
PHAN0707,7,pos,30,pos30_id2_im2.bmp_pos30_id18_im19.bmp,['Im_LeonardoDiCaprio.png', 'Im_RobertDowneyJr.png', 'Im_RyanReynolds.png', 'Im_MattDamon.png', 'Im_ElijahWood.png', 'Im_DanielCraig.png', 'Im_BenStiller.png', 'Im_KeanuReeves.png', 'Im_BradPitt.png', 'Im_RobertPattinson.png'],diff,1,0.425101500000892,12,90.47619047619048,
PHAN0707,7,pos,120,pos120_id4_im7.bmp_pos120_id14_im16.bmp,['Im_LeonardoDiCaprio.png', 'Im_RobertDowneyJr.png', 'Im_RyanReynolds.png', 'Im_MattDamon.png', 'Im_ElijahWood.png', 'Im_DanielCraig.png', 'Im_BenStiller.png', 'Im_KeanuReeves.png', 'Im_BradPitt.png', 'Im_RobertPattinson.png'],diff,1,0.41669829999955255,13,90.47619047619048,
PHAN0707,7,pos,30,pos30_id11_im10.bmp_pos30_id11_im1.bmp,['Im_LeonardoDiCaprio.png', 'Im_RobertDowneyJr.png', 'Im_RyanReynolds.png', 'Im_MattDamon.png', 'Im_ElijahWood.png', 'Im_DanielCraig.png', 'Im_BenStiller.png', 'Im_KeanuReeves.png', 'Im_BradPitt.png', 'Im_RobertPattinson.png'],same,1,0.41679649999787216,14,90.47619047619048,
PHAN0707,7,pos,0,pos0_id19_im8.bmp_pos0_id19_im4.bmp,['Im_LeonardoDiCaprio.png', 'Im_RobertDowneyJr.png', 'Im_RyanReynolds.png', 'Im_MattDamon.png', 'Im_ElijahWood.png', 'Im_DanielCraig.png', 'Im_BenStiller.png', 'Im_KeanuReeves.png', 'Im_BradPitt.png', 'Im_RobertPattinson.png'],same,1,0.41675519999989774,15,90.47619047619048,
PHAN0707,7,pos,0,pos0_id21_im22.bmp_pos0_id21_im17.bmp,['Im_LeonardoDiCaprio.png', 'Im_RobertDowneyJr.png', 'Im_RyanReynolds.png', 'Im_MattDamon.png', 'Im_ElijahWood.png', 'Im_DanielCraig.png', 'Im_BenStiller.png', 'Im_KeanuReeves.png', 'Im_BradPitt.png', 'Im_RobertPattinson.png'],same,1,0.41672209999887855,16,90.47619047619048,
PHAN0707,7,pos,fs,posfs_id18_im18.bmp_posfs_id11_im10.bmp,['Im_LeonardoDiCaprio.png', 'Im_RobertDowneyJr.png', 'Im_RyanReynolds.png', 'Im_MattDamon.png', 'Im_ElijahWood.png', 'Im_DanielCraig.png', 'Im_BenStiller.png', 'Im_KeanuReeves.png', 'Im_BradPitt.png', 'Im_RobertPattinson.png'],diff,1,0.41657540000232984,17,90.47619047619048,
PHAN0707,7,pos,fs,posfs_id4_im20.bmp_posfs_id21_im17.bmp,['Im_LeonardoDiCaprio.png', 'Im_RobertDowneyJr.png', 'Im_RyanReynolds.png', 'Im_MattDamon.png', 'Im_ElijahWood.png', 'Im_DanielCraig.png', 'Im_BenStiller.png', 'Im_KeanuReeves.png', 'Im_BradPitt.png', 'Im_RobertPattinson.png'],diff,1,0.5750814999992144,18,90.47619047619048,
PHAN0707,7,pos,60,pos60_id4_im15.bmp_pos60_id4_im7.bmp,['Im_LeonardoDiCaprio.png', 'Im_RobertDowneyJr.png', 'Im_RyanReynolds.png', 'Im_MattDamon.png', 'Im_ElijahWood.png', 'Im_DanielCraig.png', 'Im_BenStiller.png', 'Im_KeanuReeves.png', 'Im_BradPitt.png', 'Im_RobertPattinson.png'],same,1,0.41680189999897266,19,90.47619047619048,
PHAN0707,7,pos,150,pos150_id18_im11.bmp_pos150_id18_im18.bmp,['Im_LeonardoDiCaprio.png', 'Im_RobertDowneyJr.png', 'Im_RyanReynolds.png', 'Im_MattDamon.png', 'Im_ElijahWood.png', 'Im_DanielCraig.png', 'Im_BenStiller.png', 'Im_KeanuReeves.png', 'Im_BradPitt.png', 'Im_RobertPattinson.png'],same,1,0.40844510000169976,20,90.47619047619048,
PHAN0707,7,pos,60,pos60_id4_im7.bmp_pos60_id14_im16.bmp,['Im_LeonardoDiCaprio.png', 'Im_RobertDowneyJr.png', 'Im_RyanReynolds.png', 'Im_MattDamon.png', 'Im_ElijahWood.png', 'Im_DanielCraig.png', 'Im_BenStiller.png', 'Im_KeanuReeves.png', 'Im_BradPitt.png', 'Im_RobertPattinson.png'],diff,1,0.4250718000002962,21,90.47619047619048,
PHAN0707,7,pos,150,pos150_id6_im18.bmp_pos150_id19_im4.bmp,['Im_LeonardoDiCaprio.png', 'Im_RobertDowneyJr.png', 'Im_RyanReynolds.png', 'Im_MattDamon.png', 'Im_ElijahWood.png', 'Im_DanielCraig.png', 'Im_BenStiller.png', 'Im_KeanuReeves.png', 'Im_BradPitt.png', 'Im_RobertPattinson.png'],diff,1,0.4333675999987463,22,90.47619047619048,
PHAN0707,7,pos,90,pos90_id21_im17.bmp_pos90_id4_im20.bmp,['Im_LeonardoDiCaprio.png', 'Im_RobertDowneyJr.png', 'Im_RyanReynolds.png', 'Im_MattDamon.png', 'Im_ElijahWood.png', 'Im_DanielCraig.png', 'Im_BenStiller.png', 'Im_KeanuReeves.png', 'Im_BradPitt.png', 'Im_RobertPattinson.png'],diff,1,0.42510350000156905,23,90.47619047619048,
PHAN0707,8,neg,fs,negfs_id11_im10.bmp_negfs_id11_im1.bmp,['Im_LeonardoDiCaprio.png', 'Im_RobertDowneyJr.png', 'Im_RyanReynolds.png', 'Im_MattDamon.png', 'Im_ElijahWood.png', 'Im_DanielCraig.png', 'Im_BenStiller.png', 'Im_KeanuReeves.png', 'Im_BradPitt.png', 'Im_RobertPattinson.png'],same,1,0.4167605000002368,24,90.47619047619048,
PHAN0707,8,neg,90,neg90_id4_im15.bmp_neg90_id4_im20.bmp,['Im_LeonardoDiCaprio.png', 'Im_RobertDowneyJr.png', 'Im_RyanReynolds.png', 'Im_MattDamon.png', 'Im_ElijahWood.png', 'Im_DanielCraig.png', 'Im_BenStiller.png', 'Im_KeanuReeves.png', 'Im_BradPitt.png', 'Im_RobertPattinson.png'],same,1,0.41677010000057635,25,90.47619047619048,
PHAN0707,8,neg,30,neg30_id21_im16.bmp_neg30_id6_im18.bmp,['Im_LeonardoDiCaprio.png', 'Im_RobertDowneyJr.png', 'Im_RyanReynolds.png', 'Im_MattDamon.png', 'Im_ElijahWood.png', 'Im_DanielCraig.png', 'Im_BenStiller.png', 'Im_KeanuReeves.png', 'Im_BradPitt.png', 'Im_RobertPattinson.png'],diff,1,0.4250893999997061,26,90.47619047619048,
PHAN0707,8,neg,150,neg150_id13_im29.bmp_neg150_id13_im15.bmp,['Im_LeonardoDiCaprio.png', 'Im_RobertDowneyJr.png', 'Im_RyanReynolds.png', 'Im_MattDamon.png', 'Im_ElijahWood.png', 'Im_DanielCraig.png', 'Im_BenStiller.png', 'Im_KeanuReeves.png', 'Im_BradPitt.png', 'Im_RobertPattinson.png'],diff,0,0.4665698999997403,26,90.47619047619048,
PHAN0707,8,neg,30,neg30_id6_im12.bmp_neg30_id3_im6.bmp,['Im_LeonardoDiCaprio.png', 'Im_RobertDowneyJr.png', 'Im_RyanReynolds.png', 'Im_MattDamon.png', 'Im_ElijahWood.png', 'Im_DanielCraig.png', 'Im_BenStiller.png', 'Im_KeanuReeves.png', 'Im_BradPitt.png', 'Im_RobertPattinson.png'],diff,1,0.416709199998877,27,90.47619047619048,
PHAN0707,8,neg,0,neg0_id13_im29.bmp_neg0_id13_im10.bmp,['Im_LeonardoDiCaprio.png', 'Im_RobertDowneyJr.png', 'Im_RyanReynolds.png', 'Im_MattDamon.png', 'Im_ElijahWood.png', 'Im_DanielCraig.png', 'Im_BenStiller.png', 'Im_KeanuReeves.png', 'Im_BradPitt.png', 'Im_RobertPattinson.png'],diff,0,0.45863029999964056,27,90.47619047619048,
PHAN0707,8,neg,90,neg90_id2_im2.bmp_neg90_id18_im19.bmp,['Im_LeonardoDiCaprio.png', 'Im_RobertDowneyJr.png', 'Im_RyanReynolds.png', 'Im_MattDamon.png', 'Im_ElijahWood.png', 'Im_DanielCraig.png', 'Im_BenStiller.png', 'Im_KeanuReeves.png', 'Im_BradPitt.png', 'Im_RobertPattinson.png'],same,0,0.5167383000007248,27,90.47619047619048,
PHAN0707,8,neg,0,neg0_id21_im17.bmp_neg0_id21_im16.bmp,['Im_LeonardoDiCaprio.png', 'Im_RobertDowneyJr.png', 'Im_RyanReynolds.png', 'Im_MattDamon.png', 'Im_ElijahWood.png', 'Im_DanielCraig.png', 'Im_BenStiller.png', 'Im_KeanuReeves.png', 'Im_BradPitt.png', 'Im_RobertPattinson.png'],same,1,0.41701150000153575,28,90.47619047619048,
PHAN0707,8,neg,60,neg60_id18_im11.bmp_neg60_id18_im18.bmp,['Im_LeonardoDiCaprio.png', 'Im_RobertDowneyJr.png', 'Im_RyanReynolds.png', 'Im_MattDamon.png', 'Im_ElijahWood.png', 'Im_DanielCraig.png', 'Im_BenStiller.png', 'Im_KeanuReeves.png', 'Im_BradPitt.png', 'Im_RobertPattinson.png'],same,1,0.41673980000268784,29,90.47619047619048,
PHAN0707,8,neg,60,neg60_id3_im6.bmp_neg60_id3_im17.bmp,['Im_LeonardoDiCaprio.png', 'Im_RobertDowneyJr.png', 'Im_RyanReynolds.png', 'Im_MattDamon.png', 'Im_ElijahWood.png', 'Im_DanielCraig.png', 'Im_BenStiller.png', 'Im_KeanuReeves.png', 'Im_BradPitt.png', 'Im_RobertPattinson.png'],same,1,0.6999077000000398,30,90.47619047619048,
PHAN0707,8,neg,120,neg120_id4_im15.bmp_neg120_id4_im20.bmp,['Im_LeonardoDiCaprio.png', 'Im_RobertDowneyJr.png', 'Im_RyanReynolds.png', 'Im_MattDamon.png', 'Im_ElijahWood.png', 'Im_DanielCraig.png', 'Im_BenStiller.png', 'Im_KeanuReeves.png', 'Im_BradPitt.png', 'Im_RobertPattinson.png'],same,1,0.41674090000014985,31,90.47619047619048,
PHAN0707,8,neg,150,neg150_id4_im7.bmp_neg150_id14_im16.bmp,['Im_LeonardoDiCaprio.png', 'Im_RobertDowneyJr.png', 'Im_RyanReynolds.png', 'Im_MattDamon.png', 'Im_ElijahWood.png', 'Im_DanielCraig.png', 'Im_BenStiller.png', 'Im_KeanuReeves.png', 'Im_BradPitt.png', 'Im_RobertPattinson.png'],diff,1,0.41669480000200565,32,90.47619047619048,
PHAN0707,8,neg,120,neg120_id2_im16.bmp_neg120_id13_im29.bmp,['Im_LeonardoDiCaprio.png', 'Im_RobertDowneyJr.png', 'Im_RyanReynolds.png', 'Im_MattDamon.png', 'Im_ElijahWood.png', 'Im_DanielCraig.png', 'Im_BenStiller.png', 'Im_KeanuReeves.png', 'Im_BradPitt.png', 'Im_RobertPattinson.png'],same,0,0.44991480000317097,32,90.47619047619048,
PHAN0707,8,neg,fs,negfs_id18_im19.bmp_negfs_id18_im11.bmp,['Im_LeonardoDiCaprio.png', 'Im_RobertDowneyJr.png', 'Im_RyanReynolds.png', 'Im_MattDamon.png', 'Im_ElijahWood.png', 'Im_DanielCraig.png', 'Im_BenStiller.png', 'Im_KeanuReeves.png', 'Im_BradPitt.png', 'Im_RobertPattinson.png'],same,1,0.4251120000008086,33,90.47619047619048,
PHAN0707,9,inv,150,pos150_id21_im22.bmp_pos150_id21_im16.bmp,['Im_LeonardoDiCaprio.png', 'Im_RobertDowneyJr.png', 'Im_RyanReynolds.png', 'Im_MattDamon.png', 'Im_ElijahWood.png', 'Im_DanielCraig.png', 'Im_BenStiller.png', 'Im_KeanuReeves.png', 'Im_BradPitt.png', 'Im_RobertPattinson.png'],same,1,0.42509419999987585,1,78.57142857142857,
PHAN0707,9,inv,fs,posfs_id14_im16.bmp_posfs_id14_im24.bmp,['Im_LeonardoDiCaprio.png', 'Im_RobertDowneyJr.png', 'Im_RyanReynolds.png', 'Im_MattDamon.png', 'Im_ElijahWood.png', 'Im_DanielCraig.png', 'Im_BenStiller.png', 'Im_KeanuReeves.png', 'Im_BradPitt.png', 'Im_RobertPattinson.png'],diff,0,1.266893699998036,1,78.57142857142857,
PHAN0707,9,inv,fs,posfs_id21_im17.bmp_posfs_id4_im20.bmp,['Im_LeonardoDiCaprio.png', 'Im_RobertDowneyJr.png', 'Im_RyanReynolds.png', 'Im_MattDamon.png', 'Im_ElijahWood.png', 'Im_DanielCraig.png', 'Im_BenStiller.png', 'Im_KeanuReeves.png', 'Im_BradPitt.png', 'Im_RobertPattinson.png'],diff,1,0.43324159999974654,2,78.57142857142857,
PHAN0707,9,inv,0,pos0_id2_im16.bmp_pos0_id2_im2.bmp,['Im_LeonardoDiCaprio.png', 'Im_RobertDowneyJr.png', 'Im_RyanReynolds.png', 'Im_MattDamon.png', 'Im_ElijahWood.png', 'Im_DanielCraig.png', 'Im_BenStiller.png', 'Im_KeanuReeves.png', 'Im_BradPitt.png', 'Im_RobertPattinson.png'],same,1,1.6838137000013376,3,78.57142857142857,
PHAN0707,9,inv,30,pos30_id21_im17.bmp_pos30_id4_im7.bmp,['Im_LeonardoDiCaprio.png', 'Im_RobertDowneyJr.png', 'Im_RyanReynolds.png', 'Im_MattDamon.png', 'Im_ElijahWood.png', 'Im_DanielCraig.png', 'Im_BenStiller.png', 'Im_KeanuReeves.png', 'Im_BradPitt.png', 'Im_RobertPattinson.png'],diff,1,0.4085707000012917,4,78.57142857142857,
PHAN0707,9,inv,60,pos60_id14_im16.bmp_pos60_id14_im24.bmp,['Im_LeonardoDiCaprio.png', 'Im_RobertDowneyJr.png', 'Im_RyanReynolds.png', 'Im_MattDamon.png', 'Im_ElijahWood.png', 'Im_DanielCraig.png', 'Im_BenStiller.png', 'Im_KeanuReeves.png', 'Im_BradPitt.png', 'Im_RobertPattinson.png'],same,1,0.41679260000091745,5,78.57142857142857,
PHAN0707,9,inv,90,pos90_id11_im10.bmp_pos90_id2_im2.bmp,['Im_LeonardoDiCaprio.png', 'Im_RobertDowneyJr.png', 'Im_RyanReynolds.png', 'Im_MattDamon.png', 'Im_ElijahWood.png', 'Im_DanielCraig.png', 'Im_BenStiller.png', 'Im_KeanuReeves.png', 'Im_BradPitt.png', 'Im_RobertPattinson.png'],diff,1,0.4082705000000715,6,78.57142857142857,
PHAN0707,9,inv,120,pos120_id18_im19.bmp_pos120_id2_im2.bmp,['Im_LeonardoDiCaprio.png', 'Im_RobertDowneyJr.png', 'Im_RyanReynolds.png', 'Im_MattDamon.png', 'Im_ElijahWood.png', 'Im_DanielCraig.png', 'Im_BenStiller.png', 'Im_KeanuReeves.png', 'Im_BradPitt.png', 'Im_RobertPattinson.png'],diff,1,0.9668708999997762,7,78.57142857142857,
PHAN0707,9,inv,90,pos90_id6_im12.bmp_pos90_id6_im18.bmp,['Im_LeonardoDiCaprio.png', 'Im_RobertDowneyJr.png', 'Im_RyanReynolds.png', 'Im_MattDamon.png', 'Im_ElijahWood.png', 'Im_DanielCraig.png', 'Im_BenStiller.png', 'Im_KeanuReeves.png', 'Im_BradPitt.png', 'Im_RobertPattinson.png'],same,1,0.4167483000019274,8,78.57142857142857,
PHAN0707,9,inv,120,pos120_id4_im7.bmp_pos120_id4_im15.bmp,['Im_LeonardoDiCaprio.png', 'Im_RobertDowneyJr.png', 'Im_RyanReynolds.png', 'Im_MattDamon.png', 'Im_ElijahWood.png', 'Im_DanielCraig.png', 'Im_BenStiller.png', 'Im_KeanuReeves.png', 'Im_BradPitt.png', 'Im_RobertPattinson.png'],same,1,1.7168296999989252,9,78.57142857142857,
PHAN0707,9,inv,30,pos30_id6_im18.bmp_pos30_id21_im16.bmp,['Im_LeonardoDiCaprio.png', 'Im_RobertDowneyJr.png', 'Im_RyanReynolds.png', 'Im_MattDamon.png', 'Im_ElijahWood.png', 'Im_DanielCraig.png', 'Im_BenStiller.png', 'Im_KeanuReeves.png', 'Im_BradPitt.png', 'Im_RobertPattinson.png'],diff,1,0.40846130000136327,10,78.57142857142857,
PHAN0707,9,inv,0,pos0_id11_im1.bmp_pos0_id2_im16.bmp,['Im_LeonardoDiCaprio.png', 'Im_RobertDowneyJr.png', 'Im_RyanReynolds.png', 'Im_MattDamon.png', 'Im_ElijahWood.png', 'Im_DanielCraig.png', 'Im_BenStiller.png', 'Im_KeanuReeves.png', 'Im_BradPitt.png', 'Im_RobertPattinson.png'],diff,1,0.4167731999987154,11,78.57142857142857,
PHAN0707,9,inv,60,pos60_id11_im10.bmp_pos60_id11_im2.bmp,['Im_LeonardoDiCaprio.png', 'Im_RobertDowneyJr.png', 'Im_RyanReynolds.png', 'Im_MattDamon.png', 'Im_ElijahWood.png', 'Im_DanielCraig.png', 'Im_BenStiller.png', 'Im_KeanuReeves.png', 'Im_BradPitt.png', 'Im_RobertPattinson.png'],same,1,1.2503231000009691,12,78.57142857142857,
PHAN0707,9,inv,150,pos150_id13_im15.bmp_pos150_id13_im10.bmp,['Im_LeonardoDiCaprio.png', 'Im_RobertDowneyJr.png', 'Im_RyanReynolds.png', 'Im_MattDamon.png', 'Im_ElijahWood.png', 'Im_DanielCraig.png', 'Im_BenStiller.png', 'Im_KeanuReeves.png', 'Im_BradPitt.png', 'Im_RobertPattinson.png'],diff,0,0.4251440999978513,12,78.57142857142857,
PHAN0707,10,pos,60,pos60_id21_im16.bmp_pos60_id21_im17.bmp,['Im_LeonardoDiCaprio.png', 'Im_RobertDowneyJr.png', 'Im_RyanReynolds.png', 'Im_MattDamon.png', 'Im_ElijahWood.png', 'Im_DanielCraig.png', 'Im_BenStiller.png', 'Im_KeanuReeves.png', 'Im_BradPitt.png', 'Im_RobertPattinson.png'],same,1,0.40851540000221576,13,78.57142857142857,
PHAN0707,10,pos,150,pos150_id4_im7.bmp_pos150_id21_im17.bmp,['Im_LeonardoDiCaprio.png', 'Im_RobertDowneyJr.png', 'Im_RyanReynolds.png', 'Im_MattDamon.png', 'Im_ElijahWood.png', 'Im_DanielCraig.png', 'Im_BenStiller.png', 'Im_KeanuReeves.png', 'Im_BradPitt.png', 'Im_RobertPattinson.png'],diff,1,0.4167861999994784,14,78.57142857142857,
PHAN0707,10,pos,fs,posfs_id14_im16.bmp_posfs_id21_im16.bmp,['Im_LeonardoDiCaprio.png', 'Im_RobertDowneyJr.png', 'Im_RyanReynolds.png', 'Im_MattDamon.png', 'Im_ElijahWood.png', 'Im_DanielCraig.png', 'Im_BenStiller.png', 'Im_KeanuReeves.png', 'Im_BradPitt.png', 'Im_RobertPattinson.png'],same,0,0.4167081999985385,14,78.57142857142857,
PHAN0707,10,pos,90,pos90_id19_im8.bmp_pos90_id19_im4.bmp,['Im_LeonardoDiCaprio.png', 'Im_RobertDowneyJr.png', 'Im_RyanReynolds.png', 'Im_MattDamon.png', 'Im_ElijahWood.png', 'Im_DanielCraig.png', 'Im_BenStiller.png', 'Im_KeanuReeves.png', 'Im_BradPitt.png', 'Im_RobertPattinson.png'],same,1,0.41665430000284687,15,78.57142857142857,
PHAN0707,10,pos,30,pos30_id21_im17.bmp_pos30_id4_im7.bmp,['Im_LeonardoDiCaprio.png', 'Im_RobertDowneyJr.png', 'Im_RyanReynolds.png', 'Im_MattDamon.png', 'Im_ElijahWood.png', 'Im_DanielCraig.png', 'Im_BenStiller.png', 'Im_KeanuReeves.png', 'Im_BradPitt.png', 'Im_RobertPattinson.png'],diff,1,0.42502760000206763,16,78.57142857142857,
PHAN0707,10,pos,0,pos0_id2_im2.bmp_pos0_id11_im10.bmp,['Im_LeonardoDiCaprio.png', 'Im_RobertDowneyJr.png', 'Im_RyanReynolds.png', 'Im_MattDamon.png', 'Im_ElijahWood.png', 'Im_DanielCraig.png', 'Im_BenStiller.png', 'Im_KeanuReeves.png', 'Im_BradPitt.png', 'Im_RobertPattinson.png'],diff,1,0.4166920999996364,17,78.57142857142857,
PHAN0707,10,pos,120,pos120_id21_im17.bmp_pos120_id21_im16.bmp,['Im_LeonardoDiCaprio.png', 'Im_RobertDowneyJr.png', 'Im_RyanReynolds.png', 'Im_MattDamon.png', 'Im_ElijahWood.png', 'Im_DanielCraig.png', 'Im_BenStiller.png', 'Im_KeanuReeves.png', 'Im_BradPitt.png', 'Im_RobertPattinson.png'],same,1,0.41674069999862695,18,78.57142857142857,
PHAN0707,10,pos,150,pos150_id11_im2.bmp_pos150_id11_im10.bmp,['Im_LeonardoDiCaprio.png', 'Im_RobertDowneyJr.png', 'Im_RyanReynolds.png', 'Im_MattDamon.png', 'Im_ElijahWood.png', 'Im_DanielCraig.png', 'Im_BenStiller.png', 'Im_KeanuReeves.png', 'Im_BradPitt.png', 'Im_RobertPattinson.png'],same,1,0.4251163999979326,19,78.57142857142857,
PHAN0707,10,pos,30,pos30_id14_im16.bmp_pos30_id4_im7.bmp,['Im_LeonardoDiCaprio.png', 'Im_RobertDowneyJr.png', 'Im_RyanReynolds.png', 'Im_MattDamon.png', 'Im_ElijahWood.png', 'Im_DanielCraig.png', 'Im_BenStiller.png', 'Im_KeanuReeves.png', 'Im_BradPitt.png', 'Im_RobertPattinson.png'],diff,1,0.4250686000013957,20,78.57142857142857,
PHAN0707,10,pos,fs,posfs_id4_im20.bmp_posfs_id4_im7.bmp,['Im_LeonardoDiCaprio.png', 'Im_RobertDowneyJr.png', 'Im_RyanReynolds.png', 'Im_MattDamon.png', 'Im_ElijahWood.png', 'Im_DanielCraig.png', 'Im_BenStiller.png', 'Im_KeanuReeves.png', 'Im_BradPitt.png', 'Im_RobertPattinson.png'],same,1,0.4167044999994687,21,78.57142857142857,
PHAN0707,10,pos,60,pos60_id3_im17.bmp_pos60_id4_im15.bmp,['Im_LeonardoDiCaprio.png', 'Im_RobertDowneyJr.png', 'Im_RyanReynolds.png', 'Im_MattDamon.png', 'Im_ElijahWood.png', 'Im_DanielCraig.png', 'Im_BenStiller.png', 'Im_KeanuReeves.png', 'Im_BradPitt.png', 'Im_RobertPattinson.png'],diff,1,0.4167240999995556,22,78.57142857142857,
PHAN0707,10,pos,120,pos120_id18_im11.bmp_pos120_id18_im18.bmp,['Im_LeonardoDiCaprio.png', 'Im_RobertDowneyJr.png', 'Im_RyanReynolds.png', 'Im_MattDamon.png', 'Im_ElijahWood.png', 'Im_DanielCraig.png', 'Im_BenStiller.png', 'Im_KeanuReeves.png', 'Im_BradPitt.png', 'Im_RobertPattinson.png'],same,1,0.4167572999976983,23,78.57142857142857,
PHAN0707,10,pos,90,pos90_id3_im17.bmp_pos90_id3_im8.bmp,['Im_LeonardoDiCaprio.png', 'Im_RobertDowneyJr.png', 'Im_RyanReynolds.png', 'Im_MattDamon.png', 'Im_ElijahWood.png', 'Im_DanielCraig.png', 'Im_BenStiller.png', 'Im_KeanuReeves.png', 'Im_BradPitt.png', 'Im_RobertPattinson.png'],diff,0,0.550088500000129,23,78.57142857142857,
PHAN0707,10,pos,0,pos0_id14_im18.bmp_pos0_id13_im10.bmp,['Im_LeonardoDiCaprio.png', 'Im_RobertDowneyJr.png', 'Im_RyanReynolds.png', 'Im_MattDamon.png', 'Im_ElijahWood.png', 'Im_DanielCraig.png', 'Im_BenStiller.png', 'Im_KeanuReeves.png', 'Im_BradPitt.png', 'Im_RobertPattinson.png'],diff,1,1.2167021999994176,24,78.57142857142857,
PHAN0707,11,neg,30,neg30_id11_im1.bmp_neg30_id11_im10.bmp,['Im_LeonardoDiCaprio.png', 'Im_RobertDowneyJr.png', 'Im_RyanReynolds.png', 'Im_MattDamon.png', 'Im_ElijahWood.png', 'Im_DanielCraig.png', 'Im_BenStiller.png', 'Im_KeanuReeves.png', 'Im_BradPitt.png', 'Im_RobertPattinson.png'],diff,0,0.40835169999991194,24,78.57142857142857,
PHAN0707,11,neg,120,neg120_id14_im18.bmp_neg120_id14_im16.bmp,['Im_LeonardoDiCaprio.png', 'Im_RobertDowneyJr.png', 'Im_RyanReynolds.png', 'Im_MattDamon.png', 'Im_ElijahWood.png', 'Im_DanielCraig.png', 'Im_BenStiller.png', 'Im_KeanuReeves.png', 'Im_BradPitt.png', 'Im_RobertPattinson.png'],same,1,0.40827730000091833,25,78.57142857142857,
PHAN0707,11,neg,90,neg90_id21_im17.bmp_neg90_id21_im22.bmp,['Im_LeonardoDiCaprio.png', 'Im_RobertDowneyJr.png', 'Im_RyanReynolds.png', 'Im_MattDamon.png', 'Im_ElijahWood.png', 'Im_DanielCraig.png', 'Im_BenStiller.png', 'Im_KeanuReeves.png', 'Im_BradPitt.png', 'Im_RobertPattinson.png'],diff,0,0.4168884999999136,25,78.57142857142857,
PHAN0707,11,neg,fs,negfs_id4_im7.bmp_negfs_id4_im15.bmp,['Im_LeonardoDiCaprio.png', 'Im_RobertDowneyJr.png', 'Im_RyanReynolds.png', 'Im_MattDamon.png', 'Im_ElijahWood.png', 'Im_DanielCraig.png', 'Im_BenStiller.png', 'Im_KeanuReeves.png', 'Im_BradPitt.png', 'Im_RobertPattinson.png'],same,1,0.42518419999760226,26,78.57142857142857,
PHAN0707,11,neg,0,neg0_id14_im18.bmp_neg0_id4_im20.bmp,['Im_LeonardoDiCaprio.png', 'Im_RobertDowneyJr.png', 'Im_RyanReynolds.png', 'Im_MattDamon.png', 'Im_ElijahWood.png', 'Im_DanielCraig.png', 'Im_BenStiller.png', 'Im_KeanuReeves.png', 'Im_BradPitt.png', 'Im_RobertPattinson.png'],same,0,0.4169194999994943,26,78.57142857142857,
PHAN0707,11,neg,150,neg150_id2_im16.bmp_neg150_id11_im1.bmp,['Im_LeonardoDiCaprio.png', 'Im_RobertDowneyJr.png', 'Im_RyanReynolds.png', 'Im_MattDamon.png', 'Im_ElijahWood.png', 'Im_DanielCraig.png', 'Im_BenStiller.png', 'Im_KeanuReeves.png', 'Im_BradPitt.png', 'Im_RobertPattinson.png'],same,0,0.42510570000013104,26,78.57142857142857,
PHAN0707,11,neg,fs,negfs_id11_im2.bmp_negfs_id11_im1.bmp,['Im_LeonardoDiCaprio.png', 'Im_RobertDowneyJr.png', 'Im_RyanReynolds.png', 'Im_MattDamon.png', 'Im_ElijahWood.png', 'Im_DanielCraig.png', 'Im_BenStiller.png', 'Im_KeanuReeves.png', 'Im_BradPitt.png', 'Im_RobertPattinson.png'],same,1,0.7836308000005374,27,78.57142857142857,
PHAN0707,11,neg,120,neg120_id4_im7.bmp_neg120_id21_im17.bmp,['Im_LeonardoDiCaprio.png', 'Im_RobertDowneyJr.png', 'Im_RyanReynolds.png', 'Im_MattDamon.png', 'Im_ElijahWood.png', 'Im_DanielCraig.png', 'Im_BenStiller.png', 'Im_KeanuReeves.png', 'Im_BradPitt.png', 'Im_RobertPattinson.png'],diff,1,0.4165633999982674,28,78.57142857142857,
PHAN0707,11,neg,60,neg60_id21_im17.bmp_neg60_id4_im7.bmp,['Im_LeonardoDiCaprio.png', 'Im_RobertDowneyJr.png', 'Im_RyanReynolds.png', 'Im_MattDamon.png', 'Im_ElijahWood.png', 'Im_DanielCraig.png', 'Im_BenStiller.png', 'Im_KeanuReeves.png', 'Im_BradPitt.png', 'Im_RobertPattinson.png'],diff,1,0.4167171999979473,29,78.57142857142857,
PHAN0707,11,neg,150,neg150_id2_im2.bmp_neg150_id11_im10.bmp,['Im_LeonardoDiCaprio.png', 'Im_RobertDowneyJr.png', 'Im_RyanReynolds.png', 'Im_MattDamon.png', 'Im_ElijahWood.png', 'Im_DanielCraig.png', 'Im_BenStiller.png', 'Im_KeanuReeves.png', 'Im_BradPitt.png', 'Im_RobertPattinson.png'],diff,1,1.000248799999099,30,78.57142857142857,
PHAN0707,11,neg,90,neg90_id4_im7.bmp_neg90_id14_im16.bmp,['Im_LeonardoDiCaprio.png', 'Im_RobertDowneyJr.png', 'Im_RyanReynolds.png', 'Im_MattDamon.png', 'Im_ElijahWood.png', 'Im_DanielCraig.png', 'Im_BenStiller.png', 'Im_KeanuReeves.png', 'Im_BradPitt.png', 'Im_RobertPattinson.png'],diff,1,0.41674629999761237,31,78.57142857142857,
PHAN0707,11,neg,0,neg0_id3_im6.bmp_neg0_id6_im12.bmp,['Im_LeonardoDiCaprio.png', 'Im_RobertDowneyJr.png', 'Im_RyanReynolds.png', 'Im_MattDamon.png', 'Im_ElijahWood.png', 'Im_DanielCraig.png', 'Im_BenStiller.png', 'Im_KeanuReeves.png', 'Im_BradPitt.png', 'Im_RobertPattinson.png'],diff,1,0.425004100001388,32,78.57142857142857,
PHAN0707,11,neg,60,neg60_id4_im7.bmp_neg60_id4_im15.bmp,['Im_LeonardoDiCaprio.png', 'Im_RobertDowneyJr.png', 'Im_RyanReynolds.png', 'Im_MattDamon.png', 'Im_ElijahWood.png', 'Im_DanielCraig.png', 'Im_BenStiller.png', 'Im_KeanuReeves.png', 'Im_BradPitt.png', 'Im_RobertPattinson.png'],same,1,0.4250070999987656,33,78.57142857142857,
PHAN0707,11,neg,30,neg30_id3_im17.bmp_neg30_id3_im6.bmp,['Im_LeonardoDiCaprio.png', 'Im_RobertDowneyJr.png', 'Im_RyanReynolds.png', 'Im_MattDamon.png', 'Im_ElijahWood.png', 'Im_DanielCraig.png', 'Im_BenStiller.png', 'Im_KeanuReeves.png', 'Im_BradPitt.png', 'Im_RobertPattinson.png'],same,1,0.425114499998017,34,78.57142857142857,
PHAN0707,12,inv,30,pos30_id19_im4.bmp_pos30_id19_im8.bmp,['Im_LeonardoDiCaprio.png', 'Im_RobertDowneyJr.png', 'Im_RyanReynolds.png', 'Im_MattDamon.png', 'Im_ElijahWood.png', 'Im_DanielCraig.png', 'Im_BenStiller.png', 'Im_KeanuReeves.png', 'Im_BradPitt.png', 'Im_RobertPattinson.png'],diff,0,1.158784300001571,0,80.95238095238095,
PHAN0707,12,inv,150,pos150_id2_im16.bmp_pos150_id11_im1.bmp,['Im_LeonardoDiCaprio.png', 'Im_RobertDowneyJr.png', 'Im_RyanReynolds.png', 'Im_MattDamon.png', 'Im_ElijahWood.png', 'Im_DanielCraig.png', 'Im_BenStiller.png', 'Im_KeanuReeves.png', 'Im_BradPitt.png', 'Im_RobertPattinson.png'],same,0,0.45812479999949574,0,80.95238095238095,
PHAN0707,12,inv,90,pos90_id14_im24.bmp_pos90_id14_im18.bmp,['Im_LeonardoDiCaprio.png', 'Im_RobertDowneyJr.png', 'Im_RyanReynolds.png', 'Im_MattDamon.png', 'Im_ElijahWood.png', 'Im_DanielCraig.png', 'Im_BenStiller.png', 'Im_KeanuReeves.png', 'Im_BradPitt.png', 'Im_RobertPattinson.png'],same,1,0.4164372999985062,1,80.95238095238095,
PHAN0707,12,inv,fs,posfs_id3_im6.bmp_posfs_id21_im22.bmp,['Im_LeonardoDiCaprio.png', 'Im_RobertDowneyJr.png', 'Im_RyanReynolds.png', 'Im_MattDamon.png', 'Im_ElijahWood.png', 'Im_DanielCraig.png', 'Im_BenStiller.png', 'Im_KeanuReeves.png', 'Im_BradPitt.png', 'Im_RobertPattinson.png'],diff,1,0.42495530000087456,2,80.95238095238095,
PHAN0707,12,inv,60,pos60_id14_im18.bmp_pos60_id4_im20.bmp,['Im_LeonardoDiCaprio.png', 'Im_RobertDowneyJr.png', 'Im_RyanReynolds.png', 'Im_MattDamon.png', 'Im_ElijahWood.png', 'Im_DanielCraig.png', 'Im_BenStiller.png', 'Im_KeanuReeves.png', 'Im_BradPitt.png', 'Im_RobertPattinson.png'],diff,1,0.6595238000008976,3,80.95238095238095,
PHAN0707,12,inv,150,pos150_id18_im19.bmp_pos150_id18_im11.bmp,['Im_LeonardoDiCaprio.png', 'Im_RobertDowneyJr.png', 'Im_RyanReynolds.png', 'Im_MattDamon.png', 'Im_ElijahWood.png', 'Im_DanielCraig.png', 'Im_BenStiller.png', 'Im_KeanuReeves.png', 'Im_BradPitt.png', 'Im_RobertPattinson.png'],same,1,0.4167153000016697,4,80.95238095238095,
PHAN0707,12,inv,120,pos120_id3_im8.bmp_pos120_id18_im18.bmp,['Im_LeonardoDiCaprio.png', 'Im_RobertDowneyJr.png', 'Im_RyanReynolds.png', 'Im_MattDamon.png', 'Im_ElijahWood.png', 'Im_DanielCraig.png', 'Im_BenStiller.png', 'Im_KeanuReeves.png', 'Im_BradPitt.png', 'Im_RobertPattinson.png'],diff,1,0.42539269999906537,5,80.95238095238095,
PHAN0707,12,inv,0,pos0_id11_im10.bmp_pos0_id11_im2.bmp,['Im_LeonardoDiCaprio.png', 'Im_RobertDowneyJr.png', 'Im_RyanReynolds.png', 'Im_MattDamon.png', 'Im_ElijahWood.png', 'Im_DanielCraig.png', 'Im_BenStiller.png', 'Im_KeanuReeves.png', 'Im_BradPitt.png', 'Im_RobertPattinson.png'],same,1,0.4166336999987834,6,80.95238095238095,
PHAN0707,12,inv,30,pos30_id19_im4.bmp_pos30_id6_im18.bmp,['Im_LeonardoDiCaprio.png', 'Im_RobertDowneyJr.png', 'Im_RyanReynolds.png', 'Im_MattDamon.png', 'Im_ElijahWood.png', 'Im_DanielCraig.png', 'Im_BenStiller.png', 'Im_KeanuReeves.png', 'Im_BradPitt.png', 'Im_RobertPattinson.png'],diff,1,0.4167328000003181,7,80.95238095238095,
PHAN0707,12,inv,120,pos120_id4_im7.bmp_pos120_id4_im20.bmp,['Im_LeonardoDiCaprio.png', 'Im_RobertDowneyJr.png', 'Im_RyanReynolds.png', 'Im_MattDamon.png', 'Im_ElijahWood.png', 'Im_DanielCraig.png', 'Im_BenStiller.png', 'Im_KeanuReeves.png', 'Im_BradPitt.png', 'Im_RobertPattinson.png'],same,1,0.4083561999977974,8,80.95238095238095,
PHAN0707,12,inv,0,pos0_id11_im10.bmp_pos0_id18_im18.bmp,['Im_LeonardoDiCaprio.png', 'Im_RobertDowneyJr.png', 'Im_RyanReynolds.png', 'Im_MattDamon.png', 'Im_ElijahWood.png', 'Im_DanielCraig.png', 'Im_BenStiller.png', 'Im_KeanuReeves.png', 'Im_BradPitt.png', 'Im_RobertPattinson.png'],same,0,0.40842350000093575,8,80.95238095238095,
PHAN0707,12,inv,fs,posfs_id13_im15.bmp_posfs_id13_im10.bmp,['Im_LeonardoDiCaprio.png', 'Im_RobertDowneyJr.png', 'Im_RyanReynolds.png', 'Im_MattDamon.png', 'Im_ElijahWood.png', 'Im_DanielCraig.png', 'Im_BenStiller.png', 'Im_KeanuReeves.png', 'Im_BradPitt.png', 'Im_RobertPattinson.png'],same,1,0.41678410000167787,9,80.95238095238095,
PHAN0707,12,inv,90,pos90_id4_im7.bmp_pos90_id4_im15.bmp,['Im_LeonardoDiCaprio.png', 'Im_RobertDowneyJr.png', 'Im_RyanReynolds.png', 'Im_MattDamon.png', 'Im_ElijahWood.png', 'Im_DanielCraig.png', 'Im_BenStiller.png', 'Im_KeanuReeves.png', 'Im_BradPitt.png', 'Im_RobertPattinson.png'],diff,0,0.42507690000275034,9,80.95238095238095,
PHAN0707,12,inv,60,pos60_id3_im6.bmp_pos60_id21_im22.bmp,['Im_LeonardoDiCaprio.png', 'Im_RobertDowneyJr.png', 'Im_RyanReynolds.png', 'Im_MattDamon.png', 'Im_ElijahWood.png', 'Im_DanielCraig.png', 'Im_BenStiller.png', 'Im_KeanuReeves.png', 'Im_BradPitt.png', 'Im_RobertPattinson.png'],same,0,0.41671320000023115,9,80.95238095238095,
PHAN0707,13,neg,150,neg150_id13_im29.bmp_neg150_id13_im10.bmp,['Im_LeonardoDiCaprio.png', 'Im_RobertDowneyJr.png', 'Im_RyanReynolds.png', 'Im_MattDamon.png', 'Im_ElijahWood.png', 'Im_DanielCraig.png', 'Im_BenStiller.png', 'Im_KeanuReeves.png', 'Im_BradPitt.png', 'Im_RobertPattinson.png'],diff,0,0.42509710000013,9,80.95238095238095,
PHAN0707,13,neg,60,neg60_id11_im2.bmp_neg60_id11_im10.bmp,['Im_LeonardoDiCaprio.png', 'Im_RobertDowneyJr.png', 'Im_RyanReynolds.png', 'Im_MattDamon.png', 'Im_ElijahWood.png', 'Im_DanielCraig.png', 'Im_BenStiller.png', 'Im_KeanuReeves.png', 'Im_BradPitt.png', 'Im_RobertPattinson.png'],same,1,0.8999786999993376,10,80.95238095238095,
PHAN0707,13,neg,0,neg0_id6_im19.bmp_neg0_id6_im18.bmp,['Im_LeonardoDiCaprio.png', 'Im_RobertDowneyJr.png', 'Im_RyanReynolds.png', 'Im_MattDamon.png', 'Im_ElijahWood.png', 'Im_DanielCraig.png', 'Im_BenStiller.png', 'Im_KeanuReeves.png', 'Im_BradPitt.png', 'Im_RobertPattinson.png'],same,1,0.42499359999783337,11,80.95238095238095,
PHAN0707,13,neg,30,neg30_id3_im17.bmp_neg30_id3_im8.bmp,['Im_LeonardoDiCaprio.png', 'Im_RobertDowneyJr.png', 'Im_RyanReynolds.png', 'Im_MattDamon.png', 'Im_ElijahWood.png', 'Im_DanielCraig.png', 'Im_BenStiller.png', 'Im_KeanuReeves.png', 'Im_BradPitt.png', 'Im_RobertPattinson.png'],same,1,0.4168835000018589,12,80.95238095238095,
PHAN0707,13,neg,90,neg90_id19_im8.bmp_neg90_id13_im10.bmp,['Im_LeonardoDiCaprio.png', 'Im_RobertDowneyJr.png', 'Im_RyanReynolds.png', 'Im_MattDamon.png', 'Im_ElijahWood.png', 'Im_DanielCraig.png', 'Im_BenStiller.png', 'Im_KeanuReeves.png', 'Im_BradPitt.png', 'Im_RobertPattinson.png'],same,0,0.4250818000000436,12,80.95238095238095,
PHAN0707,13,neg,150,neg150_id3_im17.bmp_neg150_id4_im15.bmp,['Im_LeonardoDiCaprio.png', 'Im_RobertDowneyJr.png', 'Im_RyanReynolds.png', 'Im_MattDamon.png', 'Im_ElijahWood.png', 'Im_DanielCraig.png', 'Im_BenStiller.png', 'Im_KeanuReeves.png', 'Im_BradPitt.png', 'Im_RobertPattinson.png'],same,0,0.4251131999990321,12,80.95238095238095,
PHAN0707,13,neg,90,neg90_id14_im18.bmp_neg90_id13_im10.bmp,['Im_LeonardoDiCaprio.png', 'Im_RobertDowneyJr.png', 'Im_RyanReynolds.png', 'Im_MattDamon.png', 'Im_ElijahWood.png', 'Im_DanielCraig.png', 'Im_BenStiller.png', 'Im_KeanuReeves.png', 'Im_BradPitt.png', 'Im_RobertPattinson.png'],diff,1,0.4250446000005468,13,80.95238095238095,
PHAN0707,13,neg,60,neg60_id6_im19.bmp_neg60_id6_im18.bmp,['Im_LeonardoDiCaprio.png', 'Im_RobertDowneyJr.png', 'Im_RyanReynolds.png', 'Im_MattDamon.png', 'Im_ElijahWood.png', 'Im_DanielCraig.png', 'Im_BenStiller.png', 'Im_KeanuReeves.png', 'Im_BradPitt.png', 'Im_RobertPattinson.png'],same,1,0.7917268999990483,14,80.95238095238095,
PHAN0707,13,neg,0,neg0_id18_im18.bmp_neg0_id11_im10.bmp,['Im_LeonardoDiCaprio.png', 'Im_RobertDowneyJr.png', 'Im_RyanReynolds.png', 'Im_MattDamon.png', 'Im_ElijahWood.png', 'Im_DanielCraig.png', 'Im_BenStiller.png', 'Im_KeanuReeves.png', 'Im_BradPitt.png', 'Im_RobertPattinson.png'],same,0,1.0583689000013692,14,80.95238095238095,
PHAN0707,13,neg,30,neg30_id2_im16.bmp_neg30_id2_im2.bmp,['Im_LeonardoDiCaprio.png', 'Im_RobertDowneyJr.png', 'Im_RyanReynolds.png', 'Im_MattDamon.png', 'Im_ElijahWood.png', 'Im_DanielCraig.png', 'Im_BenStiller.png', 'Im_KeanuReeves.png', 'Im_BradPitt.png', 'Im_RobertPattinson.png'],diff,0,0.4250504000010551,14,80.95238095238095,
PHAN0707,13,neg,fs,negfs_id3_im17.bmp_negfs_id3_im6.bmp,['Im_LeonardoDiCaprio.png', 'Im_RobertDowneyJr.png', 'Im_RyanReynolds.png', 'Im_MattDamon.png', 'Im_ElijahWood.png', 'Im_DanielCraig.png', 'Im_BenStiller.png', 'Im_KeanuReeves.png', 'Im_BradPitt.png', 'Im_RobertPattinson.png'],same,1,0.4167392999988806,15,80.95238095238095,
PHAN0707,13,neg,120,neg120_id13_im29.bmp_neg120_id13_im15.bmp,['Im_LeonardoDiCaprio.png', 'Im_RobertDowneyJr.png', 'Im_RyanReynolds.png', 'Im_MattDamon.png', 'Im_ElijahWood.png', 'Im_DanielCraig.png', 'Im_BenStiller.png', 'Im_KeanuReeves.png', 'Im_BradPitt.png', 'Im_RobertPattinson.png'],diff,0,0.4166985999981989,15,80.95238095238095,
PHAN0707,13,neg,120,neg120_id3_im8.bmp_neg120_id3_im6.bmp,['Im_LeonardoDiCaprio.png', 'Im_RobertDowneyJr.png', 'Im_RyanReynolds.png', 'Im_MattDamon.png', 'Im_ElijahWood.png', 'Im_DanielCraig.png', 'Im_BenStiller.png', 'Im_KeanuReeves.png', 'Im_BradPitt.png', 'Im_RobertPattinson.png'],same,1,0.4247837000002619,16,80.95238095238095,
PHAN0707,13,neg,fs,negfs_id21_im16.bmp_negfs_id14_im16.bmp,['Im_LeonardoDiCaprio.png', 'Im_RobertDowneyJr.png', 'Im_RyanReynolds.png', 'Im_MattDamon.png', 'Im_ElijahWood.png', 'Im_DanielCraig.png', 'Im_BenStiller.png', 'Im_KeanuReeves.png', 'Im_BradPitt.png', 'Im_RobertPattinson.png'],diff,1,0.41672639999887906,17,80.95238095238095,
PHAN0707,14,pos,60,pos60_id11_im1.bmp_pos60_id2_im16.bmp,['Im_LeonardoDiCaprio.png', 'Im_RobertDowneyJr.png', 'Im_RyanReynolds.png', 'Im_MattDamon.png', 'Im_ElijahWood.png', 'Im_DanielCraig.png', 'Im_BenStiller.png', 'Im_KeanuReeves.png', 'Im_BradPitt.png', 'Im_RobertPattinson.png'],diff,1,0.42507800000021234,18,80.95238095238095,
PHAN0707,14,pos,fs,posfs_id4_im7.bmp_posfs_id4_im15.bmp,['Im_LeonardoDiCaprio.png', 'Im_RobertDowneyJr.png', 'Im_RyanReynolds.png', 'Im_MattDamon.png', 'Im_ElijahWood.png', 'Im_DanielCraig.png', 'Im_BenStiller.png', 'Im_KeanuReeves.png', 'Im_BradPitt.png', 'Im_RobertPattinson.png'],same,1,0.41669959999853745,19,80.95238095238095,
PHAN0707,14,pos,0,pos0_id4_im15.bmp_pos0_id11_im1.bmp,['Im_LeonardoDiCaprio.png', 'Im_RobertDowneyJr.png', 'Im_RyanReynolds.png', 'Im_MattDamon.png', 'Im_ElijahWood.png', 'Im_DanielCraig.png', 'Im_BenStiller.png', 'Im_KeanuReeves.png', 'Im_BradPitt.png', 'Im_RobertPattinson.png'],diff,1,0.41672489999837126,20,80.95238095238095,
PHAN0707,14,pos,150,pos150_id14_im16.bmp_pos150_id4_im7.bmp,['Im_LeonardoDiCaprio.png', 'Im_RobertDowneyJr.png', 'Im_RyanReynolds.png', 'Im_MattDamon.png', 'Im_ElijahWood.png', 'Im_DanielCraig.png', 'Im_BenStiller.png', 'Im_KeanuReeves.png', 'Im_BradPitt.png', 'Im_RobertPattinson.png'],diff,1,0.4167301999987103,21,80.95238095238095,
PHAN0707,14,pos,90,pos90_id21_im16.bmp_pos90_id6_im18.bmp,['Im_LeonardoDiCaprio.png', 'Im_RobertDowneyJr.png', 'Im_RyanReynolds.png', 'Im_MattDamon.png', 'Im_ElijahWood.png', 'Im_DanielCraig.png', 'Im_BenStiller.png', 'Im_KeanuReeves.png', 'Im_BradPitt.png', 'Im_RobertPattinson.png'],diff,1,0.4250895000004675,22,80.95238095238095,
PHAN0707,14,pos,fs,posfs_id3_im17.bmp_posfs_id19_im27.bmp,['Im_LeonardoDiCaprio.png', 'Im_RobertDowneyJr.png', 'Im_RyanReynolds.png', 'Im_MattDamon.png', 'Im_ElijahWood.png', 'Im_DanielCraig.png', 'Im_BenStiller.png', 'Im_KeanuReeves.png', 'Im_BradPitt.png', 'Im_RobertPattinson.png'],diff,1,0.4167014000013296,23,80.95238095238095,
PHAN0707,14,pos,120,pos120_id13_im10.bmp_pos120_id19_im8.bmp,['Im_LeonardoDiCaprio.png', 'Im_RobertDowneyJr.png', 'Im_RyanReynolds.png', 'Im_MattDamon.png', 'Im_ElijahWood.png', 'Im_DanielCraig.png', 'Im_BenStiller.png', 'Im_KeanuReeves.png', 'Im_BradPitt.png', 'Im_RobertPattinson.png'],diff,1,0.41670669999803067,24,80.95238095238095,
PHAN0707,14,pos,30,pos30_id19_im4.bmp_pos30_id6_im18.bmp,['Im_LeonardoDiCaprio.png', 'Im_RobertDowneyJr.png', 'Im_RyanReynolds.png', 'Im_MattDamon.png', 'Im_ElijahWood.png', 'Im_DanielCraig.png', 'Im_BenStiller.png', 'Im_KeanuReeves.png', 'Im_BradPitt.png', 'Im_RobertPattinson.png'],diff,1,0.4084232000022894,25,80.95238095238095,
PHAN0707,14,pos,0,pos0_id2_im3.bmp_pos0_id6_im19.bmp,['Im_LeonardoDiCaprio.png', 'Im_RobertDowneyJr.png', 'Im_RyanReynolds.png', 'Im_MattDamon.png', 'Im_ElijahWood.png', 'Im_DanielCraig.png', 'Im_BenStiller.png', 'Im_KeanuReeves.png', 'Im_BradPitt.png', 'Im_RobertPattinson.png'],diff,1,0.42506300000241026,26,80.95238095238095,
PHAN0707,14,pos,60,pos60_id14_im18.bmp_pos60_id4_im20.bmp,['Im_LeonardoDiCaprio.png', 'Im_RobertDowneyJr.png', 'Im_RyanReynolds.png', 'Im_MattDamon.png', 'Im_ElijahWood.png', 'Im_DanielCraig.png', 'Im_BenStiller.png', 'Im_KeanuReeves.png', 'Im_BradPitt.png', 'Im_RobertPattinson.png'],diff,1,0.41677619999973103,27,80.95238095238095,
PHAN0707,14,pos,90,pos90_id11_im1.bmp_pos90_id11_im10.bmp,['Im_LeonardoDiCaprio.png', 'Im_RobertDowneyJr.png', 'Im_RyanReynolds.png', 'Im_MattDamon.png', 'Im_ElijahWood.png', 'Im_DanielCraig.png', 'Im_BenStiller.png', 'Im_KeanuReeves.png', 'Im_BradPitt.png', 'Im_RobertPattinson.png'],same,1,1.0251451000003726,28,80.95238095238095,
PHAN0707,14,pos,30,pos30_id3_im17.bmp_pos30_id3_im8.bmp,['Im_LeonardoDiCaprio.png', 'Im_RobertDowneyJr.png', 'Im_RyanReynolds.png', 'Im_MattDamon.png', 'Im_ElijahWood.png', 'Im_DanielCraig.png', 'Im_BenStiller.png', 'Im_KeanuReeves.png', 'Im_BradPitt.png', 'Im_RobertPattinson.png'],diff,0,0.41670329999760725,28,80.95238095238095,
PHAN0707,14,pos,120,pos120_id4_im7.bmp_pos120_id4_im20.bmp,['Im_LeonardoDiCaprio.png', 'Im_RobertDowneyJr.png', 'Im_RyanReynolds.png', 'Im_MattDamon.png', 'Im_ElijahWood.png', 'Im_DanielCraig.png', 'Im_BenStiller.png', 'Im_KeanuReeves.png', 'Im_BradPitt.png', 'Im_RobertPattinson.png'],same,1,0.4167736000017612,29,80.95238095238095,
PHAN0707,14,pos,150,pos150_id11_im1.bmp_pos150_id11_im10.bmp,['Im_LeonardoDiCaprio.png', 'Im_RobertDowneyJr.png', 'Im_RyanReynolds.png', 'Im_MattDamon.png', 'Im_ElijahWood.png', 'Im_DanielCraig.png', 'Im_BenStiller.png', 'Im_KeanuReeves.png', 'Im_BradPitt.png', 'Im_RobertPattinson.png'],same,1,0.5749130000003788,30,80.95238095238095,
PHAN0707,15,inv,30,pos30_id6_im19.bmp_pos30_id19_im4.bmp,['Im_LeonardoDiCaprio.png', 'Im_RobertDowneyJr.png', 'Im_RyanReynolds.png', 'Im_MattDamon.png', 'Im_ElijahWood.png', 'Im_DanielCraig.png', 'Im_BenStiller.png', 'Im_KeanuReeves.png', 'Im_BradPitt.png', 'Im_RobertPattinson.png'],diff,1,0.9748894000003929,1,71.42857142857143,
PHAN0707,15,inv,120,pos120_id4_im20.bmp_pos120_id4_im15.bmp,['Im_LeonardoDiCaprio.png', 'Im_RobertDowneyJr.png', 'Im_RyanReynolds.png', 'Im_MattDamon.png', 'Im_ElijahWood.png', 'Im_DanielCraig.png', 'Im_BenStiller.png', 'Im_KeanuReeves.png', 'Im_BradPitt.png', 'Im_RobertPattinson.png'],diff,0,0.8083804999987478,1,71.42857142857143,
PHAN0707,15,inv,30,pos30_id3_im6.bmp_pos30_id3_im8.bmp,['Im_LeonardoDiCaprio.png', 'Im_RobertDowneyJr.png', 'Im_RyanReynolds.png', 'Im_MattDamon.png', 'Im_ElijahWood.png', 'Im_DanielCraig.png', 'Im_BenStiller.png', 'Im_KeanuReeves.png', 'Im_BradPitt.png', 'Im_RobertPattinson.png'],same,1,0.41675910000049043,2,71.42857142857143,
PHAN0707,15,inv,60,pos60_id3_im17.bmp_pos60_id19_im27.bmp,['Im_LeonardoDiCaprio.png', 'Im_RobertDowneyJr.png', 'Im_RyanReynolds.png', 'Im_MattDamon.png', 'Im_ElijahWood.png', 'Im_DanielCraig.png', 'Im_BenStiller.png', 'Im_KeanuReeves.png', 'Im_BradPitt.png', 'Im_RobertPattinson.png'],diff,1,0.4082561000032001,3,71.42857142857143,
PHAN0707,15,inv,0,pos0_id2_im16.bmp_pos0_id13_im29.bmp,['Im_LeonardoDiCaprio.png', 'Im_RobertDowneyJr.png', 'Im_RyanReynolds.png', 'Im_MattDamon.png', 'Im_ElijahWood.png', 'Im_DanielCraig.png', 'Im_BenStiller.png', 'Im_KeanuReeves.png', 'Im_BradPitt.png', 'Im_RobertPattinson.png'],diff,1,0.4335781000008865,4,71.42857142857143,
PHAN0707,15,inv,150,pos150_id3_im8.bmp_pos150_id18_im18.bmp,['Im_LeonardoDiCaprio.png', 'Im_RobertDowneyJr.png', 'Im_RyanReynolds.png', 'Im_MattDamon.png', 'Im_ElijahWood.png', 'Im_DanielCraig.png', 'Im_BenStiller.png', 'Im_KeanuReeves.png', 'Im_BradPitt.png', 'Im_RobertPattinson.png'],diff,1,0.4165975000032631,5,71.42857142857143,
PHAN0707,15,inv,fs,posfs_id13_im29.bmp_posfs_id11_im2.bmp,['Im_LeonardoDiCaprio.png', 'Im_RobertDowneyJr.png', 'Im_RyanReynolds.png', 'Im_MattDamon.png', 'Im_ElijahWood.png', 'Im_DanielCraig.png', 'Im_BenStiller.png', 'Im_KeanuReeves.png', 'Im_BradPitt.png', 'Im_RobertPattinson.png'],same,0,0.40841700000237324,5,71.42857142857143,
PHAN0707,15,inv,0,pos0_id3_im17.bmp_pos0_id3_im8.bmp,['Im_LeonardoDiCaprio.png', 'Im_RobertDowneyJr.png', 'Im_RyanReynolds.png', 'Im_MattDamon.png', 'Im_ElijahWood.png', 'Im_DanielCraig.png', 'Im_BenStiller.png', 'Im_KeanuReeves.png', 'Im_BradPitt.png', 'Im_RobertPattinson.png'],diff,0,1.0334466000022076,5,71.42857142857143,
PHAN0707,15,inv,150,pos150_id11_im10.bmp_pos150_id18_im18.bmp,['Im_LeonardoDiCaprio.png', 'Im_RobertDowneyJr.png', 'Im_RyanReynolds.png', 'Im_MattDamon.png', 'Im_ElijahWood.png', 'Im_DanielCraig.png', 'Im_BenStiller.png', 'Im_KeanuReeves.png', 'Im_BradPitt.png', 'Im_RobertPattinson.png'],same,0,0.8426120000003721,5,71.42857142857143,
PHAN0707,15,inv,90,pos90_id11_im1.bmp_pos90_id11_im2.bmp,['Im_LeonardoDiCaprio.png', 'Im_RobertDowneyJr.png', 'Im_RyanReynolds.png', 'Im_MattDamon.png', 'Im_ElijahWood.png', 'Im_DanielCraig.png', 'Im_BenStiller.png', 'Im_KeanuReeves.png', 'Im_BradPitt.png', 'Im_RobertPattinson.png'],diff,0,0.416709200002515,5,71.42857142857143,
PHAN0707,15,inv,60,pos60_id4_im20.bmp_pos60_id4_im15.bmp,['Im_LeonardoDiCaprio.png', 'Im_RobertDowneyJr.png', 'Im_RyanReynolds.png', 'Im_MattDamon.png', 'Im_ElijahWood.png', 'Im_DanielCraig.png', 'Im_BenStiller.png', 'Im_KeanuReeves.png', 'Im_BradPitt.png', 'Im_RobertPattinson.png'],diff,0,0.41675739999845973,5,71.42857142857143,
PHAN0707,15,inv,90,pos90_id18_im19.bmp_pos90_id2_im2.bmp,['Im_LeonardoDiCaprio.png', 'Im_RobertDowneyJr.png', 'Im_RyanReynolds.png', 'Im_MattDamon.png', 'Im_ElijahWood.png', 'Im_DanielCraig.png', 'Im_BenStiller.png', 'Im_KeanuReeves.png', 'Im_BradPitt.png', 'Im_RobertPattinson.png'],same,0,0.41675060000125086,5,71.42857142857143,
PHAN0707,15,inv,fs,posfs_id21_im22.bmp_posfs_id21_im17.bmp,['Im_LeonardoDiCaprio.png', 'Im_RobertDowneyJr.png', 'Im_RyanReynolds.png', 'Im_MattDamon.png', 'Im_ElijahWood.png', 'Im_DanielCraig.png', 'Im_BenStiller.png', 'Im_KeanuReeves.png', 'Im_BradPitt.png', 'Im_RobertPattinson.png'],same,1,0.49159529999815277,6,71.42857142857143,
PHAN0707,15,inv,120,pos120_id3_im17.bmp_pos120_id3_im6.bmp,['Im_LeonardoDiCaprio.png', 'Im_RobertDowneyJr.png', 'Im_RyanReynolds.png', 'Im_MattDamon.png', 'Im_ElijahWood.png', 'Im_DanielCraig.png', 'Im_BenStiller.png', 'Im_KeanuReeves.png', 'Im_BradPitt.png', 'Im_RobertPattinson.png'],diff,0,0.4753204000007827,6,71.42857142857143,
PHAN0707,16,neg,90,neg90_id13_im29.bmp_neg90_id13_im10.bmp,['Im_LeonardoDiCaprio.png', 'Im_RobertDowneyJr.png', 'Im_RyanReynolds.png', 'Im_MattDamon.png', 'Im_ElijahWood.png', 'Im_DanielCraig.png', 'Im_BenStiller.png', 'Im_KeanuReeves.png', 'Im_BradPitt.png', 'Im_RobertPattinson.png'],same,1,0.40839349999805563,7,71.42857142857143,
PHAN0707,16,neg,30,neg30_id11_im1.bmp_neg30_id4_im15.bmp,['Im_LeonardoDiCaprio.png', 'Im_RobertDowneyJr.png', 'Im_RyanReynolds.png', 'Im_MattDamon.png', 'Im_ElijahWood.png', 'Im_DanielCraig.png', 'Im_BenStiller.png', 'Im_KeanuReeves.png', 'Im_BradPitt.png', 'Im_RobertPattinson.png'],diff,1,0.4250826999996207,8,71.42857142857143,
PHAN0707,16,neg,30,neg30_id4_im20.bmp_neg30_id4_im7.bmp,['Im_LeonardoDiCaprio.png', 'Im_RobertDowneyJr.png', 'Im_RyanReynolds.png', 'Im_MattDamon.png', 'Im_ElijahWood.png', 'Im_DanielCraig.png', 'Im_BenStiller.png', 'Im_KeanuReeves.png', 'Im_BradPitt.png', 'Im_RobertPattinson.png'],same,1,0.41723540000020876,9,71.42857142857143,
PHAN0707,16,neg,150,neg150_id11_im10.bmp_neg150_id11_im1.bmp,['Im_LeonardoDiCaprio.png', 'Im_RobertDowneyJr.png', 'Im_RyanReynolds.png', 'Im_MattDamon.png', 'Im_ElijahWood.png', 'Im_DanielCraig.png', 'Im_BenStiller.png', 'Im_KeanuReeves.png', 'Im_BradPitt.png', 'Im_RobertPattinson.png'],diff,0,0.4249935000007099,9,71.42857142857143,
PHAN0707,16,neg,60,neg60_id21_im16.bmp_neg60_id6_im18.bmp,['Im_LeonardoDiCaprio.png', 'Im_RobertDowneyJr.png', 'Im_RyanReynolds.png', 'Im_MattDamon.png', 'Im_ElijahWood.png', 'Im_DanielCraig.png', 'Im_BenStiller.png', 'Im_KeanuReeves.png', 'Im_BradPitt.png', 'Im_RobertPattinson.png'],diff,1,0.4168719000008423,10,71.42857142857143,
PHAN0707,16,neg,150,neg150_id11_im10.bmp_neg150_id18_im18.bmp,['Im_LeonardoDiCaprio.png', 'Im_RobertDowneyJr.png', 'Im_RyanReynolds.png', 'Im_MattDamon.png', 'Im_ElijahWood.png', 'Im_DanielCraig.png', 'Im_BenStiller.png', 'Im_KeanuReeves.png', 'Im_BradPitt.png', 'Im_RobertPattinson.png'],diff,1,0.45017530000041006,11,71.42857142857143,
PHAN0707,16,neg,0,neg0_id11_im2.bmp_neg0_id11_im1.bmp,['Im_LeonardoDiCaprio.png', 'Im_RobertDowneyJr.png', 'Im_RyanReynolds.png', 'Im_MattDamon.png', 'Im_ElijahWood.png', 'Im_DanielCraig.png', 'Im_BenStiller.png', 'Im_KeanuReeves.png', 'Im_BradPitt.png', 'Im_RobertPattinson.png'],diff,0,0.41674150000108057,11,71.42857142857143,
PHAN0707,16,neg,0,neg0_id14_im18.bmp_neg0_id14_im24.bmp,['Im_LeonardoDiCaprio.png', 'Im_RobertDowneyJr.png', 'Im_RyanReynolds.png', 'Im_MattDamon.png', 'Im_ElijahWood.png', 'Im_DanielCraig.png', 'Im_BenStiller.png', 'Im_KeanuReeves.png', 'Im_BradPitt.png', 'Im_RobertPattinson.png'],same,1,0.41669330000149785,12,71.42857142857143,
PHAN0707,16,neg,120,neg120_id19_im8.bmp_neg120_id19_im4.bmp,['Im_LeonardoDiCaprio.png', 'Im_RobertDowneyJr.png', 'Im_RyanReynolds.png', 'Im_MattDamon.png', 'Im_ElijahWood.png', 'Im_DanielCraig.png', 'Im_BenStiller.png', 'Im_KeanuReeves.png', 'Im_BradPitt.png', 'Im_RobertPattinson.png'],diff,0,0.4167191000015009,12,71.42857142857143,
PHAN0707,16,neg,fs,negfs_id19_im4.bmp_negfs_id19_im27.bmp,['Im_LeonardoDiCaprio.png', 'Im_RobertDowneyJr.png', 'Im_RyanReynolds.png', 'Im_MattDamon.png', 'Im_ElijahWood.png', 'Im_DanielCraig.png', 'Im_BenStiller.png', 'Im_KeanuReeves.png', 'Im_BradPitt.png', 'Im_RobertPattinson.png'],same,1,0.47520730000178446,13,71.42857142857143,
PHAN0707,16,neg,120,neg120_id11_im10.bmp_neg120_id2_im2.bmp,['Im_LeonardoDiCaprio.png', 'Im_RobertDowneyJr.png', 'Im_RyanReynolds.png', 'Im_MattDamon.png', 'Im_ElijahWood.png', 'Im_DanielCraig.png', 'Im_BenStiller.png', 'Im_KeanuReeves.png', 'Im_BradPitt.png', 'Im_RobertPattinson.png'],diff,1,1.2336757000011858,14,71.42857142857143,
PHAN0707,16,neg,60,neg60_id19_im4.bmp_neg60_id6_im19.bmp,['Im_LeonardoDiCaprio.png', 'Im_RobertDowneyJr.png', 'Im_RyanReynolds.png', 'Im_MattDamon.png', 'Im_ElijahWood.png', 'Im_DanielCraig.png', 'Im_BenStiller.png', 'Im_KeanuReeves.png', 'Im_BradPitt.png', 'Im_RobertPattinson.png'],diff,1,0.48338529999819,15,71.42857142857143,
PHAN0707,16,neg,fs,negfs_id3_im17.bmp_negfs_id3_im8.bmp,['Im_LeonardoDiCaprio.png', 'Im_RobertDowneyJr.png', 'Im_RyanReynolds.png', 'Im_MattDamon.png', 'Im_ElijahWood.png', 'Im_DanielCraig.png', 'Im_BenStiller.png', 'Im_KeanuReeves.png', 'Im_BradPitt.png', 'Im_RobertPattinson.png'],same,1,0.4250359999969078,16,71.42857142857143,
PHAN0707,16,neg,90,neg90_id14_im16.bmp_neg90_id14_im18.bmp,['Im_LeonardoDiCaprio.png', 'Im_RobertDowneyJr.png', 'Im_RyanReynolds.png', 'Im_MattDamon.png', 'Im_ElijahWood.png', 'Im_DanielCraig.png', 'Im_BenStiller.png', 'Im_KeanuReeves.png', 'Im_BradPitt.png', 'Im_RobertPattinson.png'],same,1,0.42503969999961555,17,71.42857142857143,
PHAN0707,17,pos,0,pos0_id18_im11.bmp_pos0_id13_im15.bmp,['Im_LeonardoDiCaprio.png', 'Im_RobertDowneyJr.png', 'Im_RyanReynolds.png', 'Im_MattDamon.png', 'Im_ElijahWood.png', 'Im_DanielCraig.png', 'Im_BenStiller.png', 'Im_KeanuReeves.png', 'Im_BradPitt.png', 'Im_RobertPattinson.png'],diff,1,0.4168180000015127,18,71.42857142857143,
PHAN0707,17,pos,90,pos90_id2_im3.bmp_pos90_id18_im11.bmp,['Im_LeonardoDiCaprio.png', 'Im_RobertDowneyJr.png', 'Im_RyanReynolds.png', 'Im_MattDamon.png', 'Im_ElijahWood.png', 'Im_DanielCraig.png', 'Im_BenStiller.png', 'Im_KeanuReeves.png', 'Im_BradPitt.png', 'Im_RobertPattinson.png'],diff,1,0.4165522000002966,19,71.42857142857143,
PHAN0707,17,pos,60,pos60_id19_im27.bmp_pos60_id19_im8.bmp,['Im_LeonardoDiCaprio.png', 'Im_RobertDowneyJr.png', 'Im_RyanReynolds.png', 'Im_MattDamon.png', 'Im_ElijahWood.png', 'Im_DanielCraig.png', 'Im_BenStiller.png', 'Im_KeanuReeves.png', 'Im_BradPitt.png', 'Im_RobertPattinson.png'],same,1,0.41668899999785936,20,71.42857142857143,
PHAN0707,17,pos,0,pos0_id2_im16.bmp_pos0_id2_im2.bmp,['Im_LeonardoDiCaprio.png', 'Im_RobertDowneyJr.png', 'Im_RyanReynolds.png', 'Im_MattDamon.png', 'Im_ElijahWood.png', 'Im_DanielCraig.png', 'Im_BenStiller.png', 'Im_KeanuReeves.png', 'Im_BradPitt.png', 'Im_RobertPattinson.png'],same,1,0.4334638000000268,21,71.42857142857143,
PHAN0707,17,pos,150,pos150_id4_im15.bmp_pos150_id4_im7.bmp,['Im_LeonardoDiCaprio.png', 'Im_RobertDowneyJr.png', 'Im_RyanReynolds.png', 'Im_MattDamon.png', 'Im_ElijahWood.png', 'Im_DanielCraig.png', 'Im_BenStiller.png', 'Im_KeanuReeves.png', 'Im_BradPitt.png', 'Im_RobertPattinson.png'],same,1,0.43341489999875193,22,71.42857142857143,
PHAN0707,17,pos,fs,posfs_id18_im18.bmp_posfs_id3_im8.bmp,['Im_LeonardoDiCaprio.png', 'Im_RobertDowneyJr.png', 'Im_RyanReynolds.png', 'Im_MattDamon.png', 'Im_ElijahWood.png', 'Im_DanielCraig.png', 'Im_BenStiller.png', 'Im_KeanuReeves.png', 'Im_BradPitt.png', 'Im_RobertPattinson.png'],diff,1,0.8169560999995156,23,71.42857142857143,
PHAN0707,17,pos,fs,posfs_id19_im4.bmp_posfs_id6_im18.bmp,['Im_LeonardoDiCaprio.png', 'Im_RobertDowneyJr.png', 'Im_RyanReynolds.png', 'Im_MattDamon.png', 'Im_ElijahWood.png', 'Im_DanielCraig.png', 'Im_BenStiller.png', 'Im_KeanuReeves.png', 'Im_BradPitt.png', 'Im_RobertPattinson.png'],diff,1,0.42505639999944833,24,71.42857142857143,
PHAN0707,17,pos,120,pos120_id18_im11.bmp_pos120_id13_im15.bmp,['Im_LeonardoDiCaprio.png', 'Im_RobertDowneyJr.png', 'Im_RyanReynolds.png', 'Im_MattDamon.png', 'Im_ElijahWood.png', 'Im_DanielCraig.png', 'Im_BenStiller.png', 'Im_KeanuReeves.png', 'Im_BradPitt.png', 'Im_RobertPattinson.png'],diff,1,0.42521059999853605,25,71.42857142857143,
PHAN0707,17,pos,30,pos30_id18_im11.bmp_pos30_id13_im15.bmp,['Im_LeonardoDiCaprio.png', 'Im_RobertDowneyJr.png', 'Im_RyanReynolds.png', 'Im_MattDamon.png', 'Im_ElijahWood.png', 'Im_DanielCraig.png', 'Im_BenStiller.png', 'Im_KeanuReeves.png', 'Im_BradPitt.png', 'Im_RobertPattinson.png'],same,0,0.9669682999992801,25,71.42857142857143,
