Sujet,Trial,Condition,Filter,Imname,Actor0,Actor1,Actor2,Actor3,Actor4,Actor5,Actor6,Actor7,Actor8,Actor9,Answer,Accu,RT,Score,Scoreperc, 
PHAN0707,_,posfs_RobertDowneyJr_im19.bmp,RobertDowneyJr,DanielRadcliffe,DanielRadcliffe,DanielCraig,PatrickDempsey,BenStiller,,,,,posfs_RobertDowneyJr_im19.bmp,6.758962399999973,
PHAN0707,_,posfs_GeorgeClooney_im14.bmp,GeorgeClooney,KeanuReeves,KeanuReeves,LeonardoDiCaprio,PatrickDempsey,RobertPattinson,,,,,posfs_GeorgeClooney_im14.bmp,2.468135200000006,
PHAN0707,_,posfs_HughJackman_im21.bmp,HughJackman,OrlandoBloom,OrlandoBloom,GeorgeClooney,RyanGosling,BradPitt,,,,,posfs_HughJackman_im21.bmp,2.4769266999999218,
PHAN0707,_,posfs_LeonardoDiCaprio_im24.bmp,LeonardoDiCaprio,DanielCraig,DanielCraig,BradPitt,PatrickDempsey,RyanGosling,,,,,posfs_LeonardoDiCaprio_im24.bmp,3.135456799999929,
PHAN0707,_,posfs_RyanReynolds_im17.bmp,RyanReynolds,PatrickDempsey,PatrickDempsey,ElijahWood,BenStiller,BradPitt,,,,,posfs_RyanReynolds_im17.bmp,2.038581600000043,
PHAN0707,_,posfs_HughJackman_im13.bmp,HughJackman,BradPitt,BradPitt,PatrickDempsey,MattDamon,RobertPattinson,,,,,posfs_HughJackman_im13.bmp,1.8427334999998948,
PHAN0707,_,posfs_RobertDowneyJr_im11.bmp,RobertDowneyJr,HughJackman,HughJackman,RyanGosling,JustinTimberlake,BenStiller,,,,,posfs_RobertDowneyJr_im11.bmp,1.1172260999999253,
PHAN0707,_,posfs_LeonardoDiCaprio_im29.bmp,LeonardoDiCaprio,RobertDowneyJr,RobertDowneyJr,PatrickDempsey,OrlandoBloom,DanielCraig,,,,,posfs_LeonardoDiCaprio_im29.bmp,1.7345746000000872,
PHAN0707,_,posfs_PatrickDempsey_im8.bmp,PatrickDempsey,BenStiller,BenStiller,MattDamon,BradPitt,RyanGosling,,,,,posfs_PatrickDempsey_im8.bmp,13.734821499999953,
PHAN0707,_,posfs_MattDamon_im18.bmp,MattDamon,DanielCraig,DanielCraig,PatrickDempsey,DanielRadcliffe,ElijahWood,,,,,posfs_MattDamon_im18.bmp,3.567173700000012,
PHAN0707,_,posfs_GeorgeClooney_im26.bmp,GeorgeClooney,LeonardoDiCaprio,LeonardoDiCaprio,RobertPattinson,BenAffleck,ElijahWood,,,,,posfs_GeorgeClooney_im26.bmp,1.0695466000001943,
PHAN0707,_,posfs_DanielCraig_im7.bmp,DanielCraig,BenAffleck,BenAffleck,KeanuReeves,PatrickDempsey,DanielRadcliffe,,,,,posfs_DanielCraig_im7.bmp,2.1278356999998778,
PHAN0707,_,posfs_ElijahWood_im12.bmp,ElijahWood,DanielRadcliffe,DanielRadcliffe,RobertDowneyJr,GeorgeClooney,BenStiller,,,,,posfs_ElijahWood_im12.bmp,3.024500400000079,
PHAN0707,_,posfs_BenStiller_im3.bmp,BenStiller,ElijahWood,ElijahWood,JustinTimberlake,BradPitt,RobertDowneyJr,,,,,posfs_BenStiller_im3.bmp,1.9718648000000485,
PHAN0707,_,posfs_OrlandoBloom_im30.bmp,OrlandoBloom,JustinTimberlake,JustinTimberlake,BradPitt,KeanuReeves,RyanGosling,,,,,posfs_OrlandoBloom_im30.bmp,1.466327099999944,
PHAN0707,_,posfs_DanielCraig_im15.bmp,DanielCraig,BenAffleck,BenAffleck,MattDamon,BenStiller,HughJackman,,,,,posfs_DanielCraig_im15.bmp,1.5495012999999744,
PHAN0707,_,posfs_DanielRadcliffe_im20.bmp,DanielRadcliffe,GeorgeClooney,GeorgeClooney,ElijahWood,RobertPattinson,KeanuReeves,,,,,posfs_DanielRadcliffe_im20.bmp,2.4529953999999634,
PHAN0707,_,posfs_BenStiller_im16.bmp,BenStiller,KeanuReeves,KeanuReeves,MattDamon,JustinTimberlake,BenAffleck,,,,,posfs_BenStiller_im16.bmp,1.1204399999999168,
PHAN0707,_,posfs_RyanGosling_im12.bmp,RyanGosling,PatrickDempsey,PatrickDempsey,RyanReynolds,BradPitt,DanielCraig,,,,,posfs_RyanGosling_im12.bmp,3.9774626999999327,
PHAN0707,_,posfs_HughJackman_im18.bmp,HughJackman,LeonardoDiCaprio,LeonardoDiCaprio,BradPitt,RyanGosling,DanielRadcliffe,,,,,posfs_HughJackman_im18.bmp,2.6235234999999193,
PHAN0707,_,posfs_RyanGosling_im25.bmp,RyanGosling,DanielCraig,DanielCraig,KeanuReeves,BradPitt,MattDamon,,,,,posfs_RyanGosling_im25.bmp,2.7411263000001327,
PHAN0707,_,posfs_RyanGosling_im3.bmp,RyanGosling,RobertPattinson,RobertPattinson,PatrickDempsey,DanielCraig,JustinTimberlake,,,,,posfs_RyanGosling_im3.bmp,3.780280599999969,
PHAN0707,_,posfs_HughJackman_im20.bmp,HughJackman,JustinTimberlake,JustinTimberlake,RyanReynolds,DanielCraig,OrlandoBloom,,,,,posfs_HughJackman_im20.bmp,1.241859599999998,
PHAN0707,_,posfs_RobertPattinson_im30.bmp,RobertPattinson,DanielRadcliffe,DanielRadcliffe,DanielCraig,BenAffleck,JustinTimberlake,,,,,posfs_RobertPattinson_im30.bmp,1.2926304999998592,
PHAN0707,_,posfs_MattDamon_im9.bmp,MattDamon,BradPitt,BradPitt,HughJackman,DanielCraig,LeonardoDiCaprio,,,,,posfs_MattDamon_im9.bmp,1.6145651000001635,
PHAN0707,_,posfs_LeonardoDiCaprio_im10.bmp,LeonardoDiCaprio,BenStiller,BenStiller,RyanGosling,PatrickDempsey,RobertPattinson,,,,,posfs_LeonardoDiCaprio_im10.bmp,1.251523700000007,
PHAN0707,_,posfs_BradPitt_im6.bmp,BradPitt,RyanGosling,RyanGosling,RobertDowneyJr,OrlandoBloom,HughJackman,,,,,posfs_BradPitt_im6.bmp,1.2301003999998557,
PHAN0707,_,posfs_BenAffleck_im21.bmp,BenAffleck,RyanGosling,RyanGosling,GeorgeClooney,ElijahWood,BradPitt,,,,,posfs_BenAffleck_im21.bmp,1.522626000000173,
PHAN0707,_,posfs_LeonardoDiCaprio_im15.bmp,LeonardoDiCaprio,RobertPattinson,RobertPattinson,DanielCraig,BradPitt,DanielRadcliffe,,,,,posfs_LeonardoDiCaprio_im15.bmp,0.8919226000000435,
PHAN0707,_,posfs_KeanuReeves_im10.bmp,KeanuReeves,MattDamon,MattDamon,OrlandoBloom,PatrickDempsey,LeonardoDiCaprio,,,,,posfs_KeanuReeves_im10.bmp,0.9175791000000117,
PHAN0707,_,posfs_MattDamon_im16.bmp,MattDamon,LeonardoDiCaprio,LeonardoDiCaprio,RyanGosling,KeanuReeves,BenStiller,,,,,posfs_MattDamon_im16.bmp,0.9582262999999784,
PHAN0707,_,posfs_RyanGosling_im30.bmp,RyanGosling,RyanReynolds,RyanReynolds,DanielCraig,PatrickDempsey,RobertPattinson,,,,,0,1.894174699999894,
PHAN0707,_,posfs_DanielRadcliffe_im1.bmp,DanielRadcliffe,BradPitt,BradPitt,LeonardoDiCaprio,BenStiller,RobertPattinson,,,,,posfs_DanielRadcliffe_im1.bmp,3.720863300000019,
PHAN0707,_,posfs_RyanReynolds_im3.bmp,RyanReynolds,BenAffleck,BenAffleck,DanielCraig,MattDamon,OrlandoBloom,,,,,posfs_RyanReynolds_im3.bmp,1.784213699999782,
PHAN0707,_,posfs_RyanReynolds_im16.bmp,RyanReynolds,OrlandoBloom,OrlandoBloom,RobertPattinson,RyanGosling,LeonardoDiCaprio,,,,,posfs_RyanReynolds_im16.bmp,0.6219992999999704,
PHAN0707,_,posfs_KeanuReeves_im8.bmp,KeanuReeves,BenAffleck,BenAffleck,LeonardoDiCaprio,RyanGosling,GeorgeClooney,,,,,posfs_KeanuReeves_im8.bmp,1.6826396000001296,
PHAN0707,_,posfs_KeanuReeves_im1.bmp,KeanuReeves,LeonardoDiCaprio,LeonardoDiCaprio,BradPitt,JustinTimberlake,RobertPattinson,,,,,posfs_KeanuReeves_im1.bmp,0.7089505999999801,
PHAN0707,_,posfs_JustinTimberlake_im18.bmp,JustinTimberlake,ElijahWood,ElijahWood,RyanGosling,DanielRadcliffe,LeonardoDiCaprio,,,,,posfs_JustinTimberlake_im18.bmp,1.8377588000000742,
PHAN0707,_,posfs_RobertDowneyJr_im4.bmp,RobertDowneyJr,RyanGosling,RyanGosling,BradPitt,HughJackman,ElijahWood,,,,,posfs_RobertDowneyJr_im4.bmp,1.3054736999999932,
PHAN0707,_,posfs_BradPitt_im17.bmp,BradPitt,PatrickDempsey,PatrickDempsey,LeonardoDiCaprio,JustinTimberlake,HughJackman,,,,,posfs_BradPitt_im17.bmp,1.482122899999922,
PHAN0707,_,posfs_OrlandoBloom_im19.bmp,OrlandoBloom,ElijahWood,ElijahWood,DanielCraig,PatrickDempsey,LeonardoDiCaprio,,,,,posfs_OrlandoBloom_im19.bmp,1.3800862000000507,
PHAN0707,_,posfs_BradPitt_im8.bmp,BradPitt,BenStiller,BenStiller,BenAffleck,OrlandoBloom,RobertPattinson,,,,,posfs_BradPitt_im8.bmp,1.0587232000000313,
PHAN0707,_,posfs_GeorgeClooney_im23.bmp,GeorgeClooney,BenAffleck,BenAffleck,MattDamon,OrlandoBloom,KeanuReeves,,,,,posfs_GeorgeClooney_im23.bmp,2.3818902000000435,
PHAN0707,_,posfs_BenAffleck_im4.bmp,BenAffleck,BenStiller,BenStiller,KeanuReeves,ElijahWood,PatrickDempsey,,,,,posfs_BenAffleck_im4.bmp,1.6514532999999574,
PHAN0707,_,posfs_DanielCraig_im8.bmp,DanielCraig,RobertPattinson,RobertPattinson,BenAffleck,BenStiller,LeonardoDiCaprio,,,,,posfs_DanielCraig_im8.bmp,1.254634600000145,
PHAN0707,_,posfs_MattDamon_im24.bmp,MattDamon,RobertDowneyJr,RobertDowneyJr,BradPitt,HughJackman,RobertPattinson,,,,,posfs_MattDamon_im24.bmp,1.6505538999999771,
PHAN0707,_,posfs_BenAffleck_im24.bmp,BenAffleck,OrlandoBloom,OrlandoBloom,DanielRadcliffe,MattDamon,GeorgeClooney,,,,,posfs_BenAffleck_im24.bmp,1.6533018999998603,
PHAN0707,_,posfs_BenStiller_im2.bmp,BenStiller,RobertDowneyJr,RobertDowneyJr,GeorgeClooney,DanielCraig,RyanReynolds,,,,,posfs_BenStiller_im2.bmp,1.8165314000000308,
PHAN0707,_,posfs_DanielRadcliffe_im10.bmp,DanielRadcliffe,LeonardoDiCaprio,LeonardoDiCaprio,KeanuReeves,ElijahWood,MattDamon,,,,,posfs_DanielRadcliffe_im10.bmp,1.9014197999999851,
PHAN0707,_,posfs_RobertPattinson_im27.bmp,RobertPattinson,RyanReynolds,RyanReynolds,OrlandoBloom,MattDamon,KeanuReeves,,,,,posfs_RobertPattinson_im27.bmp,2.006149999999934,
PHAN0707,_,posfs_BenStiller_im7.bmp,BenStiller,LeonardoDiCaprio,LeonardoDiCaprio,RyanGosling,DanielCraig,PatrickDempsey,,,,,posfs_BenStiller_im7.bmp,1.3237834000001385,
PHAN0707,_,posfs_PatrickDempsey_im9.bmp,PatrickDempsey,HughJackman,HughJackman,RobertDowneyJr,KeanuReeves,BenAffleck,,,,,posfs_PatrickDempsey_im9.bmp,2.203625699999975,
PHAN0707,_,posfs_BenAffleck_im8.bmp,BenAffleck,OrlandoBloom,OrlandoBloom,RobertPattinson,RyanReynolds,MattDamon,,,,,posfs_BenAffleck_im8.bmp,1.7287086999999701,
PHAN0707,_,posfs_RyanReynolds_im22.bmp,RyanReynolds,JustinTimberlake,JustinTimberlake,BradPitt,KeanuReeves,LeonardoDiCaprio,,,,,posfs_RyanReynolds_im22.bmp,1.7053407999999308,
PHAN0707,_,posfs_JustinTimberlake_im1.bmp,JustinTimberlake,BenAffleck,BenAffleck,ElijahWood,PatrickDempsey,HughJackman,,,,,posfs_JustinTimberlake_im1.bmp,1.3865736999998717,
PHAN0707,_,posfs_KeanuReeves_im2.bmp,KeanuReeves,HughJackman,HughJackman,GeorgeClooney,RobertPattinson,BenStiller,,,,,posfs_KeanuReeves_im2.bmp,1.1845639000000574,
PHAN0707,_,posfs_ElijahWood_im19.bmp,ElijahWood,PatrickDempsey,PatrickDempsey,RyanReynolds,BenAffleck,OrlandoBloom,,,,,posfs_ElijahWood_im19.bmp,2.598437800000056,
PHAN0707,_,posfs_BradPitt_im14.bmp,BradPitt,MattDamon,MattDamon,DanielCraig,OrlandoBloom,LeonardoDiCaprio,,,,,posfs_BradPitt_im14.bmp,1.2999909000000116,
PHAN0707,_,posfs_RobertPattinson_im8.bmp,RobertPattinson,DanielRadcliffe,DanielRadcliffe,OrlandoBloom,MattDamon,RyanGosling,,,,,posfs_RobertPattinson_im8.bmp,1.1010363999998845,
PHAN0707,_,posfs_JustinTimberlake_im4.bmp,JustinTimberlake,BenStiller,BenStiller,RobertDowneyJr,OrlandoBloom,PatrickDempsey,,,,,posfs_JustinTimberlake_im4.bmp,1.4942566000001989,
PHAN0707,_,posfs_DanielCraig_im20.bmp,DanielCraig,BenStiller,BenStiller,BradPitt,LeonardoDiCaprio,OrlandoBloom,,,,,posfs_DanielCraig_im20.bmp,0.9674179999999524,
PHAN0707,_,posfs_PatrickDempsey_im16.bmp,PatrickDempsey,BradPitt,BradPitt,DanielCraig,DanielRadcliffe,LeonardoDiCaprio,,,,,1,7.182430600000089,
PHAN0707,_,posfs_PatrickDempsey_im14.bmp,PatrickDempsey,KeanuReeves,KeanuReeves,RobertDowneyJr,HughJackman,RyanReynolds,,,,,posfs_PatrickDempsey_im14.bmp,1.6047793000000183,
PHAN0707,_,posfs_RobertPattinson_im4.bmp,RobertPattinson,DanielRadcliffe,DanielRadcliffe,RyanGosling,MattDamon,ElijahWood,,,,,posfs_RobertPattinson_im4.bmp,1.8097964000000957,
PHAN0707,_,posfs_DanielRadcliffe_im8.bmp,DanielRadcliffe,MattDamon,MattDamon,PatrickDempsey,RyanReynolds,RobertDowneyJr,,,,,posfs_DanielRadcliffe_im8.bmp,3.646784499999967,
PHAN0707,_,posfs_ElijahWood_im18.bmp,ElijahWood,PatrickDempsey,PatrickDempsey,JustinTimberlake,RobertPattinson,RobertDowneyJr,,,,,posfs_ElijahWood_im18.bmp,1.386397999999872,
PHAN0707,_,posfs_RobertDowneyJr_im18.bmp,RobertDowneyJr,MattDamon,MattDamon,BradPitt,GeorgeClooney,JustinTimberlake,,,,,posfs_RobertDowneyJr_im18.bmp,0.9685850000000755,
PHAN0707,_,posfs_OrlandoBloom_im3.bmp,OrlandoBloom,RobertPattinson,RobertPattinson,RyanReynolds,RyanGosling,RobertDowneyJr,,,,,posfs_OrlandoBloom_im3.bmp,1.983215599999994,
PHAN0707,_,posfs_GeorgeClooney_im15.bmp,GeorgeClooney,JustinTimberlake,JustinTimberlake,DanielRadcliffe,DanielCraig,BenAffleck,,,,,posfs_GeorgeClooney_im15.bmp,2.645162700000128,
PHAN0707,_,posfs_ElijahWood_im23.bmp,ElijahWood,BenAffleck,BenAffleck,RyanGosling,BenStiller,RobertDowneyJr,,,,,posfs_ElijahWood_im23.bmp,1.8165222999998605,
PHAN0707,_,posfs_JustinTimberlake_im17.bmp,JustinTimberlake,MattDamon,MattDamon,LeonardoDiCaprio,ElijahWood,GeorgeClooney,,,,,posfs_JustinTimberlake_im17.bmp,1.2047425000000658,
PHAN0707,_,posfs_OrlandoBloom_im2.bmp,OrlandoBloom,BenAffleck,BenAffleck,RyanGosling,MattDamon,RobertDowneyJr,,,,,posfs_OrlandoBloom_im2.bmp,0.7459418000000824,
PHAN0707,train,pos,fs,posfs_id18_im11.bmp_posfs_id13_im15.bmp,['Im_BradPitt.png', 'Im_RobertPattinson.png', 'Im_MattDamon.png', 'Im_RobertDowneyJr.png', 'Im_BenStiller.png', 'Im_ElijahWood.png', 'Im_KeanuReeves.png', 'Im_RyanReynolds.png', 'Im_DanielCraig.png', 'Im_LeonardoDiCaprio.png'],diff,1,2.3500854999999774,1,0,
PHAN0707,train,pos,fs,posfs_id11_im10.bmp_posfs_id11_im1.bmp,['Im_BradPitt.png', 'Im_RobertPattinson.png', 'Im_MattDamon.png', 'Im_RobertDowneyJr.png', 'Im_BenStiller.png', 'Im_ElijahWood.png', 'Im_KeanuReeves.png', 'Im_RyanReynolds.png', 'Im_DanielCraig.png', 'Im_LeonardoDiCaprio.png'],same,1,1.7248319000000265,2,0,
PHAN0707,train,pos,fs,posfs_id19_im8.bmp_posfs_id14_im24.bmp,['Im_BradPitt.png', 'Im_RobertPattinson.png', 'Im_MattDamon.png', 'Im_RobertDowneyJr.png', 'Im_BenStiller.png', 'Im_ElijahWood.png', 'Im_KeanuReeves.png', 'Im_RyanReynolds.png', 'Im_DanielCraig.png', 'Im_LeonardoDiCaprio.png'],diff,1,1.3667958000000908,3,0,
PHAN0707,train,pos,fs,posfs_id13_im10.bmp_posfs_id19_im8.bmp,['Im_BradPitt.png', 'Im_RobertPattinson.png', 'Im_MattDamon.png', 'Im_RobertDowneyJr.png', 'Im_BenStiller.png', 'Im_ElijahWood.png', 'Im_KeanuReeves.png', 'Im_RyanReynolds.png', 'Im_DanielCraig.png', 'Im_LeonardoDiCaprio.png'],diff,1,1.3084498000000622,4,0,
PHAN0707,train,pos,fs,posfs_id2_im16.bmp_posfs_id2_im3.bmp,['Im_BradPitt.png', 'Im_RobertPattinson.png', 'Im_MattDamon.png', 'Im_RobertDowneyJr.png', 'Im_BenStiller.png', 'Im_ElijahWood.png', 'Im_KeanuReeves.png', 'Im_RyanReynolds.png', 'Im_DanielCraig.png', 'Im_LeonardoDiCaprio.png'],same,1,1.6165000000000873,5,0,
PHAN0707,train,pos,fs,posfs_id21_im22.bmp_posfs_id21_im16.bmp,['Im_BradPitt.png', 'Im_RobertPattinson.png', 'Im_MattDamon.png', 'Im_RobertDowneyJr.png', 'Im_BenStiller.png', 'Im_ElijahWood.png', 'Im_KeanuReeves.png', 'Im_RyanReynolds.png', 'Im_DanielCraig.png', 'Im_LeonardoDiCaprio.png'],same,1,0.783353199999965,6,0,
PHAN0707,train,pos,fs,posfs_id2_im2.bmp_posfs_id2_im3.bmp,['Im_BradPitt.png', 'Im_RobertPattinson.png', 'Im_MattDamon.png', 'Im_RobertDowneyJr.png', 'Im_BenStiller.png', 'Im_ElijahWood.png', 'Im_KeanuReeves.png', 'Im_RyanReynolds.png', 'Im_DanielCraig.png', 'Im_LeonardoDiCaprio.png'],diff,0,0.8418994999999541,6,0,
PHAN0707,train,pos,fs,posfs_id18_im11.bmp_posfs_id2_im3.bmp,['Im_BradPitt.png', 'Im_RobertPattinson.png', 'Im_MattDamon.png', 'Im_RobertDowneyJr.png', 'Im_BenStiller.png', 'Im_ElijahWood.png', 'Im_KeanuReeves.png', 'Im_RyanReynolds.png', 'Im_DanielCraig.png', 'Im_LeonardoDiCaprio.png'],diff,1,1.0584384000001137,7,0,
PHAN0707,train,pos,fs,posfs_id21_im16.bmp_posfs_id21_im17.bmp,['Im_BradPitt.png', 'Im_RobertPattinson.png', 'Im_MattDamon.png', 'Im_RobertDowneyJr.png', 'Im_BenStiller.png', 'Im_ElijahWood.png', 'Im_KeanuReeves.png', 'Im_RyanReynolds.png', 'Im_DanielCraig.png', 'Im_LeonardoDiCaprio.png'],same,1,1.1167502000000695,8,0,
PHAN0707,train,pos,fs,posfs_id3_im17.bmp_posfs_id3_im6.bmp,['Im_BradPitt.png', 'Im_RobertPattinson.png', 'Im_MattDamon.png', 'Im_RobertDowneyJr.png', 'Im_BenStiller.png', 'Im_ElijahWood.png', 'Im_KeanuReeves.png', 'Im_RyanReynolds.png', 'Im_DanielCraig.png', 'Im_LeonardoDiCaprio.png'],same,1,0.7749624000000495,9,0,
PHAN0707,train,pos,fs,posfs_id6_im18.bmp_posfs_id6_im12.bmp,['Im_BradPitt.png', 'Im_RobertPattinson.png', 'Im_MattDamon.png', 'Im_RobertDowneyJr.png', 'Im_BenStiller.png', 'Im_ElijahWood.png', 'Im_KeanuReeves.png', 'Im_RyanReynolds.png', 'Im_DanielCraig.png', 'Im_LeonardoDiCaprio.png'],same,1,1.3416807000000972,10,0,
PHAN0707,train,pos,fs,posfs_id21_im16.bmp_posfs_id6_im18.bmp,['Im_BradPitt.png', 'Im_RobertPattinson.png', 'Im_MattDamon.png', 'Im_RobertDowneyJr.png', 'Im_BenStiller.png', 'Im_ElijahWood.png', 'Im_KeanuReeves.png', 'Im_RyanReynolds.png', 'Im_DanielCraig.png', 'Im_LeonardoDiCaprio.png'],diff,1,1.1087053000001106,11,0,
PHAN0707,train,pos,fs,posfs_id19_im4.bmp_posfs_id6_im19.bmp,['Im_BradPitt.png', 'Im_RobertPattinson.png', 'Im_MattDamon.png', 'Im_RobertDowneyJr.png', 'Im_BenStiller.png', 'Im_ElijahWood.png', 'Im_KeanuReeves.png', 'Im_RyanReynolds.png', 'Im_DanielCraig.png', 'Im_LeonardoDiCaprio.png'],diff,1,1.0165013999999246,12,0,
PHAN0707,train,pos,fs,posfs_id14_im18.bmp_posfs_id4_im20.bmp,['Im_BradPitt.png', 'Im_RobertPattinson.png', 'Im_MattDamon.png', 'Im_RobertDowneyJr.png', 'Im_BenStiller.png', 'Im_ElijahWood.png', 'Im_KeanuReeves.png', 'Im_RyanReynolds.png', 'Im_DanielCraig.png', 'Im_LeonardoDiCaprio.png'],diff,1,0.9748042000001078,13,0,
PHAN0707,train,pos,fs,posfs_id2_im2.bmp_posfs_id11_im10.bmp,['Im_BradPitt.png', 'Im_RobertPattinson.png', 'Im_MattDamon.png', 'Im_RobertDowneyJr.png', 'Im_BenStiller.png', 'Im_ElijahWood.png', 'Im_KeanuReeves.png', 'Im_RyanReynolds.png', 'Im_DanielCraig.png', 'Im_LeonardoDiCaprio.png'],diff,1,0.8585872000001018,14,0,
PHAN0707,train,pos,fs,posfs_id11_im1.bmp_posfs_id11_im2.bmp,['Im_BradPitt.png', 'Im_RobertPattinson.png', 'Im_MattDamon.png', 'Im_RobertDowneyJr.png', 'Im_BenStiller.png', 'Im_ElijahWood.png', 'Im_KeanuReeves.png', 'Im_RyanReynolds.png', 'Im_DanielCraig.png', 'Im_LeonardoDiCaprio.png'],same,1,0.7916639000000032,15,0,
PHAN0707,train,pos,fs,posfs_id2_im16.bmp_posfs_id2_im2.bmp,['Im_BradPitt.png', 'Im_RobertPattinson.png', 'Im_MattDamon.png', 'Im_RobertDowneyJr.png', 'Im_BenStiller.png', 'Im_ElijahWood.png', 'Im_KeanuReeves.png', 'Im_RyanReynolds.png', 'Im_DanielCraig.png', 'Im_LeonardoDiCaprio.png'],diff,0,1.7499127999999473,15,0,
PHAN0707,train,pos,fs,posfs_id11_im2.bmp_posfs_id11_im10.bmp,['Im_BradPitt.png', 'Im_RobertPattinson.png', 'Im_MattDamon.png', 'Im_RobertDowneyJr.png', 'Im_BenStiller.png', 'Im_ElijahWood.png', 'Im_KeanuReeves.png', 'Im_RyanReynolds.png', 'Im_DanielCraig.png', 'Im_LeonardoDiCaprio.png'],same,1,1.0832862000002024,16,0,
PHAN0707,train,pos,fs,posfs_id4_im15.bmp_posfs_id3_im17.bmp,['Im_BradPitt.png', 'Im_RobertPattinson.png', 'Im_MattDamon.png', 'Im_RobertDowneyJr.png', 'Im_BenStiller.png', 'Im_ElijahWood.png', 'Im_KeanuReeves.png', 'Im_RyanReynolds.png', 'Im_DanielCraig.png', 'Im_LeonardoDiCaprio.png'],diff,1,1.4666806000000179,17,0,
PHAN0707,train,pos,fs,posfs_id18_im18.bmp_posfs_id18_im19.bmp,['Im_BradPitt.png', 'Im_RobertPattinson.png', 'Im_MattDamon.png', 'Im_RobertDowneyJr.png', 'Im_BenStiller.png', 'Im_ElijahWood.png', 'Im_KeanuReeves.png', 'Im_RyanReynolds.png', 'Im_DanielCraig.png', 'Im_LeonardoDiCaprio.png'],same,1,0.6748356000000513,18,0,
PHAN0707,train,pos,fs,posfs_id6_im19.bmp_posfs_id6_im12.bmp,['Im_BradPitt.png', 'Im_RobertPattinson.png', 'Im_MattDamon.png', 'Im_RobertDowneyJr.png', 'Im_BenStiller.png', 'Im_ElijahWood.png', 'Im_KeanuReeves.png', 'Im_RyanReynolds.png', 'Im_DanielCraig.png', 'Im_LeonardoDiCaprio.png'],same,1,1.0086441999999352,1,0,
PHAN0707,train,pos,fs,posfs_id4_im15.bmp_posfs_id4_im20.bmp,['Im_BradPitt.png', 'Im_RobertPattinson.png', 'Im_MattDamon.png', 'Im_RobertDowneyJr.png', 'Im_BenStiller.png', 'Im_ElijahWood.png', 'Im_KeanuReeves.png', 'Im_RyanReynolds.png', 'Im_DanielCraig.png', 'Im_LeonardoDiCaprio.png'],same,1,0.5251946999999291,2,0,
PHAN0707,train,inv,fs,posfs_id13_im29.bmp_posfs_id2_im16.bmp,['Im_BradPitt.png', 'Im_RobertPattinson.png', 'Im_MattDamon.png', 'Im_RobertDowneyJr.png', 'Im_BenStiller.png', 'Im_ElijahWood.png', 'Im_KeanuReeves.png', 'Im_RyanReynolds.png', 'Im_DanielCraig.png', 'Im_LeonardoDiCaprio.png'],diff,1,0.8499358999999913,3,0,
PHAN0707,train,inv,fs,posfs_id19_im4.bmp_posfs_id19_im27.bmp,['Im_BradPitt.png', 'Im_RobertPattinson.png', 'Im_MattDamon.png', 'Im_RobertDowneyJr.png', 'Im_BenStiller.png', 'Im_ElijahWood.png', 'Im_KeanuReeves.png', 'Im_RyanReynolds.png', 'Im_DanielCraig.png', 'Im_LeonardoDiCaprio.png'],same,1,0.7417698000001565,4,0,
PHAN0707,train,pos,fs,posfs_id11_im10.bmp_posfs_id11_im1.bmp,['Im_BradPitt.png', 'Im_RobertPattinson.png', 'Im_MattDamon.png', 'Im_RobertDowneyJr.png', 'Im_BenStiller.png', 'Im_ElijahWood.png', 'Im_KeanuReeves.png', 'Im_RyanReynolds.png', 'Im_DanielCraig.png', 'Im_LeonardoDiCaprio.png'],same,1,0.6667230000000473,5,0,
PHAN0707,train,neg,fs,negfs_id2_im2.bmp_negfs_id11_im10.bmp,['Im_BradPitt.png', 'Im_RobertPattinson.png', 'Im_MattDamon.png', 'Im_RobertDowneyJr.png', 'Im_BenStiller.png', 'Im_ElijahWood.png', 'Im_KeanuReeves.png', 'Im_RyanReynolds.png', 'Im_DanielCraig.png', 'Im_LeonardoDiCaprio.png'],diff,1,0.6502205000001595,6,0,
PHAN0707,train,neg,fs,negfs_id6_im12.bmp_negfs_id6_im19.bmp,['Im_BradPitt.png', 'Im_RobertPattinson.png', 'Im_MattDamon.png', 'Im_RobertDowneyJr.png', 'Im_BenStiller.png', 'Im_ElijahWood.png', 'Im_KeanuReeves.png', 'Im_RyanReynolds.png', 'Im_DanielCraig.png', 'Im_LeonardoDiCaprio.png'],same,1,0.6004101000000901,7,0,
PHAN0707,train,inv,fs,posfs_id19_im8.bmp_posfs_id13_im10.bmp,['Im_BradPitt.png', 'Im_RobertPattinson.png', 'Im_MattDamon.png', 'Im_RobertDowneyJr.png', 'Im_BenStiller.png', 'Im_ElijahWood.png', 'Im_KeanuReeves.png', 'Im_RyanReynolds.png', 'Im_DanielCraig.png', 'Im_LeonardoDiCaprio.png'],diff,1,0.6419591999999739,8,0,
PHAN0707,train,inv,fs,posfs_id3_im17.bmp_posfs_id3_im6.bmp,['Im_BradPitt.png', 'Im_RobertPattinson.png', 'Im_MattDamon.png', 'Im_RobertDowneyJr.png', 'Im_BenStiller.png', 'Im_ElijahWood.png', 'Im_KeanuReeves.png', 'Im_RyanReynolds.png', 'Im_DanielCraig.png', 'Im_LeonardoDiCaprio.png'],same,1,0.4750420000000304,9,0,
PHAN0707,train,inv,fs,posfs_id11_im10.bmp_posfs_id18_im18.bmp,['Im_BradPitt.png', 'Im_RobertPattinson.png', 'Im_MattDamon.png', 'Im_RobertDowneyJr.png', 'Im_BenStiller.png', 'Im_ElijahWood.png', 'Im_KeanuReeves.png', 'Im_RyanReynolds.png', 'Im_DanielCraig.png', 'Im_LeonardoDiCaprio.png'],diff,1,0.5499228999999559,10,0,
PHAN0707,train,neg,fs,negfs_id14_im24.bmp_negfs_id14_im18.bmp,['Im_BradPitt.png', 'Im_RobertPattinson.png', 'Im_MattDamon.png', 'Im_RobertDowneyJr.png', 'Im_BenStiller.png', 'Im_ElijahWood.png', 'Im_KeanuReeves.png', 'Im_RyanReynolds.png', 'Im_DanielCraig.png', 'Im_LeonardoDiCaprio.png'],diff,0,0.8585156999999981,10,0,
PHAN0707,train,neg,fs,negfs_id13_im15.bmp_negfs_id13_im29.bmp,['Im_BradPitt.png', 'Im_RobertPattinson.png', 'Im_MattDamon.png', 'Im_RobertDowneyJr.png', 'Im_BenStiller.png', 'Im_ElijahWood.png', 'Im_KeanuReeves.png', 'Im_RyanReynolds.png', 'Im_DanielCraig.png', 'Im_LeonardoDiCaprio.png'],diff,0,1.7670157000000017,10,0,
PHAN0707,train,inv,fs,posfs_id2_im16.bmp_posfs_id2_im3.bmp,['Im_BradPitt.png', 'Im_RobertPattinson.png', 'Im_MattDamon.png', 'Im_RobertDowneyJr.png', 'Im_BenStiller.png', 'Im_ElijahWood.png', 'Im_KeanuReeves.png', 'Im_RyanReynolds.png', 'Im_DanielCraig.png', 'Im_LeonardoDiCaprio.png'],same,1,0.8252312999998139,11,0,
PHAN0707,train,pos,fs,posfs_id2_im16.bmp_posfs_id11_im1.bmp,['Im_BradPitt.png', 'Im_RobertPattinson.png', 'Im_MattDamon.png', 'Im_RobertDowneyJr.png', 'Im_BenStiller.png', 'Im_ElijahWood.png', 'Im_KeanuReeves.png', 'Im_RyanReynolds.png', 'Im_DanielCraig.png', 'Im_LeonardoDiCaprio.png'],diff,1,0.8418384999999944,12,0,
PHAN0707,train,inv,fs,posfs_id2_im2.bmp_posfs_id2_im3.bmp,['Im_BradPitt.png', 'Im_RobertPattinson.png', 'Im_MattDamon.png', 'Im_RobertDowneyJr.png', 'Im_BenStiller.png', 'Im_ElijahWood.png', 'Im_KeanuReeves.png', 'Im_RyanReynolds.png', 'Im_DanielCraig.png', 'Im_LeonardoDiCaprio.png'],same,1,0.6919166000000132,13,0,
PHAN0707,train,pos,fs,posfs_id13_im10.bmp_posfs_id13_im15.bmp,['Im_BradPitt.png', 'Im_RobertPattinson.png', 'Im_MattDamon.png', 'Im_RobertDowneyJr.png', 'Im_BenStiller.png', 'Im_ElijahWood.png', 'Im_KeanuReeves.png', 'Im_RyanReynolds.png', 'Im_DanielCraig.png', 'Im_LeonardoDiCaprio.png'],same,1,0.708615699999882,14,0,
PHAN0707,train,neg,fs,negfs_id4_im20.bmp_negfs_id4_im15.bmp,['Im_BradPitt.png', 'Im_RobertPattinson.png', 'Im_MattDamon.png', 'Im_RobertDowneyJr.png', 'Im_BenStiller.png', 'Im_ElijahWood.png', 'Im_KeanuReeves.png', 'Im_RyanReynolds.png', 'Im_DanielCraig.png', 'Im_LeonardoDiCaprio.png'],same,1,0.6750661999999465,15,0,
PHAN0707,train,inv,fs,posfs_id4_im15.bmp_posfs_id4_im7.bmp,['Im_BradPitt.png', 'Im_RobertPattinson.png', 'Im_MattDamon.png', 'Im_RobertDowneyJr.png', 'Im_BenStiller.png', 'Im_ElijahWood.png', 'Im_KeanuReeves.png', 'Im_RyanReynolds.png', 'Im_DanielCraig.png', 'Im_LeonardoDiCaprio.png'],diff,0,0.6417066999999861,15,0,
PHAN0707,train,neg,fs,negfs_id21_im22.bmp_negfs_id21_im17.bmp,['Im_BradPitt.png', 'Im_RobertPattinson.png', 'Im_MattDamon.png', 'Im_RobertDowneyJr.png', 'Im_BenStiller.png', 'Im_ElijahWood.png', 'Im_KeanuReeves.png', 'Im_RyanReynolds.png', 'Im_DanielCraig.png', 'Im_LeonardoDiCaprio.png'],diff,0,1.2753251999999975,15,0,
PHAN0707,train,neg,fs,negfs_id11_im2.bmp_negfs_id21_im22.bmp,['Im_BradPitt.png', 'Im_RobertPattinson.png', 'Im_MattDamon.png', 'Im_RobertDowneyJr.png', 'Im_BenStiller.png', 'Im_ElijahWood.png', 'Im_KeanuReeves.png', 'Im_RyanReynolds.png', 'Im_DanielCraig.png', 'Im_LeonardoDiCaprio.png'],same,0,2.0583959000000505,15,0,
PHAN0707,train,inv,60,pos60_id18_im11.bmp_pos60_id2_im3.bmp,['Im_BradPitt.png', 'Im_RobertPattinson.png', 'Im_MattDamon.png', 'Im_RobertDowneyJr.png', 'Im_BenStiller.png', 'Im_ElijahWood.png', 'Im_KeanuReeves.png', 'Im_RyanReynolds.png', 'Im_DanielCraig.png', 'Im_LeonardoDiCaprio.png'],diff,1,0.7668631999999889,1,0,
PHAN0707,train,inv,150,pos150_id3_im17.bmp_pos150_id3_im6.bmp,['Im_BradPitt.png', 'Im_RobertPattinson.png', 'Im_MattDamon.png', 'Im_RobertDowneyJr.png', 'Im_BenStiller.png', 'Im_ElijahWood.png', 'Im_KeanuReeves.png', 'Im_RyanReynolds.png', 'Im_DanielCraig.png', 'Im_LeonardoDiCaprio.png'],diff,0,0.9667311999999129,1,0,
PHAN0707,train,inv,90,pos90_id13_im15.bmp_pos90_id13_im10.bmp,['Im_BradPitt.png', 'Im_RobertPattinson.png', 'Im_MattDamon.png', 'Im_RobertDowneyJr.png', 'Im_BenStiller.png', 'Im_ElijahWood.png', 'Im_KeanuReeves.png', 'Im_RyanReynolds.png', 'Im_DanielCraig.png', 'Im_LeonardoDiCaprio.png'],same,1,0.983369699999912,2,0,
PHAN0707,train,inv,90,pos90_id11_im10.bmp_pos90_id11_im2.bmp,['Im_BradPitt.png', 'Im_RobertPattinson.png', 'Im_MattDamon.png', 'Im_RobertDowneyJr.png', 'Im_BenStiller.png', 'Im_ElijahWood.png', 'Im_KeanuReeves.png', 'Im_RyanReynolds.png', 'Im_DanielCraig.png', 'Im_LeonardoDiCaprio.png'],same,1,0.8000778000000537,3,0,
PHAN0707,train,inv,0,pos0_id19_im8.bmp_pos0_id19_im4.bmp,['Im_BradPitt.png', 'Im_RobertPattinson.png', 'Im_MattDamon.png', 'Im_RobertDowneyJr.png', 'Im_BenStiller.png', 'Im_ElijahWood.png', 'Im_KeanuReeves.png', 'Im_RyanReynolds.png', 'Im_DanielCraig.png', 'Im_LeonardoDiCaprio.png'],diff,0,1.5170391999999993,3,0,
PHAN0707,train,inv,120,pos120_id18_im18.bmp_pos120_id11_im10.bmp,['Im_BradPitt.png', 'Im_RobertPattinson.png', 'Im_MattDamon.png', 'Im_RobertDowneyJr.png', 'Im_BenStiller.png', 'Im_ElijahWood.png', 'Im_KeanuReeves.png', 'Im_RyanReynolds.png', 'Im_DanielCraig.png', 'Im_LeonardoDiCaprio.png'],same,0,0.5587825999998586,3,0,
PHAN0707,train,inv,30,pos30_id4_im15.bmp_pos30_id4_im20.bmp,['Im_BradPitt.png', 'Im_RobertPattinson.png', 'Im_MattDamon.png', 'Im_RobertDowneyJr.png', 'Im_BenStiller.png', 'Im_ElijahWood.png', 'Im_KeanuReeves.png', 'Im_RyanReynolds.png', 'Im_DanielCraig.png', 'Im_LeonardoDiCaprio.png'],diff,0,1.1083876000000146,3,0,
PHAN0707,train,inv,fs,posfs_id18_im18.bmp_posfs_id3_im8.bmp,['Im_BradPitt.png', 'Im_RobertPattinson.png', 'Im_MattDamon.png', 'Im_RobertDowneyJr.png', 'Im_BenStiller.png', 'Im_ElijahWood.png', 'Im_KeanuReeves.png', 'Im_RyanReynolds.png', 'Im_DanielCraig.png', 'Im_LeonardoDiCaprio.png'],diff,1,1.5167010000000118,4,0,
PHAN0707,train,inv,120,pos120_id14_im18.bmp_pos120_id14_im16.bmp,['Im_BradPitt.png', 'Im_RobertPattinson.png', 'Im_MattDamon.png', 'Im_RobertDowneyJr.png', 'Im_BenStiller.png', 'Im_ElijahWood.png', 'Im_KeanuReeves.png', 'Im_RyanReynolds.png', 'Im_DanielCraig.png', 'Im_LeonardoDiCaprio.png'],diff,0,1.3089674000000286,4,0,
PHAN0707,train,inv,150,pos150_id3_im8.bmp_pos150_id18_im19.bmp,['Im_BradPitt.png', 'Im_RobertPattinson.png', 'Im_MattDamon.png', 'Im_RobertDowneyJr.png', 'Im_BenStiller.png', 'Im_ElijahWood.png', 'Im_KeanuReeves.png', 'Im_RyanReynolds.png', 'Im_DanielCraig.png', 'Im_LeonardoDiCaprio.png'],diff,1,0.9334049000001414,5,0,
PHAN0707,train,inv,fs,posfs_id19_im27.bmp_posfs_id19_im8.bmp,['Im_BradPitt.png', 'Im_RobertPattinson.png', 'Im_MattDamon.png', 'Im_RobertDowneyJr.png', 'Im_BenStiller.png', 'Im_ElijahWood.png', 'Im_KeanuReeves.png', 'Im_RyanReynolds.png', 'Im_DanielCraig.png', 'Im_LeonardoDiCaprio.png'],diff,0,1.2833381999998892,5,0,
PHAN0707,train,inv,60,pos60_id4_im20.bmp_pos60_id21_im17.bmp,['Im_BradPitt.png', 'Im_RobertPattinson.png', 'Im_MattDamon.png', 'Im_RobertDowneyJr.png', 'Im_BenStiller.png', 'Im_ElijahWood.png', 'Im_KeanuReeves.png', 'Im_RyanReynolds.png', 'Im_DanielCraig.png', 'Im_LeonardoDiCaprio.png'],diff,1,0.6915939000000435,6,0,
PHAN0707,train,inv,30,pos30_id6_im19.bmp_pos30_id6_im12.bmp,['Im_BradPitt.png', 'Im_RobertPattinson.png', 'Im_MattDamon.png', 'Im_RobertDowneyJr.png', 'Im_BenStiller.png', 'Im_ElijahWood.png', 'Im_KeanuReeves.png', 'Im_RyanReynolds.png', 'Im_DanielCraig.png', 'Im_LeonardoDiCaprio.png'],same,1,0.7338059000001067,7,0,
PHAN0707,train,inv,0,pos0_id13_im10.bmp_pos0_id13_im15.bmp,['Im_BradPitt.png', 'Im_RobertPattinson.png', 'Im_MattDamon.png', 'Im_RobertDowneyJr.png', 'Im_BenStiller.png', 'Im_ElijahWood.png', 'Im_KeanuReeves.png', 'Im_RyanReynolds.png', 'Im_DanielCraig.png', 'Im_LeonardoDiCaprio.png'],same,1,0.7668746000001647,8,0,
PHAN0707,train,pos,fs,posfs_id11_im2.bmp_posfs_id11_im10.bmp,['Im_BradPitt.png', 'Im_RobertPattinson.png', 'Im_MattDamon.png', 'Im_RobertDowneyJr.png', 'Im_BenStiller.png', 'Im_ElijahWood.png', 'Im_KeanuReeves.png', 'Im_RyanReynolds.png', 'Im_DanielCraig.png', 'Im_LeonardoDiCaprio.png'],same,1,0.6165787999998429,9,0,
PHAN0707,train,pos,90,pos90_id4_im15.bmp_pos90_id4_im7.bmp,['Im_BradPitt.png', 'Im_RobertPattinson.png', 'Im_MattDamon.png', 'Im_RobertDowneyJr.png', 'Im_BenStiller.png', 'Im_ElijahWood.png', 'Im_KeanuReeves.png', 'Im_RyanReynolds.png', 'Im_DanielCraig.png', 'Im_LeonardoDiCaprio.png'],same,1,0.5417005000001609,10,0,
PHAN0707,train,pos,30,pos30_id4_im15.bmp_pos30_id4_im20.bmp,['Im_BradPitt.png', 'Im_RobertPattinson.png', 'Im_MattDamon.png', 'Im_RobertDowneyJr.png', 'Im_BenStiller.png', 'Im_ElijahWood.png', 'Im_KeanuReeves.png', 'Im_RyanReynolds.png', 'Im_DanielCraig.png', 'Im_LeonardoDiCaprio.png'],same,1,0.41676649999999427,11,0,
PHAN0707,train,pos,0,pos0_id19_im27.bmp_pos0_id19_im8.bmp,['Im_BradPitt.png', 'Im_RobertPattinson.png', 'Im_MattDamon.png', 'Im_RobertDowneyJr.png', 'Im_BenStiller.png', 'Im_ElijahWood.png', 'Im_KeanuReeves.png', 'Im_RyanReynolds.png', 'Im_DanielCraig.png', 'Im_LeonardoDiCaprio.png'],same,1,0.5085337999998956,12,0,
PHAN0707,train,pos,30,pos30_id2_im3.bmp_pos30_id2_im16.bmp,['Im_BradPitt.png', 'Im_RobertPattinson.png', 'Im_MattDamon.png', 'Im_RobertDowneyJr.png', 'Im_BenStiller.png', 'Im_ElijahWood.png', 'Im_KeanuReeves.png', 'Im_RyanReynolds.png', 'Im_DanielCraig.png', 'Im_LeonardoDiCaprio.png'],same,1,0.41660959999990155,13,0,
PHAN0707,train,pos,120,pos120_id21_im22.bmp_pos120_id3_im6.bmp,['Im_BradPitt.png', 'Im_RobertPattinson.png', 'Im_MattDamon.png', 'Im_RobertDowneyJr.png', 'Im_BenStiller.png', 'Im_ElijahWood.png', 'Im_KeanuReeves.png', 'Im_RyanReynolds.png', 'Im_DanielCraig.png', 'Im_LeonardoDiCaprio.png'],diff,1,0.40826819999983854,14,0,
PHAN0707,train,pos,fs,posfs_id2_im2.bmp_posfs_id2_im16.bmp,['Im_BradPitt.png', 'Im_RobertPattinson.png', 'Im_MattDamon.png', 'Im_RobertDowneyJr.png', 'Im_BenStiller.png', 'Im_ElijahWood.png', 'Im_KeanuReeves.png', 'Im_RyanReynolds.png', 'Im_DanielCraig.png', 'Im_LeonardoDiCaprio.png'],same,1,0.6667442000000392,15,0,
PHAN0707,train,pos,0,pos0_id4_im7.bmp_pos0_id21_im17.bmp,['Im_BradPitt.png', 'Im_RobertPattinson.png', 'Im_MattDamon.png', 'Im_RobertDowneyJr.png', 'Im_BenStiller.png', 'Im_ElijahWood.png', 'Im_KeanuReeves.png', 'Im_RyanReynolds.png', 'Im_DanielCraig.png', 'Im_LeonardoDiCaprio.png'],diff,1,0.5082743000000391,16,0,
PHAN0707,train,pos,60,pos60_id13_im29.bmp_pos60_id13_im15.bmp,['Im_BradPitt.png', 'Im_RobertPattinson.png', 'Im_MattDamon.png', 'Im_RobertDowneyJr.png', 'Im_BenStiller.png', 'Im_ElijahWood.png', 'Im_KeanuReeves.png', 'Im_RyanReynolds.png', 'Im_DanielCraig.png', 'Im_LeonardoDiCaprio.png'],same,1,0.5669150999999601,17,0,
PHAN0707,train,pos,120,pos120_id14_im18.bmp_pos120_id14_im16.bmp,['Im_BradPitt.png', 'Im_RobertPattinson.png', 'Im_MattDamon.png', 'Im_RobertDowneyJr.png', 'Im_BenStiller.png', 'Im_ElijahWood.png', 'Im_KeanuReeves.png', 'Im_RyanReynolds.png', 'Im_DanielCraig.png', 'Im_LeonardoDiCaprio.png'],same,1,0.6333918999998787,18,0,
PHAN0707,train,pos,90,pos90_id13_im29.bmp_pos90_id11_im2.bmp,['Im_BradPitt.png', 'Im_RobertPattinson.png', 'Im_MattDamon.png', 'Im_RobertDowneyJr.png', 'Im_BenStiller.png', 'Im_ElijahWood.png', 'Im_KeanuReeves.png', 'Im_RyanReynolds.png', 'Im_DanielCraig.png', 'Im_LeonardoDiCaprio.png'],diff,1,0.4418630000000121,19,0,
PHAN0707,train,pos,150,pos150_id4_im15.bmp_pos150_id3_im17.bmp,['Im_BradPitt.png', 'Im_RobertPattinson.png', 'Im_MattDamon.png', 'Im_RobertDowneyJr.png', 'Im_BenStiller.png', 'Im_ElijahWood.png', 'Im_KeanuReeves.png', 'Im_RyanReynolds.png', 'Im_DanielCraig.png', 'Im_LeonardoDiCaprio.png'],diff,1,0.4915891000000556,20,0,
PHAN0707,train,pos,150,pos150_id13_im29.bmp_pos150_id13_im10.bmp,['Im_BradPitt.png', 'Im_RobertPattinson.png', 'Im_MattDamon.png', 'Im_RobertDowneyJr.png', 'Im_BenStiller.png', 'Im_ElijahWood.png', 'Im_KeanuReeves.png', 'Im_RyanReynolds.png', 'Im_DanielCraig.png', 'Im_LeonardoDiCaprio.png'],diff,0,0.408426499999905,20,0,
PHAN0707,train,pos,60,pos60_id19_im4.bmp_pos60_id19_im8.bmp,['Im_BradPitt.png', 'Im_RobertPattinson.png', 'Im_MattDamon.png', 'Im_RobertDowneyJr.png', 'Im_BenStiller.png', 'Im_ElijahWood.png', 'Im_KeanuReeves.png', 'Im_RyanReynolds.png', 'Im_DanielCraig.png', 'Im_LeonardoDiCaprio.png'],same,1,0.4916364999999132,21,0,
PHAN0707,train,neg,fs,negfs_id3_im8.bmp_negfs_id18_im18.bmp,['Im_BradPitt.png', 'Im_RobertPattinson.png', 'Im_MattDamon.png', 'Im_RobertDowneyJr.png', 'Im_BenStiller.png', 'Im_ElijahWood.png', 'Im_KeanuReeves.png', 'Im_RyanReynolds.png', 'Im_DanielCraig.png', 'Im_LeonardoDiCaprio.png'],diff,1,0.41670529999987593,22,0,
PHAN0707,train,neg,150,neg150_id14_im16.bmp_neg150_id14_im18.bmp,['Im_BradPitt.png', 'Im_RobertPattinson.png', 'Im_MattDamon.png', 'Im_RobertDowneyJr.png', 'Im_BenStiller.png', 'Im_ElijahWood.png', 'Im_KeanuReeves.png', 'Im_RyanReynolds.png', 'Im_DanielCraig.png', 'Im_LeonardoDiCaprio.png'],same,1,0.49994329999981346,23,0,
PHAN0707,train,neg,fs,negfs_id2_im2.bmp_negfs_id11_im10.bmp,['Im_BradPitt.png', 'Im_RobertPattinson.png', 'Im_MattDamon.png', 'Im_RobertDowneyJr.png', 'Im_BenStiller.png', 'Im_ElijahWood.png', 'Im_KeanuReeves.png', 'Im_RyanReynolds.png', 'Im_DanielCraig.png', 'Im_LeonardoDiCaprio.png'],diff,1,0.4084482999996908,24,0,
PHAN0707,train,neg,60,neg60_id21_im22.bmp_neg60_id3_im6.bmp,['Im_BradPitt.png', 'Im_RobertPattinson.png', 'Im_MattDamon.png', 'Im_RobertDowneyJr.png', 'Im_BenStiller.png', 'Im_ElijahWood.png', 'Im_KeanuReeves.png', 'Im_RyanReynolds.png', 'Im_DanielCraig.png', 'Im_LeonardoDiCaprio.png'],diff,1,0.5333279000001312,25,0,
PHAN0707,train,neg,90,neg90_id21_im16.bmp_neg90_id21_im17.bmp,['Im_BradPitt.png', 'Im_RobertPattinson.png', 'Im_MattDamon.png', 'Im_RobertDowneyJr.png', 'Im_BenStiller.png', 'Im_ElijahWood.png', 'Im_KeanuReeves.png', 'Im_RyanReynolds.png', 'Im_DanielCraig.png', 'Im_LeonardoDiCaprio.png'],same,1,0.4499924000001556,26,0,
PHAN0707,train,neg,30,neg30_id4_im20.bmp_neg30_id14_im18.bmp,['Im_BradPitt.png', 'Im_RobertPattinson.png', 'Im_MattDamon.png', 'Im_RobertDowneyJr.png', 'Im_BenStiller.png', 'Im_ElijahWood.png', 'Im_KeanuReeves.png', 'Im_RyanReynolds.png', 'Im_DanielCraig.png', 'Im_LeonardoDiCaprio.png'],diff,1,0.4082770999998502,27,0,
PHAN0707,train,neg,30,neg30_id18_im18.bmp_neg30_id3_im8.bmp,['Im_BradPitt.png', 'Im_RobertPattinson.png', 'Im_MattDamon.png', 'Im_RobertDowneyJr.png', 'Im_BenStiller.png', 'Im_ElijahWood.png', 'Im_KeanuReeves.png', 'Im_RyanReynolds.png', 'Im_DanielCraig.png', 'Im_LeonardoDiCaprio.png'],diff,1,0.43343800000002375,28,0,
PHAN0707,train,neg,60,neg60_id4_im20.bmp_neg60_id4_im7.bmp,['Im_BradPitt.png', 'Im_RobertPattinson.png', 'Im_MattDamon.png', 'Im_RobertDowneyJr.png', 'Im_BenStiller.png', 'Im_ElijahWood.png', 'Im_KeanuReeves.png', 'Im_RyanReynolds.png', 'Im_DanielCraig.png', 'Im_LeonardoDiCaprio.png'],same,1,0.4165947999999844,29,0,
PHAN0707,train,neg,120,neg120_id6_im18.bmp_neg120_id21_im16.bmp,['Im_BradPitt.png', 'Im_RobertPattinson.png', 'Im_MattDamon.png', 'Im_RobertDowneyJr.png', 'Im_BenStiller.png', 'Im_ElijahWood.png', 'Im_KeanuReeves.png', 'Im_RyanReynolds.png', 'Im_DanielCraig.png', 'Im_LeonardoDiCaprio.png'],diff,1,0.41666239999995014,30,0,
PHAN0707,train,neg,0,neg0_id18_im11.bmp_neg0_id18_im18.bmp,['Im_BradPitt.png', 'Im_RobertPattinson.png', 'Im_MattDamon.png', 'Im_RobertDowneyJr.png', 'Im_BenStiller.png', 'Im_ElijahWood.png', 'Im_KeanuReeves.png', 'Im_RyanReynolds.png', 'Im_DanielCraig.png', 'Im_LeonardoDiCaprio.png'],same,1,0.5167397000000165,31,0,
PHAN0707,train,neg,90,neg90_id2_im2.bmp_neg90_id2_im16.bmp,['Im_BradPitt.png', 'Im_RobertPattinson.png', 'Im_MattDamon.png', 'Im_RobertDowneyJr.png', 'Im_BenStiller.png', 'Im_ElijahWood.png', 'Im_KeanuReeves.png', 'Im_RyanReynolds.png', 'Im_DanielCraig.png', 'Im_LeonardoDiCaprio.png'],diff,0,0.5169786999999815,31,0,
PHAN0707,train,neg,150,neg150_id21_im17.bmp_neg150_id4_im7.bmp,['Im_BradPitt.png', 'Im_RobertPattinson.png', 'Im_MattDamon.png', 'Im_RobertDowneyJr.png', 'Im_BenStiller.png', 'Im_ElijahWood.png', 'Im_KeanuReeves.png', 'Im_RyanReynolds.png', 'Im_DanielCraig.png', 'Im_LeonardoDiCaprio.png'],diff,1,0.4164498999998614,32,0,
PHAN0707,train,neg,120,neg120_id11_im1.bmp_neg120_id11_im2.bmp,['Im_BradPitt.png', 'Im_RobertPattinson.png', 'Im_MattDamon.png', 'Im_RobertDowneyJr.png', 'Im_BenStiller.png', 'Im_ElijahWood.png', 'Im_KeanuReeves.png', 'Im_RyanReynolds.png', 'Im_DanielCraig.png', 'Im_LeonardoDiCaprio.png'],diff,0,0.9753519000000779,32,0,
PHAN0707,train,neg,0,neg0_id19_im8.bmp_neg0_id13_im10.bmp,['Im_BradPitt.png', 'Im_RobertPattinson.png', 'Im_MattDamon.png', 'Im_RobertDowneyJr.png', 'Im_BenStiller.png', 'Im_ElijahWood.png', 'Im_KeanuReeves.png', 'Im_RyanReynolds.png', 'Im_DanielCraig.png', 'Im_LeonardoDiCaprio.png'],diff,1,1.4918914999998378,33,0,
PHAN0707,train,pos,150,pos150_id3_im17.bmp_pos150_id3_im6.bmp,['Im_BradPitt.png', 'Im_RobertPattinson.png', 'Im_MattDamon.png', 'Im_RobertDowneyJr.png', 'Im_BenStiller.png', 'Im_ElijahWood.png', 'Im_KeanuReeves.png', 'Im_RyanReynolds.png', 'Im_DanielCraig.png', 'Im_LeonardoDiCaprio.png'],same,1,1.3418625999997857,1,78.57142857142857,
PHAN0707,train,pos,90,pos90_id4_im7.bmp_pos90_id14_im16.bmp,['Im_BradPitt.png', 'Im_RobertPattinson.png', 'Im_MattDamon.png', 'Im_RobertDowneyJr.png', 'Im_BenStiller.png', 'Im_ElijahWood.png', 'Im_KeanuReeves.png', 'Im_RyanReynolds.png', 'Im_DanielCraig.png', 'Im_LeonardoDiCaprio.png'],diff,1,0.7920766000002004,2,78.57142857142857,
PHAN0707,train,pos,90,pos90_id18_im19.bmp_pos90_id18_im18.bmp,['Im_BradPitt.png', 'Im_RobertPattinson.png', 'Im_MattDamon.png', 'Im_RobertDowneyJr.png', 'Im_BenStiller.png', 'Im_ElijahWood.png', 'Im_KeanuReeves.png', 'Im_RyanReynolds.png', 'Im_DanielCraig.png', 'Im_LeonardoDiCaprio.png'],same,1,0.416738400000213,3,78.57142857142857,
PHAN0707,train,pos,30,pos30_id19_im8.bmp_pos30_id19_im4.bmp,['Im_BradPitt.png', 'Im_RobertPattinson.png', 'Im_MattDamon.png', 'Im_RobertDowneyJr.png', 'Im_BenStiller.png', 'Im_ElijahWood.png', 'Im_KeanuReeves.png', 'Im_RyanReynolds.png', 'Im_DanielCraig.png', 'Im_LeonardoDiCaprio.png'],same,1,0.533646299999873,4,78.57142857142857,
PHAN0707,train,pos,60,pos60_id13_im10.bmp_pos60_id13_im29.bmp,['Im_BradPitt.png', 'Im_RobertPattinson.png', 'Im_MattDamon.png', 'Im_RobertDowneyJr.png', 'Im_BenStiller.png', 'Im_ElijahWood.png', 'Im_KeanuReeves.png', 'Im_RyanReynolds.png', 'Im_DanielCraig.png', 'Im_LeonardoDiCaprio.png'],same,1,0.6414899000001242,5,78.57142857142857,
PHAN0707,train,pos,60,pos60_id18_im11.bmp_pos60_id2_im3.bmp,['Im_BradPitt.png', 'Im_RobertPattinson.png', 'Im_MattDamon.png', 'Im_RobertDowneyJr.png', 'Im_BenStiller.png', 'Im_ElijahWood.png', 'Im_KeanuReeves.png', 'Im_RyanReynolds.png', 'Im_DanielCraig.png', 'Im_LeonardoDiCaprio.png'],diff,1,0.4166342000003169,6,78.57142857142857,
PHAN0707,train,pos,0,pos0_id14_im24.bmp_pos0_id14_im16.bmp,['Im_BradPitt.png', 'Im_RobertPattinson.png', 'Im_MattDamon.png', 'Im_RobertDowneyJr.png', 'Im_BenStiller.png', 'Im_ElijahWood.png', 'Im_KeanuReeves.png', 'Im_RyanReynolds.png', 'Im_DanielCraig.png', 'Im_LeonardoDiCaprio.png'],diff,0,0.408361799999966,6,78.57142857142857,
PHAN0707,train,pos,0,pos0_id6_im12.bmp_pos0_id6_im19.bmp,['Im_BradPitt.png', 'Im_RobertPattinson.png', 'Im_MattDamon.png', 'Im_RobertDowneyJr.png', 'Im_BenStiller.png', 'Im_ElijahWood.png', 'Im_KeanuReeves.png', 'Im_RyanReynolds.png', 'Im_DanielCraig.png', 'Im_LeonardoDiCaprio.png'],same,1,0.616925700000138,7,78.57142857142857,
PHAN0707,train,pos,fs,posfs_id4_im15.bmp_posfs_id3_im17.bmp,['Im_BradPitt.png', 'Im_RobertPattinson.png', 'Im_MattDamon.png', 'Im_RobertDowneyJr.png', 'Im_BenStiller.png', 'Im_ElijahWood.png', 'Im_KeanuReeves.png', 'Im_RyanReynolds.png', 'Im_DanielCraig.png', 'Im_LeonardoDiCaprio.png'],diff,1,0.40022880000014993,8,78.57142857142857,
PHAN0707,train,pos,120,pos120_id11_im10.bmp_pos120_id11_im2.bmp,['Im_BradPitt.png', 'Im_RobertPattinson.png', 'Im_MattDamon.png', 'Im_RobertDowneyJr.png', 'Im_BenStiller.png', 'Im_ElijahWood.png', 'Im_KeanuReeves.png', 'Im_RyanReynolds.png', 'Im_DanielCraig.png', 'Im_LeonardoDiCaprio.png'],same,1,0.41702810000015234,9,78.57142857142857,
PHAN0707,train,pos,fs,posfs_id18_im18.bmp_posfs_id18_im19.bmp,['Im_BradPitt.png', 'Im_RobertPattinson.png', 'Im_MattDamon.png', 'Im_RobertDowneyJr.png', 'Im_BenStiller.png', 'Im_ElijahWood.png', 'Im_KeanuReeves.png', 'Im_RyanReynolds.png', 'Im_DanielCraig.png', 'Im_LeonardoDiCaprio.png'],same,1,0.41681089999974574,10,78.57142857142857,
PHAN0707,train,pos,150,pos150_id21_im22.bmp_pos150_id21_im17.bmp,['Im_BradPitt.png', 'Im_RobertPattinson.png', 'Im_MattDamon.png', 'Im_RobertDowneyJr.png', 'Im_BenStiller.png', 'Im_ElijahWood.png', 'Im_KeanuReeves.png', 'Im_RyanReynolds.png', 'Im_DanielCraig.png', 'Im_LeonardoDiCaprio.png'],same,1,0.40863599999966027,11,78.57142857142857,
PHAN0707,train,pos,30,pos30_id11_im2.bmp_pos30_id21_im22.bmp,['Im_BradPitt.png', 'Im_RobertPattinson.png', 'Im_MattDamon.png', 'Im_RobertDowneyJr.png', 'Im_BenStiller.png', 'Im_ElijahWood.png', 'Im_KeanuReeves.png', 'Im_RyanReynolds.png', 'Im_DanielCraig.png', 'Im_LeonardoDiCaprio.png'],diff,1,0.4334913000002416,12,78.57142857142857,
PHAN0707,train,pos,120,pos120_id13_im15.bmp_pos120_id19_im27.bmp,['Im_BradPitt.png', 'Im_RobertPattinson.png', 'Im_MattDamon.png', 'Im_RobertDowneyJr.png', 'Im_BenStiller.png', 'Im_ElijahWood.png', 'Im_KeanuReeves.png', 'Im_RyanReynolds.png', 'Im_DanielCraig.png', 'Im_LeonardoDiCaprio.png'],diff,1,0.4417932000001201,13,78.57142857142857,
PHAN0707,train,inv,150,pos150_id4_im20.bmp_pos150_id4_im7.bmp,['Im_BradPitt.png', 'Im_RobertPattinson.png', 'Im_MattDamon.png', 'Im_RobertDowneyJr.png', 'Im_BenStiller.png', 'Im_ElijahWood.png', 'Im_KeanuReeves.png', 'Im_RyanReynolds.png', 'Im_DanielCraig.png', 'Im_LeonardoDiCaprio.png'],same,1,0.6334857000001648,14,78.57142857142857,
PHAN0707,train,inv,120,pos120_id6_im18.bmp_pos120_id19_im4.bmp,['Im_BradPitt.png', 'Im_RobertPattinson.png', 'Im_MattDamon.png', 'Im_RobertDowneyJr.png', 'Im_BenStiller.png', 'Im_ElijahWood.png', 'Im_KeanuReeves.png', 'Im_RyanReynolds.png', 'Im_DanielCraig.png', 'Im_LeonardoDiCaprio.png'],diff,1,0.41675039999972796,15,78.57142857142857,
PHAN0707,train,inv,90,pos90_id6_im12.bmp_pos90_id3_im6.bmp,['Im_BradPitt.png', 'Im_RobertPattinson.png', 'Im_MattDamon.png', 'Im_RobertDowneyJr.png', 'Im_BenStiller.png', 'Im_ElijahWood.png', 'Im_KeanuReeves.png', 'Im_RyanReynolds.png', 'Im_DanielCraig.png', 'Im_LeonardoDiCaprio.png'],diff,1,0.46657299999969837,16,78.57142857142857,
PHAN0707,train,inv,fs,posfs_id4_im15.bmp_posfs_id4_im20.bmp,['Im_BradPitt.png', 'Im_RobertPattinson.png', 'Im_MattDamon.png', 'Im_RobertDowneyJr.png', 'Im_BenStiller.png', 'Im_ElijahWood.png', 'Im_KeanuReeves.png', 'Im_RyanReynolds.png', 'Im_DanielCraig.png', 'Im_LeonardoDiCaprio.png'],diff,0,0.5919882000002872,16,78.57142857142857,
PHAN0707,train,inv,60,pos60_id11_im1.bmp_pos60_id4_im15.bmp,['Im_BradPitt.png', 'Im_RobertPattinson.png', 'Im_MattDamon.png', 'Im_RobertDowneyJr.png', 'Im_BenStiller.png', 'Im_ElijahWood.png', 'Im_KeanuReeves.png', 'Im_RyanReynolds.png', 'Im_DanielCraig.png', 'Im_LeonardoDiCaprio.png'],diff,1,0.6089558000003308,17,78.57142857142857,
PHAN0707,train,inv,30,pos30_id18_im19.bmp_pos30_id2_im2.bmp,['Im_BradPitt.png', 'Im_RobertPattinson.png', 'Im_MattDamon.png', 'Im_RobertDowneyJr.png', 'Im_BenStiller.png', 'Im_ElijahWood.png', 'Im_KeanuReeves.png', 'Im_RyanReynolds.png', 'Im_DanielCraig.png', 'Im_LeonardoDiCaprio.png'],diff,1,0.9498293999999987,18,78.57142857142857,
PHAN0707,train,inv,30,pos30_id11_im1.bmp_pos30_id2_im16.bmp,['Im_BradPitt.png', 'Im_RobertPattinson.png', 'Im_MattDamon.png', 'Im_RobertDowneyJr.png', 'Im_BenStiller.png', 'Im_ElijahWood.png', 'Im_KeanuReeves.png', 'Im_RyanReynolds.png', 'Im_DanielCraig.png', 'Im_LeonardoDiCaprio.png'],diff,1,0.6500270999999884,19,78.57142857142857,
PHAN0707,train,inv,60,pos60_id14_im18.bmp_pos60_id14_im16.bmp,['Im_BradPitt.png', 'Im_RobertPattinson.png', 'Im_MattDamon.png', 'Im_RobertDowneyJr.png', 'Im_BenStiller.png', 'Im_ElijahWood.png', 'Im_KeanuReeves.png', 'Im_RyanReynolds.png', 'Im_DanielCraig.png', 'Im_LeonardoDiCaprio.png'],diff,0,0.7002284000000145,19,78.57142857142857,
PHAN0707,train,inv,90,pos90_id11_im1.bmp_pos90_id4_im15.bmp,['Im_BradPitt.png', 'Im_RobertPattinson.png', 'Im_MattDamon.png', 'Im_RobertDowneyJr.png', 'Im_BenStiller.png', 'Im_ElijahWood.png', 'Im_KeanuReeves.png', 'Im_RyanReynolds.png', 'Im_DanielCraig.png', 'Im_LeonardoDiCaprio.png'],diff,1,0.8751612000000932,20,78.57142857142857,
PHAN0707,train,inv,fs,posfs_id13_im29.bmp_posfs_id13_im15.bmp,['Im_BradPitt.png', 'Im_RobertPattinson.png', 'Im_MattDamon.png', 'Im_RobertDowneyJr.png', 'Im_BenStiller.png', 'Im_ElijahWood.png', 'Im_KeanuReeves.png', 'Im_RyanReynolds.png', 'Im_DanielCraig.png', 'Im_LeonardoDiCaprio.png'],diff,0,0.5337210999996387,20,78.57142857142857,
PHAN0707,train,inv,0,pos0_id18_im11.bmp_pos0_id13_im15.bmp,['Im_BradPitt.png', 'Im_RobertPattinson.png', 'Im_MattDamon.png', 'Im_RobertDowneyJr.png', 'Im_BenStiller.png', 'Im_ElijahWood.png', 'Im_KeanuReeves.png', 'Im_RyanReynolds.png', 'Im_DanielCraig.png', 'Im_LeonardoDiCaprio.png'],diff,1,0.5499955000000227,21,78.57142857142857,
PHAN0707,train,inv,150,pos150_id14_im18.bmp_pos150_id14_im16.bmp,['Im_BradPitt.png', 'Im_RobertPattinson.png', 'Im_MattDamon.png', 'Im_RobertDowneyJr.png', 'Im_BenStiller.png', 'Im_ElijahWood.png', 'Im_KeanuReeves.png', 'Im_RyanReynolds.png', 'Im_DanielCraig.png', 'Im_LeonardoDiCaprio.png'],same,1,0.5584119000000101,22,78.57142857142857,
PHAN0707,train,inv,120,pos120_id14_im24.bmp_pos120_id14_im18.bmp,['Im_BradPitt.png', 'Im_RobertPattinson.png', 'Im_MattDamon.png', 'Im_RobertDowneyJr.png', 'Im_BenStiller.png', 'Im_ElijahWood.png', 'Im_KeanuReeves.png', 'Im_RyanReynolds.png', 'Im_DanielCraig.png', 'Im_LeonardoDiCaprio.png'],same,1,0.7832367000000886,23,78.57142857142857,
PHAN0707,train,inv,0,pos0_id4_im15.bmp_pos0_id3_im17.bmp,['Im_BradPitt.png', 'Im_RobertPattinson.png', 'Im_MattDamon.png', 'Im_RobertDowneyJr.png', 'Im_BenStiller.png', 'Im_ElijahWood.png', 'Im_KeanuReeves.png', 'Im_RyanReynolds.png', 'Im_DanielCraig.png', 'Im_LeonardoDiCaprio.png'],diff,1,1.0170422999999573,24,78.57142857142857,
PHAN0707,train,neg,90,neg90_id18_im19.bmp_neg90_id3_im8.bmp,['Im_BradPitt.png', 'Im_RobertPattinson.png', 'Im_MattDamon.png', 'Im_RobertDowneyJr.png', 'Im_BenStiller.png', 'Im_ElijahWood.png', 'Im_KeanuReeves.png', 'Im_RyanReynolds.png', 'Im_DanielCraig.png', 'Im_LeonardoDiCaprio.png'],diff,1,1.2003841999999167,25,78.57142857142857,
PHAN0707,train,neg,90,neg90_id21_im16.bmp_neg90_id14_im16.bmp,['Im_BradPitt.png', 'Im_RobertPattinson.png', 'Im_MattDamon.png', 'Im_RobertDowneyJr.png', 'Im_BenStiller.png', 'Im_ElijahWood.png', 'Im_KeanuReeves.png', 'Im_RyanReynolds.png', 'Im_DanielCraig.png', 'Im_LeonardoDiCaprio.png'],diff,1,0.750420700000177,26,78.57142857142857,
PHAN0707,train,neg,30,neg30_id2_im16.bmp_neg30_id13_im29.bmp,['Im_BradPitt.png', 'Im_RobertPattinson.png', 'Im_MattDamon.png', 'Im_RobertDowneyJr.png', 'Im_BenStiller.png', 'Im_ElijahWood.png', 'Im_KeanuReeves.png', 'Im_RyanReynolds.png', 'Im_DanielCraig.png', 'Im_LeonardoDiCaprio.png'],diff,1,0.533535000000029,27,78.57142857142857,
PHAN0707,train,neg,150,neg150_id6_im18.bmp_neg150_id21_im16.bmp,['Im_BradPitt.png', 'Im_RobertPattinson.png', 'Im_MattDamon.png', 'Im_RobertDowneyJr.png', 'Im_BenStiller.png', 'Im_ElijahWood.png', 'Im_KeanuReeves.png', 'Im_RyanReynolds.png', 'Im_DanielCraig.png', 'Im_LeonardoDiCaprio.png'],diff,1,0.5086508999997932,28,78.57142857142857,
PHAN0707,train,neg,0,neg0_id21_im16.bmp_neg0_id6_im18.bmp,['Im_BradPitt.png', 'Im_RobertPattinson.png', 'Im_MattDamon.png', 'Im_RobertDowneyJr.png', 'Im_BenStiller.png', 'Im_ElijahWood.png', 'Im_KeanuReeves.png', 'Im_RyanReynolds.png', 'Im_DanielCraig.png', 'Im_LeonardoDiCaprio.png'],diff,1,0.8830798000003597,29,78.57142857142857,
PHAN0707,train,neg,fs,negfs_id3_im8.bmp_negfs_id3_im6.bmp,['Im_BradPitt.png', 'Im_RobertPattinson.png', 'Im_MattDamon.png', 'Im_RobertDowneyJr.png', 'Im_BenStiller.png', 'Im_ElijahWood.png', 'Im_KeanuReeves.png', 'Im_RyanReynolds.png', 'Im_DanielCraig.png', 'Im_LeonardoDiCaprio.png'],same,1,0.40833370000018476,30,78.57142857142857,
PHAN0707,train,neg,120,neg120_id4_im7.bmp_neg120_id4_im20.bmp,['Im_BradPitt.png', 'Im_RobertPattinson.png', 'Im_MattDamon.png', 'Im_RobertDowneyJr.png', 'Im_BenStiller.png', 'Im_ElijahWood.png', 'Im_KeanuReeves.png', 'Im_RyanReynolds.png', 'Im_DanielCraig.png', 'Im_LeonardoDiCaprio.png'],same,1,0.5167452999999114,31,78.57142857142857,
PHAN0707,train,neg,120,neg120_id11_im1.bmp_neg120_id11_im10.bmp,['Im_BradPitt.png', 'Im_RobertPattinson.png', 'Im_MattDamon.png', 'Im_RobertDowneyJr.png', 'Im_BenStiller.png', 'Im_ElijahWood.png', 'Im_KeanuReeves.png', 'Im_RyanReynolds.png', 'Im_DanielCraig.png', 'Im_LeonardoDiCaprio.png'],diff,0,0.6919369000002007,31,78.57142857142857,
PHAN0707,train,neg,60,neg60_id19_im27.bmp_neg60_id13_im15.bmp,['Im_BradPitt.png', 'Im_RobertPattinson.png', 'Im_MattDamon.png', 'Im_RobertDowneyJr.png', 'Im_BenStiller.png', 'Im_ElijahWood.png', 'Im_KeanuReeves.png', 'Im_RyanReynolds.png', 'Im_DanielCraig.png', 'Im_LeonardoDiCaprio.png'],diff,1,0.5587012999999388,32,78.57142857142857,
PHAN0707,train,neg,0,neg0_id14_im18.bmp_neg0_id14_im16.bmp,['Im_BradPitt.png', 'Im_RobertPattinson.png', 'Im_MattDamon.png', 'Im_RobertDowneyJr.png', 'Im_BenStiller.png', 'Im_ElijahWood.png', 'Im_KeanuReeves.png', 'Im_RyanReynolds.png', 'Im_DanielCraig.png', 'Im_LeonardoDiCaprio.png'],same,1,0.41662059999998746,33,78.57142857142857,
PHAN0707,train,neg,60,neg60_id11_im2.bmp_neg60_id21_im22.bmp,['Im_BradPitt.png', 'Im_RobertPattinson.png', 'Im_MattDamon.png', 'Im_RobertDowneyJr.png', 'Im_BenStiller.png', 'Im_ElijahWood.png', 'Im_KeanuReeves.png', 'Im_RyanReynolds.png', 'Im_DanielCraig.png', 'Im_LeonardoDiCaprio.png'],diff,1,1.1747890999999981,34,78.57142857142857,
PHAN0707,train,neg,150,neg150_id4_im20.bmp_neg150_id4_im15.bmp,['Im_BradPitt.png', 'Im_RobertPattinson.png', 'Im_MattDamon.png', 'Im_RobertDowneyJr.png', 'Im_BenStiller.png', 'Im_ElijahWood.png', 'Im_KeanuReeves.png', 'Im_RyanReynolds.png', 'Im_DanielCraig.png', 'Im_LeonardoDiCaprio.png'],same,1,0.49170009999988906,35,78.57142857142857,
PHAN0707,train,neg,fs,negfs_id13_im10.bmp_negfs_id13_im15.bmp,['Im_BradPitt.png', 'Im_RobertPattinson.png', 'Im_MattDamon.png', 'Im_RobertDowneyJr.png', 'Im_BenStiller.png', 'Im_ElijahWood.png', 'Im_KeanuReeves.png', 'Im_RyanReynolds.png', 'Im_DanielCraig.png', 'Im_LeonardoDiCaprio.png'],same,1,0.41678520000004937,36,78.57142857142857,
PHAN0707,train,neg,30,neg30_id14_im24.bmp_neg30_id6_im12.bmp,['Im_BradPitt.png', 'Im_RobertPattinson.png', 'Im_MattDamon.png', 'Im_RobertDowneyJr.png', 'Im_BenStiller.png', 'Im_ElijahWood.png', 'Im_KeanuReeves.png', 'Im_RyanReynolds.png', 'Im_DanielCraig.png', 'Im_LeonardoDiCaprio.png'],diff,1,0.5753941000002669,37,78.57142857142857,
PHAN0707,0,inv,60,pos60_id3_im17.bmp_pos60_id3_im6.bmp,['Im_BradPitt.png', 'Im_RobertPattinson.png', 'Im_MattDamon.png', 'Im_RobertDowneyJr.png', 'Im_BenStiller.png', 'Im_ElijahWood.png', 'Im_KeanuReeves.png', 'Im_RyanReynolds.png', 'Im_DanielCraig.png', 'Im_LeonardoDiCaprio.png'],same,1,0.4582636000000093,1,0,
PHAN0707,0,inv,0,pos0_id19_im8.bmp_pos0_id14_im24.bmp,['Im_BradPitt.png', 'Im_RobertPattinson.png', 'Im_MattDamon.png', 'Im_RobertDowneyJr.png', 'Im_BenStiller.png', 'Im_ElijahWood.png', 'Im_KeanuReeves.png', 'Im_RyanReynolds.png', 'Im_DanielCraig.png', 'Im_LeonardoDiCaprio.png'],same,0,0.45859780000000683,1,0,
PHAN0707,0,inv,120,pos120_id19_im4.bmp_pos120_id19_im27.bmp,['Im_BradPitt.png', 'Im_RobertPattinson.png', 'Im_MattDamon.png', 'Im_RobertDowneyJr.png', 'Im_BenStiller.png', 'Im_ElijahWood.png', 'Im_KeanuReeves.png', 'Im_RyanReynolds.png', 'Im_DanielCraig.png', 'Im_LeonardoDiCaprio.png'],same,1,1.6915578999996796,2,0,
PHAN0707,0,inv,90,pos90_id4_im7.bmp_pos90_id4_im20.bmp,['Im_BradPitt.png', 'Im_RobertPattinson.png', 'Im_MattDamon.png', 'Im_RobertDowneyJr.png', 'Im_BenStiller.png', 'Im_ElijahWood.png', 'Im_KeanuReeves.png', 'Im_RyanReynolds.png', 'Im_DanielCraig.png', 'Im_LeonardoDiCaprio.png'],diff,0,0.6418457999998282,2,0,
PHAN0707,0,inv,fs,posfs_id13_im10.bmp_posfs_id19_im8.bmp,['Im_BradPitt.png', 'Im_RobertPattinson.png', 'Im_MattDamon.png', 'Im_RobertDowneyJr.png', 'Im_BenStiller.png', 'Im_ElijahWood.png', 'Im_KeanuReeves.png', 'Im_RyanReynolds.png', 'Im_DanielCraig.png', 'Im_LeonardoDiCaprio.png'],diff,1,0.4001923999999235,3,0,
PHAN0707,0,inv,30,pos30_id18_im18.bmp_pos30_id18_im19.bmp,['Im_BradPitt.png', 'Im_RobertPattinson.png', 'Im_MattDamon.png', 'Im_RobertDowneyJr.png', 'Im_BenStiller.png', 'Im_ElijahWood.png', 'Im_KeanuReeves.png', 'Im_RyanReynolds.png', 'Im_DanielCraig.png', 'Im_LeonardoDiCaprio.png'],diff,0,0.7000628999999208,3,0,
PHAN0707,0,inv,120,pos120_id3_im8.bmp_pos120_id18_im19.bmp,['Im_BradPitt.png', 'Im_RobertPattinson.png', 'Im_MattDamon.png', 'Im_RobertDowneyJr.png', 'Im_BenStiller.png', 'Im_ElijahWood.png', 'Im_KeanuReeves.png', 'Im_RyanReynolds.png', 'Im_DanielCraig.png', 'Im_LeonardoDiCaprio.png'],diff,1,0.9166986000000179,4,0,
PHAN0707,0,inv,fs,posfs_id2_im16.bmp_posfs_id13_im29.bmp,['Im_BradPitt.png', 'Im_RobertPattinson.png', 'Im_MattDamon.png', 'Im_RobertDowneyJr.png', 'Im_BenStiller.png', 'Im_ElijahWood.png', 'Im_KeanuReeves.png', 'Im_RyanReynolds.png', 'Im_DanielCraig.png', 'Im_LeonardoDiCaprio.png'],diff,1,0.40839260000029753,5,0,
PHAN0707,0,inv,0,pos0_id6_im18.bmp_pos0_id6_im19.bmp,['Im_BradPitt.png', 'Im_RobertPattinson.png', 'Im_MattDamon.png', 'Im_RobertDowneyJr.png', 'Im_BenStiller.png', 'Im_ElijahWood.png', 'Im_KeanuReeves.png', 'Im_RyanReynolds.png', 'Im_DanielCraig.png', 'Im_LeonardoDiCaprio.png'],same,1,0.40839679999999134,6,0,
PHAN0707,0,inv,60,pos60_id18_im11.bmp_pos60_id18_im19.bmp,['Im_BradPitt.png', 'Im_RobertPattinson.png', 'Im_MattDamon.png', 'Im_RobertDowneyJr.png', 'Im_BenStiller.png', 'Im_ElijahWood.png', 'Im_KeanuReeves.png', 'Im_RyanReynolds.png', 'Im_DanielCraig.png', 'Im_LeonardoDiCaprio.png'],same,1,0.4000670000000355,7,0,
PHAN0707,0,inv,150,pos150_id21_im22.bmp_pos150_id11_im2.bmp,['Im_BradPitt.png', 'Im_RobertPattinson.png', 'Im_MattDamon.png', 'Im_RobertDowneyJr.png', 'Im_BenStiller.png', 'Im_ElijahWood.png', 'Im_KeanuReeves.png', 'Im_RyanReynolds.png', 'Im_DanielCraig.png', 'Im_LeonardoDiCaprio.png'],same,0,0.45824369999991177,7,0,
PHAN0707,0,inv,30,pos30_id13_im10.bmp_pos30_id13_im29.bmp,['Im_BradPitt.png', 'Im_RobertPattinson.png', 'Im_MattDamon.png', 'Im_RobertDowneyJr.png', 'Im_BenStiller.png', 'Im_ElijahWood.png', 'Im_KeanuReeves.png', 'Im_RyanReynolds.png', 'Im_DanielCraig.png', 'Im_LeonardoDiCaprio.png'],same,1,1.4084007999999812,8,0,
PHAN0707,0,inv,90,pos90_id13_im29.bmp_pos90_id11_im2.bmp,['Im_BradPitt.png', 'Im_RobertPattinson.png', 'Im_MattDamon.png', 'Im_RobertDowneyJr.png', 'Im_BenStiller.png', 'Im_ElijahWood.png', 'Im_KeanuReeves.png', 'Im_RyanReynolds.png', 'Im_DanielCraig.png', 'Im_LeonardoDiCaprio.png'],diff,1,0.7752874999996493,9,0,
PHAN0707,0,inv,150,pos150_id4_im15.bmp_pos150_id3_im17.bmp,['Im_BradPitt.png', 'Im_RobertPattinson.png', 'Im_MattDamon.png', 'Im_RobertDowneyJr.png', 'Im_BenStiller.png', 'Im_ElijahWood.png', 'Im_KeanuReeves.png', 'Im_RyanReynolds.png', 'Im_DanielCraig.png', 'Im_LeonardoDiCaprio.png'],diff,1,0.6250176999997166,10,0,
PHAN0707,1,pos,30,pos30_id6_im12.bmp_pos30_id6_im19.bmp,['Im_BradPitt.png', 'Im_RobertPattinson.png', 'Im_MattDamon.png', 'Im_RobertDowneyJr.png', 'Im_BenStiller.png', 'Im_ElijahWood.png', 'Im_KeanuReeves.png', 'Im_RyanReynolds.png', 'Im_DanielCraig.png', 'Im_LeonardoDiCaprio.png'],same,1,0.41647359999979017,11,0,
PHAN0707,1,pos,30,pos30_id19_im8.bmp_pos30_id19_im27.bmp,['Im_BradPitt.png', 'Im_RobertPattinson.png', 'Im_MattDamon.png', 'Im_RobertDowneyJr.png', 'Im_BenStiller.png', 'Im_ElijahWood.png', 'Im_KeanuReeves.png', 'Im_RyanReynolds.png', 'Im_DanielCraig.png', 'Im_LeonardoDiCaprio.png'],same,1,0.6087475000003906,12,0,
PHAN0707,1,pos,150,pos150_id21_im17.bmp_pos150_id4_im20.bmp,['Im_BradPitt.png', 'Im_RobertPattinson.png', 'Im_MattDamon.png', 'Im_RobertDowneyJr.png', 'Im_BenStiller.png', 'Im_ElijahWood.png', 'Im_KeanuReeves.png', 'Im_RyanReynolds.png', 'Im_DanielCraig.png', 'Im_LeonardoDiCaprio.png'],diff,1,0.4165619999998853,13,0,
PHAN0707,1,pos,90,pos90_id2_im16.bmp_pos90_id13_im29.bmp,['Im_BradPitt.png', 'Im_RobertPattinson.png', 'Im_MattDamon.png', 'Im_RobertDowneyJr.png', 'Im_BenStiller.png', 'Im_ElijahWood.png', 'Im_KeanuReeves.png', 'Im_RyanReynolds.png', 'Im_DanielCraig.png', 'Im_LeonardoDiCaprio.png'],diff,1,0.4166821000003438,14,0,
PHAN0707,1,pos,90,pos90_id6_im12.bmp_pos90_id14_im24.bmp,['Im_BradPitt.png', 'Im_RobertPattinson.png', 'Im_MattDamon.png', 'Im_RobertDowneyJr.png', 'Im_BenStiller.png', 'Im_ElijahWood.png', 'Im_KeanuReeves.png', 'Im_RyanReynolds.png', 'Im_DanielCraig.png', 'Im_LeonardoDiCaprio.png'],diff,1,0.41672639999978855,15,0,
PHAN0707,1,pos,60,pos60_id14_im18.bmp_pos60_id14_im24.bmp,['Im_BradPitt.png', 'Im_RobertPattinson.png', 'Im_MattDamon.png', 'Im_RobertDowneyJr.png', 'Im_BenStiller.png', 'Im_ElijahWood.png', 'Im_KeanuReeves.png', 'Im_RyanReynolds.png', 'Im_DanielCraig.png', 'Im_LeonardoDiCaprio.png'],same,1,0.40842760000032285,16,0,
PHAN0707,1,pos,0,pos0_id14_im16.bmp_pos0_id14_im18.bmp,['Im_BradPitt.png', 'Im_RobertPattinson.png', 'Im_MattDamon.png', 'Im_RobertDowneyJr.png', 'Im_BenStiller.png', 'Im_ElijahWood.png', 'Im_KeanuReeves.png', 'Im_RyanReynolds.png', 'Im_DanielCraig.png', 'Im_LeonardoDiCaprio.png'],diff,0,0.40849100000014005,16,0,
PHAN0707,1,pos,60,pos60_id6_im12.bmp_pos60_id6_im19.bmp,['Im_BradPitt.png', 'Im_RobertPattinson.png', 'Im_MattDamon.png', 'Im_RobertDowneyJr.png', 'Im_BenStiller.png', 'Im_ElijahWood.png', 'Im_KeanuReeves.png', 'Im_RyanReynolds.png', 'Im_DanielCraig.png', 'Im_LeonardoDiCaprio.png'],same,1,0.42493340000009994,17,0,
PHAN0707,1,pos,fs,posfs_id13_im15.bmp_posfs_id18_im11.bmp,['Im_BradPitt.png', 'Im_RobertPattinson.png', 'Im_MattDamon.png', 'Im_RobertDowneyJr.png', 'Im_BenStiller.png', 'Im_ElijahWood.png', 'Im_KeanuReeves.png', 'Im_RyanReynolds.png', 'Im_DanielCraig.png', 'Im_LeonardoDiCaprio.png'],diff,1,0.4252454999996189,18,0,
PHAN0707,1,pos,0,pos0_id18_im19.bmp_pos0_id3_im8.bmp,['Im_BradPitt.png', 'Im_RobertPattinson.png', 'Im_MattDamon.png', 'Im_RobertDowneyJr.png', 'Im_BenStiller.png', 'Im_ElijahWood.png', 'Im_KeanuReeves.png', 'Im_RyanReynolds.png', 'Im_DanielCraig.png', 'Im_LeonardoDiCaprio.png'],diff,1,0.6166972999999416,19,0,
PHAN0707,1,pos,150,pos150_id3_im8.bmp_pos150_id3_im17.bmp,['Im_BradPitt.png', 'Im_RobertPattinson.png', 'Im_MattDamon.png', 'Im_RobertDowneyJr.png', 'Im_BenStiller.png', 'Im_ElijahWood.png', 'Im_KeanuReeves.png', 'Im_RyanReynolds.png', 'Im_DanielCraig.png', 'Im_LeonardoDiCaprio.png'],same,1,0.43349450000005163,20,0,
PHAN0707,1,pos,fs,posfs_id11_im1.bmp_posfs_id11_im10.bmp,['Im_BradPitt.png', 'Im_RobertPattinson.png', 'Im_MattDamon.png', 'Im_RobertDowneyJr.png', 'Im_BenStiller.png', 'Im_ElijahWood.png', 'Im_KeanuReeves.png', 'Im_RyanReynolds.png', 'Im_DanielCraig.png', 'Im_LeonardoDiCaprio.png'],same,1,0.42504250000001775,21,0,
PHAN0707,1,pos,120,pos120_id13_im29.bmp_pos120_id13_im15.bmp,['Im_BradPitt.png', 'Im_RobertPattinson.png', 'Im_MattDamon.png', 'Im_RobertDowneyJr.png', 'Im_BenStiller.png', 'Im_ElijahWood.png', 'Im_KeanuReeves.png', 'Im_RyanReynolds.png', 'Im_DanielCraig.png', 'Im_LeonardoDiCaprio.png'],same,1,0.41685659999984637,22,0,
PHAN0707,1,pos,120,pos120_id11_im10.bmp_pos120_id18_im18.bmp,['Im_BradPitt.png', 'Im_RobertPattinson.png', 'Im_MattDamon.png', 'Im_RobertDowneyJr.png', 'Im_BenStiller.png', 'Im_ElijahWood.png', 'Im_KeanuReeves.png', 'Im_RyanReynolds.png', 'Im_DanielCraig.png', 'Im_LeonardoDiCaprio.png'],diff,1,0.4250908000003619,23,0,
PHAN0707,2,neg,120,neg120_id2_im3.bmp_neg120_id2_im2.bmp,['Im_BradPitt.png', 'Im_RobertPattinson.png', 'Im_MattDamon.png', 'Im_RobertDowneyJr.png', 'Im_BenStiller.png', 'Im_ElijahWood.png', 'Im_KeanuReeves.png', 'Im_RyanReynolds.png', 'Im_DanielCraig.png', 'Im_LeonardoDiCaprio.png'],diff,0,0.43338219999986904,23,0,
PHAN0707,2,neg,120,neg120_id21_im16.bmp_neg120_id21_im22.bmp,['Im_BradPitt.png', 'Im_RobertPattinson.png', 'Im_MattDamon.png', 'Im_RobertDowneyJr.png', 'Im_BenStiller.png', 'Im_ElijahWood.png', 'Im_KeanuReeves.png', 'Im_RyanReynolds.png', 'Im_DanielCraig.png', 'Im_LeonardoDiCaprio.png'],same,1,0.45029529999965234,24,0,
PHAN0707,2,neg,90,neg90_id11_im2.bmp_neg90_id21_im22.bmp,['Im_BradPitt.png', 'Im_RobertPattinson.png', 'Im_MattDamon.png', 'Im_RobertDowneyJr.png', 'Im_BenStiller.png', 'Im_ElijahWood.png', 'Im_KeanuReeves.png', 'Im_RyanReynolds.png', 'Im_DanielCraig.png', 'Im_LeonardoDiCaprio.png'],same,0,0.5417696999998043,24,0,
PHAN0707,2,neg,150,neg150_id6_im18.bmp_neg150_id6_im19.bmp,['Im_BradPitt.png', 'Im_RobertPattinson.png', 'Im_MattDamon.png', 'Im_RobertDowneyJr.png', 'Im_BenStiller.png', 'Im_ElijahWood.png', 'Im_KeanuReeves.png', 'Im_RyanReynolds.png', 'Im_DanielCraig.png', 'Im_LeonardoDiCaprio.png'],same,1,0.4250539999998182,25,0,
PHAN0707,2,neg,0,neg0_id2_im3.bmp_neg0_id6_im19.bmp,['Im_BradPitt.png', 'Im_RobertPattinson.png', 'Im_MattDamon.png', 'Im_RobertDowneyJr.png', 'Im_BenStiller.png', 'Im_ElijahWood.png', 'Im_KeanuReeves.png', 'Im_RyanReynolds.png', 'Im_DanielCraig.png', 'Im_LeonardoDiCaprio.png'],diff,1,0.6336868999997023,26,0,
PHAN0707,2,neg,fs,negfs_id19_im8.bmp_negfs_id13_im10.bmp,['Im_BradPitt.png', 'Im_RobertPattinson.png', 'Im_MattDamon.png', 'Im_RobertDowneyJr.png', 'Im_BenStiller.png', 'Im_ElijahWood.png', 'Im_KeanuReeves.png', 'Im_RyanReynolds.png', 'Im_DanielCraig.png', 'Im_LeonardoDiCaprio.png'],same,0,0.4918892999999116,26,0,
PHAN0707,2,neg,30,neg30_id21_im17.bmp_neg30_id21_im16.bmp,['Im_BradPitt.png', 'Im_RobertPattinson.png', 'Im_MattDamon.png', 'Im_RobertDowneyJr.png', 'Im_BenStiller.png', 'Im_ElijahWood.png', 'Im_KeanuReeves.png', 'Im_RyanReynolds.png', 'Im_DanielCraig.png', 'Im_LeonardoDiCaprio.png'],same,1,0.4252444999997351,27,0,
PHAN0707,2,neg,0,neg0_id4_im7.bmp_neg0_id14_im16.bmp,['Im_BradPitt.png', 'Im_RobertPattinson.png', 'Im_MattDamon.png', 'Im_RobertDowneyJr.png', 'Im_BenStiller.png', 'Im_ElijahWood.png', 'Im_KeanuReeves.png', 'Im_RyanReynolds.png', 'Im_DanielCraig.png', 'Im_LeonardoDiCaprio.png'],diff,1,0.42508289999977933,28,0,
PHAN0707,2,neg,150,neg150_id6_im12.bmp_neg150_id14_im24.bmp,['Im_BradPitt.png', 'Im_RobertPattinson.png', 'Im_MattDamon.png', 'Im_RobertDowneyJr.png', 'Im_BenStiller.png', 'Im_ElijahWood.png', 'Im_KeanuReeves.png', 'Im_RyanReynolds.png', 'Im_DanielCraig.png', 'Im_LeonardoDiCaprio.png'],diff,1,0.4249837000002117,29,0,
PHAN0707,2,neg,fs,negfs_id6_im12.bmp_negfs_id6_im19.bmp,['Im_BradPitt.png', 'Im_RobertPattinson.png', 'Im_MattDamon.png', 'Im_RobertDowneyJr.png', 'Im_BenStiller.png', 'Im_ElijahWood.png', 'Im_KeanuReeves.png', 'Im_RyanReynolds.png', 'Im_DanielCraig.png', 'Im_LeonardoDiCaprio.png'],same,1,0.4083032000003186,30,0,
PHAN0707,2,neg,60,neg60_id19_im27.bmp_neg60_id19_im8.bmp,['Im_BradPitt.png', 'Im_RobertPattinson.png', 'Im_MattDamon.png', 'Im_RobertDowneyJr.png', 'Im_BenStiller.png', 'Im_ElijahWood.png', 'Im_KeanuReeves.png', 'Im_RyanReynolds.png', 'Im_DanielCraig.png', 'Im_LeonardoDiCaprio.png'],same,1,1.0169189000002916,31,0,
PHAN0707,2,neg,60,neg60_id6_im12.bmp_neg60_id6_im18.bmp,['Im_BradPitt.png', 'Im_RobertPattinson.png', 'Im_MattDamon.png', 'Im_RobertDowneyJr.png', 'Im_BenStiller.png', 'Im_ElijahWood.png', 'Im_KeanuReeves.png', 'Im_RyanReynolds.png', 'Im_DanielCraig.png', 'Im_LeonardoDiCaprio.png'],same,1,0.4167237000001478,32,0,
PHAN0707,2,neg,30,neg30_id14_im16.bmp_neg30_id14_im18.bmp,['Im_BradPitt.png', 'Im_RobertPattinson.png', 'Im_MattDamon.png', 'Im_RobertDowneyJr.png', 'Im_BenStiller.png', 'Im_ElijahWood.png', 'Im_KeanuReeves.png', 'Im_RyanReynolds.png', 'Im_DanielCraig.png', 'Im_LeonardoDiCaprio.png'],diff,0,0.80864610000026,32,0,
PHAN0707,2,neg,90,neg90_id11_im1.bmp_neg90_id2_im16.bmp,['Im_BradPitt.png', 'Im_RobertPattinson.png', 'Im_MattDamon.png', 'Im_RobertDowneyJr.png', 'Im_BenStiller.png', 'Im_ElijahWood.png', 'Im_KeanuReeves.png', 'Im_RyanReynolds.png', 'Im_DanielCraig.png', 'Im_LeonardoDiCaprio.png'],same,0,1.3083642000001419,32,0,
PHAN0707,3,inv,120,pos120_id18_im18.bmp_pos120_id18_im19.bmp,['Im_BradPitt.png', 'Im_RobertPattinson.png', 'Im_MattDamon.png', 'Im_RobertDowneyJr.png', 'Im_BenStiller.png', 'Im_ElijahWood.png', 'Im_KeanuReeves.png', 'Im_RyanReynolds.png', 'Im_DanielCraig.png', 'Im_LeonardoDiCaprio.png'],diff,0,0.7082537000001139,0,76.19047619047619,
PHAN0707,3,inv,60,pos60_id2_im2.bmp_pos60_id2_im16.bmp,['Im_BradPitt.png', 'Im_RobertPattinson.png', 'Im_MattDamon.png', 'Im_RobertDowneyJr.png', 'Im_BenStiller.png', 'Im_ElijahWood.png', 'Im_KeanuReeves.png', 'Im_RyanReynolds.png', 'Im_DanielCraig.png', 'Im_LeonardoDiCaprio.png'],same,1,0.4250577000002522,1,76.19047619047619,
PHAN0707,3,inv,120,pos120_id19_im8.bmp_pos120_id19_im27.bmp,['Im_BradPitt.png', 'Im_RobertPattinson.png', 'Im_MattDamon.png', 'Im_RobertDowneyJr.png', 'Im_BenStiller.png', 'Im_ElijahWood.png', 'Im_KeanuReeves.png', 'Im_RyanReynolds.png', 'Im_DanielCraig.png', 'Im_LeonardoDiCaprio.png'],same,1,0.4167265999999472,2,76.19047619047619,
PHAN0707,3,inv,90,pos90_id4_im15.bmp_pos90_id3_im17.bmp,['Im_BradPitt.png', 'Im_RobertPattinson.png', 'Im_MattDamon.png', 'Im_RobertDowneyJr.png', 'Im_BenStiller.png', 'Im_ElijahWood.png', 'Im_KeanuReeves.png', 'Im_RyanReynolds.png', 'Im_DanielCraig.png', 'Im_LeonardoDiCaprio.png'],diff,1,0.4251043999997819,3,76.19047619047619,
PHAN0707,3,inv,0,pos0_id21_im22.bmp_pos0_id11_im2.bmp,['Im_BradPitt.png', 'Im_RobertPattinson.png', 'Im_MattDamon.png', 'Im_RobertDowneyJr.png', 'Im_BenStiller.png', 'Im_ElijahWood.png', 'Im_KeanuReeves.png', 'Im_RyanReynolds.png', 'Im_DanielCraig.png', 'Im_LeonardoDiCaprio.png'],same,0,0.5999314000000595,3,76.19047619047619,
PHAN0707,3,inv,90,pos90_id6_im18.bmp_pos90_id21_im16.bmp,['Im_BradPitt.png', 'Im_RobertPattinson.png', 'Im_MattDamon.png', 'Im_RobertDowneyJr.png', 'Im_BenStiller.png', 'Im_ElijahWood.png', 'Im_KeanuReeves.png', 'Im_RyanReynolds.png', 'Im_DanielCraig.png', 'Im_LeonardoDiCaprio.png'],diff,1,0.40842830000019603,4,76.19047619047619,
PHAN0707,3,inv,fs,posfs_id2_im3.bmp_posfs_id6_im19.bmp,['Im_BradPitt.png', 'Im_RobertPattinson.png', 'Im_MattDamon.png', 'Im_RobertDowneyJr.png', 'Im_BenStiller.png', 'Im_ElijahWood.png', 'Im_KeanuReeves.png', 'Im_RyanReynolds.png', 'Im_DanielCraig.png', 'Im_LeonardoDiCaprio.png'],diff,1,0.41684280000026774,5,76.19047619047619,
PHAN0707,3,inv,150,pos150_id13_im10.bmp_pos150_id14_im18.bmp,['Im_BradPitt.png', 'Im_RobertPattinson.png', 'Im_MattDamon.png', 'Im_RobertDowneyJr.png', 'Im_BenStiller.png', 'Im_ElijahWood.png', 'Im_KeanuReeves.png', 'Im_RyanReynolds.png', 'Im_DanielCraig.png', 'Im_LeonardoDiCaprio.png'],same,0,0.5502774000001409,5,76.19047619047619,
PHAN0707,3,inv,fs,posfs_id6_im18.bmp_posfs_id19_im4.bmp,['Im_BradPitt.png', 'Im_RobertPattinson.png', 'Im_MattDamon.png', 'Im_RobertDowneyJr.png', 'Im_BenStiller.png', 'Im_ElijahWood.png', 'Im_KeanuReeves.png', 'Im_RyanReynolds.png', 'Im_DanielCraig.png', 'Im_LeonardoDiCaprio.png'],diff,1,0.6082600999998249,6,76.19047619047619,
PHAN0707,3,inv,30,pos30_id21_im16.bmp_pos30_id21_im22.bmp,['Im_BradPitt.png', 'Im_RobertPattinson.png', 'Im_MattDamon.png', 'Im_RobertDowneyJr.png', 'Im_BenStiller.png', 'Im_ElijahWood.png', 'Im_KeanuReeves.png', 'Im_RyanReynolds.png', 'Im_DanielCraig.png', 'Im_LeonardoDiCaprio.png'],diff,0,1.4999531999997089,6,76.19047619047619,
PHAN0707,3,inv,150,pos150_id18_im18.bmp_pos150_id18_im19.bmp,['Im_BradPitt.png', 'Im_RobertPattinson.png', 'Im_MattDamon.png', 'Im_RobertDowneyJr.png', 'Im_BenStiller.png', 'Im_ElijahWood.png', 'Im_KeanuReeves.png', 'Im_RyanReynolds.png', 'Im_DanielCraig.png', 'Im_LeonardoDiCaprio.png'],same,1,0.575072800000271,7,76.19047619047619,
PHAN0707,3,inv,0,pos0_id19_im4.bmp_pos0_id6_im19.bmp,['Im_BradPitt.png', 'Im_RobertPattinson.png', 'Im_MattDamon.png', 'Im_RobertDowneyJr.png', 'Im_BenStiller.png', 'Im_ElijahWood.png', 'Im_KeanuReeves.png', 'Im_RyanReynolds.png', 'Im_DanielCraig.png', 'Im_LeonardoDiCaprio.png'],diff,1,0.5833246000001964,8,76.19047619047619,
PHAN0707,3,inv,30,pos30_id2_im3.bmp_pos30_id2_im2.bmp,['Im_BradPitt.png', 'Im_RobertPattinson.png', 'Im_MattDamon.png', 'Im_RobertDowneyJr.png', 'Im_BenStiller.png', 'Im_ElijahWood.png', 'Im_KeanuReeves.png', 'Im_RyanReynolds.png', 'Im_DanielCraig.png', 'Im_LeonardoDiCaprio.png'],same,1,0.4504059999999299,9,76.19047619047619,
PHAN0707,3,inv,60,pos60_id14_im16.bmp_pos60_id21_im16.bmp,['Im_BradPitt.png', 'Im_RobertPattinson.png', 'Im_MattDamon.png', 'Im_RobertDowneyJr.png', 'Im_BenStiller.png', 'Im_ElijahWood.png', 'Im_KeanuReeves.png', 'Im_RyanReynolds.png', 'Im_DanielCraig.png', 'Im_LeonardoDiCaprio.png'],diff,1,0.8167206999996779,10,76.19047619047619,
PHAN0707,4,neg,120,neg120_id11_im1.bmp_neg120_id2_im16.bmp,['Im_BradPitt.png', 'Im_RobertPattinson.png', 'Im_MattDamon.png', 'Im_RobertDowneyJr.png', 'Im_BenStiller.png', 'Im_ElijahWood.png', 'Im_KeanuReeves.png', 'Im_RyanReynolds.png', 'Im_DanielCraig.png', 'Im_LeonardoDiCaprio.png'],diff,1,0.8083905999997114,11,76.19047619047619,
PHAN0707,4,neg,fs,negfs_id18_im18.bmp_negfs_id18_im11.bmp,['Im_BradPitt.png', 'Im_RobertPattinson.png', 'Im_MattDamon.png', 'Im_RobertDowneyJr.png', 'Im_BenStiller.png', 'Im_ElijahWood.png', 'Im_KeanuReeves.png', 'Im_RyanReynolds.png', 'Im_DanielCraig.png', 'Im_LeonardoDiCaprio.png'],same,1,0.4250649999999041,12,76.19047619047619,
PHAN0707,4,neg,0,neg0_id11_im2.bmp_neg0_id13_im29.bmp,['Im_BradPitt.png', 'Im_RobertPattinson.png', 'Im_MattDamon.png', 'Im_RobertDowneyJr.png', 'Im_BenStiller.png', 'Im_ElijahWood.png', 'Im_KeanuReeves.png', 'Im_RyanReynolds.png', 'Im_DanielCraig.png', 'Im_LeonardoDiCaprio.png'],diff,1,0.4250397000000703,13,76.19047619047619,
PHAN0707,4,neg,60,neg60_id13_im15.bmp_neg60_id18_im11.bmp,['Im_BradPitt.png', 'Im_RobertPattinson.png', 'Im_MattDamon.png', 'Im_RobertDowneyJr.png', 'Im_BenStiller.png', 'Im_ElijahWood.png', 'Im_KeanuReeves.png', 'Im_RyanReynolds.png', 'Im_DanielCraig.png', 'Im_LeonardoDiCaprio.png'],diff,1,0.5416839999998047,14,76.19047619047619,
PHAN0707,4,neg,0,neg0_id4_im7.bmp_neg0_id21_im17.bmp,['Im_BradPitt.png', 'Im_RobertPattinson.png', 'Im_MattDamon.png', 'Im_RobertDowneyJr.png', 'Im_BenStiller.png', 'Im_ElijahWood.png', 'Im_KeanuReeves.png', 'Im_RyanReynolds.png', 'Im_DanielCraig.png', 'Im_LeonardoDiCaprio.png'],diff,1,0.4167155999998613,15,76.19047619047619,
PHAN0707,4,neg,60,neg60_id14_im18.bmp_neg60_id14_im16.bmp,['Im_BradPitt.png', 'Im_RobertPattinson.png', 'Im_MattDamon.png', 'Im_RobertDowneyJr.png', 'Im_BenStiller.png', 'Im_ElijahWood.png', 'Im_KeanuReeves.png', 'Im_RyanReynolds.png', 'Im_DanielCraig.png', 'Im_LeonardoDiCaprio.png'],diff,0,0.5416745000002265,15,76.19047619047619,
PHAN0707,4,neg,90,neg90_id18_im11.bmp_neg90_id18_im19.bmp,['Im_BradPitt.png', 'Im_RobertPattinson.png', 'Im_MattDamon.png', 'Im_RobertDowneyJr.png', 'Im_BenStiller.png', 'Im_ElijahWood.png', 'Im_KeanuReeves.png', 'Im_RyanReynolds.png', 'Im_DanielCraig.png', 'Im_LeonardoDiCaprio.png'],same,1,0.4167379999998957,16,76.19047619047619,
PHAN0707,4,neg,90,neg90_id11_im10.bmp_neg90_id2_im2.bmp,['Im_BradPitt.png', 'Im_RobertPattinson.png', 'Im_MattDamon.png', 'Im_RobertDowneyJr.png', 'Im_BenStiller.png', 'Im_ElijahWood.png', 'Im_KeanuReeves.png', 'Im_RyanReynolds.png', 'Im_DanielCraig.png', 'Im_LeonardoDiCaprio.png'],diff,1,0.41657409999970696,17,76.19047619047619,
PHAN0707,4,neg,30,neg30_id19_im4.bmp_neg30_id6_im19.bmp,['Im_BradPitt.png', 'Im_RobertPattinson.png', 'Im_MattDamon.png', 'Im_RobertDowneyJr.png', 'Im_BenStiller.png', 'Im_ElijahWood.png', 'Im_KeanuReeves.png', 'Im_RyanReynolds.png', 'Im_DanielCraig.png', 'Im_LeonardoDiCaprio.png'],diff,1,1.000319500000387,18,76.19047619047619,
PHAN0707,4,neg,30,neg30_id11_im2.bmp_neg30_id13_im29.bmp,['Im_BradPitt.png', 'Im_RobertPattinson.png', 'Im_MattDamon.png', 'Im_RobertDowneyJr.png', 'Im_BenStiller.png', 'Im_ElijahWood.png', 'Im_KeanuReeves.png', 'Im_RyanReynolds.png', 'Im_DanielCraig.png', 'Im_LeonardoDiCaprio.png'],diff,1,0.9581532999995943,19,76.19047619047619,
PHAN0707,4,neg,150,neg150_id4_im20.bmp_neg150_id21_im17.bmp,['Im_BradPitt.png', 'Im_RobertPattinson.png', 'Im_MattDamon.png', 'Im_RobertDowneyJr.png', 'Im_BenStiller.png', 'Im_ElijahWood.png', 'Im_KeanuReeves.png', 'Im_RyanReynolds.png', 'Im_DanielCraig.png', 'Im_LeonardoDiCaprio.png'],same,0,1.4838471999996727,19,76.19047619047619,
PHAN0707,4,neg,120,neg120_id3_im8.bmp_neg120_id3_im17.bmp,['Im_BradPitt.png', 'Im_RobertPattinson.png', 'Im_MattDamon.png', 'Im_RobertDowneyJr.png', 'Im_BenStiller.png', 'Im_ElijahWood.png', 'Im_KeanuReeves.png', 'Im_RyanReynolds.png', 'Im_DanielCraig.png', 'Im_LeonardoDiCaprio.png'],same,1,0.48335290000022724,20,76.19047619047619,
PHAN0707,4,neg,fs,negfs_id21_im17.bmp_negfs_id21_im22.bmp,['Im_BradPitt.png', 'Im_RobertPattinson.png', 'Im_MattDamon.png', 'Im_RobertDowneyJr.png', 'Im_BenStiller.png', 'Im_ElijahWood.png', 'Im_KeanuReeves.png', 'Im_RyanReynolds.png', 'Im_DanielCraig.png', 'Im_LeonardoDiCaprio.png'],same,1,0.4167548000000352,21,76.19047619047619,
PHAN0707,4,neg,150,neg150_id13_im15.bmp_neg150_id18_im11.bmp,['Im_BradPitt.png', 'Im_RobertPattinson.png', 'Im_MattDamon.png', 'Im_RobertDowneyJr.png', 'Im_BenStiller.png', 'Im_ElijahWood.png', 'Im_KeanuReeves.png', 'Im_RyanReynolds.png', 'Im_DanielCraig.png', 'Im_LeonardoDiCaprio.png'],diff,1,0.4168186999995669,22,76.19047619047619,
PHAN0707,5,pos,0,pos0_id3_im8.bmp_pos0_id3_im17.bmp,['Im_BradPitt.png', 'Im_RobertPattinson.png', 'Im_MattDamon.png', 'Im_RobertDowneyJr.png', 'Im_BenStiller.png', 'Im_ElijahWood.png', 'Im_KeanuReeves.png', 'Im_RyanReynolds.png', 'Im_DanielCraig.png', 'Im_LeonardoDiCaprio.png'],same,1,0.4168242000000646,23,76.19047619047619,
PHAN0707,5,pos,30,pos30_id11_im2.bmp_pos30_id13_im29.bmp,['Im_BradPitt.png', 'Im_RobertPattinson.png', 'Im_MattDamon.png', 'Im_RobertDowneyJr.png', 'Im_BenStiller.png', 'Im_ElijahWood.png', 'Im_KeanuReeves.png', 'Im_RyanReynolds.png', 'Im_DanielCraig.png', 'Im_LeonardoDiCaprio.png'],diff,1,0.41675649999979214,24,76.19047619047619,
PHAN0707,5,pos,60,pos60_id11_im2.bmp_pos60_id13_im29.bmp,['Im_BradPitt.png', 'Im_RobertPattinson.png', 'Im_MattDamon.png', 'Im_RobertDowneyJr.png', 'Im_BenStiller.png', 'Im_ElijahWood.png', 'Im_KeanuReeves.png', 'Im_RyanReynolds.png', 'Im_DanielCraig.png', 'Im_LeonardoDiCaprio.png'],diff,1,0.46680430000014894,25,76.19047619047619,
PHAN0707,5,pos,30,pos30_id21_im22.bmp_pos30_id21_im16.bmp,['Im_BradPitt.png', 'Im_RobertPattinson.png', 'Im_MattDamon.png', 'Im_RobertDowneyJr.png', 'Im_BenStiller.png', 'Im_ElijahWood.png', 'Im_KeanuReeves.png', 'Im_RyanReynolds.png', 'Im_DanielCraig.png', 'Im_LeonardoDiCaprio.png'],same,1,0.4167294999997466,26,76.19047619047619,
PHAN0707,5,pos,60,pos60_id6_im18.bmp_pos60_id19_im4.bmp,['Im_BradPitt.png', 'Im_RobertPattinson.png', 'Im_MattDamon.png', 'Im_RobertDowneyJr.png', 'Im_BenStiller.png', 'Im_ElijahWood.png', 'Im_KeanuReeves.png', 'Im_RyanReynolds.png', 'Im_DanielCraig.png', 'Im_LeonardoDiCaprio.png'],diff,1,0.4167101999996703,27,76.19047619047619,
PHAN0707,5,pos,120,pos120_id2_im2.bmp_pos120_id2_im3.bmp,['Im_BradPitt.png', 'Im_RobertPattinson.png', 'Im_MattDamon.png', 'Im_RobertDowneyJr.png', 'Im_BenStiller.png', 'Im_ElijahWood.png', 'Im_KeanuReeves.png', 'Im_RyanReynolds.png', 'Im_DanielCraig.png', 'Im_LeonardoDiCaprio.png'],same,1,0.4167003999996268,28,76.19047619047619,
PHAN0707,5,pos,fs,posfs_id19_im8.bmp_posfs_id13_im10.bmp,['Im_BradPitt.png', 'Im_RobertPattinson.png', 'Im_MattDamon.png', 'Im_RobertDowneyJr.png', 'Im_BenStiller.png', 'Im_ElijahWood.png', 'Im_KeanuReeves.png', 'Im_RyanReynolds.png', 'Im_DanielCraig.png', 'Im_LeonardoDiCaprio.png'],diff,1,0.6002353999997467,29,76.19047619047619,
PHAN0707,5,pos,90,pos90_id19_im4.bmp_pos90_id19_im27.bmp,['Im_BradPitt.png', 'Im_RobertPattinson.png', 'Im_MattDamon.png', 'Im_RobertDowneyJr.png', 'Im_BenStiller.png', 'Im_ElijahWood.png', 'Im_KeanuReeves.png', 'Im_RyanReynolds.png', 'Im_DanielCraig.png', 'Im_LeonardoDiCaprio.png'],same,1,0.4084081999999398,30,76.19047619047619,
PHAN0707,5,pos,120,pos120_id19_im27.bmp_pos120_id19_im8.bmp,['Im_BradPitt.png', 'Im_RobertPattinson.png', 'Im_MattDamon.png', 'Im_RobertDowneyJr.png', 'Im_BenStiller.png', 'Im_ElijahWood.png', 'Im_KeanuReeves.png', 'Im_RyanReynolds.png', 'Im_DanielCraig.png', 'Im_LeonardoDiCaprio.png'],same,1,0.41693709999981365,31,76.19047619047619,
PHAN0707,5,pos,fs,posfs_id19_im8.bmp_posfs_id14_im24.bmp,['Im_BradPitt.png', 'Im_RobertPattinson.png', 'Im_MattDamon.png', 'Im_RobertDowneyJr.png', 'Im_BenStiller.png', 'Im_ElijahWood.png', 'Im_KeanuReeves.png', 'Im_RyanReynolds.png', 'Im_DanielCraig.png', 'Im_LeonardoDiCaprio.png'],diff,1,0.42496699999992416,32,76.19047619047619,
PHAN0707,5,pos,150,pos150_id4_im20.bmp_pos150_id4_im7.bmp,['Im_BradPitt.png', 'Im_RobertPattinson.png', 'Im_MattDamon.png', 'Im_RobertDowneyJr.png', 'Im_BenStiller.png', 'Im_ElijahWood.png', 'Im_KeanuReeves.png', 'Im_RyanReynolds.png', 'Im_DanielCraig.png', 'Im_LeonardoDiCaprio.png'],same,1,0.4251286999997319,33,76.19047619047619,
PHAN0707,5,pos,90,pos90_id18_im19.bmp_pos90_id3_im8.bmp,['Im_BradPitt.png', 'Im_RobertPattinson.png', 'Im_MattDamon.png', 'Im_RobertDowneyJr.png', 'Im_BenStiller.png', 'Im_ElijahWood.png', 'Im_KeanuReeves.png', 'Im_RyanReynolds.png', 'Im_DanielCraig.png', 'Im_LeonardoDiCaprio.png'],diff,1,0.833383799999865,34,76.19047619047619,
PHAN0707,5,pos,0,pos0_id14_im16.bmp_pos0_id21_im16.bmp,['Im_BradPitt.png', 'Im_RobertPattinson.png', 'Im_MattDamon.png', 'Im_RobertDowneyJr.png', 'Im_BenStiller.png', 'Im_ElijahWood.png', 'Im_KeanuReeves.png', 'Im_RyanReynolds.png', 'Im_DanielCraig.png', 'Im_LeonardoDiCaprio.png'],none,1,4.408381499999905,34,76.19047619047619,
PHAN0707,5,pos,150,pos150_id6_im12.bmp_pos150_id6_im18.bmp,['Im_BradPitt.png', 'Im_RobertPattinson.png', 'Im_MattDamon.png', 'Im_RobertDowneyJr.png', 'Im_BenStiller.png', 'Im_ElijahWood.png', 'Im_KeanuReeves.png', 'Im_RyanReynolds.png', 'Im_DanielCraig.png', 'Im_LeonardoDiCaprio.png'],none,1,4.408428300000196,34,76.19047619047619,
PHAN0707,6,pos,0,pos0_id4_im15.bmp_pos0_id4_im20.bmp,['Im_BradPitt.png', 'Im_RobertPattinson.png', 'Im_MattDamon.png', 'Im_RobertDowneyJr.png', 'Im_BenStiller.png', 'Im_ElijahWood.png', 'Im_KeanuReeves.png', 'Im_RyanReynolds.png', 'Im_DanielCraig.png', 'Im_LeonardoDiCaprio.png'],same,1,0.41674250000005486,1,80.95238095238095,
PHAN0707,6,pos,90,pos90_id21_im22.bmp_pos90_id21_im16.bmp,['Im_BradPitt.png', 'Im_RobertPattinson.png', 'Im_MattDamon.png', 'Im_RobertDowneyJr.png', 'Im_BenStiller.png', 'Im_ElijahWood.png', 'Im_KeanuReeves.png', 'Im_RyanReynolds.png', 'Im_DanielCraig.png', 'Im_LeonardoDiCaprio.png'],same,1,0.43331269999998767,2,80.95238095238095,
PHAN0707,6,pos,120,pos120_id19_im8.bmp_pos120_id19_im4.bmp,['Im_BradPitt.png', 'Im_RobertPattinson.png', 'Im_MattDamon.png', 'Im_RobertDowneyJr.png', 'Im_BenStiller.png', 'Im_ElijahWood.png', 'Im_KeanuReeves.png', 'Im_RyanReynolds.png', 'Im_DanielCraig.png', 'Im_LeonardoDiCaprio.png'],same,1,0.41663270000026387,3,80.95238095238095,
PHAN0707,6,pos,150,pos150_id2_im3.bmp_pos150_id6_im19.bmp,['Im_BradPitt.png', 'Im_RobertPattinson.png', 'Im_MattDamon.png', 'Im_RobertDowneyJr.png', 'Im_BenStiller.png', 'Im_ElijahWood.png', 'Im_KeanuReeves.png', 'Im_RyanReynolds.png', 'Im_DanielCraig.png', 'Im_LeonardoDiCaprio.png'],diff,1,0.4167370000000119,4,80.95238095238095,
PHAN0707,6,pos,fs,posfs_id2_im16.bmp_posfs_id2_im3.bmp,['Im_BradPitt.png', 'Im_RobertPattinson.png', 'Im_MattDamon.png', 'Im_RobertDowneyJr.png', 'Im_BenStiller.png', 'Im_ElijahWood.png', 'Im_KeanuReeves.png', 'Im_RyanReynolds.png', 'Im_DanielCraig.png', 'Im_LeonardoDiCaprio.png'],same,1,0.4251773000000867,5,80.95238095238095,
PHAN0707,6,pos,30,pos30_id19_im8.bmp_pos30_id14_im24.bmp,['Im_BradPitt.png', 'Im_RobertPattinson.png', 'Im_MattDamon.png', 'Im_RobertDowneyJr.png', 'Im_BenStiller.png', 'Im_ElijahWood.png', 'Im_KeanuReeves.png', 'Im_RyanReynolds.png', 'Im_DanielCraig.png', 'Im_LeonardoDiCaprio.png'],diff,1,0.40842250000014246,6,80.95238095238095,
PHAN0707,6,pos,60,pos60_id6_im19.bmp_pos60_id6_im18.bmp,['Im_BradPitt.png', 'Im_RobertPattinson.png', 'Im_MattDamon.png', 'Im_RobertDowneyJr.png', 'Im_BenStiller.png', 'Im_ElijahWood.png', 'Im_KeanuReeves.png', 'Im_RyanReynolds.png', 'Im_DanielCraig.png', 'Im_LeonardoDiCaprio.png'],same,1,0.6166606000001593,7,80.95238095238095,
PHAN0707,6,pos,120,pos120_id14_im18.bmp_pos120_id14_im24.bmp,['Im_BradPitt.png', 'Im_RobertPattinson.png', 'Im_MattDamon.png', 'Im_RobertDowneyJr.png', 'Im_BenStiller.png', 'Im_ElijahWood.png', 'Im_KeanuReeves.png', 'Im_RyanReynolds.png', 'Im_DanielCraig.png', 'Im_LeonardoDiCaprio.png'],same,1,0.7336404000002403,8,80.95238095238095,
PHAN0707,6,pos,150,pos150_id6_im19.bmp_pos150_id6_im18.bmp,['Im_BradPitt.png', 'Im_RobertPattinson.png', 'Im_MattDamon.png', 'Im_RobertDowneyJr.png', 'Im_BenStiller.png', 'Im_ElijahWood.png', 'Im_KeanuReeves.png', 'Im_RyanReynolds.png', 'Im_DanielCraig.png', 'Im_LeonardoDiCaprio.png'],same,1,0.42514180000034685,9,80.95238095238095,
PHAN0707,6,pos,90,pos90_id13_im15.bmp_pos90_id18_im11.bmp,['Im_BradPitt.png', 'Im_RobertPattinson.png', 'Im_MattDamon.png', 'Im_RobertDowneyJr.png', 'Im_BenStiller.png', 'Im_ElijahWood.png', 'Im_KeanuReeves.png', 'Im_RyanReynolds.png', 'Im_DanielCraig.png', 'Im_LeonardoDiCaprio.png'],diff,1,0.4999998999996933,10,80.95238095238095,
PHAN0707,6,pos,0,pos0_id3_im17.bmp_pos0_id19_im27.bmp,['Im_BradPitt.png', 'Im_RobertPattinson.png', 'Im_MattDamon.png', 'Im_RobertDowneyJr.png', 'Im_BenStiller.png', 'Im_ElijahWood.png', 'Im_KeanuReeves.png', 'Im_RyanReynolds.png', 'Im_DanielCraig.png', 'Im_LeonardoDiCaprio.png'],diff,1,0.4250848000001497,11,80.95238095238095,
PHAN0707,6,pos,30,pos30_id14_im18.bmp_pos30_id14_im24.bmp,['Im_BradPitt.png', 'Im_RobertPattinson.png', 'Im_MattDamon.png', 'Im_RobertDowneyJr.png', 'Im_BenStiller.png', 'Im_ElijahWood.png', 'Im_KeanuReeves.png', 'Im_RyanReynolds.png', 'Im_DanielCraig.png', 'Im_LeonardoDiCaprio.png'],same,1,0.42514540000001944,12,80.95238095238095,
PHAN0707,6,pos,60,pos60_id21_im22.bmp_pos60_id3_im6.bmp,['Im_BradPitt.png', 'Im_RobertPattinson.png', 'Im_MattDamon.png', 'Im_RobertDowneyJr.png', 'Im_BenStiller.png', 'Im_ElijahWood.png', 'Im_KeanuReeves.png', 'Im_RyanReynolds.png', 'Im_DanielCraig.png', 'Im_LeonardoDiCaprio.png'],diff,1,0.4333464000001186,13,80.95238095238095,
PHAN0707,6,pos,fs,posfs_id21_im16.bmp_posfs_id21_im22.bmp,['Im_BradPitt.png', 'Im_RobertPattinson.png', 'Im_MattDamon.png', 'Im_RobertDowneyJr.png', 'Im_BenStiller.png', 'Im_ElijahWood.png', 'Im_KeanuReeves.png', 'Im_RyanReynolds.png', 'Im_DanielCraig.png', 'Im_LeonardoDiCaprio.png'],same,1,0.42516929999965214,14,80.95238095238095,
PHAN0707,7,neg,150,neg150_id13_im10.bmp_neg150_id14_im18.bmp,['Im_BradPitt.png', 'Im_RobertPattinson.png', 'Im_MattDamon.png', 'Im_RobertDowneyJr.png', 'Im_BenStiller.png', 'Im_ElijahWood.png', 'Im_KeanuReeves.png', 'Im_RyanReynolds.png', 'Im_DanielCraig.png', 'Im_LeonardoDiCaprio.png'],same,0,0.4668268000000353,14,80.95238095238095,
PHAN0707,7,neg,0,neg0_id4_im7.bmp_neg0_id4_im20.bmp,['Im_BradPitt.png', 'Im_RobertPattinson.png', 'Im_MattDamon.png', 'Im_RobertDowneyJr.png', 'Im_BenStiller.png', 'Im_ElijahWood.png', 'Im_KeanuReeves.png', 'Im_RyanReynolds.png', 'Im_DanielCraig.png', 'Im_LeonardoDiCaprio.png'],same,1,0.4166861000003337,15,80.95238095238095,
PHAN0707,7,neg,fs,negfs_id14_im24.bmp_negfs_id14_im18.bmp,['Im_BradPitt.png', 'Im_RobertPattinson.png', 'Im_MattDamon.png', 'Im_RobertDowneyJr.png', 'Im_BenStiller.png', 'Im_ElijahWood.png', 'Im_KeanuReeves.png', 'Im_RyanReynolds.png', 'Im_DanielCraig.png', 'Im_LeonardoDiCaprio.png'],diff,0,0.5167148000000452,15,80.95238095238095,
PHAN0707,7,neg,90,neg90_id14_im18.bmp_neg90_id4_im20.bmp,['Im_BradPitt.png', 'Im_RobertPattinson.png', 'Im_MattDamon.png', 'Im_RobertDowneyJr.png', 'Im_BenStiller.png', 'Im_ElijahWood.png', 'Im_KeanuReeves.png', 'Im_RyanReynolds.png', 'Im_DanielCraig.png', 'Im_LeonardoDiCaprio.png'],diff,1,0.7332562999999936,16,80.95238095238095,
PHAN0707,7,neg,150,neg150_id4_im15.bmp_neg150_id4_im7.bmp,['Im_BradPitt.png', 'Im_RobertPattinson.png', 'Im_MattDamon.png', 'Im_RobertDowneyJr.png', 'Im_BenStiller.png', 'Im_ElijahWood.png', 'Im_KeanuReeves.png', 'Im_RyanReynolds.png', 'Im_DanielCraig.png', 'Im_LeonardoDiCaprio.png'],same,1,0.46674959999973,17,80.95238095238095,
PHAN0707,7,neg,30,neg30_id4_im20.bmp_neg30_id21_im17.bmp,['Im_BradPitt.png', 'Im_RobertPattinson.png', 'Im_MattDamon.png', 'Im_RobertDowneyJr.png', 'Im_BenStiller.png', 'Im_ElijahWood.png', 'Im_KeanuReeves.png', 'Im_RyanReynolds.png', 'Im_DanielCraig.png', 'Im_LeonardoDiCaprio.png'],diff,1,0.41676449999977194,18,80.95238095238095,
PHAN0707,7,neg,60,neg60_id6_im12.bmp_neg60_id3_im6.bmp,['Im_BradPitt.png', 'Im_RobertPattinson.png', 'Im_MattDamon.png', 'Im_RobertDowneyJr.png', 'Im_BenStiller.png', 'Im_ElijahWood.png', 'Im_KeanuReeves.png', 'Im_RyanReynolds.png', 'Im_DanielCraig.png', 'Im_LeonardoDiCaprio.png'],diff,1,0.9751650000002883,19,80.95238095238095,
PHAN0707,7,neg,60,neg60_id2_im2.bmp_neg60_id2_im3.bmp,['Im_BradPitt.png', 'Im_RobertPattinson.png', 'Im_MattDamon.png', 'Im_RobertDowneyJr.png', 'Im_BenStiller.png', 'Im_ElijahWood.png', 'Im_KeanuReeves.png', 'Im_RyanReynolds.png', 'Im_DanielCraig.png', 'Im_LeonardoDiCaprio.png'],same,1,0.41668099999969854,20,80.95238095238095,
PHAN0707,7,neg,120,neg120_id6_im18.bmp_neg120_id19_im4.bmp,['Im_BradPitt.png', 'Im_RobertPattinson.png', 'Im_MattDamon.png', 'Im_RobertDowneyJr.png', 'Im_BenStiller.png', 'Im_ElijahWood.png', 'Im_KeanuReeves.png', 'Im_RyanReynolds.png', 'Im_DanielCraig.png', 'Im_LeonardoDiCaprio.png'],diff,1,0.4251363000003039,21,80.95238095238095,
PHAN0707,7,neg,30,neg30_id11_im1.bmp_neg30_id2_im16.bmp,['Im_BradPitt.png', 'Im_RobertPattinson.png', 'Im_MattDamon.png', 'Im_RobertDowneyJr.png', 'Im_BenStiller.png', 'Im_ElijahWood.png', 'Im_KeanuReeves.png', 'Im_RyanReynolds.png', 'Im_DanielCraig.png', 'Im_LeonardoDiCaprio.png'],same,0,0.425037699999848,21,80.95238095238095,
PHAN0707,7,neg,0,neg0_id21_im22.bmp_neg0_id3_im6.bmp,['Im_BradPitt.png', 'Im_RobertPattinson.png', 'Im_MattDamon.png', 'Im_RobertDowneyJr.png', 'Im_BenStiller.png', 'Im_ElijahWood.png', 'Im_KeanuReeves.png', 'Im_RyanReynolds.png', 'Im_DanielCraig.png', 'Im_LeonardoDiCaprio.png'],diff,1,0.4250742999997783,22,80.95238095238095,
PHAN0707,7,neg,90,neg90_id14_im18.bmp_neg90_id14_im24.bmp,['Im_BradPitt.png', 'Im_RobertPattinson.png', 'Im_MattDamon.png', 'Im_RobertDowneyJr.png', 'Im_BenStiller.png', 'Im_ElijahWood.png', 'Im_KeanuReeves.png', 'Im_RyanReynolds.png', 'Im_DanielCraig.png', 'Im_LeonardoDiCaprio.png'],same,1,0.8750346000001628,23,80.95238095238095,
PHAN0707,7,neg,fs,negfs_id14_im16.bmp_negfs_id14_im24.bmp,['Im_BradPitt.png', 'Im_RobertPattinson.png', 'Im_MattDamon.png', 'Im_RobertDowneyJr.png', 'Im_BenStiller.png', 'Im_ElijahWood.png', 'Im_KeanuReeves.png', 'Im_RyanReynolds.png', 'Im_DanielCraig.png', 'Im_LeonardoDiCaprio.png'],same,1,0.7667231000000356,24,80.95238095238095,
PHAN0707,7,neg,120,neg120_id21_im22.bmp_neg120_id21_im17.bmp,['Im_BradPitt.png', 'Im_RobertPattinson.png', 'Im_MattDamon.png', 'Im_RobertDowneyJr.png', 'Im_BenStiller.png', 'Im_ElijahWood.png', 'Im_KeanuReeves.png', 'Im_RyanReynolds.png', 'Im_DanielCraig.png', 'Im_LeonardoDiCaprio.png'],same,1,0.9165959000001749,25,80.95238095238095,
PHAN0707,8,inv,120,pos120_id14_im24.bmp_pos120_id19_im8.bmp,['Im_BradPitt.png', 'Im_RobertPattinson.png', 'Im_MattDamon.png', 'Im_RobertDowneyJr.png', 'Im_BenStiller.png', 'Im_ElijahWood.png', 'Im_KeanuReeves.png', 'Im_RyanReynolds.png', 'Im_DanielCraig.png', 'Im_LeonardoDiCaprio.png'],diff,1,0.42497469999989335,26,80.95238095238095,
PHAN0707,8,inv,30,pos30_id18_im18.bmp_pos30_id18_im11.bmp,['Im_BradPitt.png', 'Im_RobertPattinson.png', 'Im_MattDamon.png', 'Im_RobertDowneyJr.png', 'Im_BenStiller.png', 'Im_ElijahWood.png', 'Im_KeanuReeves.png', 'Im_RyanReynolds.png', 'Im_DanielCraig.png', 'Im_LeonardoDiCaprio.png'],same,1,0.4250494000002618,27,80.95238095238095,
PHAN0707,8,inv,150,pos150_id3_im17.bmp_pos150_id3_im8.bmp,['Im_BradPitt.png', 'Im_RobertPattinson.png', 'Im_MattDamon.png', 'Im_RobertDowneyJr.png', 'Im_BenStiller.png', 'Im_ElijahWood.png', 'Im_KeanuReeves.png', 'Im_RyanReynolds.png', 'Im_DanielCraig.png', 'Im_LeonardoDiCaprio.png'],diff,0,0.5169994999996561,27,80.95238095238095,
PHAN0707,8,inv,fs,posfs_id14_im18.bmp_posfs_id14_im24.bmp,['Im_BradPitt.png', 'Im_RobertPattinson.png', 'Im_MattDamon.png', 'Im_RobertDowneyJr.png', 'Im_BenStiller.png', 'Im_ElijahWood.png', 'Im_KeanuReeves.png', 'Im_RyanReynolds.png', 'Im_DanielCraig.png', 'Im_LeonardoDiCaprio.png'],same,1,0.4333575999999084,28,80.95238095238095,
PHAN0707,8,inv,0,pos0_id18_im18.bmp_pos0_id18_im19.bmp,['Im_BradPitt.png', 'Im_RobertPattinson.png', 'Im_MattDamon.png', 'Im_RobertDowneyJr.png', 'Im_BenStiller.png', 'Im_ElijahWood.png', 'Im_KeanuReeves.png', 'Im_RyanReynolds.png', 'Im_DanielCraig.png', 'Im_LeonardoDiCaprio.png'],same,1,0.41686970000000656,29,80.95238095238095,
PHAN0707,8,inv,30,pos30_id21_im22.bmp_pos30_id21_im17.bmp,['Im_BradPitt.png', 'Im_RobertPattinson.png', 'Im_MattDamon.png', 'Im_RobertDowneyJr.png', 'Im_BenStiller.png', 'Im_ElijahWood.png', 'Im_KeanuReeves.png', 'Im_RyanReynolds.png', 'Im_DanielCraig.png', 'Im_LeonardoDiCaprio.png'],same,1,0.8419079000000238,30,80.95238095238095,
PHAN0707,8,inv,fs,posfs_id2_im16.bmp_posfs_id11_im1.bmp,['Im_BradPitt.png', 'Im_RobertPattinson.png', 'Im_MattDamon.png', 'Im_RobertDowneyJr.png', 'Im_BenStiller.png', 'Im_ElijahWood.png', 'Im_KeanuReeves.png', 'Im_RyanReynolds.png', 'Im_DanielCraig.png', 'Im_LeonardoDiCaprio.png'],diff,1,0.4333716999999524,31,80.95238095238095,
PHAN0707,8,inv,120,pos120_id11_im2.bmp_pos120_id21_im22.bmp,['Im_BradPitt.png', 'Im_RobertPattinson.png', 'Im_MattDamon.png', 'Im_RobertDowneyJr.png', 'Im_BenStiller.png', 'Im_ElijahWood.png', 'Im_KeanuReeves.png', 'Im_RyanReynolds.png', 'Im_DanielCraig.png', 'Im_LeonardoDiCaprio.png'],same,0,1.916943000000174,31,80.95238095238095,
PHAN0707,8,inv,0,pos0_id21_im16.bmp_pos0_id21_im22.bmp,['Im_BradPitt.png', 'Im_RobertPattinson.png', 'Im_MattDamon.png', 'Im_RobertDowneyJr.png', 'Im_BenStiller.png', 'Im_ElijahWood.png', 'Im_KeanuReeves.png', 'Im_RyanReynolds.png', 'Im_DanielCraig.png', 'Im_LeonardoDiCaprio.png'],same,1,0.4083770000002005,32,80.95238095238095,
PHAN0707,8,inv,90,pos90_id4_im20.bmp_pos90_id4_im15.bmp,['Im_BradPitt.png', 'Im_RobertPattinson.png', 'Im_MattDamon.png', 'Im_RobertDowneyJr.png', 'Im_BenStiller.png', 'Im_ElijahWood.png', 'Im_KeanuReeves.png', 'Im_RyanReynolds.png', 'Im_DanielCraig.png', 'Im_LeonardoDiCaprio.png'],diff,0,0.7835457000001043,32,80.95238095238095,
PHAN0707,8,inv,90,pos90_id3_im17.bmp_pos90_id19_im27.bmp,['Im_BradPitt.png', 'Im_RobertPattinson.png', 'Im_MattDamon.png', 'Im_RobertDowneyJr.png', 'Im_BenStiller.png', 'Im_ElijahWood.png', 'Im_KeanuReeves.png', 'Im_RyanReynolds.png', 'Im_DanielCraig.png', 'Im_LeonardoDiCaprio.png'],diff,1,0.42504330000019763,33,80.95238095238095,
PHAN0707,8,inv,60,pos60_id11_im2.bmp_pos60_id13_im29.bmp,['Im_BradPitt.png', 'Im_RobertPattinson.png', 'Im_MattDamon.png', 'Im_RobertDowneyJr.png', 'Im_BenStiller.png', 'Im_ElijahWood.png', 'Im_KeanuReeves.png', 'Im_RyanReynolds.png', 'Im_DanielCraig.png', 'Im_LeonardoDiCaprio.png'],diff,1,0.8752469999999448,34,80.95238095238095,
PHAN0707,8,inv,150,pos150_id11_im2.bmp_pos150_id11_im1.bmp,['Im_BradPitt.png', 'Im_RobertPattinson.png', 'Im_MattDamon.png', 'Im_RobertDowneyJr.png', 'Im_BenStiller.png', 'Im_ElijahWood.png', 'Im_KeanuReeves.png', 'Im_RyanReynolds.png', 'Im_DanielCraig.png', 'Im_LeonardoDiCaprio.png'],same,1,0.42501050000009855,35,80.95238095238095,
PHAN0707,8,inv,60,pos60_id2_im2.bmp_pos60_id2_im3.bmp,['Im_BradPitt.png', 'Im_RobertPattinson.png', 'Im_MattDamon.png', 'Im_RobertDowneyJr.png', 'Im_BenStiller.png', 'Im_ElijahWood.png', 'Im_KeanuReeves.png', 'Im_RyanReynolds.png', 'Im_DanielCraig.png', 'Im_LeonardoDiCaprio.png'],same,1,0.4249596000004203,36,80.95238095238095,
PHAN0707,9,pos,30,pos30_id14_im24.bmp_pos30_id6_im12.bmp,['Im_BradPitt.png', 'Im_RobertPattinson.png', 'Im_MattDamon.png', 'Im_RobertDowneyJr.png', 'Im_BenStiller.png', 'Im_ElijahWood.png', 'Im_KeanuReeves.png', 'Im_RyanReynolds.png', 'Im_DanielCraig.png', 'Im_LeonardoDiCaprio.png'],diff,1,0.4251530999999886,1,85.71428571428571,
PHAN0707,9,pos,150,pos150_id21_im16.bmp_pos150_id14_im16.bmp,['Im_BradPitt.png', 'Im_RobertPattinson.png', 'Im_MattDamon.png', 'Im_RobertDowneyJr.png', 'Im_BenStiller.png', 'Im_ElijahWood.png', 'Im_KeanuReeves.png', 'Im_RyanReynolds.png', 'Im_DanielCraig.png', 'Im_LeonardoDiCaprio.png'],diff,1,0.4334570999999414,2,85.71428571428571,
PHAN0707,9,pos,120,pos120_id21_im22.bmp_pos120_id21_im17.bmp,['Im_BradPitt.png', 'Im_RobertPattinson.png', 'Im_MattDamon.png', 'Im_RobertDowneyJr.png', 'Im_BenStiller.png', 'Im_ElijahWood.png', 'Im_KeanuReeves.png', 'Im_RyanReynolds.png', 'Im_DanielCraig.png', 'Im_LeonardoDiCaprio.png'],same,1,0.40840280000020357,3,85.71428571428571,
PHAN0707,9,pos,90,pos90_id2_im16.bmp_pos90_id2_im2.bmp,['Im_BradPitt.png', 'Im_RobertPattinson.png', 'Im_MattDamon.png', 'Im_RobertDowneyJr.png', 'Im_BenStiller.png', 'Im_ElijahWood.png', 'Im_KeanuReeves.png', 'Im_RyanReynolds.png', 'Im_DanielCraig.png', 'Im_LeonardoDiCaprio.png'],diff,0,0.41670780000004015,3,85.71428571428571,
PHAN0707,9,pos,0,pos0_id6_im18.bmp_pos0_id6_im19.bmp,['Im_BradPitt.png', 'Im_RobertPattinson.png', 'Im_MattDamon.png', 'Im_RobertDowneyJr.png', 'Im_BenStiller.png', 'Im_ElijahWood.png', 'Im_KeanuReeves.png', 'Im_RyanReynolds.png', 'Im_DanielCraig.png', 'Im_LeonardoDiCaprio.png'],same,1,0.48346550000042043,4,85.71428571428571,
PHAN0707,9,pos,120,pos120_id2_im2.bmp_pos120_id11_im10.bmp,['Im_BradPitt.png', 'Im_RobertPattinson.png', 'Im_MattDamon.png', 'Im_RobertDowneyJr.png', 'Im_BenStiller.png', 'Im_ElijahWood.png', 'Im_KeanuReeves.png', 'Im_RyanReynolds.png', 'Im_DanielCraig.png', 'Im_LeonardoDiCaprio.png'],diff,1,0.8001404000001457,5,85.71428571428571,
PHAN0707,9,pos,fs,posfs_id2_im2.bmp_posfs_id2_im3.bmp,['Im_BradPitt.png', 'Im_RobertPattinson.png', 'Im_MattDamon.png', 'Im_RobertDowneyJr.png', 'Im_BenStiller.png', 'Im_ElijahWood.png', 'Im_KeanuReeves.png', 'Im_RyanReynolds.png', 'Im_DanielCraig.png', 'Im_LeonardoDiCaprio.png'],same,1,0.4167677000000367,6,85.71428571428571,
PHAN0707,9,pos,150,pos150_id13_im29.bmp_pos150_id13_im15.bmp,['Im_BradPitt.png', 'Im_RobertPattinson.png', 'Im_MattDamon.png', 'Im_RobertDowneyJr.png', 'Im_BenStiller.png', 'Im_ElijahWood.png', 'Im_KeanuReeves.png', 'Im_RyanReynolds.png', 'Im_DanielCraig.png', 'Im_LeonardoDiCaprio.png'],diff,0,0.41661530000010316,6,85.71428571428571,
PHAN0707,9,pos,60,pos60_id14_im16.bmp_pos60_id14_im18.bmp,['Im_BradPitt.png', 'Im_RobertPattinson.png', 'Im_MattDamon.png', 'Im_RobertDowneyJr.png', 'Im_BenStiller.png', 'Im_ElijahWood.png', 'Im_KeanuReeves.png', 'Im_RyanReynolds.png', 'Im_DanielCraig.png', 'Im_LeonardoDiCaprio.png'],same,1,0.6253059999999095,7,85.71428571428571,
PHAN0707,9,pos,0,pos0_id3_im6.bmp_pos0_id6_im12.bmp,['Im_BradPitt.png', 'Im_RobertPattinson.png', 'Im_MattDamon.png', 'Im_RobertDowneyJr.png', 'Im_BenStiller.png', 'Im_ElijahWood.png', 'Im_KeanuReeves.png', 'Im_RyanReynolds.png', 'Im_DanielCraig.png', 'Im_LeonardoDiCaprio.png'],diff,1,0.4167218000002322,8,85.71428571428571,
PHAN0707,9,pos,30,pos30_id11_im1.bmp_pos30_id11_im2.bmp,['Im_BradPitt.png', 'Im_RobertPattinson.png', 'Im_MattDamon.png', 'Im_RobertDowneyJr.png', 'Im_BenStiller.png', 'Im_ElijahWood.png', 'Im_KeanuReeves.png', 'Im_RyanReynolds.png', 'Im_DanielCraig.png', 'Im_LeonardoDiCaprio.png'],same,1,0.42511449999983597,9,85.71428571428571,
PHAN0707,9,pos,90,pos90_id6_im18.bmp_pos90_id6_im19.bmp,['Im_BradPitt.png', 'Im_RobertPattinson.png', 'Im_MattDamon.png', 'Im_RobertDowneyJr.png', 'Im_BenStiller.png', 'Im_ElijahWood.png', 'Im_KeanuReeves.png', 'Im_RyanReynolds.png', 'Im_DanielCraig.png', 'Im_LeonardoDiCaprio.png'],same,1,0.4248051999998097,10,85.71428571428571,
PHAN0707,9,pos,60,pos60_id21_im16.bmp_pos60_id14_im16.bmp,['Im_BradPitt.png', 'Im_RobertPattinson.png', 'Im_MattDamon.png', 'Im_RobertDowneyJr.png', 'Im_BenStiller.png', 'Im_ElijahWood.png', 'Im_KeanuReeves.png', 'Im_RyanReynolds.png', 'Im_DanielCraig.png', 'Im_LeonardoDiCaprio.png'],diff,1,0.41671610000003056,11,85.71428571428571,
PHAN0707,9,pos,fs,posfs_id18_im11.bmp_posfs_id2_im3.bmp,['Im_BradPitt.png', 'Im_RobertPattinson.png', 'Im_MattDamon.png', 'Im_RobertDowneyJr.png', 'Im_BenStiller.png', 'Im_ElijahWood.png', 'Im_KeanuReeves.png', 'Im_RyanReynolds.png', 'Im_DanielCraig.png', 'Im_LeonardoDiCaprio.png'],diff,1,0.4084304000002703,12,85.71428571428571,
PHAN0707,10,inv,90,pos90_id18_im18.bmp_pos90_id11_im10.bmp,['Im_BradPitt.png', 'Im_RobertPattinson.png', 'Im_MattDamon.png', 'Im_RobertDowneyJr.png', 'Im_BenStiller.png', 'Im_ElijahWood.png', 'Im_KeanuReeves.png', 'Im_RyanReynolds.png', 'Im_DanielCraig.png', 'Im_LeonardoDiCaprio.png'],diff,1,0.6170465999998669,13,85.71428571428571,
PHAN0707,10,inv,30,pos30_id18_im18.bmp_pos30_id11_im10.bmp,['Im_BradPitt.png', 'Im_RobertPattinson.png', 'Im_MattDamon.png', 'Im_RobertDowneyJr.png', 'Im_BenStiller.png', 'Im_ElijahWood.png', 'Im_KeanuReeves.png', 'Im_RyanReynolds.png', 'Im_DanielCraig.png', 'Im_LeonardoDiCaprio.png'],diff,1,0.4167222999999467,14,85.71428571428571,
PHAN0707,10,inv,90,pos90_id18_im19.bmp_pos90_id3_im8.bmp,['Im_BradPitt.png', 'Im_RobertPattinson.png', 'Im_MattDamon.png', 'Im_RobertDowneyJr.png', 'Im_BenStiller.png', 'Im_ElijahWood.png', 'Im_KeanuReeves.png', 'Im_RyanReynolds.png', 'Im_DanielCraig.png', 'Im_LeonardoDiCaprio.png'],diff,1,0.4416516999999658,15,85.71428571428571,
