Sujet,Trial,Condition,Filter,Imname,Actor0,Actor1,Actor2,Actor3,Actor4,Actor5,Actor6,Actor7,Actor8,Actor9,Answer,Accu,RT,Score,Scoreperc, 
PHTA2206,train,inv,60,pos60_id17_im14.bmp_pos60_id17_im9.bmp,['Im_RobertPattinson.png', 'Im_KeanuReeves.png', 'Im_RyanGosling.png', 'Im_LeonardoDiCaprio.png', 'Im_PatrickDempsey.png', 'Im_JustinTimberlake.png', 'Im_DanielRadcliffe.png', 'Im_GeorgeClooney.png', 'Im_ElijahWood.png', 'Im_BenStiller.png'],same,1,0.4247126999998727,1,0,
PHTA2206,train,inv,fs,posfs_id7_im26.bmp_posfs_id7_im14.bmp,['Im_RobertPattinson.png', 'Im_KeanuReeves.png', 'Im_RyanGosling.png', 'Im_LeonardoDiCaprio.png', 'Im_PatrickDempsey.png', 'Im_JustinTimberlake.png', 'Im_DanielRadcliffe.png', 'Im_GeorgeClooney.png', 'Im_ElijahWood.png', 'Im_BenStiller.png'],same,1,0.4251436999984435,2,0,
PHTA2206,train,inv,30,pos30_id2_im3.bmp_pos30_id2_im16.bmp,['Im_RobertPattinson.png', 'Im_KeanuReeves.png', 'Im_RyanGosling.png', 'Im_LeonardoDiCaprio.png', 'Im_PatrickDempsey.png', 'Im_JustinTimberlake.png', 'Im_DanielRadcliffe.png', 'Im_GeorgeClooney.png', 'Im_ElijahWood.png', 'Im_BenStiller.png'],diff,0,0.41672579999976733,2,0,
PHTA2206,train,inv,0,pos0_id5_im1.bmp_pos0_id19_im27.bmp,['Im_RobertPattinson.png', 'Im_KeanuReeves.png', 'Im_RyanGosling.png', 'Im_LeonardoDiCaprio.png', 'Im_PatrickDempsey.png', 'Im_JustinTimberlake.png', 'Im_DanielRadcliffe.png', 'Im_GeorgeClooney.png', 'Im_ElijahWood.png', 'Im_BenStiller.png'],diff,1,0.41686099999969883,3,0,
PHTA2206,train,inv,fs,posfs_id6_im18.bmp_posfs_id13_im15.bmp,['Im_RobertPattinson.png', 'Im_KeanuReeves.png', 'Im_RyanGosling.png', 'Im_LeonardoDiCaprio.png', 'Im_PatrickDempsey.png', 'Im_JustinTimberlake.png', 'Im_DanielRadcliffe.png', 'Im_GeorgeClooney.png', 'Im_ElijahWood.png', 'Im_BenStiller.png'],diff,1,0.42491599999993923,4,0,
PHTA2206,train,inv,0,pos0_id19_im27.bmp_pos0_id19_im4.bmp,['Im_RobertPattinson.png', 'Im_KeanuReeves.png', 'Im_RyanGosling.png', 'Im_LeonardoDiCaprio.png', 'Im_PatrickDempsey.png', 'Im_JustinTimberlake.png', 'Im_DanielRadcliffe.png', 'Im_GeorgeClooney.png', 'Im_ElijahWood.png', 'Im_BenStiller.png'],same,1,0.4166889000007359,5,0,
PHTA2206,train,inv,90,pos90_id11_im1.bmp_pos90_id11_im10.bmp,['Im_RobertPattinson.png', 'Im_KeanuReeves.png', 'Im_RyanGosling.png', 'Im_LeonardoDiCaprio.png', 'Im_PatrickDempsey.png', 'Im_JustinTimberlake.png', 'Im_DanielRadcliffe.png', 'Im_GeorgeClooney.png', 'Im_ElijahWood.png', 'Im_BenStiller.png'],diff,0,0.41682480000054056,5,0,
PHTA2206,train,inv,90,pos90_id2_im3.bmp_pos90_id2_im16.bmp,['Im_RobertPattinson.png', 'Im_KeanuReeves.png', 'Im_RyanGosling.png', 'Im_LeonardoDiCaprio.png', 'Im_PatrickDempsey.png', 'Im_JustinTimberlake.png', 'Im_DanielRadcliffe.png', 'Im_GeorgeClooney.png', 'Im_ElijahWood.png', 'Im_BenStiller.png'],same,1,0.41674930000044696,6,0,
PHTA2206,train,inv,120,pos120_id6_im19.bmp_pos120_id13_im10.bmp,['Im_RobertPattinson.png', 'Im_KeanuReeves.png', 'Im_RyanGosling.png', 'Im_LeonardoDiCaprio.png', 'Im_PatrickDempsey.png', 'Im_JustinTimberlake.png', 'Im_DanielRadcliffe.png', 'Im_GeorgeClooney.png', 'Im_ElijahWood.png', 'Im_BenStiller.png'],diff,1,0.42508210000050894,7,0,
PHTA2206,train,inv,150,pos150_id5_im1.bmp_pos150_id5_im20.bmp,['Im_RobertPattinson.png', 'Im_KeanuReeves.png', 'Im_RyanGosling.png', 'Im_LeonardoDiCaprio.png', 'Im_PatrickDempsey.png', 'Im_JustinTimberlake.png', 'Im_DanielRadcliffe.png', 'Im_GeorgeClooney.png', 'Im_ElijahWood.png', 'Im_BenStiller.png'],diff,0,0.41673310000078345,7,0,
PHTA2206,train,inv,30,pos30_id17_im8.bmp_pos30_id17_im14.bmp,['Im_RobertPattinson.png', 'Im_KeanuReeves.png', 'Im_RyanGosling.png', 'Im_LeonardoDiCaprio.png', 'Im_PatrickDempsey.png', 'Im_JustinTimberlake.png', 'Im_DanielRadcliffe.png', 'Im_GeorgeClooney.png', 'Im_ElijahWood.png', 'Im_BenStiller.png'],same,1,0.4168817999998282,8,0,
PHTA2206,train,inv,150,pos150_id19_im27.bmp_pos150_id11_im10.bmp,['Im_RobertPattinson.png', 'Im_KeanuReeves.png', 'Im_RyanGosling.png', 'Im_LeonardoDiCaprio.png', 'Im_PatrickDempsey.png', 'Im_JustinTimberlake.png', 'Im_DanielRadcliffe.png', 'Im_GeorgeClooney.png', 'Im_ElijahWood.png', 'Im_BenStiller.png'],same,0,0.42507429999932356,8,0,
PHTA2206,train,inv,120,pos120_id13_im15.bmp_pos120_id6_im18.bmp,['Im_RobertPattinson.png', 'Im_KeanuReeves.png', 'Im_RyanGosling.png', 'Im_LeonardoDiCaprio.png', 'Im_PatrickDempsey.png', 'Im_JustinTimberlake.png', 'Im_DanielRadcliffe.png', 'Im_GeorgeClooney.png', 'Im_ElijahWood.png', 'Im_BenStiller.png'],diff,1,0.41677180000078806,9,0,
PHTA2206,train,inv,60,pos60_id19_im4.bmp_pos60_id19_im8.bmp,['Im_RobertPattinson.png', 'Im_KeanuReeves.png', 'Im_RyanGosling.png', 'Im_LeonardoDiCaprio.png', 'Im_PatrickDempsey.png', 'Im_JustinTimberlake.png', 'Im_DanielRadcliffe.png', 'Im_GeorgeClooney.png', 'Im_ElijahWood.png', 'Im_BenStiller.png'],same,1,0.4083673999994062,10,0,
PHTA2206,train,pos,90,pos90_id5_im1.bmp_pos90_id19_im27.bmp,['Im_RobertPattinson.png', 'Im_KeanuReeves.png', 'Im_RyanGosling.png', 'Im_LeonardoDiCaprio.png', 'Im_PatrickDempsey.png', 'Im_JustinTimberlake.png', 'Im_DanielRadcliffe.png', 'Im_GeorgeClooney.png', 'Im_ElijahWood.png', 'Im_BenStiller.png'],diff,1,0.4167462000004889,11,0,
PHTA2206,train,pos,120,pos120_id20_im3.bmp_pos120_id6_im19.bmp,['Im_RobertPattinson.png', 'Im_KeanuReeves.png', 'Im_RyanGosling.png', 'Im_LeonardoDiCaprio.png', 'Im_PatrickDempsey.png', 'Im_JustinTimberlake.png', 'Im_DanielRadcliffe.png', 'Im_GeorgeClooney.png', 'Im_ElijahWood.png', 'Im_BenStiller.png'],diff,1,0.42503820000092674,12,0,
PHTA2206,train,pos,90,pos90_id20_im12.bmp_pos90_id20_im3.bmp,['Im_RobertPattinson.png', 'Im_KeanuReeves.png', 'Im_RyanGosling.png', 'Im_LeonardoDiCaprio.png', 'Im_PatrickDempsey.png', 'Im_JustinTimberlake.png', 'Im_DanielRadcliffe.png', 'Im_GeorgeClooney.png', 'Im_ElijahWood.png', 'Im_BenStiller.png'],same,1,0.4166801999999734,13,0,
PHTA2206,train,pos,fs,posfs_id17_im14.bmp_posfs_id11_im10.bmp,['Im_RobertPattinson.png', 'Im_KeanuReeves.png', 'Im_RyanGosling.png', 'Im_LeonardoDiCaprio.png', 'Im_PatrickDempsey.png', 'Im_JustinTimberlake.png', 'Im_DanielRadcliffe.png', 'Im_GeorgeClooney.png', 'Im_ElijahWood.png', 'Im_BenStiller.png'],diff,1,0.40838409999923897,14,0,
PHTA2206,train,pos,150,pos150_id2_im3.bmp_pos150_id2_im2.bmp,['Im_RobertPattinson.png', 'Im_KeanuReeves.png', 'Im_RyanGosling.png', 'Im_LeonardoDiCaprio.png', 'Im_PatrickDempsey.png', 'Im_JustinTimberlake.png', 'Im_DanielRadcliffe.png', 'Im_GeorgeClooney.png', 'Im_ElijahWood.png', 'Im_BenStiller.png'],same,1,0.4250428999985161,15,0,
PHTA2206,train,pos,120,pos120_id11_im1.bmp_pos120_id13_im15.bmp,['Im_RobertPattinson.png', 'Im_KeanuReeves.png', 'Im_RyanGosling.png', 'Im_LeonardoDiCaprio.png', 'Im_PatrickDempsey.png', 'Im_JustinTimberlake.png', 'Im_DanielRadcliffe.png', 'Im_GeorgeClooney.png', 'Im_ElijahWood.png', 'Im_BenStiller.png'],diff,1,0.40839430000050925,16,0,
PHTA2206,train,pos,30,pos30_id11_im1.bmp_pos30_id19_im8.bmp,['Im_RobertPattinson.png', 'Im_KeanuReeves.png', 'Im_RyanGosling.png', 'Im_LeonardoDiCaprio.png', 'Im_PatrickDempsey.png', 'Im_JustinTimberlake.png', 'Im_DanielRadcliffe.png', 'Im_GeorgeClooney.png', 'Im_ElijahWood.png', 'Im_BenStiller.png'],diff,1,0.4252431000004435,17,0,
PHTA2206,train,pos,0,pos0_id13_im10.bmp_pos0_id13_im15.bmp,['Im_RobertPattinson.png', 'Im_KeanuReeves.png', 'Im_RyanGosling.png', 'Im_LeonardoDiCaprio.png', 'Im_PatrickDempsey.png', 'Im_JustinTimberlake.png', 'Im_DanielRadcliffe.png', 'Im_GeorgeClooney.png', 'Im_ElijahWood.png', 'Im_BenStiller.png'],same,1,0.40838629999961995,18,0,
PHTA2206,train,pos,150,pos150_id6_im18.bmp_pos150_id6_im19.bmp,['Im_RobertPattinson.png', 'Im_KeanuReeves.png', 'Im_RyanGosling.png', 'Im_LeonardoDiCaprio.png', 'Im_PatrickDempsey.png', 'Im_JustinTimberlake.png', 'Im_DanielRadcliffe.png', 'Im_GeorgeClooney.png', 'Im_ElijahWood.png', 'Im_BenStiller.png'],same,1,0.4167176999999356,19,0,
PHTA2206,train,pos,60,pos60_id19_im8.bmp_pos60_id19_im4.bmp,['Im_RobertPattinson.png', 'Im_KeanuReeves.png', 'Im_RyanGosling.png', 'Im_LeonardoDiCaprio.png', 'Im_PatrickDempsey.png', 'Im_JustinTimberlake.png', 'Im_DanielRadcliffe.png', 'Im_GeorgeClooney.png', 'Im_ElijahWood.png', 'Im_BenStiller.png'],same,1,0.40823289999934786,20,0,
PHTA2206,train,pos,fs,posfs_id5_im20.bmp_posfs_id5_im10.bmp,['Im_RobertPattinson.png', 'Im_KeanuReeves.png', 'Im_RyanGosling.png', 'Im_LeonardoDiCaprio.png', 'Im_PatrickDempsey.png', 'Im_JustinTimberlake.png', 'Im_DanielRadcliffe.png', 'Im_GeorgeClooney.png', 'Im_ElijahWood.png', 'Im_BenStiller.png'],same,1,0.40842070000144304,21,0,
PHTA2206,train,pos,30,pos30_id6_im12.bmp_pos30_id6_im19.bmp,['Im_RobertPattinson.png', 'Im_KeanuReeves.png', 'Im_RyanGosling.png', 'Im_LeonardoDiCaprio.png', 'Im_PatrickDempsey.png', 'Im_JustinTimberlake.png', 'Im_DanielRadcliffe.png', 'Im_GeorgeClooney.png', 'Im_ElijahWood.png', 'Im_BenStiller.png'],same,1,0.41656439999860595,22,0,
PHTA2206,train,pos,0,pos0_id11_im10.bmp_pos0_id11_im2.bmp,['Im_RobertPattinson.png', 'Im_KeanuReeves.png', 'Im_RyanGosling.png', 'Im_LeonardoDiCaprio.png', 'Im_PatrickDempsey.png', 'Im_JustinTimberlake.png', 'Im_DanielRadcliffe.png', 'Im_GeorgeClooney.png', 'Im_ElijahWood.png', 'Im_BenStiller.png'],same,1,0.40838500000063505,23,0,
PHTA2206,train,pos,60,pos60_id11_im10.bmp_pos60_id11_im1.bmp,['Im_RobertPattinson.png', 'Im_KeanuReeves.png', 'Im_RyanGosling.png', 'Im_LeonardoDiCaprio.png', 'Im_PatrickDempsey.png', 'Im_JustinTimberlake.png', 'Im_DanielRadcliffe.png', 'Im_GeorgeClooney.png', 'Im_ElijahWood.png', 'Im_BenStiller.png'],same,1,0.41655770000033954,24,0,
PHTA2206,train,neg,150,neg150_id6_im12.bmp_neg150_id5_im1.bmp,['Im_RobertPattinson.png', 'Im_KeanuReeves.png', 'Im_RyanGosling.png', 'Im_LeonardoDiCaprio.png', 'Im_PatrickDempsey.png', 'Im_JustinTimberlake.png', 'Im_DanielRadcliffe.png', 'Im_GeorgeClooney.png', 'Im_ElijahWood.png', 'Im_BenStiller.png'],same,0,0.40837439999995695,24,0,
PHTA2206,train,neg,0,neg0_id17_im9.bmp_neg0_id17_im8.bmp,['Im_RobertPattinson.png', 'Im_KeanuReeves.png', 'Im_RyanGosling.png', 'Im_LeonardoDiCaprio.png', 'Im_PatrickDempsey.png', 'Im_JustinTimberlake.png', 'Im_DanielRadcliffe.png', 'Im_GeorgeClooney.png', 'Im_ElijahWood.png', 'Im_BenStiller.png'],diff,0,0.41679819999990286,24,0,
PHTA2206,train,neg,30,neg30_id19_im27.bmp_neg30_id5_im1.bmp,['Im_RobertPattinson.png', 'Im_KeanuReeves.png', 'Im_RyanGosling.png', 'Im_LeonardoDiCaprio.png', 'Im_PatrickDempsey.png', 'Im_JustinTimberlake.png', 'Im_DanielRadcliffe.png', 'Im_GeorgeClooney.png', 'Im_ElijahWood.png', 'Im_BenStiller.png'],diff,1,0.4084237999995821,25,0,
PHTA2206,train,neg,120,neg120_id7_im14.bmp_neg120_id5_im10.bmp,['Im_RobertPattinson.png', 'Im_KeanuReeves.png', 'Im_RyanGosling.png', 'Im_LeonardoDiCaprio.png', 'Im_PatrickDempsey.png', 'Im_JustinTimberlake.png', 'Im_DanielRadcliffe.png', 'Im_GeorgeClooney.png', 'Im_ElijahWood.png', 'Im_BenStiller.png'],diff,1,0.4334134000000631,26,0,
PHTA2206,train,neg,120,neg120_id10_im18.bmp_neg120_id10_im17.bmp,['Im_RobertPattinson.png', 'Im_KeanuReeves.png', 'Im_RyanGosling.png', 'Im_LeonardoDiCaprio.png', 'Im_PatrickDempsey.png', 'Im_JustinTimberlake.png', 'Im_DanielRadcliffe.png', 'Im_GeorgeClooney.png', 'Im_ElijahWood.png', 'Im_BenStiller.png'],same,1,0.4250446000005468,27,0,
PHTA2206,train,neg,fs,negfs_id7_im14.bmp_negfs_id7_im26.bmp,['Im_RobertPattinson.png', 'Im_KeanuReeves.png', 'Im_RyanGosling.png', 'Im_LeonardoDiCaprio.png', 'Im_PatrickDempsey.png', 'Im_JustinTimberlake.png', 'Im_DanielRadcliffe.png', 'Im_GeorgeClooney.png', 'Im_ElijahWood.png', 'Im_BenStiller.png'],none,1,4.40830780000033,27,0,
PHTA2206,train,neg,150,neg150_id13_im29.bmp_neg150_id19_im8.bmp,['Im_RobertPattinson.png', 'Im_KeanuReeves.png', 'Im_RyanGosling.png', 'Im_LeonardoDiCaprio.png', 'Im_PatrickDempsey.png', 'Im_JustinTimberlake.png', 'Im_DanielRadcliffe.png', 'Im_GeorgeClooney.png', 'Im_ElijahWood.png', 'Im_BenStiller.png'],same,0,0.42513770000005024,27,0,
PHTA2206,train,neg,fs,negfs_id7_im14.bmp_negfs_id7_im15.bmp,['Im_RobertPattinson.png', 'Im_KeanuReeves.png', 'Im_RyanGosling.png', 'Im_LeonardoDiCaprio.png', 'Im_PatrickDempsey.png', 'Im_JustinTimberlake.png', 'Im_DanielRadcliffe.png', 'Im_GeorgeClooney.png', 'Im_ElijahWood.png', 'Im_BenStiller.png'],same,1,0.42505419999906735,28,0,
PHTA2206,train,neg,90,neg90_id6_im12.bmp_neg90_id5_im1.bmp,['Im_RobertPattinson.png', 'Im_KeanuReeves.png', 'Im_RyanGosling.png', 'Im_LeonardoDiCaprio.png', 'Im_PatrickDempsey.png', 'Im_JustinTimberlake.png', 'Im_DanielRadcliffe.png', 'Im_GeorgeClooney.png', 'Im_ElijahWood.png', 'Im_BenStiller.png'],same,0,0.425053900000421,28,0,
PHTA2206,train,neg,60,neg60_id6_im19.bmp_neg60_id6_im18.bmp,['Im_RobertPattinson.png', 'Im_KeanuReeves.png', 'Im_RyanGosling.png', 'Im_LeonardoDiCaprio.png', 'Im_PatrickDempsey.png', 'Im_JustinTimberlake.png', 'Im_DanielRadcliffe.png', 'Im_GeorgeClooney.png', 'Im_ElijahWood.png', 'Im_BenStiller.png'],same,1,0.4250303000007989,29,0,
PHTA2206,train,neg,60,neg60_id19_im4.bmp_neg60_id7_im15.bmp,['Im_RobertPattinson.png', 'Im_KeanuReeves.png', 'Im_RyanGosling.png', 'Im_LeonardoDiCaprio.png', 'Im_PatrickDempsey.png', 'Im_JustinTimberlake.png', 'Im_DanielRadcliffe.png', 'Im_GeorgeClooney.png', 'Im_ElijahWood.png', 'Im_BenStiller.png'],same,0,0.4167202000007819,29,0,
PHTA2206,train,neg,0,neg0_id19_im4.bmp_neg0_id19_im27.bmp,['Im_RobertPattinson.png', 'Im_KeanuReeves.png', 'Im_RyanGosling.png', 'Im_LeonardoDiCaprio.png', 'Im_PatrickDempsey.png', 'Im_JustinTimberlake.png', 'Im_DanielRadcliffe.png', 'Im_GeorgeClooney.png', 'Im_ElijahWood.png', 'Im_BenStiller.png'],diff,0,0.40838929999881657,29,0,
PHTA2206,train,neg,30,neg30_id2_im16.bmp_neg30_id11_im2.bmp,['Im_RobertPattinson.png', 'Im_KeanuReeves.png', 'Im_RyanGosling.png', 'Im_LeonardoDiCaprio.png', 'Im_PatrickDempsey.png', 'Im_JustinTimberlake.png', 'Im_DanielRadcliffe.png', 'Im_GeorgeClooney.png', 'Im_ElijahWood.png', 'Im_BenStiller.png'],diff,1,0.4250315999997838,30,0,
PHTA2206,train,neg,90,neg90_id2_im3.bmp_neg90_id17_im14.bmp,['Im_RobertPattinson.png', 'Im_KeanuReeves.png', 'Im_RyanGosling.png', 'Im_LeonardoDiCaprio.png', 'Im_PatrickDempsey.png', 'Im_JustinTimberlake.png', 'Im_DanielRadcliffe.png', 'Im_GeorgeClooney.png', 'Im_ElijahWood.png', 'Im_BenStiller.png'],diff,1,0.416724400000021,31,0,
PHTA2206,train,inv,30,pos30_id5_im20.bmp_pos30_id17_im8.bmp,['Im_RobertPattinson.png', 'Im_KeanuReeves.png', 'Im_RyanGosling.png', 'Im_LeonardoDiCaprio.png', 'Im_PatrickDempsey.png', 'Im_JustinTimberlake.png', 'Im_DanielRadcliffe.png', 'Im_GeorgeClooney.png', 'Im_ElijahWood.png', 'Im_BenStiller.png'],diff,1,0.41670890000023064,1,73.80952380952381,
PHTA2206,train,inv,30,pos30_id5_im10.bmp_pos30_id20_im30.bmp,['Im_RobertPattinson.png', 'Im_KeanuReeves.png', 'Im_RyanGosling.png', 'Im_LeonardoDiCaprio.png', 'Im_PatrickDempsey.png', 'Im_JustinTimberlake.png', 'Im_DanielRadcliffe.png', 'Im_GeorgeClooney.png', 'Im_ElijahWood.png', 'Im_BenStiller.png'],diff,1,0.42510550000042713,2,73.80952380952381,
PHTA2206,train,inv,fs,posfs_id11_im1.bmp_posfs_id11_im10.bmp,['Im_RobertPattinson.png', 'Im_KeanuReeves.png', 'Im_RyanGosling.png', 'Im_LeonardoDiCaprio.png', 'Im_PatrickDempsey.png', 'Im_JustinTimberlake.png', 'Im_DanielRadcliffe.png', 'Im_GeorgeClooney.png', 'Im_ElijahWood.png', 'Im_BenStiller.png'],same,1,0.41680040000028384,3,73.80952380952381,
PHTA2206,train,inv,120,pos120_id17_im14.bmp_pos120_id2_im3.bmp,['Im_RobertPattinson.png', 'Im_KeanuReeves.png', 'Im_RyanGosling.png', 'Im_LeonardoDiCaprio.png', 'Im_PatrickDempsey.png', 'Im_JustinTimberlake.png', 'Im_DanielRadcliffe.png', 'Im_GeorgeClooney.png', 'Im_ElijahWood.png', 'Im_BenStiller.png'],diff,1,0.4249988999999914,4,73.80952380952381,
PHTA2206,train,inv,0,pos0_id5_im20.bmp_pos0_id5_im10.bmp,['Im_RobertPattinson.png', 'Im_KeanuReeves.png', 'Im_RyanGosling.png', 'Im_LeonardoDiCaprio.png', 'Im_PatrickDempsey.png', 'Im_JustinTimberlake.png', 'Im_DanielRadcliffe.png', 'Im_GeorgeClooney.png', 'Im_ElijahWood.png', 'Im_BenStiller.png'],diff,0,0.41670429999976477,4,73.80952380952381,
PHTA2206,train,inv,60,pos60_id11_im10.bmp_pos60_id11_im1.bmp,['Im_RobertPattinson.png', 'Im_KeanuReeves.png', 'Im_RyanGosling.png', 'Im_LeonardoDiCaprio.png', 'Im_PatrickDempsey.png', 'Im_JustinTimberlake.png', 'Im_DanielRadcliffe.png', 'Im_GeorgeClooney.png', 'Im_ElijahWood.png', 'Im_BenStiller.png'],same,1,0.433395300000484,5,73.80952380952381,
PHTA2206,train,inv,90,pos90_id20_im3.bmp_pos90_id20_im30.bmp,['Im_RobertPattinson.png', 'Im_KeanuReeves.png', 'Im_RyanGosling.png', 'Im_LeonardoDiCaprio.png', 'Im_PatrickDempsey.png', 'Im_JustinTimberlake.png', 'Im_DanielRadcliffe.png', 'Im_GeorgeClooney.png', 'Im_ElijahWood.png', 'Im_BenStiller.png'],same,1,0.40837030000147934,6,73.80952380952381,
PHTA2206,train,inv,120,pos120_id17_im8.bmp_pos120_id5_im20.bmp,['Im_RobertPattinson.png', 'Im_KeanuReeves.png', 'Im_RyanGosling.png', 'Im_LeonardoDiCaprio.png', 'Im_PatrickDempsey.png', 'Im_JustinTimberlake.png', 'Im_DanielRadcliffe.png', 'Im_GeorgeClooney.png', 'Im_ElijahWood.png', 'Im_BenStiller.png'],diff,1,0.4250197000001208,7,73.80952380952381,
PHTA2206,train,inv,fs,posfs_id5_im20.bmp_posfs_id5_im1.bmp,['Im_RobertPattinson.png', 'Im_KeanuReeves.png', 'Im_RyanGosling.png', 'Im_LeonardoDiCaprio.png', 'Im_PatrickDempsey.png', 'Im_JustinTimberlake.png', 'Im_DanielRadcliffe.png', 'Im_GeorgeClooney.png', 'Im_ElijahWood.png', 'Im_BenStiller.png'],same,1,0.4084171000013157,8,73.80952380952381,
PHTA2206,train,inv,150,pos150_id6_im19.bmp_pos150_id6_im12.bmp,['Im_RobertPattinson.png', 'Im_KeanuReeves.png', 'Im_RyanGosling.png', 'Im_LeonardoDiCaprio.png', 'Im_PatrickDempsey.png', 'Im_JustinTimberlake.png', 'Im_DanielRadcliffe.png', 'Im_GeorgeClooney.png', 'Im_ElijahWood.png', 'Im_BenStiller.png'],same,1,0.41668059999938123,9,73.80952380952381,
PHTA2206,train,inv,0,pos0_id5_im1.bmp_pos0_id6_im12.bmp,['Im_RobertPattinson.png', 'Im_KeanuReeves.png', 'Im_RyanGosling.png', 'Im_LeonardoDiCaprio.png', 'Im_PatrickDempsey.png', 'Im_JustinTimberlake.png', 'Im_DanielRadcliffe.png', 'Im_GeorgeClooney.png', 'Im_ElijahWood.png', 'Im_BenStiller.png'],same,0,0.42500529999961145,9,73.80952380952381,
PHTA2206,train,inv,90,pos90_id11_im2.bmp_pos90_id2_im16.bmp,['Im_RobertPattinson.png', 'Im_KeanuReeves.png', 'Im_RyanGosling.png', 'Im_LeonardoDiCaprio.png', 'Im_PatrickDempsey.png', 'Im_JustinTimberlake.png', 'Im_DanielRadcliffe.png', 'Im_GeorgeClooney.png', 'Im_ElijahWood.png', 'Im_BenStiller.png'],same,0,0.4251727999999275,9,73.80952380952381,
PHTA2206,train,inv,150,pos150_id2_im2.bmp_pos150_id2_im3.bmp,['Im_RobertPattinson.png', 'Im_KeanuReeves.png', 'Im_RyanGosling.png', 'Im_LeonardoDiCaprio.png', 'Im_PatrickDempsey.png', 'Im_JustinTimberlake.png', 'Im_DanielRadcliffe.png', 'Im_GeorgeClooney.png', 'Im_ElijahWood.png', 'Im_BenStiller.png'],same,1,0.40840100000059465,10,73.80952380952381,
PHTA2206,train,inv,60,pos60_id19_im8.bmp_pos60_id11_im1.bmp,['Im_RobertPattinson.png', 'Im_KeanuReeves.png', 'Im_RyanGosling.png', 'Im_LeonardoDiCaprio.png', 'Im_PatrickDempsey.png', 'Im_JustinTimberlake.png', 'Im_DanielRadcliffe.png', 'Im_GeorgeClooney.png', 'Im_ElijahWood.png', 'Im_BenStiller.png'],diff,1,0.40839860000050976,11,73.80952380952381,
PHTA2206,train,pos,120,pos120_id10_im17.bmp_pos120_id2_im2.bmp,['Im_RobertPattinson.png', 'Im_KeanuReeves.png', 'Im_RyanGosling.png', 'Im_LeonardoDiCaprio.png', 'Im_PatrickDempsey.png', 'Im_JustinTimberlake.png', 'Im_DanielRadcliffe.png', 'Im_GeorgeClooney.png', 'Im_ElijahWood.png', 'Im_BenStiller.png'],diff,1,0.41654379999999946,12,73.80952380952381,
PHTA2206,train,pos,0,pos0_id20_im12.bmp_pos0_id7_im15.bmp,['Im_RobertPattinson.png', 'Im_KeanuReeves.png', 'Im_RyanGosling.png', 'Im_LeonardoDiCaprio.png', 'Im_PatrickDempsey.png', 'Im_JustinTimberlake.png', 'Im_DanielRadcliffe.png', 'Im_GeorgeClooney.png', 'Im_ElijahWood.png', 'Im_BenStiller.png'],diff,1,0.43338179999955173,13,73.80952380952381,
PHTA2206,train,pos,fs,posfs_id5_im20.bmp_posfs_id17_im8.bmp,['Im_RobertPattinson.png', 'Im_KeanuReeves.png', 'Im_RyanGosling.png', 'Im_LeonardoDiCaprio.png', 'Im_PatrickDempsey.png', 'Im_JustinTimberlake.png', 'Im_DanielRadcliffe.png', 'Im_GeorgeClooney.png', 'Im_ElijahWood.png', 'Im_BenStiller.png'],diff,1,0.42490839999845775,14,73.80952380952381,
PHTA2206,train,pos,30,pos30_id11_im2.bmp_pos30_id11_im1.bmp,['Im_RobertPattinson.png', 'Im_KeanuReeves.png', 'Im_RyanGosling.png', 'Im_LeonardoDiCaprio.png', 'Im_PatrickDempsey.png', 'Im_JustinTimberlake.png', 'Im_DanielRadcliffe.png', 'Im_GeorgeClooney.png', 'Im_ElijahWood.png', 'Im_BenStiller.png'],diff,0,0.4167026999984955,14,73.80952380952381,
PHTA2206,train,pos,120,pos120_id19_im4.bmp_pos120_id19_im8.bmp,['Im_RobertPattinson.png', 'Im_KeanuReeves.png', 'Im_RyanGosling.png', 'Im_LeonardoDiCaprio.png', 'Im_PatrickDempsey.png', 'Im_JustinTimberlake.png', 'Im_DanielRadcliffe.png', 'Im_GeorgeClooney.png', 'Im_ElijahWood.png', 'Im_BenStiller.png'],same,1,0.42501179999999295,15,73.80952380952381,
PHTA2206,train,pos,fs,posfs_id20_im30.bmp_posfs_id10_im18.bmp,['Im_RobertPattinson.png', 'Im_KeanuReeves.png', 'Im_RyanGosling.png', 'Im_LeonardoDiCaprio.png', 'Im_PatrickDempsey.png', 'Im_JustinTimberlake.png', 'Im_DanielRadcliffe.png', 'Im_GeorgeClooney.png', 'Im_ElijahWood.png', 'Im_BenStiller.png'],diff,1,0.424873199999638,16,73.80952380952381,
PHTA2206,train,pos,90,pos90_id11_im2.bmp_pos90_id11_im10.bmp,['Im_RobertPattinson.png', 'Im_KeanuReeves.png', 'Im_RyanGosling.png', 'Im_LeonardoDiCaprio.png', 'Im_PatrickDempsey.png', 'Im_JustinTimberlake.png', 'Im_DanielRadcliffe.png', 'Im_GeorgeClooney.png', 'Im_ElijahWood.png', 'Im_BenStiller.png'],diff,0,0.4167158999989624,16,73.80952380952381,
PHTA2206,train,pos,60,pos60_id6_im18.bmp_pos60_id13_im15.bmp,['Im_RobertPattinson.png', 'Im_KeanuReeves.png', 'Im_RyanGosling.png', 'Im_LeonardoDiCaprio.png', 'Im_PatrickDempsey.png', 'Im_JustinTimberlake.png', 'Im_DanielRadcliffe.png', 'Im_GeorgeClooney.png', 'Im_ElijahWood.png', 'Im_BenStiller.png'],diff,1,0.4084018000012293,17,73.80952380952381,
PHTA2206,train,pos,150,pos150_id2_im16.bmp_pos150_id10_im1.bmp,['Im_RobertPattinson.png', 'Im_KeanuReeves.png', 'Im_RyanGosling.png', 'Im_LeonardoDiCaprio.png', 'Im_PatrickDempsey.png', 'Im_JustinTimberlake.png', 'Im_DanielRadcliffe.png', 'Im_GeorgeClooney.png', 'Im_ElijahWood.png', 'Im_BenStiller.png'],diff,1,0.425017100000332,18,73.80952380952381,
PHTA2206,train,pos,60,pos60_id7_im15.bmp_pos60_id20_im12.bmp,['Im_RobertPattinson.png', 'Im_KeanuReeves.png', 'Im_RyanGosling.png', 'Im_LeonardoDiCaprio.png', 'Im_PatrickDempsey.png', 'Im_JustinTimberlake.png', 'Im_DanielRadcliffe.png', 'Im_GeorgeClooney.png', 'Im_ElijahWood.png', 'Im_BenStiller.png'],diff,1,0.41685010000037437,19,73.80952380952381,
PHTA2206,train,pos,90,pos90_id5_im1.bmp_pos90_id6_im12.bmp,['Im_RobertPattinson.png', 'Im_KeanuReeves.png', 'Im_RyanGosling.png', 'Im_LeonardoDiCaprio.png', 'Im_PatrickDempsey.png', 'Im_JustinTimberlake.png', 'Im_DanielRadcliffe.png', 'Im_GeorgeClooney.png', 'Im_ElijahWood.png', 'Im_BenStiller.png'],same,0,0.4585343999988254,19,73.80952380952381,
PHTA2206,train,pos,30,pos30_id6_im18.bmp_pos30_id20_im3.bmp,['Im_RobertPattinson.png', 'Im_KeanuReeves.png', 'Im_RyanGosling.png', 'Im_LeonardoDiCaprio.png', 'Im_PatrickDempsey.png', 'Im_JustinTimberlake.png', 'Im_DanielRadcliffe.png', 'Im_GeorgeClooney.png', 'Im_ElijahWood.png', 'Im_BenStiller.png'],diff,1,0.41643959999964864,20,73.80952380952381,
PHTA2206,train,pos,150,pos150_id13_im15.bmp_pos150_id6_im18.bmp,['Im_RobertPattinson.png', 'Im_KeanuReeves.png', 'Im_RyanGosling.png', 'Im_LeonardoDiCaprio.png', 'Im_PatrickDempsey.png', 'Im_JustinTimberlake.png', 'Im_DanielRadcliffe.png', 'Im_GeorgeClooney.png', 'Im_ElijahWood.png', 'Im_BenStiller.png'],diff,1,0.42503039999974135,21,73.80952380952381,
PHTA2206,train,pos,0,pos0_id11_im10.bmp_pos0_id11_im1.bmp,['Im_RobertPattinson.png', 'Im_KeanuReeves.png', 'Im_RyanGosling.png', 'Im_LeonardoDiCaprio.png', 'Im_PatrickDempsey.png', 'Im_JustinTimberlake.png', 'Im_DanielRadcliffe.png', 'Im_GeorgeClooney.png', 'Im_ElijahWood.png', 'Im_BenStiller.png'],same,1,0.42504470000130823,22,73.80952380952381,
PHTA2206,train,neg,fs,negfs_id7_im26.bmp_negfs_id7_im15.bmp,['Im_RobertPattinson.png', 'Im_KeanuReeves.png', 'Im_RyanGosling.png', 'Im_LeonardoDiCaprio.png', 'Im_PatrickDempsey.png', 'Im_JustinTimberlake.png', 'Im_DanielRadcliffe.png', 'Im_GeorgeClooney.png', 'Im_ElijahWood.png', 'Im_BenStiller.png'],same,1,0.41669240000010177,23,73.80952380952381,
PHTA2206,train,neg,0,neg0_id13_im15.bmp_neg0_id6_im18.bmp,['Im_RobertPattinson.png', 'Im_KeanuReeves.png', 'Im_RyanGosling.png', 'Im_LeonardoDiCaprio.png', 'Im_PatrickDempsey.png', 'Im_JustinTimberlake.png', 'Im_DanielRadcliffe.png', 'Im_GeorgeClooney.png', 'Im_ElijahWood.png', 'Im_BenStiller.png'],diff,1,0.4167264999996405,24,73.80952380952381,
PHTA2206,train,neg,150,neg150_id2_im2.bmp_neg150_id2_im3.bmp,['Im_RobertPattinson.png', 'Im_KeanuReeves.png', 'Im_RyanGosling.png', 'Im_LeonardoDiCaprio.png', 'Im_PatrickDempsey.png', 'Im_JustinTimberlake.png', 'Im_DanielRadcliffe.png', 'Im_GeorgeClooney.png', 'Im_ElijahWood.png', 'Im_BenStiller.png'],same,1,0.42504100000041944,25,73.80952380952381,
PHTA2206,train,neg,90,neg90_id13_im10.bmp_neg90_id13_im15.bmp,['Im_RobertPattinson.png', 'Im_KeanuReeves.png', 'Im_RyanGosling.png', 'Im_LeonardoDiCaprio.png', 'Im_PatrickDempsey.png', 'Im_JustinTimberlake.png', 'Im_DanielRadcliffe.png', 'Im_GeorgeClooney.png', 'Im_ElijahWood.png', 'Im_BenStiller.png'],same,1,0.40838199999961944,26,73.80952380952381,
PHTA2206,train,neg,60,neg60_id17_im9.bmp_neg60_id17_im8.bmp,['Im_RobertPattinson.png', 'Im_KeanuReeves.png', 'Im_RyanGosling.png', 'Im_LeonardoDiCaprio.png', 'Im_PatrickDempsey.png', 'Im_JustinTimberlake.png', 'Im_DanielRadcliffe.png', 'Im_GeorgeClooney.png', 'Im_ElijahWood.png', 'Im_BenStiller.png'],diff,0,0.408494299999802,26,73.80952380952381,
PHTA2206,train,neg,120,neg120_id6_im12.bmp_neg120_id6_im19.bmp,['Im_RobertPattinson.png', 'Im_KeanuReeves.png', 'Im_RyanGosling.png', 'Im_LeonardoDiCaprio.png', 'Im_PatrickDempsey.png', 'Im_JustinTimberlake.png', 'Im_DanielRadcliffe.png', 'Im_GeorgeClooney.png', 'Im_ElijahWood.png', 'Im_BenStiller.png'],same,1,0.4083697999994911,27,73.80952380952381,
PHTA2206,train,neg,0,neg0_id20_im12.bmp_neg0_id20_im30.bmp,['Im_RobertPattinson.png', 'Im_KeanuReeves.png', 'Im_RyanGosling.png', 'Im_LeonardoDiCaprio.png', 'Im_PatrickDempsey.png', 'Im_JustinTimberlake.png', 'Im_DanielRadcliffe.png', 'Im_GeorgeClooney.png', 'Im_ElijahWood.png', 'Im_BenStiller.png'],same,1,0.43341310000141675,28,73.80952380952381,
PHTA2206,train,neg,30,neg30_id13_im15.bmp_neg30_id11_im1.bmp,['Im_RobertPattinson.png', 'Im_KeanuReeves.png', 'Im_RyanGosling.png', 'Im_LeonardoDiCaprio.png', 'Im_PatrickDempsey.png', 'Im_JustinTimberlake.png', 'Im_DanielRadcliffe.png', 'Im_GeorgeClooney.png', 'Im_ElijahWood.png', 'Im_BenStiller.png'],diff,1,0.4167336000009527,29,73.80952380952381,
PHTA2206,train,neg,30,neg30_id19_im8.bmp_neg30_id11_im1.bmp,['Im_RobertPattinson.png', 'Im_KeanuReeves.png', 'Im_RyanGosling.png', 'Im_LeonardoDiCaprio.png', 'Im_PatrickDempsey.png', 'Im_JustinTimberlake.png', 'Im_DanielRadcliffe.png', 'Im_GeorgeClooney.png', 'Im_ElijahWood.png', 'Im_BenStiller.png'],diff,1,0.4084526000006008,30,73.80952380952381,
PHTA2206,train,neg,150,neg150_id13_im15.bmp_neg150_id11_im1.bmp,['Im_RobertPattinson.png', 'Im_KeanuReeves.png', 'Im_RyanGosling.png', 'Im_LeonardoDiCaprio.png', 'Im_PatrickDempsey.png', 'Im_JustinTimberlake.png', 'Im_DanielRadcliffe.png', 'Im_GeorgeClooney.png', 'Im_ElijahWood.png', 'Im_BenStiller.png'],diff,1,0.40840489999936835,31,73.80952380952381,
PHTA2206,train,neg,60,neg60_id13_im10.bmp_neg60_id20_im12.bmp,['Im_RobertPattinson.png', 'Im_KeanuReeves.png', 'Im_RyanGosling.png', 'Im_LeonardoDiCaprio.png', 'Im_PatrickDempsey.png', 'Im_JustinTimberlake.png', 'Im_DanielRadcliffe.png', 'Im_GeorgeClooney.png', 'Im_ElijahWood.png', 'Im_BenStiller.png'],diff,1,0.40837789999932284,32,73.80952380952381,
PHTA2206,train,neg,fs,negfs_id5_im20.bmp_negfs_id5_im10.bmp,['Im_RobertPattinson.png', 'Im_KeanuReeves.png', 'Im_RyanGosling.png', 'Im_LeonardoDiCaprio.png', 'Im_PatrickDempsey.png', 'Im_JustinTimberlake.png', 'Im_DanielRadcliffe.png', 'Im_GeorgeClooney.png', 'Im_ElijahWood.png', 'Im_BenStiller.png'],diff,0,0.4250391999994463,32,73.80952380952381,
PHTA2206,train,neg,90,neg90_id2_im16.bmp_neg90_id10_im1.bmp,['Im_RobertPattinson.png', 'Im_KeanuReeves.png', 'Im_RyanGosling.png', 'Im_LeonardoDiCaprio.png', 'Im_PatrickDempsey.png', 'Im_JustinTimberlake.png', 'Im_DanielRadcliffe.png', 'Im_GeorgeClooney.png', 'Im_ElijahWood.png', 'Im_BenStiller.png'],diff,1,0.43339319999904546,33,73.80952380952381,
PHTA2206,train,neg,120,neg120_id19_im8.bmp_neg120_id13_im29.bmp,['Im_RobertPattinson.png', 'Im_KeanuReeves.png', 'Im_RyanGosling.png', 'Im_LeonardoDiCaprio.png', 'Im_PatrickDempsey.png', 'Im_JustinTimberlake.png', 'Im_DanielRadcliffe.png', 'Im_GeorgeClooney.png', 'Im_ElijahWood.png', 'Im_BenStiller.png'],diff,1,0.4334106000005704,34,73.80952380952381,
PHTA2206,train,inv,120,pos120_id10_im1.bmp_pos120_id10_im17.bmp,['Im_RobertPattinson.png', 'Im_KeanuReeves.png', 'Im_RyanGosling.png', 'Im_LeonardoDiCaprio.png', 'Im_PatrickDempsey.png', 'Im_JustinTimberlake.png', 'Im_DanielRadcliffe.png', 'Im_GeorgeClooney.png', 'Im_ElijahWood.png', 'Im_BenStiller.png'],diff,0,0.4168582000002061,0,80.95238095238095,
PHTA2206,train,inv,30,pos30_id13_im10.bmp_pos30_id20_im12.bmp,['Im_RobertPattinson.png', 'Im_KeanuReeves.png', 'Im_RyanGosling.png', 'Im_LeonardoDiCaprio.png', 'Im_PatrickDempsey.png', 'Im_JustinTimberlake.png', 'Im_DanielRadcliffe.png', 'Im_GeorgeClooney.png', 'Im_ElijahWood.png', 'Im_BenStiller.png'],diff,1,0.4250189999984286,1,80.95238095238095,
PHTA2206,train,inv,0,pos0_id20_im3.bmp_pos0_id6_im18.bmp,['Im_RobertPattinson.png', 'Im_KeanuReeves.png', 'Im_RyanGosling.png', 'Im_LeonardoDiCaprio.png', 'Im_PatrickDempsey.png', 'Im_JustinTimberlake.png', 'Im_DanielRadcliffe.png', 'Im_GeorgeClooney.png', 'Im_ElijahWood.png', 'Im_BenStiller.png'],diff,1,0.4164466000001994,2,80.95238095238095,
PHTA2206,train,inv,120,pos120_id11_im10.bmp_pos120_id17_im14.bmp,['Im_RobertPattinson.png', 'Im_KeanuReeves.png', 'Im_RyanGosling.png', 'Im_LeonardoDiCaprio.png', 'Im_PatrickDempsey.png', 'Im_JustinTimberlake.png', 'Im_DanielRadcliffe.png', 'Im_GeorgeClooney.png', 'Im_ElijahWood.png', 'Im_BenStiller.png'],same,0,0.5251086999996915,2,80.95238095238095,
PHTA2206,train,inv,30,pos30_id17_im9.bmp_pos30_id17_im14.bmp,['Im_RobertPattinson.png', 'Im_KeanuReeves.png', 'Im_RyanGosling.png', 'Im_LeonardoDiCaprio.png', 'Im_PatrickDempsey.png', 'Im_JustinTimberlake.png', 'Im_DanielRadcliffe.png', 'Im_GeorgeClooney.png', 'Im_ElijahWood.png', 'Im_BenStiller.png'],same,1,0.425266999998712,3,80.95238095238095,
PHTA2206,train,inv,90,pos90_id20_im3.bmp_pos90_id6_im19.bmp,['Im_RobertPattinson.png', 'Im_KeanuReeves.png', 'Im_RyanGosling.png', 'Im_LeonardoDiCaprio.png', 'Im_PatrickDempsey.png', 'Im_JustinTimberlake.png', 'Im_DanielRadcliffe.png', 'Im_GeorgeClooney.png', 'Im_ElijahWood.png', 'Im_BenStiller.png'],diff,1,0.4084137000008923,4,80.95238095238095,
PHTA2206,train,inv,90,pos90_id7_im14.bmp_pos90_id13_im29.bmp,['Im_RobertPattinson.png', 'Im_KeanuReeves.png', 'Im_RyanGosling.png', 'Im_LeonardoDiCaprio.png', 'Im_PatrickDempsey.png', 'Im_JustinTimberlake.png', 'Im_DanielRadcliffe.png', 'Im_GeorgeClooney.png', 'Im_ElijahWood.png', 'Im_BenStiller.png'],diff,1,0.4250487000008434,5,80.95238095238095,
PHTA2206,train,inv,fs,posfs_id5_im20.bmp_posfs_id17_im8.bmp,['Im_RobertPattinson.png', 'Im_KeanuReeves.png', 'Im_RyanGosling.png', 'Im_LeonardoDiCaprio.png', 'Im_PatrickDempsey.png', 'Im_JustinTimberlake.png', 'Im_DanielRadcliffe.png', 'Im_GeorgeClooney.png', 'Im_ElijahWood.png', 'Im_BenStiller.png'],same,0,0.4249997999995685,5,80.95238095238095,
PHTA2206,train,inv,150,pos150_id7_im26.bmp_pos150_id7_im14.bmp,['Im_RobertPattinson.png', 'Im_KeanuReeves.png', 'Im_RyanGosling.png', 'Im_LeonardoDiCaprio.png', 'Im_PatrickDempsey.png', 'Im_JustinTimberlake.png', 'Im_DanielRadcliffe.png', 'Im_GeorgeClooney.png', 'Im_ElijahWood.png', 'Im_BenStiller.png'],same,1,0.4083495999984734,6,80.95238095238095,
PHTA2206,train,inv,0,pos0_id6_im12.bmp_pos0_id6_im18.bmp,['Im_RobertPattinson.png', 'Im_KeanuReeves.png', 'Im_RyanGosling.png', 'Im_LeonardoDiCaprio.png', 'Im_PatrickDempsey.png', 'Im_JustinTimberlake.png', 'Im_DanielRadcliffe.png', 'Im_GeorgeClooney.png', 'Im_ElijahWood.png', 'Im_BenStiller.png'],same,1,0.43339729999934207,7,80.95238095238095,
PHTA2206,train,inv,150,pos150_id7_im15.bmp_pos150_id7_im14.bmp,['Im_RobertPattinson.png', 'Im_KeanuReeves.png', 'Im_RyanGosling.png', 'Im_LeonardoDiCaprio.png', 'Im_PatrickDempsey.png', 'Im_JustinTimberlake.png', 'Im_DanielRadcliffe.png', 'Im_GeorgeClooney.png', 'Im_ElijahWood.png', 'Im_BenStiller.png'],same,1,0.416719999999259,8,80.95238095238095,
PHTA2206,train,inv,fs,posfs_id6_im18.bmp_posfs_id6_im19.bmp,['Im_RobertPattinson.png', 'Im_KeanuReeves.png', 'Im_RyanGosling.png', 'Im_LeonardoDiCaprio.png', 'Im_PatrickDempsey.png', 'Im_JustinTimberlake.png', 'Im_DanielRadcliffe.png', 'Im_GeorgeClooney.png', 'Im_ElijahWood.png', 'Im_BenStiller.png'],same,1,0.40830129999994824,9,80.95238095238095,
PHTA2206,train,inv,60,pos60_id10_im18.bmp_pos60_id11_im2.bmp,['Im_RobertPattinson.png', 'Im_KeanuReeves.png', 'Im_RyanGosling.png', 'Im_LeonardoDiCaprio.png', 'Im_PatrickDempsey.png', 'Im_JustinTimberlake.png', 'Im_DanielRadcliffe.png', 'Im_GeorgeClooney.png', 'Im_ElijahWood.png', 'Im_BenStiller.png'],diff,1,0.4333645000006072,10,80.95238095238095,
PHTA2206,train,inv,60,pos60_id19_im8.bmp_pos60_id19_im27.bmp,['Im_RobertPattinson.png', 'Im_KeanuReeves.png', 'Im_RyanGosling.png', 'Im_LeonardoDiCaprio.png', 'Im_PatrickDempsey.png', 'Im_JustinTimberlake.png', 'Im_DanielRadcliffe.png', 'Im_GeorgeClooney.png', 'Im_ElijahWood.png', 'Im_BenStiller.png'],same,1,0.42506200000025274,11,80.95238095238095,
PHTA2206,train,neg,90,neg90_id20_im12.bmp_neg90_id20_im30.bmp,['Im_RobertPattinson.png', 'Im_KeanuReeves.png', 'Im_RyanGosling.png', 'Im_LeonardoDiCaprio.png', 'Im_PatrickDempsey.png', 'Im_JustinTimberlake.png', 'Im_DanielRadcliffe.png', 'Im_GeorgeClooney.png', 'Im_ElijahWood.png', 'Im_BenStiller.png'],same,1,0.4168275000010908,12,80.95238095238095,
PHTA2206,train,neg,30,neg30_id5_im1.bmp_neg30_id5_im20.bmp,['Im_RobertPattinson.png', 'Im_KeanuReeves.png', 'Im_RyanGosling.png', 'Im_LeonardoDiCaprio.png', 'Im_PatrickDempsey.png', 'Im_JustinTimberlake.png', 'Im_DanielRadcliffe.png', 'Im_GeorgeClooney.png', 'Im_ElijahWood.png', 'Im_BenStiller.png'],same,1,0.40850139999929524,13,80.95238095238095,
PHTA2206,train,neg,150,neg150_id10_im1.bmp_neg150_id6_im12.bmp,['Im_RobertPattinson.png', 'Im_KeanuReeves.png', 'Im_RyanGosling.png', 'Im_LeonardoDiCaprio.png', 'Im_PatrickDempsey.png', 'Im_JustinTimberlake.png', 'Im_DanielRadcliffe.png', 'Im_GeorgeClooney.png', 'Im_ElijahWood.png', 'Im_BenStiller.png'],diff,1,0.42501390000143147,14,80.95238095238095,
PHTA2206,train,neg,150,neg150_id20_im12.bmp_neg150_id13_im10.bmp,['Im_RobertPattinson.png', 'Im_KeanuReeves.png', 'Im_RyanGosling.png', 'Im_LeonardoDiCaprio.png', 'Im_PatrickDempsey.png', 'Im_JustinTimberlake.png', 'Im_DanielRadcliffe.png', 'Im_GeorgeClooney.png', 'Im_ElijahWood.png', 'Im_BenStiller.png'],diff,1,0.41667580000103044,15,80.95238095238095,
PHTA2206,train,neg,60,neg60_id10_im18.bmp_neg60_id20_im30.bmp,['Im_RobertPattinson.png', 'Im_KeanuReeves.png', 'Im_RyanGosling.png', 'Im_LeonardoDiCaprio.png', 'Im_PatrickDempsey.png', 'Im_JustinTimberlake.png', 'Im_DanielRadcliffe.png', 'Im_GeorgeClooney.png', 'Im_ElijahWood.png', 'Im_BenStiller.png'],diff,1,0.40835560000050464,16,80.95238095238095,
PHTA2206,train,neg,0,neg0_id2_im3.bmp_neg0_id7_im26.bmp,['Im_RobertPattinson.png', 'Im_KeanuReeves.png', 'Im_RyanGosling.png', 'Im_LeonardoDiCaprio.png', 'Im_PatrickDempsey.png', 'Im_JustinTimberlake.png', 'Im_DanielRadcliffe.png', 'Im_GeorgeClooney.png', 'Im_ElijahWood.png', 'Im_BenStiller.png'],same,0,0.4082837000005384,16,80.95238095238095,
PHTA2206,train,neg,120,neg120_id17_im14.bmp_neg120_id11_im10.bmp,['Im_RobertPattinson.png', 'Im_KeanuReeves.png', 'Im_RyanGosling.png', 'Im_LeonardoDiCaprio.png', 'Im_PatrickDempsey.png', 'Im_JustinTimberlake.png', 'Im_DanielRadcliffe.png', 'Im_GeorgeClooney.png', 'Im_ElijahWood.png', 'Im_BenStiller.png'],diff,1,0.4168016000003263,17,80.95238095238095,
PHTA2206,train,neg,60,neg60_id6_im18.bmp_neg60_id13_im15.bmp,['Im_RobertPattinson.png', 'Im_KeanuReeves.png', 'Im_RyanGosling.png', 'Im_LeonardoDiCaprio.png', 'Im_PatrickDempsey.png', 'Im_JustinTimberlake.png', 'Im_DanielRadcliffe.png', 'Im_GeorgeClooney.png', 'Im_ElijahWood.png', 'Im_BenStiller.png'],diff,1,0.4084504000002198,18,80.95238095238095,
PHTA2206,train,neg,120,neg120_id11_im2.bmp_neg120_id10_im18.bmp,['Im_RobertPattinson.png', 'Im_KeanuReeves.png', 'Im_RyanGosling.png', 'Im_LeonardoDiCaprio.png', 'Im_PatrickDempsey.png', 'Im_JustinTimberlake.png', 'Im_DanielRadcliffe.png', 'Im_GeorgeClooney.png', 'Im_ElijahWood.png', 'Im_BenStiller.png'],diff,1,0.42502650000096764,19,80.95238095238095,
PHTA2206,train,neg,0,neg0_id6_im12.bmp_neg0_id10_im1.bmp,['Im_RobertPattinson.png', 'Im_KeanuReeves.png', 'Im_RyanGosling.png', 'Im_LeonardoDiCaprio.png', 'Im_PatrickDempsey.png', 'Im_JustinTimberlake.png', 'Im_DanielRadcliffe.png', 'Im_GeorgeClooney.png', 'Im_ElijahWood.png', 'Im_BenStiller.png'],diff,1,0.43365780000021914,20,80.95238095238095,
PHTA2206,train,neg,90,neg90_id11_im1.bmp_neg90_id11_im2.bmp,['Im_RobertPattinson.png', 'Im_KeanuReeves.png', 'Im_RyanGosling.png', 'Im_LeonardoDiCaprio.png', 'Im_PatrickDempsey.png', 'Im_JustinTimberlake.png', 'Im_DanielRadcliffe.png', 'Im_GeorgeClooney.png', 'Im_ElijahWood.png', 'Im_BenStiller.png'],diff,0,0.4164512999996077,20,80.95238095238095,
PHTA2206,train,neg,30,neg30_id10_im17.bmp_neg30_id10_im1.bmp,['Im_RobertPattinson.png', 'Im_KeanuReeves.png', 'Im_RyanGosling.png', 'Im_LeonardoDiCaprio.png', 'Im_PatrickDempsey.png', 'Im_JustinTimberlake.png', 'Im_DanielRadcliffe.png', 'Im_GeorgeClooney.png', 'Im_ElijahWood.png', 'Im_BenStiller.png'],same,1,0.4081521000007342,21,80.95238095238095,
PHTA2206,train,neg,fs,negfs_id13_im10.bmp_negfs_id20_im12.bmp,['Im_RobertPattinson.png', 'Im_KeanuReeves.png', 'Im_RyanGosling.png', 'Im_LeonardoDiCaprio.png', 'Im_PatrickDempsey.png', 'Im_JustinTimberlake.png', 'Im_DanielRadcliffe.png', 'Im_GeorgeClooney.png', 'Im_ElijahWood.png', 'Im_BenStiller.png'],diff,1,0.4083479000000807,22,80.95238095238095,
PHTA2206,train,neg,fs,negfs_id6_im19.bmp_negfs_id6_im12.bmp,['Im_RobertPattinson.png', 'Im_KeanuReeves.png', 'Im_RyanGosling.png', 'Im_LeonardoDiCaprio.png', 'Im_PatrickDempsey.png', 'Im_JustinTimberlake.png', 'Im_DanielRadcliffe.png', 'Im_GeorgeClooney.png', 'Im_ElijahWood.png', 'Im_BenStiller.png'],same,1,0.40837980000105745,23,80.95238095238095,
PHTA2206,train,inv,30,pos30_id19_im8.bmp_pos30_id19_im27.bmp,['Im_RobertPattinson.png', 'Im_KeanuReeves.png', 'Im_RyanGosling.png', 'Im_LeonardoDiCaprio.png', 'Im_PatrickDempsey.png', 'Im_JustinTimberlake.png', 'Im_DanielRadcliffe.png', 'Im_GeorgeClooney.png', 'Im_ElijahWood.png', 'Im_BenStiller.png'],same,1,0.40821540000069945,24,80.95238095238095,
PHTA2206,train,inv,fs,posfs_id10_im1.bmp_posfs_id10_im18.bmp,['Im_RobertPattinson.png', 'Im_KeanuReeves.png', 'Im_RyanGosling.png', 'Im_LeonardoDiCaprio.png', 'Im_PatrickDempsey.png', 'Im_JustinTimberlake.png', 'Im_DanielRadcliffe.png', 'Im_GeorgeClooney.png', 'Im_ElijahWood.png', 'Im_BenStiller.png'],same,1,0.42509809999864956,25,80.95238095238095,
PHTA2206,train,inv,120,pos120_id5_im1.bmp_pos120_id5_im10.bmp,['Im_RobertPattinson.png', 'Im_KeanuReeves.png', 'Im_RyanGosling.png', 'Im_LeonardoDiCaprio.png', 'Im_PatrickDempsey.png', 'Im_JustinTimberlake.png', 'Im_DanielRadcliffe.png', 'Im_GeorgeClooney.png', 'Im_ElijahWood.png', 'Im_BenStiller.png'],same,1,0.41680080000151065,26,80.95238095238095,
PHTA2206,train,inv,120,pos120_id11_im1.bmp_pos120_id13_im15.bmp,['Im_RobertPattinson.png', 'Im_KeanuReeves.png', 'Im_RyanGosling.png', 'Im_LeonardoDiCaprio.png', 'Im_PatrickDempsey.png', 'Im_JustinTimberlake.png', 'Im_DanielRadcliffe.png', 'Im_GeorgeClooney.png', 'Im_ElijahWood.png', 'Im_BenStiller.png'],diff,1,0.4082201000001078,27,80.95238095238095,
PHTA2206,train,inv,0,pos0_id2_im2.bmp_pos0_id10_im17.bmp,['Im_RobertPattinson.png', 'Im_KeanuReeves.png', 'Im_RyanGosling.png', 'Im_LeonardoDiCaprio.png', 'Im_PatrickDempsey.png', 'Im_JustinTimberlake.png', 'Im_DanielRadcliffe.png', 'Im_GeorgeClooney.png', 'Im_ElijahWood.png', 'Im_BenStiller.png'],same,0,0.40829409999969357,27,80.95238095238095,
PHTA2206,train,inv,90,pos90_id11_im1.bmp_pos90_id19_im8.bmp,['Im_RobertPattinson.png', 'Im_KeanuReeves.png', 'Im_RyanGosling.png', 'Im_LeonardoDiCaprio.png', 'Im_PatrickDempsey.png', 'Im_JustinTimberlake.png', 'Im_DanielRadcliffe.png', 'Im_GeorgeClooney.png', 'Im_ElijahWood.png', 'Im_BenStiller.png'],diff,1,0.4085097000006499,28,80.95238095238095,
PHTA2206,train,inv,90,pos90_id5_im1.bmp_pos90_id5_im10.bmp,['Im_RobertPattinson.png', 'Im_KeanuReeves.png', 'Im_RyanGosling.png', 'Im_LeonardoDiCaprio.png', 'Im_PatrickDempsey.png', 'Im_JustinTimberlake.png', 'Im_DanielRadcliffe.png', 'Im_GeorgeClooney.png', 'Im_ElijahWood.png', 'Im_BenStiller.png'],same,1,0.4333721000002697,29,80.95238095238095,
PHTA2206,train,inv,0,pos0_id17_im9.bmp_pos0_id2_im2.bmp,['Im_RobertPattinson.png', 'Im_KeanuReeves.png', 'Im_RyanGosling.png', 'Im_LeonardoDiCaprio.png', 'Im_PatrickDempsey.png', 'Im_JustinTimberlake.png', 'Im_DanielRadcliffe.png', 'Im_GeorgeClooney.png', 'Im_ElijahWood.png', 'Im_BenStiller.png'],diff,1,0.41669480000018666,30,80.95238095238095,
PHTA2206,train,inv,fs,posfs_id13_im29.bmp_posfs_id7_im14.bmp,['Im_RobertPattinson.png', 'Im_KeanuReeves.png', 'Im_RyanGosling.png', 'Im_LeonardoDiCaprio.png', 'Im_PatrickDempsey.png', 'Im_JustinTimberlake.png', 'Im_DanielRadcliffe.png', 'Im_GeorgeClooney.png', 'Im_ElijahWood.png', 'Im_BenStiller.png'],none,1,4.40835369999877,30,80.95238095238095,
PHTA2206,train,inv,60,pos60_id19_im4.bmp_pos60_id7_im15.bmp,['Im_RobertPattinson.png', 'Im_KeanuReeves.png', 'Im_RyanGosling.png', 'Im_LeonardoDiCaprio.png', 'Im_PatrickDempsey.png', 'Im_JustinTimberlake.png', 'Im_DanielRadcliffe.png', 'Im_GeorgeClooney.png', 'Im_ElijahWood.png', 'Im_BenStiller.png'],diff,1,0.40849119999984396,31,80.95238095238095,
PHTA2206,train,inv,30,pos30_id10_im1.bmp_pos30_id2_im16.bmp,['Im_RobertPattinson.png', 'Im_KeanuReeves.png', 'Im_RyanGosling.png', 'Im_LeonardoDiCaprio.png', 'Im_PatrickDempsey.png', 'Im_JustinTimberlake.png', 'Im_DanielRadcliffe.png', 'Im_GeorgeClooney.png', 'Im_ElijahWood.png', 'Im_BenStiller.png'],diff,1,0.4082074999987526,32,80.95238095238095,
PHTA2206,train,inv,150,pos150_id6_im18.bmp_pos150_id20_im3.bmp,['Im_RobertPattinson.png', 'Im_KeanuReeves.png', 'Im_RyanGosling.png', 'Im_LeonardoDiCaprio.png', 'Im_PatrickDempsey.png', 'Im_JustinTimberlake.png', 'Im_DanielRadcliffe.png', 'Im_GeorgeClooney.png', 'Im_ElijahWood.png', 'Im_BenStiller.png'],same,0,0.41663169999992533,32,80.95238095238095,
PHTA2206,train,inv,150,pos150_id17_im9.bmp_pos150_id2_im2.bmp,['Im_RobertPattinson.png', 'Im_KeanuReeves.png', 'Im_RyanGosling.png', 'Im_LeonardoDiCaprio.png', 'Im_PatrickDempsey.png', 'Im_JustinTimberlake.png', 'Im_DanielRadcliffe.png', 'Im_GeorgeClooney.png', 'Im_ElijahWood.png', 'Im_BenStiller.png'],diff,1,0.4167409999990923,33,80.95238095238095,
PHTA2206,train,inv,60,pos60_id7_im14.bmp_pos60_id7_im15.bmp,['Im_RobertPattinson.png', 'Im_KeanuReeves.png', 'Im_RyanGosling.png', 'Im_LeonardoDiCaprio.png', 'Im_PatrickDempsey.png', 'Im_JustinTimberlake.png', 'Im_DanielRadcliffe.png', 'Im_GeorgeClooney.png', 'Im_ElijahWood.png', 'Im_BenStiller.png'],same,1,0.4166229000002204,34,80.95238095238095,
PHTA2206,0,inv,150,pos150_id17_im9.bmp_pos150_id5_im20.bmp,['Im_RobertPattinson.png', 'Im_KeanuReeves.png', 'Im_RyanGosling.png', 'Im_LeonardoDiCaprio.png', 'Im_PatrickDempsey.png', 'Im_JustinTimberlake.png', 'Im_DanielRadcliffe.png', 'Im_GeorgeClooney.png', 'Im_ElijahWood.png', 'Im_BenStiller.png'],diff,1,0.42483809999976074,1,0,
PHTA2206,0,inv,30,pos30_id13_im29.bmp_pos30_id13_im15.bmp,['Im_RobertPattinson.png', 'Im_KeanuReeves.png', 'Im_RyanGosling.png', 'Im_LeonardoDiCaprio.png', 'Im_PatrickDempsey.png', 'Im_JustinTimberlake.png', 'Im_DanielRadcliffe.png', 'Im_GeorgeClooney.png', 'Im_ElijahWood.png', 'Im_BenStiller.png'],none,1,4.416617299999416,1,0,
PHTA2206,0,inv,fs,posfs_id11_im2.bmp_posfs_id11_im1.bmp,['Im_RobertPattinson.png', 'Im_KeanuReeves.png', 'Im_RyanGosling.png', 'Im_LeonardoDiCaprio.png', 'Im_PatrickDempsey.png', 'Im_JustinTimberlake.png', 'Im_DanielRadcliffe.png', 'Im_GeorgeClooney.png', 'Im_ElijahWood.png', 'Im_BenStiller.png'],same,1,0.4084958999992523,2,0,
PHTA2206,0,inv,30,pos30_id10_im18.bmp_pos30_id20_im30.bmp,['Im_RobertPattinson.png', 'Im_KeanuReeves.png', 'Im_RyanGosling.png', 'Im_LeonardoDiCaprio.png', 'Im_PatrickDempsey.png', 'Im_JustinTimberlake.png', 'Im_DanielRadcliffe.png', 'Im_GeorgeClooney.png', 'Im_ElijahWood.png', 'Im_BenStiller.png'],diff,1,0.42521669999950973,3,0,
PHTA2206,0,inv,0,pos0_id7_im14.bmp_pos0_id13_im29.bmp,['Im_RobertPattinson.png', 'Im_KeanuReeves.png', 'Im_RyanGosling.png', 'Im_LeonardoDiCaprio.png', 'Im_PatrickDempsey.png', 'Im_JustinTimberlake.png', 'Im_DanielRadcliffe.png', 'Im_GeorgeClooney.png', 'Im_ElijahWood.png', 'Im_BenStiller.png'],same,0,0.4167367000009108,3,0,
PHTA2206,0,inv,60,pos60_id19_im27.bmp_pos60_id19_im4.bmp,['Im_RobertPattinson.png', 'Im_KeanuReeves.png', 'Im_RyanGosling.png', 'Im_LeonardoDiCaprio.png', 'Im_PatrickDempsey.png', 'Im_JustinTimberlake.png', 'Im_DanielRadcliffe.png', 'Im_GeorgeClooney.png', 'Im_ElijahWood.png', 'Im_BenStiller.png'],diff,0,0.4167130999994697,3,0,
PHTA2206,0,inv,120,pos120_id11_im1.bmp_pos120_id11_im2.bmp,['Im_RobertPattinson.png', 'Im_KeanuReeves.png', 'Im_RyanGosling.png', 'Im_LeonardoDiCaprio.png', 'Im_PatrickDempsey.png', 'Im_JustinTimberlake.png', 'Im_DanielRadcliffe.png', 'Im_GeorgeClooney.png', 'Im_ElijahWood.png', 'Im_BenStiller.png'],same,1,0.42512619999979506,4,0,
PHTA2206,0,inv,90,pos90_id7_im15.bmp_pos90_id20_im12.bmp,['Im_RobertPattinson.png', 'Im_KeanuReeves.png', 'Im_RyanGosling.png', 'Im_LeonardoDiCaprio.png', 'Im_PatrickDempsey.png', 'Im_JustinTimberlake.png', 'Im_DanielRadcliffe.png', 'Im_GeorgeClooney.png', 'Im_ElijahWood.png', 'Im_BenStiller.png'],diff,1,0.41677919999892765,5,0,
PHTA2206,0,inv,0,pos0_id11_im2.bmp_pos0_id2_im16.bmp,['Im_RobertPattinson.png', 'Im_KeanuReeves.png', 'Im_RyanGosling.png', 'Im_LeonardoDiCaprio.png', 'Im_PatrickDempsey.png', 'Im_JustinTimberlake.png', 'Im_DanielRadcliffe.png', 'Im_GeorgeClooney.png', 'Im_ElijahWood.png', 'Im_BenStiller.png'],same,0,0.41661019999992277,5,0,
PHTA2206,0,inv,150,pos150_id20_im12.bmp_pos150_id13_im10.bmp,['Im_RobertPattinson.png', 'Im_KeanuReeves.png', 'Im_RyanGosling.png', 'Im_LeonardoDiCaprio.png', 'Im_PatrickDempsey.png', 'Im_JustinTimberlake.png', 'Im_DanielRadcliffe.png', 'Im_GeorgeClooney.png', 'Im_ElijahWood.png', 'Im_BenStiller.png'],diff,1,0.42489280000154395,6,0,
PHTA2206,0,inv,fs,posfs_id13_im10.bmp_posfs_id20_im12.bmp,['Im_RobertPattinson.png', 'Im_KeanuReeves.png', 'Im_RyanGosling.png', 'Im_LeonardoDiCaprio.png', 'Im_PatrickDempsey.png', 'Im_JustinTimberlake.png', 'Im_DanielRadcliffe.png', 'Im_GeorgeClooney.png', 'Im_ElijahWood.png', 'Im_BenStiller.png'],diff,1,0.4167516000015894,7,0,
PHTA2206,0,inv,60,pos60_id6_im12.bmp_pos60_id6_im19.bmp,['Im_RobertPattinson.png', 'Im_KeanuReeves.png', 'Im_RyanGosling.png', 'Im_LeonardoDiCaprio.png', 'Im_PatrickDempsey.png', 'Im_JustinTimberlake.png', 'Im_DanielRadcliffe.png', 'Im_GeorgeClooney.png', 'Im_ElijahWood.png', 'Im_BenStiller.png'],diff,0,0.4335491000001639,7,0,
PHTA2206,0,inv,120,pos120_id10_im1.bmp_pos120_id6_im12.bmp,['Im_RobertPattinson.png', 'Im_KeanuReeves.png', 'Im_RyanGosling.png', 'Im_LeonardoDiCaprio.png', 'Im_PatrickDempsey.png', 'Im_JustinTimberlake.png', 'Im_DanielRadcliffe.png', 'Im_GeorgeClooney.png', 'Im_ElijahWood.png', 'Im_BenStiller.png'],same,0,0.42521409999972093,7,0,
PHTA2206,0,inv,90,pos90_id6_im18.bmp_pos90_id6_im19.bmp,['Im_RobertPattinson.png', 'Im_KeanuReeves.png', 'Im_RyanGosling.png', 'Im_LeonardoDiCaprio.png', 'Im_PatrickDempsey.png', 'Im_JustinTimberlake.png', 'Im_DanielRadcliffe.png', 'Im_GeorgeClooney.png', 'Im_ElijahWood.png', 'Im_BenStiller.png'],same,1,0.42508450000059383,8,0,
PHTA2206,1,pos,fs,posfs_id13_im10.bmp_posfs_id20_im12.bmp,['Im_RobertPattinson.png', 'Im_KeanuReeves.png', 'Im_RyanGosling.png', 'Im_LeonardoDiCaprio.png', 'Im_PatrickDempsey.png', 'Im_JustinTimberlake.png', 'Im_DanielRadcliffe.png', 'Im_GeorgeClooney.png', 'Im_ElijahWood.png', 'Im_BenStiller.png'],diff,1,0.41674129999955767,9,0,
PHTA2206,1,pos,60,pos60_id17_im14.bmp_pos60_id2_im3.bmp,['Im_RobertPattinson.png', 'Im_KeanuReeves.png', 'Im_RyanGosling.png', 'Im_LeonardoDiCaprio.png', 'Im_PatrickDempsey.png', 'Im_JustinTimberlake.png', 'Im_DanielRadcliffe.png', 'Im_GeorgeClooney.png', 'Im_ElijahWood.png', 'Im_BenStiller.png'],diff,1,0.416795799999818,10,0,
PHTA2206,1,pos,90,pos90_id13_im15.bmp_pos90_id13_im29.bmp,['Im_RobertPattinson.png', 'Im_KeanuReeves.png', 'Im_RyanGosling.png', 'Im_LeonardoDiCaprio.png', 'Im_PatrickDempsey.png', 'Im_JustinTimberlake.png', 'Im_DanielRadcliffe.png', 'Im_GeorgeClooney.png', 'Im_ElijahWood.png', 'Im_BenStiller.png'],same,1,0.4167398999998113,11,0,
PHTA2206,1,pos,30,pos30_id7_im14.bmp_pos30_id7_im26.bmp,['Im_RobertPattinson.png', 'Im_KeanuReeves.png', 'Im_RyanGosling.png', 'Im_LeonardoDiCaprio.png', 'Im_PatrickDempsey.png', 'Im_JustinTimberlake.png', 'Im_DanielRadcliffe.png', 'Im_GeorgeClooney.png', 'Im_ElijahWood.png', 'Im_BenStiller.png'],same,1,0.4167500999992626,12,0,
PHTA2206,1,pos,150,pos150_id6_im12.bmp_pos150_id10_im1.bmp,['Im_RobertPattinson.png', 'Im_KeanuReeves.png', 'Im_RyanGosling.png', 'Im_LeonardoDiCaprio.png', 'Im_PatrickDempsey.png', 'Im_JustinTimberlake.png', 'Im_DanielRadcliffe.png', 'Im_GeorgeClooney.png', 'Im_ElijahWood.png', 'Im_BenStiller.png'],diff,1,0.4249990999996953,13,0,
PHTA2206,1,pos,fs,posfs_id20_im30.bmp_posfs_id20_im3.bmp,['Im_RobertPattinson.png', 'Im_KeanuReeves.png', 'Im_RyanGosling.png', 'Im_LeonardoDiCaprio.png', 'Im_PatrickDempsey.png', 'Im_JustinTimberlake.png', 'Im_DanielRadcliffe.png', 'Im_GeorgeClooney.png', 'Im_ElijahWood.png', 'Im_BenStiller.png'],same,1,0.4169943000015337,14,0,
PHTA2206,1,pos,90,pos90_id2_im3.bmp_pos90_id2_im2.bmp,['Im_RobertPattinson.png', 'Im_KeanuReeves.png', 'Im_RyanGosling.png', 'Im_LeonardoDiCaprio.png', 'Im_PatrickDempsey.png', 'Im_JustinTimberlake.png', 'Im_DanielRadcliffe.png', 'Im_GeorgeClooney.png', 'Im_ElijahWood.png', 'Im_BenStiller.png'],same,1,0.41669159999946714,15,0,
PHTA2206,1,pos,0,pos0_id10_im1.bmp_pos0_id10_im17.bmp,['Im_RobertPattinson.png', 'Im_KeanuReeves.png', 'Im_RyanGosling.png', 'Im_LeonardoDiCaprio.png', 'Im_PatrickDempsey.png', 'Im_JustinTimberlake.png', 'Im_DanielRadcliffe.png', 'Im_GeorgeClooney.png', 'Im_ElijahWood.png', 'Im_BenStiller.png'],same,1,0.41669270000056713,16,0,
PHTA2206,1,pos,60,pos60_id10_im17.bmp_pos60_id17_im8.bmp,['Im_RobertPattinson.png', 'Im_KeanuReeves.png', 'Im_RyanGosling.png', 'Im_LeonardoDiCaprio.png', 'Im_PatrickDempsey.png', 'Im_JustinTimberlake.png', 'Im_DanielRadcliffe.png', 'Im_GeorgeClooney.png', 'Im_ElijahWood.png', 'Im_BenStiller.png'],same,0,0.4166915000005247,16,0,
PHTA2206,1,pos,120,pos120_id11_im2.bmp_pos120_id11_im1.bmp,['Im_RobertPattinson.png', 'Im_KeanuReeves.png', 'Im_RyanGosling.png', 'Im_LeonardoDiCaprio.png', 'Im_PatrickDempsey.png', 'Im_JustinTimberlake.png', 'Im_DanielRadcliffe.png', 'Im_GeorgeClooney.png', 'Im_ElijahWood.png', 'Im_BenStiller.png'],same,1,0.41672270000162825,17,0,
PHTA2206,1,pos,120,pos120_id5_im10.bmp_pos120_id7_im14.bmp,['Im_RobertPattinson.png', 'Im_KeanuReeves.png', 'Im_RyanGosling.png', 'Im_LeonardoDiCaprio.png', 'Im_PatrickDempsey.png', 'Im_JustinTimberlake.png', 'Im_DanielRadcliffe.png', 'Im_GeorgeClooney.png', 'Im_ElijahWood.png', 'Im_BenStiller.png'],diff,1,0.4250676999999996,18,0,
PHTA2206,1,pos,150,pos150_id5_im10.bmp_pos150_id5_im20.bmp,['Im_RobertPattinson.png', 'Im_KeanuReeves.png', 'Im_RyanGosling.png', 'Im_LeonardoDiCaprio.png', 'Im_PatrickDempsey.png', 'Im_JustinTimberlake.png', 'Im_DanielRadcliffe.png', 'Im_GeorgeClooney.png', 'Im_ElijahWood.png', 'Im_BenStiller.png'],same,1,0.4167391000009957,19,0,
PHTA2206,1,pos,30,pos30_id2_im3.bmp_pos30_id7_im26.bmp,['Im_RobertPattinson.png', 'Im_KeanuReeves.png', 'Im_RyanGosling.png', 'Im_LeonardoDiCaprio.png', 'Im_PatrickDempsey.png', 'Im_JustinTimberlake.png', 'Im_DanielRadcliffe.png', 'Im_GeorgeClooney.png', 'Im_ElijahWood.png', 'Im_BenStiller.png'],same,0,0.40840969999953813,19,0,
PHTA2206,1,pos,0,pos0_id2_im2.bmp_pos0_id17_im9.bmp,['Im_RobertPattinson.png', 'Im_KeanuReeves.png', 'Im_RyanGosling.png', 'Im_LeonardoDiCaprio.png', 'Im_PatrickDempsey.png', 'Im_JustinTimberlake.png', 'Im_DanielRadcliffe.png', 'Im_GeorgeClooney.png', 'Im_ElijahWood.png', 'Im_BenStiller.png'],same,0,0.42506350000076054,19,0,
PHTA2206,2,neg,60,neg60_id2_im16.bmp_neg60_id11_im2.bmp,['Im_RobertPattinson.png', 'Im_KeanuReeves.png', 'Im_RyanGosling.png', 'Im_LeonardoDiCaprio.png', 'Im_PatrickDempsey.png', 'Im_JustinTimberlake.png', 'Im_DanielRadcliffe.png', 'Im_GeorgeClooney.png', 'Im_ElijahWood.png', 'Im_BenStiller.png'],diff,1,0.41672920000019076,20,0,
PHTA2206,2,neg,150,neg150_id19_im8.bmp_neg150_id19_im4.bmp,['Im_RobertPattinson.png', 'Im_KeanuReeves.png', 'Im_RyanGosling.png', 'Im_LeonardoDiCaprio.png', 'Im_PatrickDempsey.png', 'Im_JustinTimberlake.png', 'Im_DanielRadcliffe.png', 'Im_GeorgeClooney.png', 'Im_ElijahWood.png', 'Im_BenStiller.png'],same,1,0.4083482999994885,21,0,
PHTA2206,2,neg,120,neg120_id17_im9.bmp_neg120_id17_im8.bmp,['Im_RobertPattinson.png', 'Im_KeanuReeves.png', 'Im_RyanGosling.png', 'Im_LeonardoDiCaprio.png', 'Im_PatrickDempsey.png', 'Im_JustinTimberlake.png', 'Im_DanielRadcliffe.png', 'Im_GeorgeClooney.png', 'Im_ElijahWood.png', 'Im_BenStiller.png'],same,1,0.4167417000007845,22,0,
PHTA2206,2,neg,90,neg90_id5_im1.bmp_neg90_id5_im10.bmp,['Im_RobertPattinson.png', 'Im_KeanuReeves.png', 'Im_RyanGosling.png', 'Im_LeonardoDiCaprio.png', 'Im_PatrickDempsey.png', 'Im_JustinTimberlake.png', 'Im_DanielRadcliffe.png', 'Im_GeorgeClooney.png', 'Im_ElijahWood.png', 'Im_BenStiller.png'],same,1,0.408412099999623,23,0,
PHTA2206,2,neg,30,neg30_id2_im2.bmp_neg30_id2_im16.bmp,['Im_RobertPattinson.png', 'Im_KeanuReeves.png', 'Im_RyanGosling.png', 'Im_LeonardoDiCaprio.png', 'Im_PatrickDempsey.png', 'Im_JustinTimberlake.png', 'Im_DanielRadcliffe.png', 'Im_GeorgeClooney.png', 'Im_ElijahWood.png', 'Im_BenStiller.png'],same,1,0.43350069999905827,24,0,
PHTA2206,2,neg,60,neg60_id11_im1.bmp_neg60_id11_im10.bmp,['Im_RobertPattinson.png', 'Im_KeanuReeves.png', 'Im_RyanGosling.png', 'Im_LeonardoDiCaprio.png', 'Im_PatrickDempsey.png', 'Im_JustinTimberlake.png', 'Im_DanielRadcliffe.png', 'Im_GeorgeClooney.png', 'Im_ElijahWood.png', 'Im_BenStiller.png'],same,1,0.40846009999950184,25,0,
PHTA2206,2,neg,150,neg150_id17_im14.bmp_neg150_id17_im9.bmp,['Im_RobertPattinson.png', 'Im_KeanuReeves.png', 'Im_RyanGosling.png', 'Im_LeonardoDiCaprio.png', 'Im_PatrickDempsey.png', 'Im_JustinTimberlake.png', 'Im_DanielRadcliffe.png', 'Im_GeorgeClooney.png', 'Im_ElijahWood.png', 'Im_BenStiller.png'],same,1,0.4251507999997557,26,0,
PHTA2206,2,neg,120,neg120_id6_im18.bmp_neg120_id6_im19.bmp,['Im_RobertPattinson.png', 'Im_KeanuReeves.png', 'Im_RyanGosling.png', 'Im_LeonardoDiCaprio.png', 'Im_PatrickDempsey.png', 'Im_JustinTimberlake.png', 'Im_DanielRadcliffe.png', 'Im_GeorgeClooney.png', 'Im_ElijahWood.png', 'Im_BenStiller.png'],same,1,0.4250596999991103,27,0,
PHTA2206,2,neg,0,neg0_id11_im1.bmp_neg0_id19_im8.bmp,['Im_RobertPattinson.png', 'Im_KeanuReeves.png', 'Im_RyanGosling.png', 'Im_LeonardoDiCaprio.png', 'Im_PatrickDempsey.png', 'Im_JustinTimberlake.png', 'Im_DanielRadcliffe.png', 'Im_GeorgeClooney.png', 'Im_ElijahWood.png', 'Im_BenStiller.png'],same,0,0.4250926000004256,27,0,
PHTA2206,2,neg,30,neg30_id10_im18.bmp_neg30_id11_im2.bmp,['Im_RobertPattinson.png', 'Im_KeanuReeves.png', 'Im_RyanGosling.png', 'Im_LeonardoDiCaprio.png', 'Im_PatrickDempsey.png', 'Im_JustinTimberlake.png', 'Im_DanielRadcliffe.png', 'Im_GeorgeClooney.png', 'Im_ElijahWood.png', 'Im_BenStiller.png'],same,0,0.4085042999995494,27,0,
PHTA2206,2,neg,fs,negfs_id10_im17.bmp_negfs_id2_im2.bmp,['Im_RobertPattinson.png', 'Im_KeanuReeves.png', 'Im_RyanGosling.png', 'Im_LeonardoDiCaprio.png', 'Im_PatrickDempsey.png', 'Im_JustinTimberlake.png', 'Im_DanielRadcliffe.png', 'Im_GeorgeClooney.png', 'Im_ElijahWood.png', 'Im_BenStiller.png'],diff,1,0.4167354000001069,28,0,
PHTA2206,2,neg,90,neg90_id11_im2.bmp_neg90_id2_im16.bmp,['Im_RobertPattinson.png', 'Im_KeanuReeves.png', 'Im_RyanGosling.png', 'Im_LeonardoDiCaprio.png', 'Im_PatrickDempsey.png', 'Im_JustinTimberlake.png', 'Im_DanielRadcliffe.png', 'Im_GeorgeClooney.png', 'Im_ElijahWood.png', 'Im_BenStiller.png'],diff,1,0.4252273000001878,29,0,
PHTA2206,2,neg,fs,negfs_id13_im15.bmp_negfs_id13_im29.bmp,['Im_RobertPattinson.png', 'Im_KeanuReeves.png', 'Im_RyanGosling.png', 'Im_LeonardoDiCaprio.png', 'Im_PatrickDempsey.png', 'Im_JustinTimberlake.png', 'Im_DanielRadcliffe.png', 'Im_GeorgeClooney.png', 'Im_ElijahWood.png', 'Im_BenStiller.png'],diff,0,0.4167398999998113,29,0,
PHTA2206,2,neg,0,neg0_id10_im18.bmp_neg0_id10_im1.bmp,['Im_RobertPattinson.png', 'Im_KeanuReeves.png', 'Im_RyanGosling.png', 'Im_LeonardoDiCaprio.png', 'Im_PatrickDempsey.png', 'Im_JustinTimberlake.png', 'Im_DanielRadcliffe.png', 'Im_GeorgeClooney.png', 'Im_ElijahWood.png', 'Im_BenStiller.png'],diff,0,0.4252790999998979,29,0,
PHTA2206,3,inv,90,pos90_id19_im8.bmp_pos90_id13_im29.bmp,['Im_RobertPattinson.png', 'Im_KeanuReeves.png', 'Im_RyanGosling.png', 'Im_LeonardoDiCaprio.png', 'Im_PatrickDempsey.png', 'Im_JustinTimberlake.png', 'Im_DanielRadcliffe.png', 'Im_GeorgeClooney.png', 'Im_ElijahWood.png', 'Im_BenStiller.png'],same,0,0.41672470000048634,0,69.04761904761905,
PHTA2206,3,inv,60,pos60_id11_im10.bmp_pos60_id17_im14.bmp,['Im_RobertPattinson.png', 'Im_KeanuReeves.png', 'Im_RyanGosling.png', 'Im_LeonardoDiCaprio.png', 'Im_PatrickDempsey.png', 'Im_JustinTimberlake.png', 'Im_DanielRadcliffe.png', 'Im_GeorgeClooney.png', 'Im_ElijahWood.png', 'Im_BenStiller.png'],diff,1,0.4167582999998558,1,69.04761904761905,
PHTA2206,3,inv,fs,posfs_id20_im12.bmp_posfs_id20_im3.bmp,['Im_RobertPattinson.png', 'Im_KeanuReeves.png', 'Im_RyanGosling.png', 'Im_LeonardoDiCaprio.png', 'Im_PatrickDempsey.png', 'Im_JustinTimberlake.png', 'Im_DanielRadcliffe.png', 'Im_GeorgeClooney.png', 'Im_ElijahWood.png', 'Im_BenStiller.png'],same,1,0.4166900000000169,2,69.04761904761905,
PHTA2206,3,inv,120,pos120_id11_im2.bmp_pos120_id11_im10.bmp,['Im_RobertPattinson.png', 'Im_KeanuReeves.png', 'Im_RyanGosling.png', 'Im_LeonardoDiCaprio.png', 'Im_PatrickDempsey.png', 'Im_JustinTimberlake.png', 'Im_DanielRadcliffe.png', 'Im_GeorgeClooney.png', 'Im_ElijahWood.png', 'Im_BenStiller.png'],diff,0,0.41672550000112096,2,69.04761904761905,
PHTA2206,3,inv,90,pos90_id7_im14.bmp_pos90_id5_im10.bmp,['Im_RobertPattinson.png', 'Im_KeanuReeves.png', 'Im_RyanGosling.png', 'Im_LeonardoDiCaprio.png', 'Im_PatrickDempsey.png', 'Im_JustinTimberlake.png', 'Im_DanielRadcliffe.png', 'Im_GeorgeClooney.png', 'Im_ElijahWood.png', 'Im_BenStiller.png'],diff,1,0.4253118999986327,3,69.04761904761905,
PHTA2206,3,inv,150,pos150_id5_im1.bmp_pos150_id5_im10.bmp,['Im_RobertPattinson.png', 'Im_KeanuReeves.png', 'Im_RyanGosling.png', 'Im_LeonardoDiCaprio.png', 'Im_PatrickDempsey.png', 'Im_JustinTimberlake.png', 'Im_DanielRadcliffe.png', 'Im_GeorgeClooney.png', 'Im_ElijahWood.png', 'Im_BenStiller.png'],same,1,0.4250923999989027,4,69.04761904761905,
PHTA2206,3,inv,30,pos30_id19_im27.bmp_pos30_id11_im10.bmp,['Im_RobertPattinson.png', 'Im_KeanuReeves.png', 'Im_RyanGosling.png', 'Im_LeonardoDiCaprio.png', 'Im_PatrickDempsey.png', 'Im_JustinTimberlake.png', 'Im_DanielRadcliffe.png', 'Im_GeorgeClooney.png', 'Im_ElijahWood.png', 'Im_BenStiller.png'],diff,1,0.4252264999995532,5,69.04761904761905,
PHTA2206,3,inv,60,pos60_id13_im15.bmp_pos60_id13_im10.bmp,['Im_RobertPattinson.png', 'Im_KeanuReeves.png', 'Im_RyanGosling.png', 'Im_LeonardoDiCaprio.png', 'Im_PatrickDempsey.png', 'Im_JustinTimberlake.png', 'Im_DanielRadcliffe.png', 'Im_GeorgeClooney.png', 'Im_ElijahWood.png', 'Im_BenStiller.png'],diff,0,0.4249882999993133,5,69.04761904761905,
PHTA2206,3,inv,120,pos120_id7_im14.bmp_pos120_id7_im15.bmp,['Im_RobertPattinson.png', 'Im_KeanuReeves.png', 'Im_RyanGosling.png', 'Im_LeonardoDiCaprio.png', 'Im_PatrickDempsey.png', 'Im_JustinTimberlake.png', 'Im_DanielRadcliffe.png', 'Im_GeorgeClooney.png', 'Im_ElijahWood.png', 'Im_BenStiller.png'],diff,0,0.4166936000001442,5,69.04761904761905,
PHTA2206,3,inv,30,pos30_id17_im14.bmp_pos30_id11_im10.bmp,['Im_RobertPattinson.png', 'Im_KeanuReeves.png', 'Im_RyanGosling.png', 'Im_LeonardoDiCaprio.png', 'Im_PatrickDempsey.png', 'Im_JustinTimberlake.png', 'Im_DanielRadcliffe.png', 'Im_GeorgeClooney.png', 'Im_ElijahWood.png', 'Im_BenStiller.png'],diff,1,0.4168869999994058,6,69.04761904761905,
PHTA2206,3,inv,150,pos150_id13_im15.bmp_pos150_id13_im10.bmp,['Im_RobertPattinson.png', 'Im_KeanuReeves.png', 'Im_RyanGosling.png', 'Im_LeonardoDiCaprio.png', 'Im_PatrickDempsey.png', 'Im_JustinTimberlake.png', 'Im_DanielRadcliffe.png', 'Im_GeorgeClooney.png', 'Im_ElijahWood.png', 'Im_BenStiller.png'],same,1,0.42530299999998533,7,69.04761904761905,
PHTA2206,3,inv,0,pos0_id20_im3.bmp_pos0_id20_im12.bmp,['Im_RobertPattinson.png', 'Im_KeanuReeves.png', 'Im_RyanGosling.png', 'Im_LeonardoDiCaprio.png', 'Im_PatrickDempsey.png', 'Im_JustinTimberlake.png', 'Im_DanielRadcliffe.png', 'Im_GeorgeClooney.png', 'Im_ElijahWood.png', 'Im_BenStiller.png'],same,1,0.4250771999995777,8,69.04761904761905,
PHTA2206,3,inv,fs,posfs_id10_im1.bmp_posfs_id10_im17.bmp,['Im_RobertPattinson.png', 'Im_KeanuReeves.png', 'Im_RyanGosling.png', 'Im_LeonardoDiCaprio.png', 'Im_PatrickDempsey.png', 'Im_JustinTimberlake.png', 'Im_DanielRadcliffe.png', 'Im_GeorgeClooney.png', 'Im_ElijahWood.png', 'Im_BenStiller.png'],same,1,0.41673960000116494,9,69.04761904761905,
PHTA2206,3,inv,0,pos0_id17_im8.bmp_pos0_id10_im17.bmp,['Im_RobertPattinson.png', 'Im_KeanuReeves.png', 'Im_RyanGosling.png', 'Im_LeonardoDiCaprio.png', 'Im_PatrickDempsey.png', 'Im_JustinTimberlake.png', 'Im_DanielRadcliffe.png', 'Im_GeorgeClooney.png', 'Im_ElijahWood.png', 'Im_BenStiller.png'],same,0,0.4167149999993853,9,69.04761904761905,
PHTA2206,4,neg,60,neg60_id5_im10.bmp_neg60_id7_im14.bmp,['Im_RobertPattinson.png', 'Im_KeanuReeves.png', 'Im_RyanGosling.png', 'Im_LeonardoDiCaprio.png', 'Im_PatrickDempsey.png', 'Im_JustinTimberlake.png', 'Im_DanielRadcliffe.png', 'Im_GeorgeClooney.png', 'Im_ElijahWood.png', 'Im_BenStiller.png'],diff,1,0.416757899998629,10,69.04761904761905,
PHTA2206,4,neg,60,neg60_id5_im1.bmp_neg60_id5_im20.bmp,['Im_RobertPattinson.png', 'Im_KeanuReeves.png', 'Im_RyanGosling.png', 'Im_LeonardoDiCaprio.png', 'Im_PatrickDempsey.png', 'Im_JustinTimberlake.png', 'Im_DanielRadcliffe.png', 'Im_GeorgeClooney.png', 'Im_ElijahWood.png', 'Im_BenStiller.png'],same,1,0.4167333999994298,11,69.04761904761905,
PHTA2206,4,neg,fs,negfs_id2_im2.bmp_negfs_id17_im9.bmp,['Im_RobertPattinson.png', 'Im_KeanuReeves.png', 'Im_RyanGosling.png', 'Im_LeonardoDiCaprio.png', 'Im_PatrickDempsey.png', 'Im_JustinTimberlake.png', 'Im_DanielRadcliffe.png', 'Im_GeorgeClooney.png', 'Im_ElijahWood.png', 'Im_BenStiller.png'],diff,1,0.4167106999993848,12,69.04761904761905,
PHTA2206,4,neg,90,neg90_id10_im17.bmp_neg90_id10_im1.bmp,['Im_RobertPattinson.png', 'Im_KeanuReeves.png', 'Im_RyanGosling.png', 'Im_LeonardoDiCaprio.png', 'Im_PatrickDempsey.png', 'Im_JustinTimberlake.png', 'Im_DanielRadcliffe.png', 'Im_GeorgeClooney.png', 'Im_ElijahWood.png', 'Im_BenStiller.png'],same,1,0.566973599999983,13,69.04761904761905,
PHTA2206,4,neg,fs,negfs_id11_im10.bmp_negfs_id11_im1.bmp,['Im_RobertPattinson.png', 'Im_KeanuReeves.png', 'Im_RyanGosling.png', 'Im_LeonardoDiCaprio.png', 'Im_PatrickDempsey.png', 'Im_JustinTimberlake.png', 'Im_DanielRadcliffe.png', 'Im_GeorgeClooney.png', 'Im_ElijahWood.png', 'Im_BenStiller.png'],same,1,0.4167481000004045,14,69.04761904761905,
PHTA2206,4,neg,30,neg30_id20_im3.bmp_neg30_id20_im30.bmp,['Im_RobertPattinson.png', 'Im_KeanuReeves.png', 'Im_RyanGosling.png', 'Im_LeonardoDiCaprio.png', 'Im_PatrickDempsey.png', 'Im_JustinTimberlake.png', 'Im_DanielRadcliffe.png', 'Im_GeorgeClooney.png', 'Im_ElijahWood.png', 'Im_BenStiller.png'],same,1,0.41676340000049095,15,69.04761904761905,
PHTA2206,4,neg,150,neg150_id5_im20.bmp_neg150_id5_im1.bmp,['Im_RobertPattinson.png', 'Im_KeanuReeves.png', 'Im_RyanGosling.png', 'Im_LeonardoDiCaprio.png', 'Im_PatrickDempsey.png', 'Im_JustinTimberlake.png', 'Im_DanielRadcliffe.png', 'Im_GeorgeClooney.png', 'Im_ElijahWood.png', 'Im_BenStiller.png'],same,1,0.4083487000007153,16,69.04761904761905,
PHTA2206,4,neg,0,neg0_id13_im10.bmp_neg0_id6_im19.bmp,['Im_RobertPattinson.png', 'Im_KeanuReeves.png', 'Im_RyanGosling.png', 'Im_LeonardoDiCaprio.png', 'Im_PatrickDempsey.png', 'Im_JustinTimberlake.png', 'Im_DanielRadcliffe.png', 'Im_GeorgeClooney.png', 'Im_ElijahWood.png', 'Im_BenStiller.png'],diff,1,0.40836470000067493,17,69.04761904761905,
PHTA2206,4,neg,30,neg30_id10_im18.bmp_neg30_id10_im1.bmp,['Im_RobertPattinson.png', 'Im_KeanuReeves.png', 'Im_RyanGosling.png', 'Im_LeonardoDiCaprio.png', 'Im_PatrickDempsey.png', 'Im_JustinTimberlake.png', 'Im_DanielRadcliffe.png', 'Im_GeorgeClooney.png', 'Im_ElijahWood.png', 'Im_BenStiller.png'],diff,0,0.416730799999641,17,69.04761904761905,
PHTA2206,4,neg,120,neg120_id20_im3.bmp_neg120_id20_im30.bmp,['Im_RobertPattinson.png', 'Im_KeanuReeves.png', 'Im_RyanGosling.png', 'Im_LeonardoDiCaprio.png', 'Im_PatrickDempsey.png', 'Im_JustinTimberlake.png', 'Im_DanielRadcliffe.png', 'Im_GeorgeClooney.png', 'Im_ElijahWood.png', 'Im_BenStiller.png'],same,1,0.4167693999988842,18,69.04761904761905,
PHTA2206,4,neg,120,neg120_id13_im10.bmp_neg120_id13_im29.bmp,['Im_RobertPattinson.png', 'Im_KeanuReeves.png', 'Im_RyanGosling.png', 'Im_LeonardoDiCaprio.png', 'Im_PatrickDempsey.png', 'Im_JustinTimberlake.png', 'Im_DanielRadcliffe.png', 'Im_GeorgeClooney.png', 'Im_ElijahWood.png', 'Im_BenStiller.png'],same,1,0.416745999998966,19,69.04761904761905,
PHTA2206,4,neg,90,neg90_id13_im29.bmp_neg90_id7_im14.bmp,['Im_RobertPattinson.png', 'Im_KeanuReeves.png', 'Im_RyanGosling.png', 'Im_LeonardoDiCaprio.png', 'Im_PatrickDempsey.png', 'Im_JustinTimberlake.png', 'Im_DanielRadcliffe.png', 'Im_GeorgeClooney.png', 'Im_ElijahWood.png', 'Im_BenStiller.png'],diff,1,0.4169000000001688,20,69.04761904761905,
PHTA2206,4,neg,0,neg0_id19_im8.bmp_neg0_id19_im4.bmp,['Im_RobertPattinson.png', 'Im_KeanuReeves.png', 'Im_RyanGosling.png', 'Im_LeonardoDiCaprio.png', 'Im_PatrickDempsey.png', 'Im_JustinTimberlake.png', 'Im_DanielRadcliffe.png', 'Im_GeorgeClooney.png', 'Im_ElijahWood.png', 'Im_BenStiller.png'],diff,0,0.4250780999991548,20,69.04761904761905,
PHTA2206,4,neg,150,neg150_id19_im27.bmp_neg150_id5_im1.bmp,['Im_RobertPattinson.png', 'Im_KeanuReeves.png', 'Im_RyanGosling.png', 'Im_LeonardoDiCaprio.png', 'Im_PatrickDempsey.png', 'Im_JustinTimberlake.png', 'Im_DanielRadcliffe.png', 'Im_GeorgeClooney.png', 'Im_ElijahWood.png', 'Im_BenStiller.png'],diff,1,0.4167262999999366,21,69.04761904761905,
PHTA2206,5,pos,60,pos60_id20_im3.bmp_pos60_id20_im12.bmp,['Im_RobertPattinson.png', 'Im_KeanuReeves.png', 'Im_RyanGosling.png', 'Im_LeonardoDiCaprio.png', 'Im_PatrickDempsey.png', 'Im_JustinTimberlake.png', 'Im_DanielRadcliffe.png', 'Im_GeorgeClooney.png', 'Im_ElijahWood.png', 'Im_BenStiller.png'],same,1,0.424814800000604,22,69.04761904761905,
PHTA2206,5,pos,60,pos60_id5_im10.bmp_pos60_id5_im1.bmp,['Im_RobertPattinson.png', 'Im_KeanuReeves.png', 'Im_RyanGosling.png', 'Im_LeonardoDiCaprio.png', 'Im_PatrickDempsey.png', 'Im_JustinTimberlake.png', 'Im_DanielRadcliffe.png', 'Im_GeorgeClooney.png', 'Im_ElijahWood.png', 'Im_BenStiller.png'],same,1,0.42506219999995665,23,69.04761904761905,
PHTA2206,5,pos,150,pos150_id20_im3.bmp_pos150_id6_im18.bmp,['Im_RobertPattinson.png', 'Im_KeanuReeves.png', 'Im_RyanGosling.png', 'Im_LeonardoDiCaprio.png', 'Im_PatrickDempsey.png', 'Im_JustinTimberlake.png', 'Im_DanielRadcliffe.png', 'Im_GeorgeClooney.png', 'Im_ElijahWood.png', 'Im_BenStiller.png'],diff,1,0.4250568999996176,24,69.04761904761905,
PHTA2206,5,pos,90,pos90_id13_im10.bmp_pos90_id13_im15.bmp,['Im_RobertPattinson.png', 'Im_KeanuReeves.png', 'Im_RyanGosling.png', 'Im_LeonardoDiCaprio.png', 'Im_PatrickDempsey.png', 'Im_JustinTimberlake.png', 'Im_DanielRadcliffe.png', 'Im_GeorgeClooney.png', 'Im_ElijahWood.png', 'Im_BenStiller.png'],same,1,0.4166086000004725,25,69.04761904761905,
PHTA2206,5,pos,0,pos0_id10_im1.bmp_pos0_id6_im12.bmp,['Im_RobertPattinson.png', 'Im_KeanuReeves.png', 'Im_RyanGosling.png', 'Im_LeonardoDiCaprio.png', 'Im_PatrickDempsey.png', 'Im_JustinTimberlake.png', 'Im_DanielRadcliffe.png', 'Im_GeorgeClooney.png', 'Im_ElijahWood.png', 'Im_BenStiller.png'],diff,1,0.4167384000011225,26,69.04761904761905,
PHTA2206,5,pos,120,pos120_id19_im8.bmp_pos120_id19_im27.bmp,['Im_RobertPattinson.png', 'Im_KeanuReeves.png', 'Im_RyanGosling.png', 'Im_LeonardoDiCaprio.png', 'Im_PatrickDempsey.png', 'Im_JustinTimberlake.png', 'Im_DanielRadcliffe.png', 'Im_GeorgeClooney.png', 'Im_ElijahWood.png', 'Im_BenStiller.png'],same,1,0.416724400000021,27,69.04761904761905,
PHTA2206,5,pos,30,pos30_id2_im16.bmp_pos30_id2_im3.bmp,['Im_RobertPattinson.png', 'Im_KeanuReeves.png', 'Im_RyanGosling.png', 'Im_LeonardoDiCaprio.png', 'Im_PatrickDempsey.png', 'Im_JustinTimberlake.png', 'Im_DanielRadcliffe.png', 'Im_GeorgeClooney.png', 'Im_ElijahWood.png', 'Im_BenStiller.png'],same,1,0.41677569999956177,28,69.04761904761905,
PHTA2206,5,pos,150,pos150_id17_im8.bmp_pos150_id17_im9.bmp,['Im_RobertPattinson.png', 'Im_KeanuReeves.png', 'Im_RyanGosling.png', 'Im_LeonardoDiCaprio.png', 'Im_PatrickDempsey.png', 'Im_JustinTimberlake.png', 'Im_DanielRadcliffe.png', 'Im_GeorgeClooney.png', 'Im_ElijahWood.png', 'Im_BenStiller.png'],same,1,0.41675690000010945,29,69.04761904761905,
PHTA2206,5,pos,fs,posfs_id20_im12.bmp_posfs_id7_im15.bmp,['Im_RobertPattinson.png', 'Im_KeanuReeves.png', 'Im_RyanGosling.png', 'Im_LeonardoDiCaprio.png', 'Im_PatrickDempsey.png', 'Im_JustinTimberlake.png', 'Im_DanielRadcliffe.png', 'Im_GeorgeClooney.png', 'Im_ElijahWood.png', 'Im_BenStiller.png'],diff,1,0.42509529999915685,30,69.04761904761905,
PHTA2206,5,pos,0,pos0_id13_im29.bmp_pos0_id19_im8.bmp,['Im_RobertPattinson.png', 'Im_KeanuReeves.png', 'Im_RyanGosling.png', 'Im_LeonardoDiCaprio.png', 'Im_PatrickDempsey.png', 'Im_JustinTimberlake.png', 'Im_DanielRadcliffe.png', 'Im_GeorgeClooney.png', 'Im_ElijahWood.png', 'Im_BenStiller.png'],diff,1,0.4164717000003293,31,69.04761904761905,
PHTA2206,5,pos,30,pos30_id13_im15.bmp_pos30_id11_im1.bmp,['Im_RobertPattinson.png', 'Im_KeanuReeves.png', 'Im_RyanGosling.png', 'Im_LeonardoDiCaprio.png', 'Im_PatrickDempsey.png', 'Im_JustinTimberlake.png', 'Im_DanielRadcliffe.png', 'Im_GeorgeClooney.png', 'Im_ElijahWood.png', 'Im_BenStiller.png'],diff,1,0.4252202000006946,32,69.04761904761905,
PHTA2206,5,pos,90,pos90_id11_im2.bmp_pos90_id11_im1.bmp,['Im_RobertPattinson.png', 'Im_KeanuReeves.png', 'Im_RyanGosling.png', 'Im_LeonardoDiCaprio.png', 'Im_PatrickDempsey.png', 'Im_JustinTimberlake.png', 'Im_DanielRadcliffe.png', 'Im_GeorgeClooney.png', 'Im_ElijahWood.png', 'Im_BenStiller.png'],same,1,0.42507130000012694,33,69.04761904761905,
PHTA2206,5,pos,fs,posfs_id19_im27.bmp_posfs_id11_im10.bmp,['Im_RobertPattinson.png', 'Im_KeanuReeves.png', 'Im_RyanGosling.png', 'Im_LeonardoDiCaprio.png', 'Im_PatrickDempsey.png', 'Im_JustinTimberlake.png', 'Im_DanielRadcliffe.png', 'Im_GeorgeClooney.png', 'Im_ElijahWood.png', 'Im_BenStiller.png'],diff,1,0.42523219999930006,34,69.04761904761905,
PHTA2206,5,pos,120,pos120_id5_im1.bmp_pos120_id6_im12.bmp,['Im_RobertPattinson.png', 'Im_KeanuReeves.png', 'Im_RyanGosling.png', 'Im_LeonardoDiCaprio.png', 'Im_PatrickDempsey.png', 'Im_JustinTimberlake.png', 'Im_DanielRadcliffe.png', 'Im_GeorgeClooney.png', 'Im_ElijahWood.png', 'Im_BenStiller.png'],diff,1,0.4167577000007441,35,69.04761904761905,
PHTA2206,6,inv,fs,posfs_id6_im12.bmp_posfs_id10_im1.bmp,['Im_RobertPattinson.png', 'Im_KeanuReeves.png', 'Im_RyanGosling.png', 'Im_LeonardoDiCaprio.png', 'Im_PatrickDempsey.png', 'Im_JustinTimberlake.png', 'Im_DanielRadcliffe.png', 'Im_GeorgeClooney.png', 'Im_ElijahWood.png', 'Im_BenStiller.png'],diff,1,0.4083703999986028,1,83.33333333333333,
PHTA2206,6,inv,150,pos150_id10_im18.bmp_pos150_id10_im1.bmp,['Im_RobertPattinson.png', 'Im_KeanuReeves.png', 'Im_RyanGosling.png', 'Im_LeonardoDiCaprio.png', 'Im_PatrickDempsey.png', 'Im_JustinTimberlake.png', 'Im_DanielRadcliffe.png', 'Im_GeorgeClooney.png', 'Im_ElijahWood.png', 'Im_BenStiller.png'],same,1,0.4167321000004449,2,83.33333333333333,
PHTA2206,6,inv,30,pos30_id6_im19.bmp_pos30_id6_im18.bmp,['Im_RobertPattinson.png', 'Im_KeanuReeves.png', 'Im_RyanGosling.png', 'Im_LeonardoDiCaprio.png', 'Im_PatrickDempsey.png', 'Im_JustinTimberlake.png', 'Im_DanielRadcliffe.png', 'Im_GeorgeClooney.png', 'Im_ElijahWood.png', 'Im_BenStiller.png'],same,1,0.41672830000061367,3,83.33333333333333,
PHTA2206,6,inv,90,pos90_id19_im27.bmp_pos90_id19_im4.bmp,['Im_RobertPattinson.png', 'Im_KeanuReeves.png', 'Im_RyanGosling.png', 'Im_LeonardoDiCaprio.png', 'Im_PatrickDempsey.png', 'Im_JustinTimberlake.png', 'Im_DanielRadcliffe.png', 'Im_GeorgeClooney.png', 'Im_ElijahWood.png', 'Im_BenStiller.png'],same,1,0.4166877999996359,4,83.33333333333333,
PHTA2206,6,inv,120,pos120_id17_im9.bmp_pos120_id17_im8.bmp,['Im_RobertPattinson.png', 'Im_KeanuReeves.png', 'Im_RyanGosling.png', 'Im_LeonardoDiCaprio.png', 'Im_PatrickDempsey.png', 'Im_JustinTimberlake.png', 'Im_DanielRadcliffe.png', 'Im_GeorgeClooney.png', 'Im_ElijahWood.png', 'Im_BenStiller.png'],same,1,0.4167906000002404,5,83.33333333333333,
PHTA2206,6,inv,0,pos0_id7_im14.bmp_pos0_id5_im10.bmp,['Im_RobertPattinson.png', 'Im_KeanuReeves.png', 'Im_RyanGosling.png', 'Im_LeonardoDiCaprio.png', 'Im_PatrickDempsey.png', 'Im_JustinTimberlake.png', 'Im_DanielRadcliffe.png', 'Im_GeorgeClooney.png', 'Im_ElijahWood.png', 'Im_BenStiller.png'],diff,1,0.4251059999987774,6,83.33333333333333,
PHTA2206,6,inv,0,pos0_id6_im12.bmp_pos0_id6_im19.bmp,['Im_RobertPattinson.png', 'Im_KeanuReeves.png', 'Im_RyanGosling.png', 'Im_LeonardoDiCaprio.png', 'Im_PatrickDempsey.png', 'Im_JustinTimberlake.png', 'Im_DanielRadcliffe.png', 'Im_GeorgeClooney.png', 'Im_ElijahWood.png', 'Im_BenStiller.png'],same,1,0.4250027999987651,7,83.33333333333333,
PHTA2206,6,inv,90,pos90_id20_im30.bmp_pos90_id20_im12.bmp,['Im_RobertPattinson.png', 'Im_KeanuReeves.png', 'Im_RyanGosling.png', 'Im_LeonardoDiCaprio.png', 'Im_PatrickDempsey.png', 'Im_JustinTimberlake.png', 'Im_DanielRadcliffe.png', 'Im_GeorgeClooney.png', 'Im_ElijahWood.png', 'Im_BenStiller.png'],same,1,0.42504550000012387,8,83.33333333333333,
PHTA2206,6,inv,120,pos120_id13_im15.bmp_pos120_id13_im10.bmp,['Im_RobertPattinson.png', 'Im_KeanuReeves.png', 'Im_RyanGosling.png', 'Im_LeonardoDiCaprio.png', 'Im_PatrickDempsey.png', 'Im_JustinTimberlake.png', 'Im_DanielRadcliffe.png', 'Im_GeorgeClooney.png', 'Im_ElijahWood.png', 'Im_BenStiller.png'],same,1,0.4167120000001887,9,83.33333333333333,
PHTA2206,6,inv,30,pos30_id6_im18.bmp_pos30_id13_im15.bmp,['Im_RobertPattinson.png', 'Im_KeanuReeves.png', 'Im_RyanGosling.png', 'Im_LeonardoDiCaprio.png', 'Im_PatrickDempsey.png', 'Im_JustinTimberlake.png', 'Im_DanielRadcliffe.png', 'Im_GeorgeClooney.png', 'Im_ElijahWood.png', 'Im_BenStiller.png'],diff,1,0.41677010000057635,10,83.33333333333333,
PHTA2206,6,inv,150,pos150_id17_im8.bmp_pos150_id10_im17.bmp,['Im_RobertPattinson.png', 'Im_KeanuReeves.png', 'Im_RyanGosling.png', 'Im_LeonardoDiCaprio.png', 'Im_PatrickDempsey.png', 'Im_JustinTimberlake.png', 'Im_DanielRadcliffe.png', 'Im_GeorgeClooney.png', 'Im_ElijahWood.png', 'Im_BenStiller.png'],same,0,0.4166568000000552,10,83.33333333333333,
PHTA2206,6,inv,60,pos60_id5_im20.bmp_pos60_id17_im8.bmp,['Im_RobertPattinson.png', 'Im_KeanuReeves.png', 'Im_RyanGosling.png', 'Im_LeonardoDiCaprio.png', 'Im_PatrickDempsey.png', 'Im_JustinTimberlake.png', 'Im_DanielRadcliffe.png', 'Im_GeorgeClooney.png', 'Im_ElijahWood.png', 'Im_BenStiller.png'],diff,1,0.4334326999996847,11,83.33333333333333,
PHTA2206,6,inv,fs,posfs_id20_im3.bmp_posfs_id6_im18.bmp,['Im_RobertPattinson.png', 'Im_KeanuReeves.png', 'Im_RyanGosling.png', 'Im_LeonardoDiCaprio.png', 'Im_PatrickDempsey.png', 'Im_JustinTimberlake.png', 'Im_DanielRadcliffe.png', 'Im_GeorgeClooney.png', 'Im_ElijahWood.png', 'Im_BenStiller.png'],diff,1,0.41666280000026745,12,83.33333333333333,
PHTA2206,6,inv,60,pos60_id20_im30.bmp_pos60_id20_im12.bmp,['Im_RobertPattinson.png', 'Im_KeanuReeves.png', 'Im_RyanGosling.png', 'Im_LeonardoDiCaprio.png', 'Im_PatrickDempsey.png', 'Im_JustinTimberlake.png', 'Im_DanielRadcliffe.png', 'Im_GeorgeClooney.png', 'Im_ElijahWood.png', 'Im_BenStiller.png'],same,1,0.4166899000010744,13,83.33333333333333,
PHTA2206,7,pos,30,pos30_id19_im4.bmp_pos30_id19_im27.bmp,['Im_RobertPattinson.png', 'Im_KeanuReeves.png', 'Im_RyanGosling.png', 'Im_LeonardoDiCaprio.png', 'Im_PatrickDempsey.png', 'Im_JustinTimberlake.png', 'Im_DanielRadcliffe.png', 'Im_GeorgeClooney.png', 'Im_ElijahWood.png', 'Im_BenStiller.png'],same,1,0.4167230999992171,14,83.33333333333333,
PHTA2206,7,pos,60,pos60_id2_im16.bmp_pos60_id11_im2.bmp,['Im_RobertPattinson.png', 'Im_KeanuReeves.png', 'Im_RyanGosling.png', 'Im_LeonardoDiCaprio.png', 'Im_PatrickDempsey.png', 'Im_JustinTimberlake.png', 'Im_DanielRadcliffe.png', 'Im_GeorgeClooney.png', 'Im_ElijahWood.png', 'Im_BenStiller.png'],none,1,4.408353299999362,14,83.33333333333333,
PHTA2206,7,pos,150,pos150_id19_im8.bmp_pos150_id13_im29.bmp,['Im_RobertPattinson.png', 'Im_KeanuReeves.png', 'Im_RyanGosling.png', 'Im_LeonardoDiCaprio.png', 'Im_PatrickDempsey.png', 'Im_JustinTimberlake.png', 'Im_DanielRadcliffe.png', 'Im_GeorgeClooney.png', 'Im_ElijahWood.png', 'Im_BenStiller.png'],diff,1,0.4167765000001964,15,83.33333333333333,
PHTA2206,7,pos,0,pos0_id10_im18.bmp_pos0_id10_im17.bmp,['Im_RobertPattinson.png', 'Im_KeanuReeves.png', 'Im_RyanGosling.png', 'Im_LeonardoDiCaprio.png', 'Im_PatrickDempsey.png', 'Im_JustinTimberlake.png', 'Im_DanielRadcliffe.png', 'Im_GeorgeClooney.png', 'Im_ElijahWood.png', 'Im_BenStiller.png'],diff,0,0.4082947000006243,15,83.33333333333333,
PHTA2206,7,pos,fs,posfs_id6_im12.bmp_posfs_id10_im1.bmp,['Im_RobertPattinson.png', 'Im_KeanuReeves.png', 'Im_RyanGosling.png', 'Im_LeonardoDiCaprio.png', 'Im_PatrickDempsey.png', 'Im_JustinTimberlake.png', 'Im_DanielRadcliffe.png', 'Im_GeorgeClooney.png', 'Im_ElijahWood.png', 'Im_BenStiller.png'],diff,1,0.42491380000137724,16,83.33333333333333,
PHTA2206,7,pos,150,pos150_id20_im30.bmp_pos150_id20_im12.bmp,['Im_RobertPattinson.png', 'Im_KeanuReeves.png', 'Im_RyanGosling.png', 'Im_LeonardoDiCaprio.png', 'Im_PatrickDempsey.png', 'Im_JustinTimberlake.png', 'Im_DanielRadcliffe.png', 'Im_GeorgeClooney.png', 'Im_ElijahWood.png', 'Im_BenStiller.png'],same,1,0.4251031999992847,17,83.33333333333333,
PHTA2206,7,pos,120,pos120_id13_im10.bmp_pos120_id13_im29.bmp,['Im_RobertPattinson.png', 'Im_KeanuReeves.png', 'Im_RyanGosling.png', 'Im_LeonardoDiCaprio.png', 'Im_PatrickDempsey.png', 'Im_JustinTimberlake.png', 'Im_DanielRadcliffe.png', 'Im_GeorgeClooney.png', 'Im_ElijahWood.png', 'Im_BenStiller.png'],same,1,0.41673070000069856,18,83.33333333333333,
PHTA2206,7,pos,30,pos30_id10_im1.bmp_pos30_id2_im16.bmp,['Im_RobertPattinson.png', 'Im_KeanuReeves.png', 'Im_RyanGosling.png', 'Im_LeonardoDiCaprio.png', 'Im_PatrickDempsey.png', 'Im_JustinTimberlake.png', 'Im_DanielRadcliffe.png', 'Im_GeorgeClooney.png', 'Im_ElijahWood.png', 'Im_BenStiller.png'],diff,1,0.43339390000073763,19,83.33333333333333,
PHTA2206,7,pos,0,pos0_id5_im20.bmp_pos0_id5_im1.bmp,['Im_RobertPattinson.png', 'Im_KeanuReeves.png', 'Im_RyanGosling.png', 'Im_LeonardoDiCaprio.png', 'Im_PatrickDempsey.png', 'Im_JustinTimberlake.png', 'Im_DanielRadcliffe.png', 'Im_GeorgeClooney.png', 'Im_ElijahWood.png', 'Im_BenStiller.png'],diff,0,0.40849399999933667,19,83.33333333333333,
PHTA2206,7,pos,fs,posfs_id19_im4.bmp_posfs_id7_im15.bmp,['Im_RobertPattinson.png', 'Im_KeanuReeves.png', 'Im_RyanGosling.png', 'Im_LeonardoDiCaprio.png', 'Im_PatrickDempsey.png', 'Im_JustinTimberlake.png', 'Im_DanielRadcliffe.png', 'Im_GeorgeClooney.png', 'Im_ElijahWood.png', 'Im_BenStiller.png'],diff,1,0.4167973000003258,20,83.33333333333333,
PHTA2206,7,pos,90,pos90_id11_im2.bmp_pos90_id2_im16.bmp,['Im_RobertPattinson.png', 'Im_KeanuReeves.png', 'Im_RyanGosling.png', 'Im_LeonardoDiCaprio.png', 'Im_PatrickDempsey.png', 'Im_JustinTimberlake.png', 'Im_DanielRadcliffe.png', 'Im_GeorgeClooney.png', 'Im_ElijahWood.png', 'Im_BenStiller.png'],diff,1,0.4084345999999641,21,83.33333333333333,
PHTA2206,7,pos,120,pos120_id11_im2.bmp_pos120_id11_im10.bmp,['Im_RobertPattinson.png', 'Im_KeanuReeves.png', 'Im_RyanGosling.png', 'Im_LeonardoDiCaprio.png', 'Im_PatrickDempsey.png', 'Im_JustinTimberlake.png', 'Im_DanielRadcliffe.png', 'Im_GeorgeClooney.png', 'Im_ElijahWood.png', 'Im_BenStiller.png'],same,1,0.4251287000006414,22,83.33333333333333,
PHTA2206,7,pos,60,pos60_id5_im1.bmp_pos60_id6_im12.bmp,['Im_RobertPattinson.png', 'Im_KeanuReeves.png', 'Im_RyanGosling.png', 'Im_LeonardoDiCaprio.png', 'Im_PatrickDempsey.png', 'Im_JustinTimberlake.png', 'Im_DanielRadcliffe.png', 'Im_GeorgeClooney.png', 'Im_ElijahWood.png', 'Im_BenStiller.png'],diff,1,0.42513850000068487,23,83.33333333333333,
PHTA2206,7,pos,90,pos90_id20_im30.bmp_pos90_id10_im18.bmp,['Im_RobertPattinson.png', 'Im_KeanuReeves.png', 'Im_RyanGosling.png', 'Im_LeonardoDiCaprio.png', 'Im_PatrickDempsey.png', 'Im_JustinTimberlake.png', 'Im_DanielRadcliffe.png', 'Im_GeorgeClooney.png', 'Im_ElijahWood.png', 'Im_BenStiller.png'],diff,1,0.4167563999999402,24,83.33333333333333,
PHTA2206,8,inv,120,pos120_id17_im9.bmp_pos120_id17_im14.bmp,['Im_RobertPattinson.png', 'Im_KeanuReeves.png', 'Im_RyanGosling.png', 'Im_LeonardoDiCaprio.png', 'Im_PatrickDempsey.png', 'Im_JustinTimberlake.png', 'Im_DanielRadcliffe.png', 'Im_GeorgeClooney.png', 'Im_ElijahWood.png', 'Im_BenStiller.png'],diff,0,0.4250422000004619,24,83.33333333333333,
PHTA2206,8,inv,150,pos150_id10_im17.bmp_pos150_id10_im1.bmp,['Im_RobertPattinson.png', 'Im_KeanuReeves.png', 'Im_RyanGosling.png', 'Im_LeonardoDiCaprio.png', 'Im_PatrickDempsey.png', 'Im_JustinTimberlake.png', 'Im_DanielRadcliffe.png', 'Im_GeorgeClooney.png', 'Im_ElijahWood.png', 'Im_BenStiller.png'],diff,0,0.4167703999992227,24,83.33333333333333,
PHTA2206,8,inv,0,pos0_id10_im18.bmp_pos0_id20_im30.bmp,['Im_RobertPattinson.png', 'Im_KeanuReeves.png', 'Im_RyanGosling.png', 'Im_LeonardoDiCaprio.png', 'Im_PatrickDempsey.png', 'Im_JustinTimberlake.png', 'Im_DanielRadcliffe.png', 'Im_GeorgeClooney.png', 'Im_ElijahWood.png', 'Im_BenStiller.png'],diff,1,0.41671730000052776,25,83.33333333333333,
PHTA2206,8,inv,120,pos120_id19_im8.bmp_pos120_id19_im4.bmp,['Im_RobertPattinson.png', 'Im_KeanuReeves.png', 'Im_RyanGosling.png', 'Im_LeonardoDiCaprio.png', 'Im_PatrickDempsey.png', 'Im_JustinTimberlake.png', 'Im_DanielRadcliffe.png', 'Im_GeorgeClooney.png', 'Im_ElijahWood.png', 'Im_BenStiller.png'],same,1,0.4250432999997429,26,83.33333333333333,
PHTA2206,8,inv,0,pos0_id20_im12.bmp_pos0_id20_im30.bmp,['Im_RobertPattinson.png', 'Im_KeanuReeves.png', 'Im_RyanGosling.png', 'Im_LeonardoDiCaprio.png', 'Im_PatrickDempsey.png', 'Im_JustinTimberlake.png', 'Im_DanielRadcliffe.png', 'Im_GeorgeClooney.png', 'Im_ElijahWood.png', 'Im_BenStiller.png'],same,1,0.4250382999998692,27,83.33333333333333,
PHTA2206,8,inv,30,pos30_id2_im3.bmp_pos30_id7_im26.bmp,['Im_RobertPattinson.png', 'Im_KeanuReeves.png', 'Im_RyanGosling.png', 'Im_LeonardoDiCaprio.png', 'Im_PatrickDempsey.png', 'Im_JustinTimberlake.png', 'Im_DanielRadcliffe.png', 'Im_GeorgeClooney.png', 'Im_ElijahWood.png', 'Im_BenStiller.png'],diff,1,0.4334500000004482,28,83.33333333333333,
PHTA2206,8,inv,30,pos30_id10_im18.bmp_pos30_id10_im17.bmp,['Im_RobertPattinson.png', 'Im_KeanuReeves.png', 'Im_RyanGosling.png', 'Im_LeonardoDiCaprio.png', 'Im_PatrickDempsey.png', 'Im_JustinTimberlake.png', 'Im_DanielRadcliffe.png', 'Im_GeorgeClooney.png', 'Im_ElijahWood.png', 'Im_BenStiller.png'],same,1,0.4249232000001939,29,83.33333333333333,
PHTA2206,8,inv,fs,posfs_id19_im8.bmp_posfs_id19_im27.bmp,['Im_RobertPattinson.png', 'Im_KeanuReeves.png', 'Im_RyanGosling.png', 'Im_LeonardoDiCaprio.png', 'Im_PatrickDempsey.png', 'Im_JustinTimberlake.png', 'Im_DanielRadcliffe.png', 'Im_GeorgeClooney.png', 'Im_ElijahWood.png', 'Im_BenStiller.png'],same,1,0.41672360000120534,30,83.33333333333333,
PHTA2206,8,inv,150,pos150_id19_im4.bmp_pos150_id19_im27.bmp,['Im_RobertPattinson.png', 'Im_KeanuReeves.png', 'Im_RyanGosling.png', 'Im_LeonardoDiCaprio.png', 'Im_PatrickDempsey.png', 'Im_JustinTimberlake.png', 'Im_DanielRadcliffe.png', 'Im_GeorgeClooney.png', 'Im_ElijahWood.png', 'Im_BenStiller.png'],diff,0,0.4167034000001877,30,83.33333333333333,
PHTA2206,8,inv,60,pos60_id2_im16.bmp_pos60_id2_im3.bmp,['Im_RobertPattinson.png', 'Im_KeanuReeves.png', 'Im_RyanGosling.png', 'Im_LeonardoDiCaprio.png', 'Im_PatrickDempsey.png', 'Im_JustinTimberlake.png', 'Im_DanielRadcliffe.png', 'Im_GeorgeClooney.png', 'Im_ElijahWood.png', 'Im_BenStiller.png'],diff,0,0.42507859999932407,30,83.33333333333333,
PHTA2206,8,inv,90,pos90_id13_im10.bmp_pos90_id20_im12.bmp,['Im_RobertPattinson.png', 'Im_KeanuReeves.png', 'Im_RyanGosling.png', 'Im_LeonardoDiCaprio.png', 'Im_PatrickDempsey.png', 'Im_JustinTimberlake.png', 'Im_DanielRadcliffe.png', 'Im_GeorgeClooney.png', 'Im_ElijahWood.png', 'Im_BenStiller.png'],same,0,0.4167758999992657,30,83.33333333333333,
PHTA2206,8,inv,90,pos90_id5_im10.bmp_pos90_id20_im30.bmp,['Im_RobertPattinson.png', 'Im_KeanuReeves.png', 'Im_RyanGosling.png', 'Im_LeonardoDiCaprio.png', 'Im_PatrickDempsey.png', 'Im_JustinTimberlake.png', 'Im_DanielRadcliffe.png', 'Im_GeorgeClooney.png', 'Im_ElijahWood.png', 'Im_BenStiller.png'],diff,1,0.4165702999998757,31,83.33333333333333,
PHTA2206,8,inv,60,pos60_id13_im29.bmp_pos60_id13_im10.bmp,['Im_RobertPattinson.png', 'Im_KeanuReeves.png', 'Im_RyanGosling.png', 'Im_LeonardoDiCaprio.png', 'Im_PatrickDempsey.png', 'Im_JustinTimberlake.png', 'Im_DanielRadcliffe.png', 'Im_GeorgeClooney.png', 'Im_ElijahWood.png', 'Im_BenStiller.png'],none,1,4.408326900000247,31,83.33333333333333,
PHTA2206,8,inv,fs,posfs_id13_im10.bmp_posfs_id6_im19.bmp,['Im_RobertPattinson.png', 'Im_KeanuReeves.png', 'Im_RyanGosling.png', 'Im_LeonardoDiCaprio.png', 'Im_PatrickDempsey.png', 'Im_JustinTimberlake.png', 'Im_DanielRadcliffe.png', 'Im_GeorgeClooney.png', 'Im_ElijahWood.png', 'Im_BenStiller.png'],diff,1,0.41657350000059523,32,83.33333333333333,
PHTA2206,9,neg,120,neg120_id7_im15.bmp_neg120_id19_im4.bmp,['Im_RobertPattinson.png', 'Im_KeanuReeves.png', 'Im_RyanGosling.png', 'Im_LeonardoDiCaprio.png', 'Im_PatrickDempsey.png', 'Im_JustinTimberlake.png', 'Im_DanielRadcliffe.png', 'Im_GeorgeClooney.png', 'Im_ElijahWood.png', 'Im_BenStiller.png'],diff,1,0.4167219999999361,1,76.19047619047619,
PHTA2206,9,neg,150,neg150_id11_im10.bmp_neg150_id19_im27.bmp,['Im_RobertPattinson.png', 'Im_KeanuReeves.png', 'Im_RyanGosling.png', 'Im_LeonardoDiCaprio.png', 'Im_PatrickDempsey.png', 'Im_JustinTimberlake.png', 'Im_DanielRadcliffe.png', 'Im_GeorgeClooney.png', 'Im_ElijahWood.png', 'Im_BenStiller.png'],diff,1,0.4167516000015894,2,76.19047619047619,
PHTA2206,9,neg,30,neg30_id6_im18.bmp_neg30_id13_im15.bmp,['Im_RobertPattinson.png', 'Im_KeanuReeves.png', 'Im_RyanGosling.png', 'Im_LeonardoDiCaprio.png', 'Im_PatrickDempsey.png', 'Im_JustinTimberlake.png', 'Im_DanielRadcliffe.png', 'Im_GeorgeClooney.png', 'Im_ElijahWood.png', 'Im_BenStiller.png'],none,1,4.408384500000466,2,76.19047619047619,
PHTA2206,9,neg,90,neg90_id20_im30.bmp_neg90_id10_im18.bmp,['Im_RobertPattinson.png', 'Im_KeanuReeves.png', 'Im_RyanGosling.png', 'Im_LeonardoDiCaprio.png', 'Im_PatrickDempsey.png', 'Im_JustinTimberlake.png', 'Im_DanielRadcliffe.png', 'Im_GeorgeClooney.png', 'Im_ElijahWood.png', 'Im_BenStiller.png'],diff,1,0.41680620000079216,3,76.19047619047619,
PHTA2206,9,neg,0,neg0_id11_im2.bmp_neg0_id11_im1.bmp,['Im_RobertPattinson.png', 'Im_KeanuReeves.png', 'Im_RyanGosling.png', 'Im_LeonardoDiCaprio.png', 'Im_PatrickDempsey.png', 'Im_JustinTimberlake.png', 'Im_DanielRadcliffe.png', 'Im_GeorgeClooney.png', 'Im_ElijahWood.png', 'Im_BenStiller.png'],same,1,0.43355110000084096,4,76.19047619047619,
PHTA2206,9,neg,90,neg90_id13_im29.bmp_neg90_id13_im15.bmp,['Im_RobertPattinson.png', 'Im_KeanuReeves.png', 'Im_RyanGosling.png', 'Im_LeonardoDiCaprio.png', 'Im_PatrickDempsey.png', 'Im_JustinTimberlake.png', 'Im_DanielRadcliffe.png', 'Im_GeorgeClooney.png', 'Im_ElijahWood.png', 'Im_BenStiller.png'],same,1,0.42521839999972144,5,76.19047619047619,
PHTA2206,9,neg,150,neg150_id2_im2.bmp_neg150_id2_im16.bmp,['Im_RobertPattinson.png', 'Im_KeanuReeves.png', 'Im_RyanGosling.png', 'Im_LeonardoDiCaprio.png', 'Im_PatrickDempsey.png', 'Im_JustinTimberlake.png', 'Im_DanielRadcliffe.png', 'Im_GeorgeClooney.png', 'Im_ElijahWood.png', 'Im_BenStiller.png'],same,1,0.4166880000011588,6,76.19047619047619,
PHTA2206,9,neg,0,neg0_id7_im14.bmp_neg0_id5_im10.bmp,['Im_RobertPattinson.png', 'Im_KeanuReeves.png', 'Im_RyanGosling.png', 'Im_LeonardoDiCaprio.png', 'Im_PatrickDempsey.png', 'Im_JustinTimberlake.png', 'Im_DanielRadcliffe.png', 'Im_GeorgeClooney.png', 'Im_ElijahWood.png', 'Im_BenStiller.png'],same,0,0.4168461999997817,6,76.19047619047619,
PHTA2206,9,neg,30,neg30_id11_im2.bmp_neg30_id11_im1.bmp,['Im_RobertPattinson.png', 'Im_KeanuReeves.png', 'Im_RyanGosling.png', 'Im_LeonardoDiCaprio.png', 'Im_PatrickDempsey.png', 'Im_JustinTimberlake.png', 'Im_DanielRadcliffe.png', 'Im_GeorgeClooney.png', 'Im_ElijahWood.png', 'Im_BenStiller.png'],same,1,0.41673420000006445,7,76.19047619047619,
PHTA2206,9,neg,60,neg60_id20_im30.bmp_neg60_id20_im3.bmp,['Im_RobertPattinson.png', 'Im_KeanuReeves.png', 'Im_RyanGosling.png', 'Im_LeonardoDiCaprio.png', 'Im_PatrickDempsey.png', 'Im_JustinTimberlake.png', 'Im_DanielRadcliffe.png', 'Im_GeorgeClooney.png', 'Im_ElijahWood.png', 'Im_BenStiller.png'],same,1,0.43338480000056734,8,76.19047619047619,
PHTA2206,9,neg,fs,negfs_id11_im1.bmp_negfs_id11_im2.bmp,['Im_RobertPattinson.png', 'Im_KeanuReeves.png', 'Im_RyanGosling.png', 'Im_LeonardoDiCaprio.png', 'Im_PatrickDempsey.png', 'Im_JustinTimberlake.png', 'Im_DanielRadcliffe.png', 'Im_GeorgeClooney.png', 'Im_ElijahWood.png', 'Im_BenStiller.png'],diff,0,0.4167256999990059,8,76.19047619047619,
PHTA2206,9,neg,60,neg60_id10_im18.bmp_neg60_id11_im2.bmp,['Im_RobertPattinson.png', 'Im_KeanuReeves.png', 'Im_RyanGosling.png', 'Im_LeonardoDiCaprio.png', 'Im_PatrickDempsey.png', 'Im_JustinTimberlake.png', 'Im_DanielRadcliffe.png', 'Im_GeorgeClooney.png', 'Im_ElijahWood.png', 'Im_BenStiller.png'],same,0,0.4167999000001146,8,76.19047619047619,
PHTA2206,9,neg,fs,negfs_id5_im20.bmp_negfs_id17_im8.bmp,['Im_RobertPattinson.png', 'Im_KeanuReeves.png', 'Im_RyanGosling.png', 'Im_LeonardoDiCaprio.png', 'Im_PatrickDempsey.png', 'Im_JustinTimberlake.png', 'Im_DanielRadcliffe.png', 'Im_GeorgeClooney.png', 'Im_ElijahWood.png', 'Im_BenStiller.png'],same,0,0.4083749000001262,8,76.19047619047619,
PHTA2206,9,neg,120,neg120_id7_im15.bmp_neg120_id7_im14.bmp,['Im_RobertPattinson.png', 'Im_KeanuReeves.png', 'Im_RyanGosling.png', 'Im_LeonardoDiCaprio.png', 'Im_PatrickDempsey.png', 'Im_JustinTimberlake.png', 'Im_DanielRadcliffe.png', 'Im_GeorgeClooney.png', 'Im_ElijahWood.png', 'Im_BenStiller.png'],same,1,0.43338869999934104,9,76.19047619047619,
PHTA2206,10,inv,60,pos60_id7_im14.bmp_pos60_id7_im26.bmp,['Im_RobertPattinson.png', 'Im_KeanuReeves.png', 'Im_RyanGosling.png', 'Im_LeonardoDiCaprio.png', 'Im_PatrickDempsey.png', 'Im_JustinTimberlake.png', 'Im_DanielRadcliffe.png', 'Im_GeorgeClooney.png', 'Im_ElijahWood.png', 'Im_BenStiller.png'],same,1,0.4168710000012652,10,76.19047619047619,
PHTA2206,10,inv,150,pos150_id7_im15.bmp_pos150_id20_im12.bmp,['Im_RobertPattinson.png', 'Im_KeanuReeves.png', 'Im_RyanGosling.png', 'Im_LeonardoDiCaprio.png', 'Im_PatrickDempsey.png', 'Im_JustinTimberlake.png', 'Im_DanielRadcliffe.png', 'Im_GeorgeClooney.png', 'Im_ElijahWood.png', 'Im_BenStiller.png'],diff,1,0.41671800000040093,11,76.19047619047619,
PHTA2206,10,inv,90,pos90_id13_im15.bmp_pos90_id13_im10.bmp,['Im_RobertPattinson.png', 'Im_KeanuReeves.png', 'Im_RyanGosling.png', 'Im_LeonardoDiCaprio.png', 'Im_PatrickDempsey.png', 'Im_JustinTimberlake.png', 'Im_DanielRadcliffe.png', 'Im_GeorgeClooney.png', 'Im_ElijahWood.png', 'Im_BenStiller.png'],diff,0,0.4085660000000644,11,76.19047619047619,
PHTA2206,10,inv,0,pos0_id17_im8.bmp_pos0_id5_im20.bmp,['Im_RobertPattinson.png', 'Im_KeanuReeves.png', 'Im_RyanGosling.png', 'Im_LeonardoDiCaprio.png', 'Im_PatrickDempsey.png', 'Im_JustinTimberlake.png', 'Im_DanielRadcliffe.png', 'Im_GeorgeClooney.png', 'Im_ElijahWood.png', 'Im_BenStiller.png'],diff,1,0.4166895000016666,12,76.19047619047619,
PHTA2206,10,inv,150,pos150_id2_im3.bmp_pos150_id17_im14.bmp,['Im_RobertPattinson.png', 'Im_KeanuReeves.png', 'Im_RyanGosling.png', 'Im_LeonardoDiCaprio.png', 'Im_PatrickDempsey.png', 'Im_JustinTimberlake.png', 'Im_DanielRadcliffe.png', 'Im_GeorgeClooney.png', 'Im_ElijahWood.png', 'Im_BenStiller.png'],diff,1,0.40840990000106103,13,76.19047619047619,
PHTA2206,10,inv,0,pos0_id7_im15.bmp_pos0_id7_im26.bmp,['Im_RobertPattinson.png', 'Im_KeanuReeves.png', 'Im_RyanGosling.png', 'Im_LeonardoDiCaprio.png', 'Im_PatrickDempsey.png', 'Im_JustinTimberlake.png', 'Im_DanielRadcliffe.png', 'Im_GeorgeClooney.png', 'Im_ElijahWood.png', 'Im_BenStiller.png'],same,1,0.4167280000001483,14,76.19047619047619,
PHTA2206,10,inv,fs,posfs_id2_im16.bmp_posfs_id11_im2.bmp,['Im_RobertPattinson.png', 'Im_KeanuReeves.png', 'Im_RyanGosling.png', 'Im_LeonardoDiCaprio.png', 'Im_PatrickDempsey.png', 'Im_JustinTimberlake.png', 'Im_DanielRadcliffe.png', 'Im_GeorgeClooney.png', 'Im_ElijahWood.png', 'Im_BenStiller.png'],diff,1,0.41671259999930044,15,76.19047619047619,
PHTA2206,10,inv,90,pos90_id11_im10.bmp_pos90_id11_im2.bmp,['Im_RobertPattinson.png', 'Im_KeanuReeves.png', 'Im_RyanGosling.png', 'Im_LeonardoDiCaprio.png', 'Im_PatrickDempsey.png', 'Im_JustinTimberlake.png', 'Im_DanielRadcliffe.png', 'Im_GeorgeClooney.png', 'Im_ElijahWood.png', 'Im_BenStiller.png'],same,1,0.4250346000007994,16,76.19047619047619,
PHTA2206,10,inv,120,pos120_id10_im17.bmp_pos120_id17_im8.bmp,['Im_RobertPattinson.png', 'Im_KeanuReeves.png', 'Im_RyanGosling.png', 'Im_LeonardoDiCaprio.png', 'Im_PatrickDempsey.png', 'Im_JustinTimberlake.png', 'Im_DanielRadcliffe.png', 'Im_GeorgeClooney.png', 'Im_ElijahWood.png', 'Im_BenStiller.png'],diff,1,0.4166884000005666,17,76.19047619047619,
PHTA2206,10,inv,fs,posfs_id11_im1.bmp_posfs_id13_im15.bmp,['Im_RobertPattinson.png', 'Im_KeanuReeves.png', 'Im_RyanGosling.png', 'Im_LeonardoDiCaprio.png', 'Im_PatrickDempsey.png', 'Im_JustinTimberlake.png', 'Im_DanielRadcliffe.png', 'Im_GeorgeClooney.png', 'Im_ElijahWood.png', 'Im_BenStiller.png'],diff,1,0.4166041000007681,18,76.19047619047619,
PHTA2206,10,inv,30,pos30_id20_im12.bmp_pos30_id7_im15.bmp,['Im_RobertPattinson.png', 'Im_KeanuReeves.png', 'Im_RyanGosling.png', 'Im_LeonardoDiCaprio.png', 'Im_PatrickDempsey.png', 'Im_JustinTimberlake.png', 'Im_DanielRadcliffe.png', 'Im_GeorgeClooney.png', 'Im_ElijahWood.png', 'Im_BenStiller.png'],diff,1,0.4166538000008586,19,76.19047619047619,
PHTA2206,10,inv,60,pos60_id17_im8.bmp_pos60_id17_im9.bmp,['Im_RobertPattinson.png', 'Im_KeanuReeves.png', 'Im_RyanGosling.png', 'Im_LeonardoDiCaprio.png', 'Im_PatrickDempsey.png', 'Im_JustinTimberlake.png', 'Im_DanielRadcliffe.png', 'Im_GeorgeClooney.png', 'Im_ElijahWood.png', 'Im_BenStiller.png'],diff,0,0.416698400000314,19,76.19047619047619,
PHTA2206,10,inv,120,pos120_id13_im29.bmp_pos120_id19_im8.bmp,['Im_RobertPattinson.png', 'Im_KeanuReeves.png', 'Im_RyanGosling.png', 'Im_LeonardoDiCaprio.png', 'Im_PatrickDempsey.png', 'Im_JustinTimberlake.png', 'Im_DanielRadcliffe.png', 'Im_GeorgeClooney.png', 'Im_ElijahWood.png', 'Im_BenStiller.png'],diff,1,0.4250629999987723,20,76.19047619047619,
PHTA2206,10,inv,30,pos30_id13_im10.bmp_pos30_id6_im19.bmp,['Im_RobertPattinson.png', 'Im_KeanuReeves.png', 'Im_RyanGosling.png', 'Im_LeonardoDiCaprio.png', 'Im_PatrickDempsey.png', 'Im_JustinTimberlake.png', 'Im_DanielRadcliffe.png', 'Im_GeorgeClooney.png', 'Im_ElijahWood.png', 'Im_BenStiller.png'],diff,1,0.425052799999321,21,76.19047619047619,
PHTA2206,11,pos,60,pos60_id11_im2.bmp_pos60_id11_im10.bmp,['Im_RobertPattinson.png', 'Im_KeanuReeves.png', 'Im_RyanGosling.png', 'Im_LeonardoDiCaprio.png', 'Im_PatrickDempsey.png', 'Im_JustinTimberlake.png', 'Im_DanielRadcliffe.png', 'Im_GeorgeClooney.png', 'Im_ElijahWood.png', 'Im_BenStiller.png'],same,1,0.41659660000004806,22,76.19047619047619,
PHTA2206,11,pos,90,pos90_id11_im2.bmp_pos90_id10_im18.bmp,['Im_RobertPattinson.png', 'Im_KeanuReeves.png', 'Im_RyanGosling.png', 'Im_LeonardoDiCaprio.png', 'Im_PatrickDempsey.png', 'Im_JustinTimberlake.png', 'Im_DanielRadcliffe.png', 'Im_GeorgeClooney.png', 'Im_ElijahWood.png', 'Im_BenStiller.png'],diff,1,0.4083599999994476,23,76.19047619047619,
PHTA2206,11,pos,60,pos60_id17_im14.bmp_pos60_id11_im10.bmp,['Im_RobertPattinson.png', 'Im_KeanuReeves.png', 'Im_RyanGosling.png', 'Im_LeonardoDiCaprio.png', 'Im_PatrickDempsey.png', 'Im_JustinTimberlake.png', 'Im_DanielRadcliffe.png', 'Im_GeorgeClooney.png', 'Im_ElijahWood.png', 'Im_BenStiller.png'],diff,1,0.4250611999996181,24,76.19047619047619,
PHTA2206,11,pos,150,pos150_id5_im10.bmp_pos150_id7_im14.bmp,['Im_RobertPattinson.png', 'Im_KeanuReeves.png', 'Im_RyanGosling.png', 'Im_LeonardoDiCaprio.png', 'Im_PatrickDempsey.png', 'Im_JustinTimberlake.png', 'Im_DanielRadcliffe.png', 'Im_GeorgeClooney.png', 'Im_ElijahWood.png', 'Im_BenStiller.png'],diff,1,0.41669269999874814,25,76.19047619047619,
PHTA2206,11,pos,30,pos30_id10_im18.bmp_pos30_id11_im2.bmp,['Im_RobertPattinson.png', 'Im_KeanuReeves.png', 'Im_RyanGosling.png', 'Im_LeonardoDiCaprio.png', 'Im_PatrickDempsey.png', 'Im_JustinTimberlake.png', 'Im_DanielRadcliffe.png', 'Im_GeorgeClooney.png', 'Im_ElijahWood.png', 'Im_BenStiller.png'],diff,1,0.4167472999997699,26,76.19047619047619,
PHTA2206,11,pos,120,pos120_id6_im18.bmp_pos120_id6_im19.bmp,['Im_RobertPattinson.png', 'Im_KeanuReeves.png', 'Im_RyanGosling.png', 'Im_LeonardoDiCaprio.png', 'Im_PatrickDempsey.png', 'Im_JustinTimberlake.png', 'Im_DanielRadcliffe.png', 'Im_GeorgeClooney.png', 'Im_ElijahWood.png', 'Im_BenStiller.png'],same,1,0.41673120000086783,27,76.19047619047619,
PHTA2206,11,pos,0,pos0_id5_im1.bmp_pos0_id5_im10.bmp,['Im_RobertPattinson.png', 'Im_KeanuReeves.png', 'Im_RyanGosling.png', 'Im_LeonardoDiCaprio.png', 'Im_PatrickDempsey.png', 'Im_JustinTimberlake.png', 'Im_DanielRadcliffe.png', 'Im_GeorgeClooney.png', 'Im_ElijahWood.png', 'Im_BenStiller.png'],same,1,0.4335633999999118,28,76.19047619047619,
PHTA2206,11,pos,fs,posfs_id13_im10.bmp_posfs_id13_im15.bmp,['Im_RobertPattinson.png', 'Im_KeanuReeves.png', 'Im_RyanGosling.png', 'Im_LeonardoDiCaprio.png', 'Im_PatrickDempsey.png', 'Im_JustinTimberlake.png', 'Im_DanielRadcliffe.png', 'Im_GeorgeClooney.png', 'Im_ElijahWood.png', 'Im_BenStiller.png'],none,1,4.408430899999075,28,76.19047619047619,
PHTA2206,11,pos,fs,posfs_id11_im1.bmp_posfs_id11_im2.bmp,['Im_RobertPattinson.png', 'Im_KeanuReeves.png', 'Im_RyanGosling.png', 'Im_LeonardoDiCaprio.png', 'Im_PatrickDempsey.png', 'Im_JustinTimberlake.png', 'Im_DanielRadcliffe.png', 'Im_GeorgeClooney.png', 'Im_ElijahWood.png', 'Im_BenStiller.png'],same,1,0.41674479999892355,29,76.19047619047619,
