Sujet,Trial,Condition,Filter,Imname,Actor0,Actor1,Actor2,Actor3,Actor4,Actor5,Actor6,Actor7,Actor8,Actor9,Answer,Accu,RT,Score,Scoreperc, 
PHTA2206,_,posfs_JustinTimberlake_im4.bmp,JustinTimberlake,BenStiller,BenStiller,RobertDowneyJr,OrlandoBloom,PatrickDempsey,,,,,posfs_JustinTimberlake_im4.bmp,2.8919175000000905,
PHTA2206,_,posfs_BradPitt_im17.bmp,BradPitt,PatrickDempsey,PatrickDempsey,LeonardoDiCaprio,JustinTimberlake,HughJackman,,,,,4,3.1581579000001057,
PHTA2206,_,posfs_PatrickDempsey_im14.bmp,PatrickDempsey,KeanuReeves,KeanuReeves,RobertDowneyJr,HughJackman,RyanReynolds,,,,,posfs_PatrickDempsey_im14.bmp,7.453408200000013,
PHTA2206,_,posfs_KeanuReeves_im8.bmp,KeanuReeves,BenAffleck,BenAffleck,LeonardoDiCaprio,RyanGosling,GeorgeClooney,,,,,posfs_KeanuReeves_im8.bmp,4.527999799999861,
PHTA2206,_,posfs_BradPitt_im6.bmp,BradPitt,RyanGosling,RyanGosling,RobertDowneyJr,OrlandoBloom,HughJackman,,,,,4,15.751680599999872,
PHTA2206,_,posfs_RyanReynolds_im16.bmp,RyanReynolds,OrlandoBloom,OrlandoBloom,RobertPattinson,RyanGosling,LeonardoDiCaprio,,,,,4,7.967054400000052,
PHTA2206,_,posfs_RobertPattinson_im8.bmp,RobertPattinson,DanielRadcliffe,DanielRadcliffe,OrlandoBloom,MattDamon,RyanGosling,,,,,posfs_RobertPattinson_im8.bmp,1.782377600000018,
PHTA2206,_,posfs_LeonardoDiCaprio_im10.bmp,LeonardoDiCaprio,BenStiller,BenStiller,RyanGosling,PatrickDempsey,RobertPattinson,,,,,posfs_LeonardoDiCaprio_im10.bmp,20.837622699999883,
PHTA2206,_,posfs_BenStiller_im2.bmp,BenStiller,RobertDowneyJr,RobertDowneyJr,GeorgeClooney,DanielCraig,RyanReynolds,,,,,2,14.640054299999974,
PHTA2206,_,posfs_DanielCraig_im7.bmp,DanielCraig,BenAffleck,BenAffleck,KeanuReeves,PatrickDempsey,DanielRadcliffe,,,,,2,15.57284320000008,
PHTA2206,_,posfs_BenAffleck_im4.bmp,BenAffleck,BenStiller,BenStiller,KeanuReeves,ElijahWood,PatrickDempsey,,,,,4,1.011982900000021,
PHTA2206,_,posfs_RyanReynolds_im22.bmp,RyanReynolds,JustinTimberlake,JustinTimberlake,BradPitt,KeanuReeves,LeonardoDiCaprio,,,,,2,4.097483400000101,
PHTA2206,_,posfs_DanielRadcliffe_im8.bmp,DanielRadcliffe,MattDamon,MattDamon,PatrickDempsey,RyanReynolds,RobertDowneyJr,,,,,posfs_DanielRadcliffe_im8.bmp,1.9237104999999701,
PHTA2206,_,posfs_RobertDowneyJr_im11.bmp,RobertDowneyJr,HughJackman,HughJackman,RyanGosling,JustinTimberlake,BenStiller,,,,,0,2.9397131999999147,
PHTA2206,_,posfs_ElijahWood_im12.bmp,ElijahWood,DanielRadcliffe,DanielRadcliffe,RobertDowneyJr,GeorgeClooney,BenStiller,,,,,posfs_ElijahWood_im12.bmp,14.749811600000157,
PHTA2206,_,posfs_OrlandoBloom_im19.bmp,OrlandoBloom,ElijahWood,ElijahWood,DanielCraig,PatrickDempsey,LeonardoDiCaprio,,,,,posfs_OrlandoBloom_im19.bmp,4.181076399999938,
PHTA2206,_,posfs_RyanGosling_im12.bmp,RyanGosling,PatrickDempsey,PatrickDempsey,RyanReynolds,BradPitt,DanielCraig,,,,,posfs_RyanGosling_im12.bmp,2.42788900000005,
PHTA2206,_,posfs_MattDamon_im16.bmp,MattDamon,LeonardoDiCaprio,LeonardoDiCaprio,RyanGosling,KeanuReeves,BenStiller,,,,,posfs_MattDamon_im16.bmp,3.336875699999837,
PHTA2206,_,posfs_BenAffleck_im8.bmp,BenAffleck,OrlandoBloom,OrlandoBloom,RobertPattinson,RyanReynolds,MattDamon,,,,,3,1.9766646999999011,
PHTA2206,_,posfs_RobertPattinson_im4.bmp,RobertPattinson,DanielRadcliffe,DanielRadcliffe,RyanGosling,MattDamon,ElijahWood,,,,,posfs_RobertPattinson_im4.bmp,0.9196882999999616,
PHTA2206,_,posfs_RobertPattinson_im27.bmp,RobertPattinson,RyanReynolds,RyanReynolds,OrlandoBloom,MattDamon,KeanuReeves,,,,,posfs_RobertPattinson_im27.bmp,0.4636659000000236,
PHTA2206,_,posfs_BenStiller_im16.bmp,BenStiller,KeanuReeves,KeanuReeves,MattDamon,JustinTimberlake,BenAffleck,,,,,posfs_BenStiller_im16.bmp,3.7646550999998,
PHTA2206,_,posfs_KeanuReeves_im10.bmp,KeanuReeves,MattDamon,MattDamon,OrlandoBloom,PatrickDempsey,LeonardoDiCaprio,,,,,4,0.5960795000000871,
PHTA2206,_,posfs_RobertPattinson_im30.bmp,RobertPattinson,DanielRadcliffe,DanielRadcliffe,DanielCraig,BenAffleck,JustinTimberlake,,,,,posfs_RobertPattinson_im30.bmp,1.681914400000096,
PHTA2206,_,posfs_OrlandoBloom_im2.bmp,OrlandoBloom,BenAffleck,BenAffleck,RyanGosling,MattDamon,RobertDowneyJr,,,,,0,2.620791600000075,
PHTA2206,_,posfs_DanielCraig_im20.bmp,DanielCraig,BenStiller,BenStiller,BradPitt,LeonardoDiCaprio,OrlandoBloom,,,,,0,11.392924799999946,
PHTA2206,_,posfs_DanielRadcliffe_im10.bmp,DanielRadcliffe,LeonardoDiCaprio,LeonardoDiCaprio,KeanuReeves,ElijahWood,MattDamon,,,,,posfs_DanielRadcliffe_im10.bmp,0.7187552000000323,
PHTA2206,_,posfs_HughJackman_im21.bmp,HughJackman,OrlandoBloom,OrlandoBloom,GeorgeClooney,RyanGosling,BradPitt,,,,,2,4.43972789999998,
PHTA2206,_,posfs_RyanReynolds_im3.bmp,RyanReynolds,BenAffleck,BenAffleck,DanielCraig,MattDamon,OrlandoBloom,,,,,1,4.7317052999999305,
PHTA2206,_,posfs_BenStiller_im3.bmp,BenStiller,ElijahWood,ElijahWood,JustinTimberlake,BradPitt,RobertDowneyJr,,,,,3,5.533375800000158,
PHTA2206,_,posfs_RyanGosling_im25.bmp,RyanGosling,DanielCraig,DanielCraig,KeanuReeves,BradPitt,MattDamon,,,,,4,64.83753269999988,
PHTA2206,_,posfs_KeanuReeves_im1.bmp,KeanuReeves,LeonardoDiCaprio,LeonardoDiCaprio,BradPitt,JustinTimberlake,RobertPattinson,,,,,posfs_KeanuReeves_im1.bmp,3.4732671000001574,
PHTA2206,_,posfs_BradPitt_im8.bmp,BradPitt,BenStiller,BenStiller,BenAffleck,OrlandoBloom,RobertPattinson,,,,,2,2.8845965000000433,
PHTA2206,_,posfs_RobertDowneyJr_im4.bmp,RobertDowneyJr,RyanGosling,RyanGosling,BradPitt,HughJackman,ElijahWood,,,,,posfs_RobertDowneyJr_im4.bmp,2.359520499999917,
PHTA2206,_,posfs_PatrickDempsey_im16.bmp,PatrickDempsey,BradPitt,BradPitt,DanielCraig,DanielRadcliffe,LeonardoDiCaprio,,,,,posfs_PatrickDempsey_im16.bmp,7.647070799999938,
PHTA2206,_,posfs_BenStiller_im7.bmp,BenStiller,LeonardoDiCaprio,LeonardoDiCaprio,RyanGosling,DanielCraig,PatrickDempsey,,,,,4,7.15438139999992,
PHTA2206,_,posfs_ElijahWood_im19.bmp,ElijahWood,PatrickDempsey,PatrickDempsey,RyanReynolds,BenAffleck,OrlandoBloom,,,,,posfs_ElijahWood_im19.bmp,1.4012006000000383,
PHTA2206,_,posfs_MattDamon_im18.bmp,MattDamon,DanielCraig,DanielCraig,PatrickDempsey,DanielRadcliffe,ElijahWood,,,,,posfs_MattDamon_im18.bmp,4.4464812999999594,
PHTA2206,_,posfs_RobertDowneyJr_im19.bmp,RobertDowneyJr,DanielRadcliffe,DanielRadcliffe,DanielCraig,PatrickDempsey,BenStiller,,,,,4,2.1471632000000227,
PHTA2206,_,posfs_MattDamon_im9.bmp,MattDamon,BradPitt,BradPitt,HughJackman,DanielCraig,LeonardoDiCaprio,,,,,1,4.458077400000093,
PHTA2206,_,posfs_ElijahWood_im23.bmp,ElijahWood,BenAffleck,BenAffleck,RyanGosling,BenStiller,RobertDowneyJr,,,,,posfs_ElijahWood_im23.bmp,2.3090208000000985,
PHTA2206,_,posfs_DanielRadcliffe_im20.bmp,DanielRadcliffe,GeorgeClooney,GeorgeClooney,ElijahWood,RobertPattinson,KeanuReeves,,,,,posfs_DanielRadcliffe_im20.bmp,1.5733788999998524,
PHTA2206,_,posfs_RyanGosling_im30.bmp,RyanGosling,RyanReynolds,RyanReynolds,DanielCraig,PatrickDempsey,RobertPattinson,,,,,posfs_RyanGosling_im30.bmp,2.1728967999999895,
PHTA2206,_,posfs_BenAffleck_im24.bmp,BenAffleck,OrlandoBloom,OrlandoBloom,DanielRadcliffe,MattDamon,GeorgeClooney,,,,,0,3.9626404999999068,
PHTA2206,_,posfs_MattDamon_im24.bmp,MattDamon,RobertDowneyJr,RobertDowneyJr,BradPitt,HughJackman,RobertPattinson,,,,,4,1.297860700000001,
PHTA2206,_,posfs_GeorgeClooney_im14.bmp,GeorgeClooney,KeanuReeves,KeanuReeves,LeonardoDiCaprio,PatrickDempsey,RobertPattinson,,,,,posfs_GeorgeClooney_im14.bmp,1.3477540999999746,
PHTA2206,_,posfs_BradPitt_im14.bmp,BradPitt,MattDamon,MattDamon,DanielCraig,OrlandoBloom,LeonardoDiCaprio,,,,,2,2.7958329000000504,
PHTA2206,_,posfs_JustinTimberlake_im1.bmp,JustinTimberlake,BenAffleck,BenAffleck,ElijahWood,PatrickDempsey,HughJackman,,,,,posfs_JustinTimberlake_im1.bmp,1.2649728999999752,
PHTA2206,_,posfs_DanielCraig_im15.bmp,DanielCraig,BenAffleck,BenAffleck,MattDamon,BenStiller,HughJackman,,,,,3,5.108999900000072,
PHTA2206,_,posfs_PatrickDempsey_im8.bmp,PatrickDempsey,BenStiller,BenStiller,MattDamon,BradPitt,RyanGosling,,,,,posfs_PatrickDempsey_im8.bmp,2.637341699999979,
PHTA2206,_,posfs_GeorgeClooney_im26.bmp,GeorgeClooney,LeonardoDiCaprio,LeonardoDiCaprio,RobertPattinson,BenAffleck,ElijahWood,,,,,posfs_GeorgeClooney_im26.bmp,1.0721836999998686,
PHTA2206,_,posfs_KeanuReeves_im2.bmp,KeanuReeves,HughJackman,HughJackman,GeorgeClooney,RobertPattinson,BenStiller,,,,,posfs_KeanuReeves_im2.bmp,8.7634908,
PHTA2206,_,posfs_PatrickDempsey_im9.bmp,PatrickDempsey,HughJackman,HughJackman,RobertDowneyJr,KeanuReeves,BenAffleck,,,,,posfs_PatrickDempsey_im9.bmp,1.9633343999998942,
PHTA2206,_,posfs_GeorgeClooney_im23.bmp,GeorgeClooney,BenAffleck,BenAffleck,MattDamon,OrlandoBloom,KeanuReeves,,,,,posfs_GeorgeClooney_im23.bmp,1.3790278000001308,
PHTA2206,_,posfs_RyanGosling_im3.bmp,RyanGosling,RobertPattinson,RobertPattinson,PatrickDempsey,DanielCraig,JustinTimberlake,,,,,posfs_RyanGosling_im3.bmp,2.920663999999988,
PHTA2206,_,posfs_OrlandoBloom_im3.bmp,OrlandoBloom,RobertPattinson,RobertPattinson,RyanReynolds,RyanGosling,RobertDowneyJr,,,,,posfs_OrlandoBloom_im3.bmp,2.0977955999999267,
PHTA2206,_,posfs_HughJackman_im13.bmp,HughJackman,BradPitt,BradPitt,PatrickDempsey,MattDamon,RobertPattinson,,,,,2,4.506906600000093,
PHTA2206,_,posfs_LeonardoDiCaprio_im15.bmp,LeonardoDiCaprio,RobertPattinson,RobertPattinson,DanielCraig,BradPitt,DanielRadcliffe,,,,,1,5.140324899999996,
PHTA2206,_,posfs_HughJackman_im20.bmp,HughJackman,JustinTimberlake,JustinTimberlake,RyanReynolds,DanielCraig,OrlandoBloom,,,,,1,1.9163211999998566,
PHTA2206,_,posfs_LeonardoDiCaprio_im24.bmp,LeonardoDiCaprio,DanielCraig,DanielCraig,BradPitt,PatrickDempsey,RyanGosling,,,,,posfs_LeonardoDiCaprio_im24.bmp,2.076413300000013,
PHTA2206,_,posfs_BenAffleck_im21.bmp,BenAffleck,RyanGosling,RyanGosling,GeorgeClooney,ElijahWood,BradPitt,,,,,4,4.775721900000008,
PHTA2206,_,posfs_GeorgeClooney_im15.bmp,GeorgeClooney,JustinTimberlake,JustinTimberlake,DanielRadcliffe,DanielCraig,BenAffleck,,,,,posfs_GeorgeClooney_im15.bmp,1.7007782000000589,
PHTA2206,_,posfs_DanielCraig_im8.bmp,DanielCraig,RobertPattinson,RobertPattinson,BenAffleck,BenStiller,LeonardoDiCaprio,,,,,1,3.182334200000014,
PHTA2206,_,posfs_JustinTimberlake_im18.bmp,JustinTimberlake,ElijahWood,ElijahWood,RyanGosling,DanielRadcliffe,LeonardoDiCaprio,,,,,posfs_JustinTimberlake_im18.bmp,1.508510699999988,
PHTA2206,_,posfs_JustinTimberlake_im17.bmp,JustinTimberlake,MattDamon,MattDamon,LeonardoDiCaprio,ElijahWood,GeorgeClooney,,,,,posfs_JustinTimberlake_im17.bmp,1.0616052999998828,
PHTA2206,_,posfs_LeonardoDiCaprio_im29.bmp,LeonardoDiCaprio,RobertDowneyJr,RobertDowneyJr,PatrickDempsey,OrlandoBloom,DanielCraig,,,,,posfs_LeonardoDiCaprio_im29.bmp,2.2804832000001625,
PHTA2206,_,posfs_ElijahWood_im18.bmp,ElijahWood,PatrickDempsey,PatrickDempsey,JustinTimberlake,RobertPattinson,RobertDowneyJr,,,,,posfs_ElijahWood_im18.bmp,0.666633499999989,
PHTA2206,_,posfs_OrlandoBloom_im30.bmp,OrlandoBloom,JustinTimberlake,JustinTimberlake,BradPitt,KeanuReeves,RyanGosling,,,,,0,1.749820600000021,
PHTA2206,_,posfs_HughJackman_im18.bmp,HughJackman,LeonardoDiCaprio,LeonardoDiCaprio,BradPitt,RyanGosling,DanielRadcliffe,,,,,posfs_HughJackman_im18.bmp,3.268430399999943,
PHTA2206,_,posfs_DanielRadcliffe_im1.bmp,DanielRadcliffe,BradPitt,BradPitt,LeonardoDiCaprio,BenStiller,RobertPattinson,,,,,posfs_DanielRadcliffe_im1.bmp,3.1185745999998744,
PHTA2206,_,posfs_RyanReynolds_im17.bmp,RyanReynolds,PatrickDempsey,PatrickDempsey,ElijahWood,BenStiller,BradPitt,,,,,posfs_RyanReynolds_im17.bmp,5.174777799999902,
PHTA2206,_,posfs_RobertDowneyJr_im18.bmp,RobertDowneyJr,MattDamon,MattDamon,BradPitt,GeorgeClooney,JustinTimberlake,,,,,3,7.525723400000061,
PHTA2206,train,pos,fs,posfs_id17_im9.bmp_posfs_id17_im8.bmp,['Im_DanielRadcliffe.png', 'Im_KeanuReeves.png', 'Im_GeorgeClooney.png', 'Im_JustinTimberlake.png', 'Im_ElijahWood.png', 'Im_PatrickDempsey.png', 'Im_RobertPattinson.png', 'Im_RyanGosling.png', 'Im_BenStiller.png', 'Im_LeonardoDiCaprio.png'],same,1,1.0754007999998976,1,0,
PHTA2206,train,pos,fs,posfs_id5_im20.bmp_posfs_id5_im1.bmp,['Im_DanielRadcliffe.png', 'Im_KeanuReeves.png', 'Im_GeorgeClooney.png', 'Im_JustinTimberlake.png', 'Im_ElijahWood.png', 'Im_PatrickDempsey.png', 'Im_RobertPattinson.png', 'Im_RyanGosling.png', 'Im_BenStiller.png', 'Im_LeonardoDiCaprio.png'],diff,0,0.7665472999999565,1,0,
PHTA2206,train,pos,fs,posfs_id7_im15.bmp_posfs_id7_im26.bmp,['Im_DanielRadcliffe.png', 'Im_KeanuReeves.png', 'Im_GeorgeClooney.png', 'Im_JustinTimberlake.png', 'Im_ElijahWood.png', 'Im_PatrickDempsey.png', 'Im_RobertPattinson.png', 'Im_RyanGosling.png', 'Im_BenStiller.png', 'Im_LeonardoDiCaprio.png'],same,1,0.6000328000000081,2,0,
PHTA2206,train,pos,fs,posfs_id11_im2.bmp_posfs_id2_im16.bmp,['Im_DanielRadcliffe.png', 'Im_KeanuReeves.png', 'Im_GeorgeClooney.png', 'Im_JustinTimberlake.png', 'Im_ElijahWood.png', 'Im_PatrickDempsey.png', 'Im_RobertPattinson.png', 'Im_RyanGosling.png', 'Im_BenStiller.png', 'Im_LeonardoDiCaprio.png'],diff,1,0.6168533000000025,3,0,
PHTA2206,train,pos,fs,posfs_id6_im19.bmp_posfs_id13_im10.bmp,['Im_DanielRadcliffe.png', 'Im_KeanuReeves.png', 'Im_GeorgeClooney.png', 'Im_JustinTimberlake.png', 'Im_ElijahWood.png', 'Im_PatrickDempsey.png', 'Im_RobertPattinson.png', 'Im_RyanGosling.png', 'Im_BenStiller.png', 'Im_LeonardoDiCaprio.png'],diff,1,0.6334405000000061,4,0,
PHTA2206,train,pos,fs,posfs_id13_im15.bmp_posfs_id13_im29.bmp,['Im_DanielRadcliffe.png', 'Im_KeanuReeves.png', 'Im_GeorgeClooney.png', 'Im_JustinTimberlake.png', 'Im_ElijahWood.png', 'Im_PatrickDempsey.png', 'Im_RobertPattinson.png', 'Im_RyanGosling.png', 'Im_BenStiller.png', 'Im_LeonardoDiCaprio.png'],same,1,0.8498945000001186,5,0,
PHTA2206,train,pos,fs,posfs_id13_im15.bmp_posfs_id6_im18.bmp,['Im_DanielRadcliffe.png', 'Im_KeanuReeves.png', 'Im_GeorgeClooney.png', 'Im_JustinTimberlake.png', 'Im_ElijahWood.png', 'Im_PatrickDempsey.png', 'Im_RobertPattinson.png', 'Im_RyanGosling.png', 'Im_BenStiller.png', 'Im_LeonardoDiCaprio.png'],diff,1,0.7331246000001101,6,0,
PHTA2206,train,pos,fs,posfs_id2_im16.bmp_posfs_id2_im2.bmp,['Im_DanielRadcliffe.png', 'Im_KeanuReeves.png', 'Im_GeorgeClooney.png', 'Im_JustinTimberlake.png', 'Im_ElijahWood.png', 'Im_PatrickDempsey.png', 'Im_RobertPattinson.png', 'Im_RyanGosling.png', 'Im_BenStiller.png', 'Im_LeonardoDiCaprio.png'],same,1,0.7417776999998296,7,0,
PHTA2206,train,pos,fs,posfs_id10_im17.bmp_posfs_id2_im2.bmp,['Im_DanielRadcliffe.png', 'Im_KeanuReeves.png', 'Im_GeorgeClooney.png', 'Im_JustinTimberlake.png', 'Im_ElijahWood.png', 'Im_PatrickDempsey.png', 'Im_RobertPattinson.png', 'Im_RyanGosling.png', 'Im_BenStiller.png', 'Im_LeonardoDiCaprio.png'],diff,1,0.5667371000001822,8,0,
PHTA2206,train,pos,fs,posfs_id19_im27.bmp_posfs_id19_im8.bmp,['Im_DanielRadcliffe.png', 'Im_KeanuReeves.png', 'Im_GeorgeClooney.png', 'Im_JustinTimberlake.png', 'Im_ElijahWood.png', 'Im_PatrickDempsey.png', 'Im_RobertPattinson.png', 'Im_RyanGosling.png', 'Im_BenStiller.png', 'Im_LeonardoDiCaprio.png'],same,1,0.5332548999999744,9,0,
PHTA2206,train,pos,fs,posfs_id17_im8.bmp_posfs_id17_im14.bmp,['Im_DanielRadcliffe.png', 'Im_KeanuReeves.png', 'Im_GeorgeClooney.png', 'Im_JustinTimberlake.png', 'Im_ElijahWood.png', 'Im_PatrickDempsey.png', 'Im_RobertPattinson.png', 'Im_RyanGosling.png', 'Im_BenStiller.png', 'Im_LeonardoDiCaprio.png'],diff,0,0.6667160000001786,9,0,
PHTA2206,train,pos,fs,posfs_id6_im12.bmp_posfs_id6_im19.bmp,['Im_DanielRadcliffe.png', 'Im_KeanuReeves.png', 'Im_GeorgeClooney.png', 'Im_JustinTimberlake.png', 'Im_ElijahWood.png', 'Im_PatrickDempsey.png', 'Im_RobertPattinson.png', 'Im_RyanGosling.png', 'Im_BenStiller.png', 'Im_LeonardoDiCaprio.png'],same,1,0.6498435000000882,10,0,
PHTA2206,train,pos,fs,posfs_id2_im3.bmp_posfs_id2_im16.bmp,['Im_DanielRadcliffe.png', 'Im_KeanuReeves.png', 'Im_GeorgeClooney.png', 'Im_JustinTimberlake.png', 'Im_ElijahWood.png', 'Im_PatrickDempsey.png', 'Im_RobertPattinson.png', 'Im_RyanGosling.png', 'Im_BenStiller.png', 'Im_LeonardoDiCaprio.png'],same,1,0.8167871000000559,11,0,
PHTA2206,train,pos,fs,posfs_id10_im1.bmp_posfs_id10_im17.bmp,['Im_DanielRadcliffe.png', 'Im_KeanuReeves.png', 'Im_GeorgeClooney.png', 'Im_JustinTimberlake.png', 'Im_ElijahWood.png', 'Im_PatrickDempsey.png', 'Im_RobertPattinson.png', 'Im_RyanGosling.png', 'Im_BenStiller.png', 'Im_LeonardoDiCaprio.png'],same,1,0.6748163000002023,12,0,
PHTA2206,train,pos,fs,posfs_id17_im9.bmp_posfs_id5_im20.bmp,['Im_DanielRadcliffe.png', 'Im_KeanuReeves.png', 'Im_GeorgeClooney.png', 'Im_JustinTimberlake.png', 'Im_ElijahWood.png', 'Im_PatrickDempsey.png', 'Im_RobertPattinson.png', 'Im_RyanGosling.png', 'Im_BenStiller.png', 'Im_LeonardoDiCaprio.png'],diff,1,0.6750246000001425,13,0,
PHTA2206,train,pos,fs,posfs_id20_im12.bmp_posfs_id20_im30.bmp,['Im_DanielRadcliffe.png', 'Im_KeanuReeves.png', 'Im_GeorgeClooney.png', 'Im_JustinTimberlake.png', 'Im_ElijahWood.png', 'Im_PatrickDempsey.png', 'Im_RobertPattinson.png', 'Im_RyanGosling.png', 'Im_BenStiller.png', 'Im_LeonardoDiCaprio.png'],same,1,0.5835267000002204,14,0,
PHTA2206,train,pos,fs,posfs_id17_im9.bmp_posfs_id2_im2.bmp,['Im_DanielRadcliffe.png', 'Im_KeanuReeves.png', 'Im_GeorgeClooney.png', 'Im_JustinTimberlake.png', 'Im_ElijahWood.png', 'Im_PatrickDempsey.png', 'Im_RobertPattinson.png', 'Im_RyanGosling.png', 'Im_BenStiller.png', 'Im_LeonardoDiCaprio.png'],diff,1,0.5751682000000073,15,0,
PHTA2206,train,pos,fs,posfs_id20_im30.bmp_posfs_id5_im10.bmp,['Im_DanielRadcliffe.png', 'Im_KeanuReeves.png', 'Im_GeorgeClooney.png', 'Im_JustinTimberlake.png', 'Im_ElijahWood.png', 'Im_PatrickDempsey.png', 'Im_RobertPattinson.png', 'Im_RyanGosling.png', 'Im_BenStiller.png', 'Im_LeonardoDiCaprio.png'],diff,1,0.658422900000005,16,0,
PHTA2206,train,pos,fs,posfs_id2_im3.bmp_posfs_id2_im2.bmp,['Im_DanielRadcliffe.png', 'Im_KeanuReeves.png', 'Im_GeorgeClooney.png', 'Im_JustinTimberlake.png', 'Im_ElijahWood.png', 'Im_PatrickDempsey.png', 'Im_RobertPattinson.png', 'Im_RyanGosling.png', 'Im_BenStiller.png', 'Im_LeonardoDiCaprio.png'],same,1,0.5834894000004169,17,0,
PHTA2206,train,pos,fs,posfs_id11_im2.bmp_posfs_id11_im10.bmp,['Im_DanielRadcliffe.png', 'Im_KeanuReeves.png', 'Im_GeorgeClooney.png', 'Im_JustinTimberlake.png', 'Im_ElijahWood.png', 'Im_PatrickDempsey.png', 'Im_RobertPattinson.png', 'Im_RyanGosling.png', 'Im_BenStiller.png', 'Im_LeonardoDiCaprio.png'],same,1,0.5746895000002041,18,0,
PHTA2206,train,inv,fs,posfs_id7_im15.bmp_posfs_id7_im26.bmp,['Im_DanielRadcliffe.png', 'Im_KeanuReeves.png', 'Im_GeorgeClooney.png', 'Im_JustinTimberlake.png', 'Im_ElijahWood.png', 'Im_PatrickDempsey.png', 'Im_RobertPattinson.png', 'Im_RyanGosling.png', 'Im_BenStiller.png', 'Im_LeonardoDiCaprio.png'],same,1,0.9086325999996916,1,0,
PHTA2206,train,inv,fs,posfs_id13_im29.bmp_posfs_id19_im8.bmp,['Im_DanielRadcliffe.png', 'Im_KeanuReeves.png', 'Im_GeorgeClooney.png', 'Im_JustinTimberlake.png', 'Im_ElijahWood.png', 'Im_PatrickDempsey.png', 'Im_RobertPattinson.png', 'Im_RyanGosling.png', 'Im_BenStiller.png', 'Im_LeonardoDiCaprio.png'],diff,1,0.408149300000332,2,0,
PHTA2206,train,neg,fs,negfs_id5_im10.bmp_negfs_id7_im14.bmp,['Im_DanielRadcliffe.png', 'Im_KeanuReeves.png', 'Im_GeorgeClooney.png', 'Im_JustinTimberlake.png', 'Im_ElijahWood.png', 'Im_PatrickDempsey.png', 'Im_RobertPattinson.png', 'Im_RyanGosling.png', 'Im_BenStiller.png', 'Im_LeonardoDiCaprio.png'],diff,1,0.4083924000001389,3,0,
PHTA2206,train,pos,fs,posfs_id5_im10.bmp_posfs_id5_im20.bmp,['Im_DanielRadcliffe.png', 'Im_KeanuReeves.png', 'Im_GeorgeClooney.png', 'Im_JustinTimberlake.png', 'Im_ElijahWood.png', 'Im_PatrickDempsey.png', 'Im_RobertPattinson.png', 'Im_RyanGosling.png', 'Im_BenStiller.png', 'Im_LeonardoDiCaprio.png'],same,1,0.41680429999996704,4,0,
PHTA2206,train,neg,fs,negfs_id13_im15.bmp_negfs_id13_im10.bmp,['Im_DanielRadcliffe.png', 'Im_KeanuReeves.png', 'Im_GeorgeClooney.png', 'Im_JustinTimberlake.png', 'Im_ElijahWood.png', 'Im_PatrickDempsey.png', 'Im_RobertPattinson.png', 'Im_RyanGosling.png', 'Im_BenStiller.png', 'Im_LeonardoDiCaprio.png'],same,1,0.40826289999995424,5,0,
PHTA2206,train,pos,fs,posfs_id10_im18.bmp_posfs_id20_im30.bmp,['Im_DanielRadcliffe.png', 'Im_KeanuReeves.png', 'Im_GeorgeClooney.png', 'Im_JustinTimberlake.png', 'Im_ElijahWood.png', 'Im_PatrickDempsey.png', 'Im_RobertPattinson.png', 'Im_RyanGosling.png', 'Im_BenStiller.png', 'Im_LeonardoDiCaprio.png'],diff,1,0.3999039000000266,6,0,
PHTA2206,train,neg,fs,negfs_id13_im10.bmp_negfs_id13_im29.bmp,['Im_DanielRadcliffe.png', 'Im_KeanuReeves.png', 'Im_GeorgeClooney.png', 'Im_JustinTimberlake.png', 'Im_ElijahWood.png', 'Im_PatrickDempsey.png', 'Im_RobertPattinson.png', 'Im_RyanGosling.png', 'Im_BenStiller.png', 'Im_LeonardoDiCaprio.png'],diff,0,0.6085163000002467,6,0,
PHTA2206,train,pos,fs,posfs_id20_im3.bmp_posfs_id20_im12.bmp,['Im_DanielRadcliffe.png', 'Im_KeanuReeves.png', 'Im_GeorgeClooney.png', 'Im_JustinTimberlake.png', 'Im_ElijahWood.png', 'Im_PatrickDempsey.png', 'Im_RobertPattinson.png', 'Im_RyanGosling.png', 'Im_BenStiller.png', 'Im_LeonardoDiCaprio.png'],same,1,0.40013649999991685,7,0,
PHTA2206,train,neg,fs,negfs_id6_im12.bmp_negfs_id5_im1.bmp,['Im_DanielRadcliffe.png', 'Im_KeanuReeves.png', 'Im_GeorgeClooney.png', 'Im_JustinTimberlake.png', 'Im_ElijahWood.png', 'Im_PatrickDempsey.png', 'Im_RobertPattinson.png', 'Im_RyanGosling.png', 'Im_BenStiller.png', 'Im_LeonardoDiCaprio.png'],diff,1,0.45002070000009553,8,0,
PHTA2206,train,pos,fs,posfs_id13_im10.bmp_posfs_id6_im19.bmp,['Im_DanielRadcliffe.png', 'Im_KeanuReeves.png', 'Im_GeorgeClooney.png', 'Im_JustinTimberlake.png', 'Im_ElijahWood.png', 'Im_PatrickDempsey.png', 'Im_RobertPattinson.png', 'Im_RyanGosling.png', 'Im_BenStiller.png', 'Im_LeonardoDiCaprio.png'],diff,1,0.40843230000018593,9,0,
PHTA2206,train,neg,fs,negfs_id10_im1.bmp_negfs_id10_im17.bmp,['Im_DanielRadcliffe.png', 'Im_KeanuReeves.png', 'Im_GeorgeClooney.png', 'Im_JustinTimberlake.png', 'Im_ElijahWood.png', 'Im_PatrickDempsey.png', 'Im_RobertPattinson.png', 'Im_RyanGosling.png', 'Im_BenStiller.png', 'Im_LeonardoDiCaprio.png'],diff,0,0.4421047999999246,9,0,
PHTA2206,train,pos,fs,posfs_id7_im14.bmp_posfs_id7_im15.bmp,['Im_DanielRadcliffe.png', 'Im_KeanuReeves.png', 'Im_GeorgeClooney.png', 'Im_JustinTimberlake.png', 'Im_ElijahWood.png', 'Im_PatrickDempsey.png', 'Im_RobertPattinson.png', 'Im_RyanGosling.png', 'Im_BenStiller.png', 'Im_LeonardoDiCaprio.png'],same,1,0.4084050000001298,10,0,
PHTA2206,train,pos,fs,posfs_id11_im10.bmp_posfs_id19_im27.bmp,['Im_DanielRadcliffe.png', 'Im_KeanuReeves.png', 'Im_GeorgeClooney.png', 'Im_JustinTimberlake.png', 'Im_ElijahWood.png', 'Im_PatrickDempsey.png', 'Im_RobertPattinson.png', 'Im_RyanGosling.png', 'Im_BenStiller.png', 'Im_LeonardoDiCaprio.png'],diff,1,0.40012019999994664,11,0,
PHTA2206,train,inv,fs,posfs_id2_im16.bmp_posfs_id2_im3.bmp,['Im_DanielRadcliffe.png', 'Im_KeanuReeves.png', 'Im_GeorgeClooney.png', 'Im_JustinTimberlake.png', 'Im_ElijahWood.png', 'Im_PatrickDempsey.png', 'Im_RobertPattinson.png', 'Im_RyanGosling.png', 'Im_BenStiller.png', 'Im_LeonardoDiCaprio.png'],same,1,0.6084940000000643,12,0,
PHTA2206,train,inv,fs,posfs_id13_im29.bmp_posfs_id7_im14.bmp,['Im_DanielRadcliffe.png', 'Im_KeanuReeves.png', 'Im_GeorgeClooney.png', 'Im_JustinTimberlake.png', 'Im_ElijahWood.png', 'Im_PatrickDempsey.png', 'Im_RobertPattinson.png', 'Im_RyanGosling.png', 'Im_BenStiller.png', 'Im_LeonardoDiCaprio.png'],diff,1,0.40023070000006555,13,0,
PHTA2206,train,neg,fs,negfs_id11_im1.bmp_negfs_id11_im2.bmp,['Im_DanielRadcliffe.png', 'Im_KeanuReeves.png', 'Im_GeorgeClooney.png', 'Im_JustinTimberlake.png', 'Im_ElijahWood.png', 'Im_PatrickDempsey.png', 'Im_RobertPattinson.png', 'Im_RyanGosling.png', 'Im_BenStiller.png', 'Im_LeonardoDiCaprio.png'],diff,0,0.4082533999999214,13,0,
PHTA2206,train,inv,fs,posfs_id19_im8.bmp_posfs_id19_im4.bmp,['Im_DanielRadcliffe.png', 'Im_KeanuReeves.png', 'Im_GeorgeClooney.png', 'Im_JustinTimberlake.png', 'Im_ElijahWood.png', 'Im_PatrickDempsey.png', 'Im_RobertPattinson.png', 'Im_RyanGosling.png', 'Im_BenStiller.png', 'Im_LeonardoDiCaprio.png'],same,1,0.4001834000000599,14,0,
PHTA2206,train,pos,fs,posfs_id5_im1.bmp_posfs_id19_im27.bmp,['Im_DanielRadcliffe.png', 'Im_KeanuReeves.png', 'Im_GeorgeClooney.png', 'Im_JustinTimberlake.png', 'Im_ElijahWood.png', 'Im_PatrickDempsey.png', 'Im_RobertPattinson.png', 'Im_RyanGosling.png', 'Im_BenStiller.png', 'Im_LeonardoDiCaprio.png'],diff,1,1.5083590999997796,15,0,
PHTA2206,train,neg,fs,negfs_id10_im18.bmp_negfs_id10_im1.bmp,['Im_DanielRadcliffe.png', 'Im_KeanuReeves.png', 'Im_GeorgeClooney.png', 'Im_JustinTimberlake.png', 'Im_ElijahWood.png', 'Im_PatrickDempsey.png', 'Im_RobertPattinson.png', 'Im_RyanGosling.png', 'Im_BenStiller.png', 'Im_LeonardoDiCaprio.png'],same,1,0.9249267000000145,16,0,
PHTA2206,train,neg,fs,negfs_id11_im10.bmp_negfs_id17_im14.bmp,['Im_DanielRadcliffe.png', 'Im_KeanuReeves.png', 'Im_GeorgeClooney.png', 'Im_JustinTimberlake.png', 'Im_ElijahWood.png', 'Im_PatrickDempsey.png', 'Im_RobertPattinson.png', 'Im_RyanGosling.png', 'Im_BenStiller.png', 'Im_LeonardoDiCaprio.png'],diff,1,0.4000915999999961,17,0,
PHTA2206,train,pos,60,pos60_id10_im17.bmp_pos60_id10_im1.bmp,['Im_DanielRadcliffe.png', 'Im_KeanuReeves.png', 'Im_GeorgeClooney.png', 'Im_JustinTimberlake.png', 'Im_ElijahWood.png', 'Im_PatrickDempsey.png', 'Im_RobertPattinson.png', 'Im_RyanGosling.png', 'Im_BenStiller.png', 'Im_LeonardoDiCaprio.png'],diff,0,0.44206209999993007,0,0,
PHTA2206,train,pos,30,pos30_id11_im10.bmp_pos30_id17_im14.bmp,['Im_DanielRadcliffe.png', 'Im_KeanuReeves.png', 'Im_GeorgeClooney.png', 'Im_JustinTimberlake.png', 'Im_ElijahWood.png', 'Im_PatrickDempsey.png', 'Im_RobertPattinson.png', 'Im_RyanGosling.png', 'Im_BenStiller.png', 'Im_LeonardoDiCaprio.png'],diff,1,0.4167040000002089,1,0,
PHTA2206,train,pos,150,pos150_id17_im8.bmp_pos150_id10_im17.bmp,['Im_DanielRadcliffe.png', 'Im_KeanuReeves.png', 'Im_GeorgeClooney.png', 'Im_JustinTimberlake.png', 'Im_ElijahWood.png', 'Im_PatrickDempsey.png', 'Im_RobertPattinson.png', 'Im_RyanGosling.png', 'Im_BenStiller.png', 'Im_LeonardoDiCaprio.png'],diff,1,0.41674319999992804,2,0,
PHTA2206,train,pos,120,pos120_id19_im4.bmp_pos120_id7_im15.bmp,['Im_DanielRadcliffe.png', 'Im_KeanuReeves.png', 'Im_GeorgeClooney.png', 'Im_JustinTimberlake.png', 'Im_ElijahWood.png', 'Im_PatrickDempsey.png', 'Im_RobertPattinson.png', 'Im_RyanGosling.png', 'Im_BenStiller.png', 'Im_LeonardoDiCaprio.png'],diff,1,0.40845439999975497,3,0,
PHTA2206,train,pos,120,pos120_id2_im3.bmp_pos120_id7_im26.bmp,['Im_DanielRadcliffe.png', 'Im_KeanuReeves.png', 'Im_GeorgeClooney.png', 'Im_JustinTimberlake.png', 'Im_ElijahWood.png', 'Im_PatrickDempsey.png', 'Im_RobertPattinson.png', 'Im_RyanGosling.png', 'Im_BenStiller.png', 'Im_LeonardoDiCaprio.png'],same,0,0.40837310000006255,3,0,
PHTA2206,train,pos,90,pos90_id19_im27.bmp_pos90_id19_im8.bmp,['Im_DanielRadcliffe.png', 'Im_KeanuReeves.png', 'Im_GeorgeClooney.png', 'Im_JustinTimberlake.png', 'Im_ElijahWood.png', 'Im_PatrickDempsey.png', 'Im_RobertPattinson.png', 'Im_RyanGosling.png', 'Im_BenStiller.png', 'Im_LeonardoDiCaprio.png'],same,1,0.4165312999998605,4,0,
PHTA2206,train,pos,fs,posfs_id2_im2.bmp_posfs_id17_im9.bmp,['Im_DanielRadcliffe.png', 'Im_KeanuReeves.png', 'Im_GeorgeClooney.png', 'Im_JustinTimberlake.png', 'Im_ElijahWood.png', 'Im_PatrickDempsey.png', 'Im_RobertPattinson.png', 'Im_RyanGosling.png', 'Im_BenStiller.png', 'Im_LeonardoDiCaprio.png'],diff,1,0.4083940000000439,5,0,
PHTA2206,train,pos,60,pos60_id13_im29.bmp_pos60_id13_im10.bmp,['Im_DanielRadcliffe.png', 'Im_KeanuReeves.png', 'Im_GeorgeClooney.png', 'Im_JustinTimberlake.png', 'Im_ElijahWood.png', 'Im_PatrickDempsey.png', 'Im_RobertPattinson.png', 'Im_RyanGosling.png', 'Im_BenStiller.png', 'Im_LeonardoDiCaprio.png'],same,1,0.4165242999997645,6,0,
PHTA2206,train,pos,0,pos0_id5_im1.bmp_pos0_id6_im12.bmp,['Im_DanielRadcliffe.png', 'Im_KeanuReeves.png', 'Im_GeorgeClooney.png', 'Im_JustinTimberlake.png', 'Im_ElijahWood.png', 'Im_PatrickDempsey.png', 'Im_RobertPattinson.png', 'Im_RyanGosling.png', 'Im_BenStiller.png', 'Im_LeonardoDiCaprio.png'],diff,1,0.41669950000004974,7,0,
PHTA2206,train,pos,0,pos0_id10_im18.bmp_pos0_id20_im30.bmp,['Im_DanielRadcliffe.png', 'Im_KeanuReeves.png', 'Im_GeorgeClooney.png', 'Im_JustinTimberlake.png', 'Im_ElijahWood.png', 'Im_PatrickDempsey.png', 'Im_RobertPattinson.png', 'Im_RyanGosling.png', 'Im_BenStiller.png', 'Im_LeonardoDiCaprio.png'],diff,1,0.41684629999963363,8,0,
PHTA2206,train,pos,fs,posfs_id5_im10.bmp_posfs_id20_im30.bmp,['Im_DanielRadcliffe.png', 'Im_KeanuReeves.png', 'Im_GeorgeClooney.png', 'Im_JustinTimberlake.png', 'Im_ElijahWood.png', 'Im_PatrickDempsey.png', 'Im_RobertPattinson.png', 'Im_RyanGosling.png', 'Im_BenStiller.png', 'Im_LeonardoDiCaprio.png'],diff,1,0.41650990000016463,9,0,
PHTA2206,train,pos,30,pos30_id5_im20.bmp_pos30_id5_im10.bmp,['Im_DanielRadcliffe.png', 'Im_KeanuReeves.png', 'Im_GeorgeClooney.png', 'Im_JustinTimberlake.png', 'Im_ElijahWood.png', 'Im_PatrickDempsey.png', 'Im_RobertPattinson.png', 'Im_RyanGosling.png', 'Im_BenStiller.png', 'Im_LeonardoDiCaprio.png'],same,1,0.416541000000052,10,0,
PHTA2206,train,pos,150,pos150_id7_im26.bmp_pos150_id19_im4.bmp,['Im_DanielRadcliffe.png', 'Im_KeanuReeves.png', 'Im_GeorgeClooney.png', 'Im_JustinTimberlake.png', 'Im_ElijahWood.png', 'Im_PatrickDempsey.png', 'Im_RobertPattinson.png', 'Im_RyanGosling.png', 'Im_BenStiller.png', 'Im_LeonardoDiCaprio.png'],diff,1,0.4166624999998021,11,0,
PHTA2206,train,pos,90,pos90_id17_im8.bmp_pos90_id5_im20.bmp,['Im_DanielRadcliffe.png', 'Im_KeanuReeves.png', 'Im_GeorgeClooney.png', 'Im_JustinTimberlake.png', 'Im_ElijahWood.png', 'Im_PatrickDempsey.png', 'Im_RobertPattinson.png', 'Im_RyanGosling.png', 'Im_BenStiller.png', 'Im_LeonardoDiCaprio.png'],diff,1,0.4084665000000314,12,0,
PHTA2206,train,neg,60,neg60_id5_im10.bmp_neg60_id5_im1.bmp,['Im_DanielRadcliffe.png', 'Im_KeanuReeves.png', 'Im_GeorgeClooney.png', 'Im_JustinTimberlake.png', 'Im_ElijahWood.png', 'Im_PatrickDempsey.png', 'Im_RobertPattinson.png', 'Im_RyanGosling.png', 'Im_BenStiller.png', 'Im_LeonardoDiCaprio.png'],same,1,0.40816910000012285,13,0,
PHTA2206,train,neg,60,neg60_id19_im8.bmp_neg60_id19_im4.bmp,['Im_DanielRadcliffe.png', 'Im_KeanuReeves.png', 'Im_GeorgeClooney.png', 'Im_JustinTimberlake.png', 'Im_ElijahWood.png', 'Im_PatrickDempsey.png', 'Im_RobertPattinson.png', 'Im_RyanGosling.png', 'Im_BenStiller.png', 'Im_LeonardoDiCaprio.png'],same,1,0.4166464999998425,14,0,
PHTA2206,train,neg,fs,negfs_id11_im2.bmp_negfs_id2_im16.bmp,['Im_DanielRadcliffe.png', 'Im_KeanuReeves.png', 'Im_GeorgeClooney.png', 'Im_JustinTimberlake.png', 'Im_ElijahWood.png', 'Im_PatrickDempsey.png', 'Im_RobertPattinson.png', 'Im_RyanGosling.png', 'Im_BenStiller.png', 'Im_LeonardoDiCaprio.png'],diff,1,0.4166064999999435,15,0,
PHTA2206,train,neg,30,neg30_id7_im14.bmp_neg30_id5_im10.bmp,['Im_DanielRadcliffe.png', 'Im_KeanuReeves.png', 'Im_GeorgeClooney.png', 'Im_JustinTimberlake.png', 'Im_ElijahWood.png', 'Im_PatrickDempsey.png', 'Im_RobertPattinson.png', 'Im_RyanGosling.png', 'Im_BenStiller.png', 'Im_LeonardoDiCaprio.png'],diff,1,0.4083130999997593,16,0,
PHTA2206,train,neg,fs,negfs_id2_im16.bmp_negfs_id2_im2.bmp,['Im_DanielRadcliffe.png', 'Im_KeanuReeves.png', 'Im_GeorgeClooney.png', 'Im_JustinTimberlake.png', 'Im_ElijahWood.png', 'Im_PatrickDempsey.png', 'Im_RobertPattinson.png', 'Im_RyanGosling.png', 'Im_BenStiller.png', 'Im_LeonardoDiCaprio.png'],same,1,0.4583726000000752,17,0,
PHTA2206,train,neg,150,neg150_id20_im3.bmp_neg150_id20_im12.bmp,['Im_DanielRadcliffe.png', 'Im_KeanuReeves.png', 'Im_GeorgeClooney.png', 'Im_JustinTimberlake.png', 'Im_ElijahWood.png', 'Im_PatrickDempsey.png', 'Im_RobertPattinson.png', 'Im_RyanGosling.png', 'Im_BenStiller.png', 'Im_LeonardoDiCaprio.png'],same,1,0.4166795999999522,18,0,
PHTA2206,train,neg,0,neg0_id19_im27.bmp_neg0_id5_im1.bmp,['Im_DanielRadcliffe.png', 'Im_KeanuReeves.png', 'Im_GeorgeClooney.png', 'Im_JustinTimberlake.png', 'Im_ElijahWood.png', 'Im_PatrickDempsey.png', 'Im_RobertPattinson.png', 'Im_RyanGosling.png', 'Im_BenStiller.png', 'Im_LeonardoDiCaprio.png'],diff,1,0.4167062999999871,19,0,
PHTA2206,train,neg,150,neg150_id20_im12.bmp_neg150_id7_im15.bmp,['Im_DanielRadcliffe.png', 'Im_KeanuReeves.png', 'Im_GeorgeClooney.png', 'Im_JustinTimberlake.png', 'Im_ElijahWood.png', 'Im_PatrickDempsey.png', 'Im_RobertPattinson.png', 'Im_RyanGosling.png', 'Im_BenStiller.png', 'Im_LeonardoDiCaprio.png'],diff,1,0.6998719999996865,20,0,
PHTA2206,train,neg,90,neg90_id11_im2.bmp_neg90_id11_im10.bmp,['Im_DanielRadcliffe.png', 'Im_KeanuReeves.png', 'Im_GeorgeClooney.png', 'Im_JustinTimberlake.png', 'Im_ElijahWood.png', 'Im_PatrickDempsey.png', 'Im_RobertPattinson.png', 'Im_RyanGosling.png', 'Im_BenStiller.png', 'Im_LeonardoDiCaprio.png'],diff,0,0.40815219999967667,20,0,
PHTA2206,train,neg,30,neg30_id13_im10.bmp_neg30_id13_im15.bmp,['Im_DanielRadcliffe.png', 'Im_KeanuReeves.png', 'Im_GeorgeClooney.png', 'Im_JustinTimberlake.png', 'Im_ElijahWood.png', 'Im_PatrickDempsey.png', 'Im_RobertPattinson.png', 'Im_RyanGosling.png', 'Im_BenStiller.png', 'Im_LeonardoDiCaprio.png'],same,1,0.40838579999990543,21,0,
PHTA2206,train,neg,90,neg90_id11_im10.bmp_neg90_id19_im27.bmp,['Im_DanielRadcliffe.png', 'Im_KeanuReeves.png', 'Im_GeorgeClooney.png', 'Im_JustinTimberlake.png', 'Im_ElijahWood.png', 'Im_PatrickDempsey.png', 'Im_RobertPattinson.png', 'Im_RyanGosling.png', 'Im_BenStiller.png', 'Im_LeonardoDiCaprio.png'],same,0,0.4166035000002921,21,0,
PHTA2206,train,neg,0,neg0_id2_im16.bmp_neg0_id2_im3.bmp,['Im_DanielRadcliffe.png', 'Im_KeanuReeves.png', 'Im_GeorgeClooney.png', 'Im_JustinTimberlake.png', 'Im_ElijahWood.png', 'Im_PatrickDempsey.png', 'Im_RobertPattinson.png', 'Im_RyanGosling.png', 'Im_BenStiller.png', 'Im_LeonardoDiCaprio.png'],same,1,0.39990020000004733,22,0,
PHTA2206,train,neg,120,neg120_id17_im14.bmp_neg120_id17_im8.bmp,['Im_DanielRadcliffe.png', 'Im_KeanuReeves.png', 'Im_GeorgeClooney.png', 'Im_JustinTimberlake.png', 'Im_ElijahWood.png', 'Im_PatrickDempsey.png', 'Im_RobertPattinson.png', 'Im_RyanGosling.png', 'Im_BenStiller.png', 'Im_LeonardoDiCaprio.png'],diff,0,0.40842239999983576,22,0,
PHTA2206,train,neg,120,neg120_id19_im27.bmp_neg120_id5_im1.bmp,['Im_DanielRadcliffe.png', 'Im_KeanuReeves.png', 'Im_GeorgeClooney.png', 'Im_JustinTimberlake.png', 'Im_ElijahWood.png', 'Im_PatrickDempsey.png', 'Im_RobertPattinson.png', 'Im_RyanGosling.png', 'Im_BenStiller.png', 'Im_LeonardoDiCaprio.png'],diff,1,0.41654749999997875,23,0,
PHTA2206,train,inv,60,pos60_id6_im19.bmp_pos60_id13_im10.bmp,['Im_DanielRadcliffe.png', 'Im_KeanuReeves.png', 'Im_GeorgeClooney.png', 'Im_JustinTimberlake.png', 'Im_ElijahWood.png', 'Im_PatrickDempsey.png', 'Im_RobertPattinson.png', 'Im_RyanGosling.png', 'Im_BenStiller.png', 'Im_LeonardoDiCaprio.png'],diff,1,0.40840609999986555,24,0,
PHTA2206,train,inv,0,pos0_id17_im9.bmp_pos0_id17_im14.bmp,['Im_DanielRadcliffe.png', 'Im_KeanuReeves.png', 'Im_GeorgeClooney.png', 'Im_JustinTimberlake.png', 'Im_ElijahWood.png', 'Im_PatrickDempsey.png', 'Im_RobertPattinson.png', 'Im_RyanGosling.png', 'Im_BenStiller.png', 'Im_LeonardoDiCaprio.png'],same,1,0.5500574000002416,25,0,
PHTA2206,train,inv,30,pos30_id7_im14.bmp_pos30_id7_im26.bmp,['Im_DanielRadcliffe.png', 'Im_KeanuReeves.png', 'Im_GeorgeClooney.png', 'Im_JustinTimberlake.png', 'Im_ElijahWood.png', 'Im_PatrickDempsey.png', 'Im_RobertPattinson.png', 'Im_RyanGosling.png', 'Im_BenStiller.png', 'Im_LeonardoDiCaprio.png'],same,1,0.4167923999998493,26,0,
PHTA2206,train,inv,90,pos90_id5_im20.bmp_pos90_id17_im9.bmp,['Im_DanielRadcliffe.png', 'Im_KeanuReeves.png', 'Im_GeorgeClooney.png', 'Im_JustinTimberlake.png', 'Im_ElijahWood.png', 'Im_PatrickDempsey.png', 'Im_RobertPattinson.png', 'Im_RyanGosling.png', 'Im_BenStiller.png', 'Im_LeonardoDiCaprio.png'],diff,1,0.40842290000000503,27,0,
PHTA2206,train,inv,150,pos150_id10_im17.bmp_pos150_id10_im18.bmp,['Im_DanielRadcliffe.png', 'Im_KeanuReeves.png', 'Im_GeorgeClooney.png', 'Im_JustinTimberlake.png', 'Im_ElijahWood.png', 'Im_PatrickDempsey.png', 'Im_RobertPattinson.png', 'Im_RyanGosling.png', 'Im_BenStiller.png', 'Im_LeonardoDiCaprio.png'],diff,0,0.4085467000004428,27,0,
PHTA2206,train,inv,fs,posfs_id17_im14.bmp_posfs_id11_im10.bmp,['Im_DanielRadcliffe.png', 'Im_KeanuReeves.png', 'Im_GeorgeClooney.png', 'Im_JustinTimberlake.png', 'Im_ElijahWood.png', 'Im_PatrickDempsey.png', 'Im_RobertPattinson.png', 'Im_RyanGosling.png', 'Im_BenStiller.png', 'Im_LeonardoDiCaprio.png'],diff,1,0.4167493999998442,28,0,
PHTA2206,train,inv,120,pos120_id2_im16.bmp_pos120_id2_im3.bmp,['Im_DanielRadcliffe.png', 'Im_KeanuReeves.png', 'Im_GeorgeClooney.png', 'Im_JustinTimberlake.png', 'Im_ElijahWood.png', 'Im_PatrickDempsey.png', 'Im_RobertPattinson.png', 'Im_RyanGosling.png', 'Im_BenStiller.png', 'Im_LeonardoDiCaprio.png'],same,1,0.4082148999996207,29,0,
PHTA2206,train,inv,30,pos30_id10_im17.bmp_pos30_id10_im1.bmp,['Im_DanielRadcliffe.png', 'Im_KeanuReeves.png', 'Im_GeorgeClooney.png', 'Im_JustinTimberlake.png', 'Im_ElijahWood.png', 'Im_PatrickDempsey.png', 'Im_RobertPattinson.png', 'Im_RyanGosling.png', 'Im_BenStiller.png', 'Im_LeonardoDiCaprio.png'],diff,0,0.41669510000019727,29,0,
PHTA2206,train,inv,fs,posfs_id17_im9.bmp_posfs_id2_im2.bmp,['Im_DanielRadcliffe.png', 'Im_KeanuReeves.png', 'Im_GeorgeClooney.png', 'Im_JustinTimberlake.png', 'Im_ElijahWood.png', 'Im_PatrickDempsey.png', 'Im_RobertPattinson.png', 'Im_RyanGosling.png', 'Im_BenStiller.png', 'Im_LeonardoDiCaprio.png'],diff,1,0.4167201999998724,30,0,
PHTA2206,train,inv,120,pos120_id2_im2.bmp_pos120_id2_im3.bmp,['Im_DanielRadcliffe.png', 'Im_KeanuReeves.png', 'Im_GeorgeClooney.png', 'Im_JustinTimberlake.png', 'Im_ElijahWood.png', 'Im_PatrickDempsey.png', 'Im_RobertPattinson.png', 'Im_RyanGosling.png', 'Im_BenStiller.png', 'Im_LeonardoDiCaprio.png'],diff,0,0.40828620000002047,30,0,
PHTA2206,train,inv,60,pos60_id6_im19.bmp_pos60_id6_im18.bmp,['Im_DanielRadcliffe.png', 'Im_KeanuReeves.png', 'Im_GeorgeClooney.png', 'Im_JustinTimberlake.png', 'Im_ElijahWood.png', 'Im_PatrickDempsey.png', 'Im_RobertPattinson.png', 'Im_RyanGosling.png', 'Im_BenStiller.png', 'Im_LeonardoDiCaprio.png'],same,1,0.4167758999997204,31,0,
PHTA2206,train,inv,150,pos150_id5_im10.bmp_pos150_id7_im14.bmp,['Im_DanielRadcliffe.png', 'Im_KeanuReeves.png', 'Im_GeorgeClooney.png', 'Im_JustinTimberlake.png', 'Im_ElijahWood.png', 'Im_PatrickDempsey.png', 'Im_RobertPattinson.png', 'Im_RyanGosling.png', 'Im_BenStiller.png', 'Im_LeonardoDiCaprio.png'],diff,1,0.41670790000034685,32,0,
PHTA2206,train,inv,0,pos0_id13_im29.bmp_pos0_id13_im15.bmp,['Im_DanielRadcliffe.png', 'Im_KeanuReeves.png', 'Im_GeorgeClooney.png', 'Im_JustinTimberlake.png', 'Im_ElijahWood.png', 'Im_PatrickDempsey.png', 'Im_RobertPattinson.png', 'Im_RyanGosling.png', 'Im_BenStiller.png', 'Im_LeonardoDiCaprio.png'],diff,0,0.4166964999999436,32,0,
PHTA2206,train,inv,90,pos90_id11_im10.bmp_pos90_id17_im14.bmp,['Im_DanielRadcliffe.png', 'Im_KeanuReeves.png', 'Im_GeorgeClooney.png', 'Im_JustinTimberlake.png', 'Im_ElijahWood.png', 'Im_PatrickDempsey.png', 'Im_RobertPattinson.png', 'Im_RyanGosling.png', 'Im_BenStiller.png', 'Im_LeonardoDiCaprio.png'],diff,1,0.4165189000000282,33,0,
PHTA2206,train,inv,0,pos0_id19_im4.bmp_pos0_id7_im15.bmp,['Im_DanielRadcliffe.png', 'Im_KeanuReeves.png', 'Im_GeorgeClooney.png', 'Im_JustinTimberlake.png', 'Im_ElijahWood.png', 'Im_PatrickDempsey.png', 'Im_RobertPattinson.png', 'Im_RyanGosling.png', 'Im_BenStiller.png', 'Im_LeonardoDiCaprio.png'],same,0,0.41665229999989606,0,78.57142857142857,
PHTA2206,train,inv,150,pos150_id6_im18.bmp_pos150_id6_im19.bmp,['Im_DanielRadcliffe.png', 'Im_KeanuReeves.png', 'Im_GeorgeClooney.png', 'Im_JustinTimberlake.png', 'Im_ElijahWood.png', 'Im_PatrickDempsey.png', 'Im_RobertPattinson.png', 'Im_RyanGosling.png', 'Im_BenStiller.png', 'Im_LeonardoDiCaprio.png'],same,1,0.5664151000000857,1,78.57142857142857,
PHTA2206,train,inv,90,pos90_id5_im20.bmp_pos90_id17_im8.bmp,['Im_DanielRadcliffe.png', 'Im_KeanuReeves.png', 'Im_GeorgeClooney.png', 'Im_JustinTimberlake.png', 'Im_ElijahWood.png', 'Im_PatrickDempsey.png', 'Im_RobertPattinson.png', 'Im_RyanGosling.png', 'Im_BenStiller.png', 'Im_LeonardoDiCaprio.png'],diff,1,0.40847329999996873,2,78.57142857142857,
PHTA2206,train,inv,fs,posfs_id13_im10.bmp_posfs_id13_im29.bmp,['Im_DanielRadcliffe.png', 'Im_KeanuReeves.png', 'Im_GeorgeClooney.png', 'Im_JustinTimberlake.png', 'Im_ElijahWood.png', 'Im_PatrickDempsey.png', 'Im_RobertPattinson.png', 'Im_RyanGosling.png', 'Im_BenStiller.png', 'Im_LeonardoDiCaprio.png'],diff,0,0.40842650000013236,2,78.57142857142857,
PHTA2206,train,inv,0,pos0_id19_im27.bmp_pos0_id11_im10.bmp,['Im_DanielRadcliffe.png', 'Im_KeanuReeves.png', 'Im_GeorgeClooney.png', 'Im_JustinTimberlake.png', 'Im_ElijahWood.png', 'Im_PatrickDempsey.png', 'Im_RobertPattinson.png', 'Im_RyanGosling.png', 'Im_BenStiller.png', 'Im_LeonardoDiCaprio.png'],diff,1,0.40829440000015893,3,78.57142857142857,
PHTA2206,train,inv,30,pos30_id6_im18.bmp_pos30_id6_im12.bmp,['Im_DanielRadcliffe.png', 'Im_KeanuReeves.png', 'Im_GeorgeClooney.png', 'Im_JustinTimberlake.png', 'Im_ElijahWood.png', 'Im_PatrickDempsey.png', 'Im_RobertPattinson.png', 'Im_RyanGosling.png', 'Im_BenStiller.png', 'Im_LeonardoDiCaprio.png'],diff,0,0.4165960999998788,3,78.57142857142857,
PHTA2206,train,inv,60,pos60_id10_im18.bmp_pos60_id10_im17.bmp,['Im_DanielRadcliffe.png', 'Im_KeanuReeves.png', 'Im_GeorgeClooney.png', 'Im_JustinTimberlake.png', 'Im_ElijahWood.png', 'Im_PatrickDempsey.png', 'Im_RobertPattinson.png', 'Im_RyanGosling.png', 'Im_BenStiller.png', 'Im_LeonardoDiCaprio.png'],diff,0,0.7664049999998497,3,78.57142857142857,
PHTA2206,train,inv,150,pos150_id13_im15.bmp_pos150_id6_im18.bmp,['Im_DanielRadcliffe.png', 'Im_KeanuReeves.png', 'Im_GeorgeClooney.png', 'Im_JustinTimberlake.png', 'Im_ElijahWood.png', 'Im_PatrickDempsey.png', 'Im_RobertPattinson.png', 'Im_RyanGosling.png', 'Im_BenStiller.png', 'Im_LeonardoDiCaprio.png'],diff,1,0.400152899999739,4,78.57142857142857,
PHTA2206,train,inv,fs,posfs_id5_im10.bmp_posfs_id5_im20.bmp,['Im_DanielRadcliffe.png', 'Im_KeanuReeves.png', 'Im_GeorgeClooney.png', 'Im_JustinTimberlake.png', 'Im_ElijahWood.png', 'Im_PatrickDempsey.png', 'Im_RobertPattinson.png', 'Im_RyanGosling.png', 'Im_BenStiller.png', 'Im_LeonardoDiCaprio.png'],diff,0,0.40837180000016815,4,78.57142857142857,
PHTA2206,train,inv,120,pos120_id7_im15.bmp_pos120_id20_im12.bmp,['Im_DanielRadcliffe.png', 'Im_KeanuReeves.png', 'Im_GeorgeClooney.png', 'Im_JustinTimberlake.png', 'Im_ElijahWood.png', 'Im_PatrickDempsey.png', 'Im_RobertPattinson.png', 'Im_RyanGosling.png', 'Im_BenStiller.png', 'Im_LeonardoDiCaprio.png'],diff,1,0.40830229999983203,5,78.57142857142857,
PHTA2206,train,inv,120,pos120_id5_im10.bmp_pos120_id7_im14.bmp,['Im_DanielRadcliffe.png', 'Im_KeanuReeves.png', 'Im_GeorgeClooney.png', 'Im_JustinTimberlake.png', 'Im_ElijahWood.png', 'Im_PatrickDempsey.png', 'Im_RobertPattinson.png', 'Im_RyanGosling.png', 'Im_BenStiller.png', 'Im_LeonardoDiCaprio.png'],diff,1,0.4168091000001368,6,78.57142857142857,
PHTA2206,train,inv,30,pos30_id13_im29.bmp_pos30_id13_im10.bmp,['Im_DanielRadcliffe.png', 'Im_KeanuReeves.png', 'Im_GeorgeClooney.png', 'Im_JustinTimberlake.png', 'Im_ElijahWood.png', 'Im_PatrickDempsey.png', 'Im_RobertPattinson.png', 'Im_RyanGosling.png', 'Im_BenStiller.png', 'Im_LeonardoDiCaprio.png'],same,1,0.4000310999999783,7,78.57142857142857,
PHTA2206,train,inv,60,pos60_id6_im12.bmp_pos60_id5_im1.bmp,['Im_DanielRadcliffe.png', 'Im_KeanuReeves.png', 'Im_GeorgeClooney.png', 'Im_JustinTimberlake.png', 'Im_ElijahWood.png', 'Im_PatrickDempsey.png', 'Im_RobertPattinson.png', 'Im_RyanGosling.png', 'Im_BenStiller.png', 'Im_LeonardoDiCaprio.png'],diff,1,0.7752675000001545,8,78.57142857142857,
PHTA2206,train,inv,90,pos90_id2_im2.bmp_pos90_id2_im16.bmp,['Im_DanielRadcliffe.png', 'Im_KeanuReeves.png', 'Im_GeorgeClooney.png', 'Im_JustinTimberlake.png', 'Im_ElijahWood.png', 'Im_PatrickDempsey.png', 'Im_RobertPattinson.png', 'Im_RyanGosling.png', 'Im_BenStiller.png', 'Im_LeonardoDiCaprio.png'],same,1,0.40836609999996654,9,78.57142857142857,
PHTA2206,train,pos,150,pos150_id10_im18.bmp_pos150_id10_im17.bmp,['Im_DanielRadcliffe.png', 'Im_KeanuReeves.png', 'Im_GeorgeClooney.png', 'Im_JustinTimberlake.png', 'Im_ElijahWood.png', 'Im_PatrickDempsey.png', 'Im_RobertPattinson.png', 'Im_RyanGosling.png', 'Im_BenStiller.png', 'Im_LeonardoDiCaprio.png'],same,1,0.39970439999979135,10,78.57142857142857,
PHTA2206,train,pos,30,pos30_id20_im12.bmp_pos30_id7_im15.bmp,['Im_DanielRadcliffe.png', 'Im_KeanuReeves.png', 'Im_GeorgeClooney.png', 'Im_JustinTimberlake.png', 'Im_ElijahWood.png', 'Im_PatrickDempsey.png', 'Im_RobertPattinson.png', 'Im_RyanGosling.png', 'Im_BenStiller.png', 'Im_LeonardoDiCaprio.png'],diff,1,0.7668354000002182,11,78.57142857142857,
PHTA2206,train,pos,90,pos90_id13_im10.bmp_pos90_id13_im29.bmp,['Im_DanielRadcliffe.png', 'Im_KeanuReeves.png', 'Im_GeorgeClooney.png', 'Im_JustinTimberlake.png', 'Im_ElijahWood.png', 'Im_PatrickDempsey.png', 'Im_RobertPattinson.png', 'Im_RyanGosling.png', 'Im_BenStiller.png', 'Im_LeonardoDiCaprio.png'],same,1,0.4165499999999156,12,78.57142857142857,
PHTA2206,train,pos,0,pos0_id2_im3.bmp_pos0_id2_im16.bmp,['Im_DanielRadcliffe.png', 'Im_KeanuReeves.png', 'Im_GeorgeClooney.png', 'Im_JustinTimberlake.png', 'Im_ElijahWood.png', 'Im_PatrickDempsey.png', 'Im_RobertPattinson.png', 'Im_RyanGosling.png', 'Im_BenStiller.png', 'Im_LeonardoDiCaprio.png'],same,1,0.4165746999997282,13,78.57142857142857,
PHTA2206,train,pos,60,pos60_id10_im18.bmp_pos60_id10_im17.bmp,['Im_DanielRadcliffe.png', 'Im_KeanuReeves.png', 'Im_GeorgeClooney.png', 'Im_JustinTimberlake.png', 'Im_ElijahWood.png', 'Im_PatrickDempsey.png', 'Im_RobertPattinson.png', 'Im_RyanGosling.png', 'Im_BenStiller.png', 'Im_LeonardoDiCaprio.png'],same,1,0.40836369999988165,14,78.57142857142857,
PHTA2206,train,pos,fs,posfs_id11_im2.bmp_posfs_id11_im10.bmp,['Im_DanielRadcliffe.png', 'Im_KeanuReeves.png', 'Im_GeorgeClooney.png', 'Im_JustinTimberlake.png', 'Im_ElijahWood.png', 'Im_PatrickDempsey.png', 'Im_RobertPattinson.png', 'Im_RyanGosling.png', 'Im_BenStiller.png', 'Im_LeonardoDiCaprio.png'],same,1,0.41657400000030975,15,78.57142857142857,
PHTA2206,train,pos,fs,posfs_id2_im2.bmp_posfs_id2_im3.bmp,['Im_DanielRadcliffe.png', 'Im_KeanuReeves.png', 'Im_GeorgeClooney.png', 'Im_JustinTimberlake.png', 'Im_ElijahWood.png', 'Im_PatrickDempsey.png', 'Im_RobertPattinson.png', 'Im_RyanGosling.png', 'Im_BenStiller.png', 'Im_LeonardoDiCaprio.png'],diff,0,0.40021919999981037,15,78.57142857142857,
PHTA2206,train,pos,120,pos120_id20_im30.bmp_pos120_id5_im10.bmp,['Im_DanielRadcliffe.png', 'Im_KeanuReeves.png', 'Im_GeorgeClooney.png', 'Im_JustinTimberlake.png', 'Im_ElijahWood.png', 'Im_PatrickDempsey.png', 'Im_RobertPattinson.png', 'Im_RyanGosling.png', 'Im_BenStiller.png', 'Im_LeonardoDiCaprio.png'],diff,1,0.41672860000016954,16,78.57142857142857,
PHTA2206,train,pos,150,pos150_id13_im10.bmp_pos150_id6_im19.bmp,['Im_DanielRadcliffe.png', 'Im_KeanuReeves.png', 'Im_GeorgeClooney.png', 'Im_JustinTimberlake.png', 'Im_ElijahWood.png', 'Im_PatrickDempsey.png', 'Im_RobertPattinson.png', 'Im_RyanGosling.png', 'Im_BenStiller.png', 'Im_LeonardoDiCaprio.png'],diff,1,0.39963180000040666,17,78.57142857142857,
PHTA2206,train,pos,0,pos0_id19_im8.bmp_pos0_id19_im27.bmp,['Im_DanielRadcliffe.png', 'Im_KeanuReeves.png', 'Im_GeorgeClooney.png', 'Im_JustinTimberlake.png', 'Im_ElijahWood.png', 'Im_PatrickDempsey.png', 'Im_RobertPattinson.png', 'Im_RyanGosling.png', 'Im_BenStiller.png', 'Im_LeonardoDiCaprio.png'],same,1,0.40813539999999193,18,78.57142857142857,
PHTA2206,train,pos,120,pos120_id11_im1.bmp_pos120_id19_im8.bmp,['Im_DanielRadcliffe.png', 'Im_KeanuReeves.png', 'Im_GeorgeClooney.png', 'Im_JustinTimberlake.png', 'Im_ElijahWood.png', 'Im_PatrickDempsey.png', 'Im_RobertPattinson.png', 'Im_RyanGosling.png', 'Im_BenStiller.png', 'Im_LeonardoDiCaprio.png'],diff,1,0.4165610000000015,19,78.57142857142857,
PHTA2206,train,pos,60,pos60_id17_im14.bmp_pos60_id17_im8.bmp,['Im_DanielRadcliffe.png', 'Im_KeanuReeves.png', 'Im_GeorgeClooney.png', 'Im_JustinTimberlake.png', 'Im_ElijahWood.png', 'Im_PatrickDempsey.png', 'Im_RobertPattinson.png', 'Im_RyanGosling.png', 'Im_BenStiller.png', 'Im_LeonardoDiCaprio.png'],diff,0,0.40850049999971816,19,78.57142857142857,
PHTA2206,train,pos,90,pos90_id13_im10.bmp_pos90_id6_im19.bmp,['Im_DanielRadcliffe.png', 'Im_KeanuReeves.png', 'Im_GeorgeClooney.png', 'Im_JustinTimberlake.png', 'Im_ElijahWood.png', 'Im_PatrickDempsey.png', 'Im_RobertPattinson.png', 'Im_RyanGosling.png', 'Im_BenStiller.png', 'Im_LeonardoDiCaprio.png'],diff,1,0.40837839999994685,20,78.57142857142857,
PHTA2206,train,pos,30,pos30_id6_im18.bmp_pos30_id6_im12.bmp,['Im_DanielRadcliffe.png', 'Im_KeanuReeves.png', 'Im_GeorgeClooney.png', 'Im_JustinTimberlake.png', 'Im_ElijahWood.png', 'Im_PatrickDempsey.png', 'Im_RobertPattinson.png', 'Im_RyanGosling.png', 'Im_BenStiller.png', 'Im_LeonardoDiCaprio.png'],diff,0,0.4833976999998413,20,78.57142857142857,
PHTA2206,train,neg,30,neg30_id11_im2.bmp_neg30_id11_im10.bmp,['Im_DanielRadcliffe.png', 'Im_KeanuReeves.png', 'Im_GeorgeClooney.png', 'Im_JustinTimberlake.png', 'Im_ElijahWood.png', 'Im_PatrickDempsey.png', 'Im_RobertPattinson.png', 'Im_RyanGosling.png', 'Im_BenStiller.png', 'Im_LeonardoDiCaprio.png'],diff,0,0.41686729999992167,20,78.57142857142857,
PHTA2206,train,neg,fs,negfs_id2_im3.bmp_negfs_id2_im16.bmp,['Im_DanielRadcliffe.png', 'Im_KeanuReeves.png', 'Im_GeorgeClooney.png', 'Im_JustinTimberlake.png', 'Im_ElijahWood.png', 'Im_PatrickDempsey.png', 'Im_RobertPattinson.png', 'Im_RyanGosling.png', 'Im_BenStiller.png', 'Im_LeonardoDiCaprio.png'],same,1,0.40836480000007214,21,78.57142857142857,
PHTA2206,train,neg,150,neg150_id19_im8.bmp_neg150_id11_im1.bmp,['Im_DanielRadcliffe.png', 'Im_KeanuReeves.png', 'Im_GeorgeClooney.png', 'Im_JustinTimberlake.png', 'Im_ElijahWood.png', 'Im_PatrickDempsey.png', 'Im_RobertPattinson.png', 'Im_RyanGosling.png', 'Im_BenStiller.png', 'Im_LeonardoDiCaprio.png'],diff,1,0.4086400000001049,22,78.57142857142857,
PHTA2206,train,neg,0,neg0_id11_im2.bmp_neg0_id10_im18.bmp,['Im_DanielRadcliffe.png', 'Im_KeanuReeves.png', 'Im_GeorgeClooney.png', 'Im_JustinTimberlake.png', 'Im_ElijahWood.png', 'Im_PatrickDempsey.png', 'Im_RobertPattinson.png', 'Im_RyanGosling.png', 'Im_BenStiller.png', 'Im_LeonardoDiCaprio.png'],diff,1,0.4165131999998266,23,78.57142857142857,
PHTA2206,train,neg,120,neg120_id6_im18.bmp_neg120_id20_im3.bmp,['Im_DanielRadcliffe.png', 'Im_KeanuReeves.png', 'Im_GeorgeClooney.png', 'Im_JustinTimberlake.png', 'Im_ElijahWood.png', 'Im_PatrickDempsey.png', 'Im_RobertPattinson.png', 'Im_RyanGosling.png', 'Im_BenStiller.png', 'Im_LeonardoDiCaprio.png'],diff,1,0.4166786000000684,24,78.57142857142857,
PHTA2206,train,neg,150,neg150_id13_im15.bmp_neg150_id6_im18.bmp,['Im_DanielRadcliffe.png', 'Im_KeanuReeves.png', 'Im_GeorgeClooney.png', 'Im_JustinTimberlake.png', 'Im_ElijahWood.png', 'Im_PatrickDempsey.png', 'Im_RobertPattinson.png', 'Im_RyanGosling.png', 'Im_BenStiller.png', 'Im_LeonardoDiCaprio.png'],diff,1,0.416755700000067,25,78.57142857142857,
PHTA2206,train,neg,90,neg90_id2_im16.bmp_neg90_id2_im2.bmp,['Im_DanielRadcliffe.png', 'Im_KeanuReeves.png', 'Im_GeorgeClooney.png', 'Im_JustinTimberlake.png', 'Im_ElijahWood.png', 'Im_PatrickDempsey.png', 'Im_RobertPattinson.png', 'Im_RyanGosling.png', 'Im_BenStiller.png', 'Im_LeonardoDiCaprio.png'],diff,0,0.4163677999999891,25,78.57142857142857,
PHTA2206,train,neg,30,neg30_id17_im8.bmp_neg30_id10_im17.bmp,['Im_DanielRadcliffe.png', 'Im_KeanuReeves.png', 'Im_GeorgeClooney.png', 'Im_JustinTimberlake.png', 'Im_ElijahWood.png', 'Im_PatrickDempsey.png', 'Im_RobertPattinson.png', 'Im_RyanGosling.png', 'Im_BenStiller.png', 'Im_LeonardoDiCaprio.png'],same,0,0.4166497999999592,25,78.57142857142857,
PHTA2206,train,neg,120,neg120_id6_im19.bmp_neg120_id13_im10.bmp,['Im_DanielRadcliffe.png', 'Im_KeanuReeves.png', 'Im_GeorgeClooney.png', 'Im_JustinTimberlake.png', 'Im_ElijahWood.png', 'Im_PatrickDempsey.png', 'Im_RobertPattinson.png', 'Im_RyanGosling.png', 'Im_BenStiller.png', 'Im_LeonardoDiCaprio.png'],diff,1,0.416570800000045,26,78.57142857142857,
PHTA2206,train,neg,90,neg90_id6_im19.bmp_neg90_id6_im12.bmp,['Im_DanielRadcliffe.png', 'Im_KeanuReeves.png', 'Im_GeorgeClooney.png', 'Im_JustinTimberlake.png', 'Im_ElijahWood.png', 'Im_PatrickDempsey.png', 'Im_RobertPattinson.png', 'Im_RyanGosling.png', 'Im_BenStiller.png', 'Im_LeonardoDiCaprio.png'],same,1,0.41685439999992013,27,78.57142857142857,
PHTA2206,train,neg,60,neg60_id10_im1.bmp_neg60_id10_im17.bmp,['Im_DanielRadcliffe.png', 'Im_KeanuReeves.png', 'Im_GeorgeClooney.png', 'Im_JustinTimberlake.png', 'Im_ElijahWood.png', 'Im_PatrickDempsey.png', 'Im_RobertPattinson.png', 'Im_RyanGosling.png', 'Im_BenStiller.png', 'Im_LeonardoDiCaprio.png'],diff,0,0.41685000000006767,27,78.57142857142857,
PHTA2206,train,neg,fs,negfs_id2_im3.bmp_negfs_id7_im26.bmp,['Im_DanielRadcliffe.png', 'Im_KeanuReeves.png', 'Im_GeorgeClooney.png', 'Im_JustinTimberlake.png', 'Im_ElijahWood.png', 'Im_PatrickDempsey.png', 'Im_RobertPattinson.png', 'Im_RyanGosling.png', 'Im_BenStiller.png', 'Im_LeonardoDiCaprio.png'],diff,1,0.49993240000003425,28,78.57142857142857,
PHTA2206,train,neg,60,neg60_id20_im12.bmp_neg60_id20_im30.bmp,['Im_DanielRadcliffe.png', 'Im_KeanuReeves.png', 'Im_GeorgeClooney.png', 'Im_JustinTimberlake.png', 'Im_ElijahWood.png', 'Im_PatrickDempsey.png', 'Im_RobertPattinson.png', 'Im_RyanGosling.png', 'Im_BenStiller.png', 'Im_LeonardoDiCaprio.png'],same,1,0.4082749999997759,29,78.57142857142857,
PHTA2206,train,neg,0,neg0_id13_im15.bmp_neg0_id13_im29.bmp,['Im_DanielRadcliffe.png', 'Im_KeanuReeves.png', 'Im_GeorgeClooney.png', 'Im_JustinTimberlake.png', 'Im_ElijahWood.png', 'Im_PatrickDempsey.png', 'Im_RobertPattinson.png', 'Im_RyanGosling.png', 'Im_BenStiller.png', 'Im_LeonardoDiCaprio.png'],diff,0,0.4169005999997353,29,78.57142857142857,
PHTA2206,train,pos,30,pos30_id19_im8.bmp_pos30_id13_im29.bmp,['Im_DanielRadcliffe.png', 'Im_KeanuReeves.png', 'Im_GeorgeClooney.png', 'Im_JustinTimberlake.png', 'Im_ElijahWood.png', 'Im_PatrickDempsey.png', 'Im_RobertPattinson.png', 'Im_RyanGosling.png', 'Im_BenStiller.png', 'Im_LeonardoDiCaprio.png'],diff,1,0.4083650000002308,1,69.04761904761905,
PHTA2206,train,pos,120,pos120_id10_im1.bmp_pos120_id6_im12.bmp,['Im_DanielRadcliffe.png', 'Im_KeanuReeves.png', 'Im_GeorgeClooney.png', 'Im_JustinTimberlake.png', 'Im_ElijahWood.png', 'Im_PatrickDempsey.png', 'Im_RobertPattinson.png', 'Im_RyanGosling.png', 'Im_BenStiller.png', 'Im_LeonardoDiCaprio.png'],diff,1,0.40840449999996054,2,69.04761904761905,
PHTA2206,train,pos,0,pos0_id7_im26.bmp_pos0_id7_im14.bmp,['Im_DanielRadcliffe.png', 'Im_KeanuReeves.png', 'Im_GeorgeClooney.png', 'Im_JustinTimberlake.png', 'Im_ElijahWood.png', 'Im_PatrickDempsey.png', 'Im_RobertPattinson.png', 'Im_RyanGosling.png', 'Im_BenStiller.png', 'Im_LeonardoDiCaprio.png'],same,1,0.4084219999999732,3,69.04761904761905,
PHTA2206,train,pos,fs,posfs_id6_im12.bmp_posfs_id6_im18.bmp,['Im_DanielRadcliffe.png', 'Im_KeanuReeves.png', 'Im_GeorgeClooney.png', 'Im_JustinTimberlake.png', 'Im_ElijahWood.png', 'Im_PatrickDempsey.png', 'Im_RobertPattinson.png', 'Im_RyanGosling.png', 'Im_BenStiller.png', 'Im_LeonardoDiCaprio.png'],diff,0,0.41663740000012695,3,69.04761904761905,
PHTA2206,train,pos,90,pos90_id17_im9.bmp_pos90_id5_im20.bmp,['Im_DanielRadcliffe.png', 'Im_KeanuReeves.png', 'Im_GeorgeClooney.png', 'Im_JustinTimberlake.png', 'Im_ElijahWood.png', 'Im_PatrickDempsey.png', 'Im_RobertPattinson.png', 'Im_RyanGosling.png', 'Im_BenStiller.png', 'Im_LeonardoDiCaprio.png'],diff,1,0.41652139999996507,4,69.04761904761905,
PHTA2206,train,pos,120,pos120_id2_im16.bmp_pos120_id2_im2.bmp,['Im_DanielRadcliffe.png', 'Im_KeanuReeves.png', 'Im_GeorgeClooney.png', 'Im_JustinTimberlake.png', 'Im_ElijahWood.png', 'Im_PatrickDempsey.png', 'Im_RobertPattinson.png', 'Im_RyanGosling.png', 'Im_BenStiller.png', 'Im_LeonardoDiCaprio.png'],diff,0,0.4001675999998042,4,69.04761904761905,
PHTA2206,train,pos,150,pos150_id5_im10.bmp_pos150_id20_im30.bmp,['Im_DanielRadcliffe.png', 'Im_KeanuReeves.png', 'Im_GeorgeClooney.png', 'Im_JustinTimberlake.png', 'Im_ElijahWood.png', 'Im_PatrickDempsey.png', 'Im_RobertPattinson.png', 'Im_RyanGosling.png', 'Im_BenStiller.png', 'Im_LeonardoDiCaprio.png'],diff,1,0.4165722000002461,5,69.04761904761905,
PHTA2206,train,pos,60,pos60_id6_im18.bmp_pos60_id6_im12.bmp,['Im_DanielRadcliffe.png', 'Im_KeanuReeves.png', 'Im_GeorgeClooney.png', 'Im_JustinTimberlake.png', 'Im_ElijahWood.png', 'Im_PatrickDempsey.png', 'Im_RobertPattinson.png', 'Im_RyanGosling.png', 'Im_BenStiller.png', 'Im_LeonardoDiCaprio.png'],same,1,0.41687050000018644,6,69.04761904761905,
PHTA2206,train,pos,fs,posfs_id10_im1.bmp_posfs_id2_im16.bmp,['Im_DanielRadcliffe.png', 'Im_KeanuReeves.png', 'Im_GeorgeClooney.png', 'Im_JustinTimberlake.png', 'Im_ElijahWood.png', 'Im_PatrickDempsey.png', 'Im_RobertPattinson.png', 'Im_RyanGosling.png', 'Im_BenStiller.png', 'Im_LeonardoDiCaprio.png'],diff,1,0.4167529999999715,7,69.04761904761905,
PHTA2206,train,pos,90,pos90_id11_im1.bmp_pos90_id11_im10.bmp,['Im_DanielRadcliffe.png', 'Im_KeanuReeves.png', 'Im_GeorgeClooney.png', 'Im_JustinTimberlake.png', 'Im_ElijahWood.png', 'Im_PatrickDempsey.png', 'Im_RobertPattinson.png', 'Im_RyanGosling.png', 'Im_BenStiller.png', 'Im_LeonardoDiCaprio.png'],diff,0,0.41677849999996397,7,69.04761904761905,
PHTA2206,train,pos,60,pos60_id6_im12.bmp_pos60_id10_im1.bmp,['Im_DanielRadcliffe.png', 'Im_KeanuReeves.png', 'Im_GeorgeClooney.png', 'Im_JustinTimberlake.png', 'Im_ElijahWood.png', 'Im_PatrickDempsey.png', 'Im_RobertPattinson.png', 'Im_RyanGosling.png', 'Im_BenStiller.png', 'Im_LeonardoDiCaprio.png'],diff,1,0.41691919999993843,8,69.04761904761905,
PHTA2206,train,pos,30,pos30_id7_im15.bmp_pos30_id7_im26.bmp,['Im_DanielRadcliffe.png', 'Im_KeanuReeves.png', 'Im_GeorgeClooney.png', 'Im_JustinTimberlake.png', 'Im_ElijahWood.png', 'Im_PatrickDempsey.png', 'Im_RobertPattinson.png', 'Im_RyanGosling.png', 'Im_BenStiller.png', 'Im_LeonardoDiCaprio.png'],same,1,0.4083437999997841,9,69.04761904761905,
PHTA2206,train,pos,0,pos0_id6_im19.bmp_pos0_id20_im3.bmp,['Im_DanielRadcliffe.png', 'Im_KeanuReeves.png', 'Im_GeorgeClooney.png', 'Im_JustinTimberlake.png', 'Im_ElijahWood.png', 'Im_PatrickDempsey.png', 'Im_RobertPattinson.png', 'Im_RyanGosling.png', 'Im_BenStiller.png', 'Im_LeonardoDiCaprio.png'],diff,1,0.40834480000012263,10,69.04761904761905,
PHTA2206,train,pos,150,pos150_id11_im10.bmp_pos150_id11_im2.bmp,['Im_DanielRadcliffe.png', 'Im_KeanuReeves.png', 'Im_GeorgeClooney.png', 'Im_JustinTimberlake.png', 'Im_ElijahWood.png', 'Im_PatrickDempsey.png', 'Im_RobertPattinson.png', 'Im_RyanGosling.png', 'Im_BenStiller.png', 'Im_LeonardoDiCaprio.png'],same,1,0.41671469999982946,11,69.04761904761905,
PHTA2206,train,inv,fs,posfs_id19_im4.bmp_posfs_id19_im27.bmp,['Im_DanielRadcliffe.png', 'Im_KeanuReeves.png', 'Im_GeorgeClooney.png', 'Im_JustinTimberlake.png', 'Im_ElijahWood.png', 'Im_PatrickDempsey.png', 'Im_RobertPattinson.png', 'Im_RyanGosling.png', 'Im_BenStiller.png', 'Im_LeonardoDiCaprio.png'],same,1,0.40008309999984704,12,69.04761904761905,
PHTA2206,train,inv,150,pos150_id6_im18.bmp_pos150_id6_im12.bmp,['Im_DanielRadcliffe.png', 'Im_KeanuReeves.png', 'Im_GeorgeClooney.png', 'Im_JustinTimberlake.png', 'Im_ElijahWood.png', 'Im_PatrickDempsey.png', 'Im_RobertPattinson.png', 'Im_RyanGosling.png', 'Im_BenStiller.png', 'Im_LeonardoDiCaprio.png'],diff,0,0.4168279000000439,12,69.04761904761905,
PHTA2206,train,inv,120,pos120_id10_im18.bmp_pos120_id11_im2.bmp,['Im_DanielRadcliffe.png', 'Im_KeanuReeves.png', 'Im_GeorgeClooney.png', 'Im_JustinTimberlake.png', 'Im_ElijahWood.png', 'Im_PatrickDempsey.png', 'Im_RobertPattinson.png', 'Im_RyanGosling.png', 'Im_BenStiller.png', 'Im_LeonardoDiCaprio.png'],diff,1,0.39973020000024917,13,69.04761904761905,
PHTA2206,train,inv,60,pos60_id10_im17.bmp_pos60_id17_im8.bmp,['Im_DanielRadcliffe.png', 'Im_KeanuReeves.png', 'Im_GeorgeClooney.png', 'Im_JustinTimberlake.png', 'Im_ElijahWood.png', 'Im_PatrickDempsey.png', 'Im_RobertPattinson.png', 'Im_RyanGosling.png', 'Im_BenStiller.png', 'Im_LeonardoDiCaprio.png'],same,0,0.40834929999982705,13,69.04761904761905,
PHTA2206,train,inv,0,pos0_id10_im18.bmp_pos0_id10_im1.bmp,['Im_DanielRadcliffe.png', 'Im_KeanuReeves.png', 'Im_GeorgeClooney.png', 'Im_JustinTimberlake.png', 'Im_ElijahWood.png', 'Im_PatrickDempsey.png', 'Im_RobertPattinson.png', 'Im_RyanGosling.png', 'Im_BenStiller.png', 'Im_LeonardoDiCaprio.png'],diff,0,0.41665240000020276,13,69.04761904761905,
PHTA2206,train,inv,150,pos150_id11_im1.bmp_pos150_id19_im8.bmp,['Im_DanielRadcliffe.png', 'Im_KeanuReeves.png', 'Im_GeorgeClooney.png', 'Im_JustinTimberlake.png', 'Im_ElijahWood.png', 'Im_PatrickDempsey.png', 'Im_RobertPattinson.png', 'Im_RyanGosling.png', 'Im_BenStiller.png', 'Im_LeonardoDiCaprio.png'],diff,1,0.41670079999994414,14,69.04761904761905,
PHTA2206,train,inv,fs,posfs_id20_im30.bmp_posfs_id20_im12.bmp,['Im_DanielRadcliffe.png', 'Im_KeanuReeves.png', 'Im_GeorgeClooney.png', 'Im_JustinTimberlake.png', 'Im_ElijahWood.png', 'Im_PatrickDempsey.png', 'Im_RobertPattinson.png', 'Im_RyanGosling.png', 'Im_BenStiller.png', 'Im_LeonardoDiCaprio.png'],same,1,0.4082435999998779,15,69.04761904761905,
PHTA2206,train,inv,90,pos90_id19_im4.bmp_pos90_id7_im15.bmp,['Im_DanielRadcliffe.png', 'Im_KeanuReeves.png', 'Im_GeorgeClooney.png', 'Im_JustinTimberlake.png', 'Im_ElijahWood.png', 'Im_PatrickDempsey.png', 'Im_RobertPattinson.png', 'Im_RyanGosling.png', 'Im_BenStiller.png', 'Im_LeonardoDiCaprio.png'],diff,1,0.41681970000036017,16,69.04761904761905,
PHTA2206,train,inv,0,pos0_id2_im3.bmp_pos0_id7_im26.bmp,['Im_DanielRadcliffe.png', 'Im_KeanuReeves.png', 'Im_GeorgeClooney.png', 'Im_JustinTimberlake.png', 'Im_ElijahWood.png', 'Im_PatrickDempsey.png', 'Im_RobertPattinson.png', 'Im_RyanGosling.png', 'Im_BenStiller.png', 'Im_LeonardoDiCaprio.png'],same,0,0.3998240999999325,16,69.04761904761905,
PHTA2206,train,inv,60,pos60_id5_im20.bmp_pos60_id17_im9.bmp,['Im_DanielRadcliffe.png', 'Im_KeanuReeves.png', 'Im_GeorgeClooney.png', 'Im_JustinTimberlake.png', 'Im_ElijahWood.png', 'Im_PatrickDempsey.png', 'Im_RobertPattinson.png', 'Im_RyanGosling.png', 'Im_BenStiller.png', 'Im_LeonardoDiCaprio.png'],same,0,0.41679930000009335,16,69.04761904761905,
PHTA2206,train,inv,30,pos30_id2_im16.bmp_pos30_id11_im2.bmp,['Im_DanielRadcliffe.png', 'Im_KeanuReeves.png', 'Im_GeorgeClooney.png', 'Im_JustinTimberlake.png', 'Im_ElijahWood.png', 'Im_PatrickDempsey.png', 'Im_RobertPattinson.png', 'Im_RyanGosling.png', 'Im_BenStiller.png', 'Im_LeonardoDiCaprio.png'],diff,1,0.4084973999997601,17,69.04761904761905,
PHTA2206,train,inv,90,pos90_id6_im18.bmp_pos90_id6_im12.bmp,['Im_DanielRadcliffe.png', 'Im_KeanuReeves.png', 'Im_GeorgeClooney.png', 'Im_JustinTimberlake.png', 'Im_ElijahWood.png', 'Im_PatrickDempsey.png', 'Im_RobertPattinson.png', 'Im_RyanGosling.png', 'Im_BenStiller.png', 'Im_LeonardoDiCaprio.png'],diff,0,0.4166581999998016,17,69.04761904761905,
PHTA2206,train,inv,120,pos120_id6_im19.bmp_pos120_id20_im3.bmp,['Im_DanielRadcliffe.png', 'Im_KeanuReeves.png', 'Im_GeorgeClooney.png', 'Im_JustinTimberlake.png', 'Im_ElijahWood.png', 'Im_PatrickDempsey.png', 'Im_RobertPattinson.png', 'Im_RyanGosling.png', 'Im_BenStiller.png', 'Im_LeonardoDiCaprio.png'],diff,1,0.4001511000001301,18,69.04761904761905,
PHTA2206,train,inv,30,pos30_id5_im1.bmp_pos30_id6_im12.bmp,['Im_DanielRadcliffe.png', 'Im_KeanuReeves.png', 'Im_GeorgeClooney.png', 'Im_JustinTimberlake.png', 'Im_ElijahWood.png', 'Im_PatrickDempsey.png', 'Im_RobertPattinson.png', 'Im_RyanGosling.png', 'Im_BenStiller.png', 'Im_LeonardoDiCaprio.png'],same,0,0.40005699999983335,18,69.04761904761905,
PHTA2206,train,neg,fs,negfs_id2_im3.bmp_negfs_id17_im14.bmp,['Im_DanielRadcliffe.png', 'Im_KeanuReeves.png', 'Im_GeorgeClooney.png', 'Im_JustinTimberlake.png', 'Im_ElijahWood.png', 'Im_PatrickDempsey.png', 'Im_RobertPattinson.png', 'Im_RyanGosling.png', 'Im_BenStiller.png', 'Im_LeonardoDiCaprio.png'],diff,1,0.39968729999964125,19,69.04761904761905,
PHTA2206,train,neg,60,neg60_id6_im12.bmp_neg60_id6_im18.bmp,['Im_DanielRadcliffe.png', 'Im_KeanuReeves.png', 'Im_GeorgeClooney.png', 'Im_JustinTimberlake.png', 'Im_ElijahWood.png', 'Im_PatrickDempsey.png', 'Im_RobertPattinson.png', 'Im_RyanGosling.png', 'Im_BenStiller.png', 'Im_LeonardoDiCaprio.png'],diff,0,0.4167895000000499,19,69.04761904761905,
PHTA2206,train,neg,30,neg30_id13_im29.bmp_neg30_id7_im14.bmp,['Im_DanielRadcliffe.png', 'Im_KeanuReeves.png', 'Im_GeorgeClooney.png', 'Im_JustinTimberlake.png', 'Im_ElijahWood.png', 'Im_PatrickDempsey.png', 'Im_RobertPattinson.png', 'Im_RyanGosling.png', 'Im_BenStiller.png', 'Im_LeonardoDiCaprio.png'],diff,1,0.4085446000003685,20,69.04761904761905,
PHTA2206,train,neg,0,neg0_id2_im2.bmp_neg0_id10_im17.bmp,['Im_DanielRadcliffe.png', 'Im_KeanuReeves.png', 'Im_GeorgeClooney.png', 'Im_JustinTimberlake.png', 'Im_ElijahWood.png', 'Im_PatrickDempsey.png', 'Im_RobertPattinson.png', 'Im_RyanGosling.png', 'Im_BenStiller.png', 'Im_LeonardoDiCaprio.png'],diff,1,0.41680829999995694,21,69.04761904761905,
PHTA2206,train,neg,0,neg0_id17_im14.bmp_neg0_id2_im3.bmp,['Im_DanielRadcliffe.png', 'Im_KeanuReeves.png', 'Im_GeorgeClooney.png', 'Im_JustinTimberlake.png', 'Im_ElijahWood.png', 'Im_PatrickDempsey.png', 'Im_RobertPattinson.png', 'Im_RyanGosling.png', 'Im_BenStiller.png', 'Im_LeonardoDiCaprio.png'],diff,1,0.4082063000000744,22,69.04761904761905,
PHTA2206,train,neg,90,neg90_id5_im10.bmp_neg90_id5_im20.bmp,['Im_DanielRadcliffe.png', 'Im_KeanuReeves.png', 'Im_GeorgeClooney.png', 'Im_JustinTimberlake.png', 'Im_ElijahWood.png', 'Im_PatrickDempsey.png', 'Im_RobertPattinson.png', 'Im_RyanGosling.png', 'Im_BenStiller.png', 'Im_LeonardoDiCaprio.png'],same,1,0.41674339999963195,23,69.04761904761905,
PHTA2206,train,neg,120,neg120_id7_im26.bmp_neg120_id7_im15.bmp,['Im_DanielRadcliffe.png', 'Im_KeanuReeves.png', 'Im_GeorgeClooney.png', 'Im_JustinTimberlake.png', 'Im_ElijahWood.png', 'Im_PatrickDempsey.png', 'Im_RobertPattinson.png', 'Im_RyanGosling.png', 'Im_BenStiller.png', 'Im_LeonardoDiCaprio.png'],same,1,0.40831859999980225,24,69.04761904761905,
PHTA2206,train,neg,90,neg90_id7_im15.bmp_neg90_id7_im26.bmp,['Im_DanielRadcliffe.png', 'Im_KeanuReeves.png', 'Im_GeorgeClooney.png', 'Im_JustinTimberlake.png', 'Im_ElijahWood.png', 'Im_PatrickDempsey.png', 'Im_RobertPattinson.png', 'Im_RyanGosling.png', 'Im_BenStiller.png', 'Im_LeonardoDiCaprio.png'],diff,0,0.4164980000000469,24,69.04761904761905,
PHTA2206,train,neg,120,neg120_id19_im8.bmp_neg120_id19_im4.bmp,['Im_DanielRadcliffe.png', 'Im_KeanuReeves.png', 'Im_GeorgeClooney.png', 'Im_JustinTimberlake.png', 'Im_ElijahWood.png', 'Im_PatrickDempsey.png', 'Im_RobertPattinson.png', 'Im_RyanGosling.png', 'Im_BenStiller.png', 'Im_LeonardoDiCaprio.png'],same,1,0.39992879999999786,25,69.04761904761905,
PHTA2206,train,neg,60,neg60_id13_im29.bmp_neg60_id7_im14.bmp,['Im_DanielRadcliffe.png', 'Im_KeanuReeves.png', 'Im_GeorgeClooney.png', 'Im_JustinTimberlake.png', 'Im_ElijahWood.png', 'Im_PatrickDempsey.png', 'Im_RobertPattinson.png', 'Im_RyanGosling.png', 'Im_BenStiller.png', 'Im_LeonardoDiCaprio.png'],diff,1,0.4165626999997585,26,69.04761904761905,
PHTA2206,train,neg,fs,negfs_id19_im4.bmp_negfs_id19_im27.bmp,['Im_DanielRadcliffe.png', 'Im_KeanuReeves.png', 'Im_GeorgeClooney.png', 'Im_JustinTimberlake.png', 'Im_ElijahWood.png', 'Im_PatrickDempsey.png', 'Im_RobertPattinson.png', 'Im_RyanGosling.png', 'Im_BenStiller.png', 'Im_LeonardoDiCaprio.png'],same,1,0.4084989999996651,27,69.04761904761905,
PHTA2206,train,neg,30,neg30_id20_im30.bmp_neg30_id10_im18.bmp,['Im_DanielRadcliffe.png', 'Im_KeanuReeves.png', 'Im_GeorgeClooney.png', 'Im_JustinTimberlake.png', 'Im_ElijahWood.png', 'Im_PatrickDempsey.png', 'Im_RobertPattinson.png', 'Im_RyanGosling.png', 'Im_BenStiller.png', 'Im_LeonardoDiCaprio.png'],same,0,0.40826930000002903,27,69.04761904761905,
PHTA2206,train,neg,150,neg150_id20_im3.bmp_neg150_id6_im18.bmp,['Im_DanielRadcliffe.png', 'Im_KeanuReeves.png', 'Im_GeorgeClooney.png', 'Im_JustinTimberlake.png', 'Im_ElijahWood.png', 'Im_PatrickDempsey.png', 'Im_RobertPattinson.png', 'Im_RyanGosling.png', 'Im_BenStiller.png', 'Im_LeonardoDiCaprio.png'],diff,1,0.416589699999804,28,69.04761904761905,
PHTA2206,train,neg,150,neg150_id19_im8.bmp_neg150_id19_im27.bmp,['Im_DanielRadcliffe.png', 'Im_KeanuReeves.png', 'Im_GeorgeClooney.png', 'Im_JustinTimberlake.png', 'Im_ElijahWood.png', 'Im_PatrickDempsey.png', 'Im_RobertPattinson.png', 'Im_RyanGosling.png', 'Im_BenStiller.png', 'Im_LeonardoDiCaprio.png'],same,1,0.41657559999976,29,69.04761904761905,
PHTA2206,train,pos,60,pos60_id11_im10.bmp_pos60_id19_im27.bmp,['Im_DanielRadcliffe.png', 'Im_KeanuReeves.png', 'Im_GeorgeClooney.png', 'Im_JustinTimberlake.png', 'Im_ElijahWood.png', 'Im_PatrickDempsey.png', 'Im_RobertPattinson.png', 'Im_RyanGosling.png', 'Im_BenStiller.png', 'Im_LeonardoDiCaprio.png'],diff,1,0.39976400000023204,1,69.04761904761905,
PHTA2206,train,pos,120,pos120_id2_im3.bmp_pos120_id2_im16.bmp,['Im_DanielRadcliffe.png', 'Im_KeanuReeves.png', 'Im_GeorgeClooney.png', 'Im_JustinTimberlake.png', 'Im_ElijahWood.png', 'Im_PatrickDempsey.png', 'Im_RobertPattinson.png', 'Im_RyanGosling.png', 'Im_BenStiller.png', 'Im_LeonardoDiCaprio.png'],diff,0,0.4166423000001487,1,69.04761904761905,
PHTA2206,train,pos,60,pos60_id5_im10.bmp_pos60_id7_im14.bmp,['Im_DanielRadcliffe.png', 'Im_KeanuReeves.png', 'Im_GeorgeClooney.png', 'Im_JustinTimberlake.png', 'Im_ElijahWood.png', 'Im_PatrickDempsey.png', 'Im_RobertPattinson.png', 'Im_RyanGosling.png', 'Im_BenStiller.png', 'Im_LeonardoDiCaprio.png'],diff,1,0.4167215999996188,2,69.04761904761905,
PHTA2206,train,pos,90,pos90_id20_im12.bmp_pos90_id13_im10.bmp,['Im_DanielRadcliffe.png', 'Im_KeanuReeves.png', 'Im_GeorgeClooney.png', 'Im_JustinTimberlake.png', 'Im_ElijahWood.png', 'Im_PatrickDempsey.png', 'Im_RobertPattinson.png', 'Im_RyanGosling.png', 'Im_BenStiller.png', 'Im_LeonardoDiCaprio.png'],diff,1,0.40848800000003394,3,69.04761904761905,
PHTA2206,train,pos,90,pos90_id5_im20.bmp_pos90_id5_im1.bmp,['Im_DanielRadcliffe.png', 'Im_KeanuReeves.png', 'Im_GeorgeClooney.png', 'Im_JustinTimberlake.png', 'Im_ElijahWood.png', 'Im_PatrickDempsey.png', 'Im_RobertPattinson.png', 'Im_RyanGosling.png', 'Im_BenStiller.png', 'Im_LeonardoDiCaprio.png'],same,1,0.4165852000000996,4,69.04761904761905,
PHTA2206,train,pos,150,pos150_id7_im26.bmp_pos150_id7_im15.bmp,['Im_DanielRadcliffe.png', 'Im_KeanuReeves.png', 'Im_GeorgeClooney.png', 'Im_JustinTimberlake.png', 'Im_ElijahWood.png', 'Im_PatrickDempsey.png', 'Im_RobertPattinson.png', 'Im_RyanGosling.png', 'Im_BenStiller.png', 'Im_LeonardoDiCaprio.png'],same,1,0.4084507000002304,5,69.04761904761905,
PHTA2206,train,pos,0,pos0_id5_im10.bmp_pos0_id7_im14.bmp,['Im_DanielRadcliffe.png', 'Im_KeanuReeves.png', 'Im_GeorgeClooney.png', 'Im_JustinTimberlake.png', 'Im_ElijahWood.png', 'Im_PatrickDempsey.png', 'Im_RobertPattinson.png', 'Im_RyanGosling.png', 'Im_BenStiller.png', 'Im_LeonardoDiCaprio.png'],diff,1,0.4169271000000663,6,69.04761904761905,
PHTA2206,train,pos,fs,posfs_id7_im26.bmp_posfs_id2_im3.bmp,['Im_DanielRadcliffe.png', 'Im_KeanuReeves.png', 'Im_GeorgeClooney.png', 'Im_JustinTimberlake.png', 'Im_ElijahWood.png', 'Im_PatrickDempsey.png', 'Im_RobertPattinson.png', 'Im_RyanGosling.png', 'Im_BenStiller.png', 'Im_LeonardoDiCaprio.png'],diff,1,0.4082973999998103,7,69.04761904761905,
PHTA2206,train,pos,150,pos150_id10_im18.bmp_pos150_id11_im2.bmp,['Im_DanielRadcliffe.png', 'Im_KeanuReeves.png', 'Im_GeorgeClooney.png', 'Im_JustinTimberlake.png', 'Im_ElijahWood.png', 'Im_PatrickDempsey.png', 'Im_RobertPattinson.png', 'Im_RyanGosling.png', 'Im_BenStiller.png', 'Im_LeonardoDiCaprio.png'],diff,1,0.4082741000001988,8,69.04761904761905,
PHTA2206,train,pos,30,pos30_id11_im10.bmp_pos30_id11_im1.bmp,['Im_DanielRadcliffe.png', 'Im_KeanuReeves.png', 'Im_GeorgeClooney.png', 'Im_JustinTimberlake.png', 'Im_ElijahWood.png', 'Im_PatrickDempsey.png', 'Im_RobertPattinson.png', 'Im_RyanGosling.png', 'Im_BenStiller.png', 'Im_LeonardoDiCaprio.png'],same,1,0.40821690000029776,9,69.04761904761905,
PHTA2206,train,pos,fs,posfs_id7_im14.bmp_posfs_id7_im26.bmp,['Im_DanielRadcliffe.png', 'Im_KeanuReeves.png', 'Im_GeorgeClooney.png', 'Im_JustinTimberlake.png', 'Im_ElijahWood.png', 'Im_PatrickDempsey.png', 'Im_RobertPattinson.png', 'Im_RyanGosling.png', 'Im_BenStiller.png', 'Im_LeonardoDiCaprio.png'],same,1,0.41664989999981117,10,69.04761904761905,
PHTA2206,train,pos,120,pos120_id13_im15.bmp_pos120_id13_im29.bmp,['Im_DanielRadcliffe.png', 'Im_KeanuReeves.png', 'Im_GeorgeClooney.png', 'Im_JustinTimberlake.png', 'Im_ElijahWood.png', 'Im_PatrickDempsey.png', 'Im_RobertPattinson.png', 'Im_RyanGosling.png', 'Im_BenStiller.png', 'Im_LeonardoDiCaprio.png'],diff,0,0.4165448999997352,10,69.04761904761905,
PHTA2206,train,pos,30,pos30_id20_im3.bmp_pos30_id20_im12.bmp,['Im_DanielRadcliffe.png', 'Im_KeanuReeves.png', 'Im_GeorgeClooney.png', 'Im_JustinTimberlake.png', 'Im_ElijahWood.png', 'Im_PatrickDempsey.png', 'Im_RobertPattinson.png', 'Im_RyanGosling.png', 'Im_BenStiller.png', 'Im_LeonardoDiCaprio.png'],same,1,0.4083110999999917,11,69.04761904761905,
PHTA2206,train,pos,0,pos0_id11_im1.bmp_pos0_id13_im15.bmp,['Im_DanielRadcliffe.png', 'Im_KeanuReeves.png', 'Im_GeorgeClooney.png', 'Im_JustinTimberlake.png', 'Im_ElijahWood.png', 'Im_PatrickDempsey.png', 'Im_RobertPattinson.png', 'Im_RyanGosling.png', 'Im_BenStiller.png', 'Im_LeonardoDiCaprio.png'],diff,1,0.416708700000072,12,69.04761904761905,
PHTA2206,train,inv,30,pos30_id2_im2.bmp_pos30_id2_im3.bmp,['Im_DanielRadcliffe.png', 'Im_KeanuReeves.png', 'Im_GeorgeClooney.png', 'Im_JustinTimberlake.png', 'Im_ElijahWood.png', 'Im_PatrickDempsey.png', 'Im_RobertPattinson.png', 'Im_RyanGosling.png', 'Im_BenStiller.png', 'Im_LeonardoDiCaprio.png'],same,1,0.40853340000012395,13,69.04761904761905,
PHTA2206,train,inv,fs,posfs_id19_im27.bmp_posfs_id11_im10.bmp,['Im_DanielRadcliffe.png', 'Im_KeanuReeves.png', 'Im_GeorgeClooney.png', 'Im_JustinTimberlake.png', 'Im_ElijahWood.png', 'Im_PatrickDempsey.png', 'Im_RobertPattinson.png', 'Im_RyanGosling.png', 'Im_BenStiller.png', 'Im_LeonardoDiCaprio.png'],diff,1,0.416686000000027,14,69.04761904761905,
PHTA2206,train,inv,60,pos60_id13_im15.bmp_pos60_id6_im18.bmp,['Im_DanielRadcliffe.png', 'Im_KeanuReeves.png', 'Im_GeorgeClooney.png', 'Im_JustinTimberlake.png', 'Im_ElijahWood.png', 'Im_PatrickDempsey.png', 'Im_RobertPattinson.png', 'Im_RyanGosling.png', 'Im_BenStiller.png', 'Im_LeonardoDiCaprio.png'],diff,1,0.39959349999980986,15,69.04761904761905,
PHTA2206,train,inv,120,pos120_id2_im16.bmp_pos120_id11_im2.bmp,['Im_DanielRadcliffe.png', 'Im_KeanuReeves.png', 'Im_GeorgeClooney.png', 'Im_JustinTimberlake.png', 'Im_ElijahWood.png', 'Im_PatrickDempsey.png', 'Im_RobertPattinson.png', 'Im_RyanGosling.png', 'Im_BenStiller.png', 'Im_LeonardoDiCaprio.png'],diff,1,0.39958930000011605,16,69.04761904761905,
PHTA2206,train,inv,0,pos0_id11_im10.bmp_pos0_id17_im14.bmp,['Im_DanielRadcliffe.png', 'Im_KeanuReeves.png', 'Im_GeorgeClooney.png', 'Im_JustinTimberlake.png', 'Im_ElijahWood.png', 'Im_PatrickDempsey.png', 'Im_RobertPattinson.png', 'Im_RyanGosling.png', 'Im_BenStiller.png', 'Im_LeonardoDiCaprio.png'],diff,1,0.4167104000002837,17,69.04761904761905,
PHTA2206,train,inv,60,pos60_id2_im3.bmp_pos60_id7_im26.bmp,['Im_DanielRadcliffe.png', 'Im_KeanuReeves.png', 'Im_GeorgeClooney.png', 'Im_JustinTimberlake.png', 'Im_ElijahWood.png', 'Im_PatrickDempsey.png', 'Im_RobertPattinson.png', 'Im_RyanGosling.png', 'Im_BenStiller.png', 'Im_LeonardoDiCaprio.png'],diff,1,0.41668750000008004,18,69.04761904761905,
PHTA2206,train,inv,0,pos0_id11_im2.bmp_pos0_id11_im10.bmp,['Im_DanielRadcliffe.png', 'Im_KeanuReeves.png', 'Im_GeorgeClooney.png', 'Im_JustinTimberlake.png', 'Im_ElijahWood.png', 'Im_PatrickDempsey.png', 'Im_RobertPattinson.png', 'Im_RyanGosling.png', 'Im_BenStiller.png', 'Im_LeonardoDiCaprio.png'],same,1,0.4085442000000512,19,69.04761904761905,
PHTA2206,train,inv,120,pos120_id11_im1.bmp_pos120_id19_im8.bmp,['Im_DanielRadcliffe.png', 'Im_KeanuReeves.png', 'Im_GeorgeClooney.png', 'Im_JustinTimberlake.png', 'Im_ElijahWood.png', 'Im_PatrickDempsey.png', 'Im_RobertPattinson.png', 'Im_RyanGosling.png', 'Im_BenStiller.png', 'Im_LeonardoDiCaprio.png'],diff,1,0.416591800000333,20,69.04761904761905,
PHTA2206,train,inv,150,pos150_id19_im8.bmp_pos150_id13_im29.bmp,['Im_DanielRadcliffe.png', 'Im_KeanuReeves.png', 'Im_GeorgeClooney.png', 'Im_JustinTimberlake.png', 'Im_ElijahWood.png', 'Im_PatrickDempsey.png', 'Im_RobertPattinson.png', 'Im_RyanGosling.png', 'Im_BenStiller.png', 'Im_LeonardoDiCaprio.png'],same,0,0.4167425999999068,20,69.04761904761905,
PHTA2206,train,inv,fs,posfs_id17_im8.bmp_posfs_id10_im17.bmp,['Im_DanielRadcliffe.png', 'Im_KeanuReeves.png', 'Im_GeorgeClooney.png', 'Im_JustinTimberlake.png', 'Im_ElijahWood.png', 'Im_PatrickDempsey.png', 'Im_RobertPattinson.png', 'Im_RyanGosling.png', 'Im_BenStiller.png', 'Im_LeonardoDiCaprio.png'],diff,1,0.4165619999998853,21,69.04761904761905,
PHTA2206,train,inv,30,pos30_id6_im12.bmp_pos30_id6_im19.bmp,['Im_DanielRadcliffe.png', 'Im_KeanuReeves.png', 'Im_GeorgeClooney.png', 'Im_JustinTimberlake.png', 'Im_ElijahWood.png', 'Im_PatrickDempsey.png', 'Im_RobertPattinson.png', 'Im_RyanGosling.png', 'Im_BenStiller.png', 'Im_LeonardoDiCaprio.png'],diff,0,0.4168819999999869,21,69.04761904761905,
PHTA2206,train,inv,90,pos90_id11_im10.bmp_pos90_id19_im27.bmp,['Im_DanielRadcliffe.png', 'Im_KeanuReeves.png', 'Im_GeorgeClooney.png', 'Im_JustinTimberlake.png', 'Im_ElijahWood.png', 'Im_PatrickDempsey.png', 'Im_RobertPattinson.png', 'Im_RyanGosling.png', 'Im_BenStiller.png', 'Im_LeonardoDiCaprio.png'],same,0,0.4082490000000689,21,69.04761904761905,
PHTA2206,train,inv,150,pos150_id11_im2.bmp_pos150_id11_im10.bmp,['Im_DanielRadcliffe.png', 'Im_KeanuReeves.png', 'Im_GeorgeClooney.png', 'Im_JustinTimberlake.png', 'Im_ElijahWood.png', 'Im_PatrickDempsey.png', 'Im_RobertPattinson.png', 'Im_RyanGosling.png', 'Im_BenStiller.png', 'Im_LeonardoDiCaprio.png'],same,1,0.4336710000002313,22,69.04761904761905,
PHTA2206,train,inv,90,pos90_id10_im17.bmp_pos90_id2_im2.bmp,['Im_DanielRadcliffe.png', 'Im_KeanuReeves.png', 'Im_GeorgeClooney.png', 'Im_JustinTimberlake.png', 'Im_ElijahWood.png', 'Im_PatrickDempsey.png', 'Im_RobertPattinson.png', 'Im_RyanGosling.png', 'Im_BenStiller.png', 'Im_LeonardoDiCaprio.png'],diff,1,0.41703170000027967,23,69.04761904761905,
PHTA2206,train,neg,120,neg120_id5_im10.bmp_neg120_id5_im20.bmp,['Im_DanielRadcliffe.png', 'Im_KeanuReeves.png', 'Im_GeorgeClooney.png', 'Im_JustinTimberlake.png', 'Im_ElijahWood.png', 'Im_PatrickDempsey.png', 'Im_RobertPattinson.png', 'Im_RyanGosling.png', 'Im_BenStiller.png', 'Im_LeonardoDiCaprio.png'],diff,0,0.40831900000011956,23,69.04761904761905,
PHTA2206,train,neg,120,neg120_id19_im8.bmp_neg120_id11_im1.bmp,['Im_DanielRadcliffe.png', 'Im_KeanuReeves.png', 'Im_GeorgeClooney.png', 'Im_JustinTimberlake.png', 'Im_ElijahWood.png', 'Im_PatrickDempsey.png', 'Im_RobertPattinson.png', 'Im_RyanGosling.png', 'Im_BenStiller.png', 'Im_LeonardoDiCaprio.png'],diff,1,0.4083885999998529,24,69.04761904761905,
PHTA2206,train,neg,90,neg90_id11_im1.bmp_neg90_id11_im10.bmp,['Im_DanielRadcliffe.png', 'Im_KeanuReeves.png', 'Im_GeorgeClooney.png', 'Im_JustinTimberlake.png', 'Im_ElijahWood.png', 'Im_PatrickDempsey.png', 'Im_RobertPattinson.png', 'Im_RyanGosling.png', 'Im_BenStiller.png', 'Im_LeonardoDiCaprio.png'],diff,0,0.41671969999970315,24,69.04761904761905,
PHTA2206,train,neg,30,neg30_id10_im17.bmp_neg30_id2_im2.bmp,['Im_DanielRadcliffe.png', 'Im_KeanuReeves.png', 'Im_GeorgeClooney.png', 'Im_JustinTimberlake.png', 'Im_ElijahWood.png', 'Im_PatrickDempsey.png', 'Im_RobertPattinson.png', 'Im_RyanGosling.png', 'Im_BenStiller.png', 'Im_LeonardoDiCaprio.png'],diff,1,0.4167311000001064,25,69.04761904761905,
PHTA2206,train,neg,fs,negfs_id17_im14.bmp_negfs_id17_im8.bmp,['Im_DanielRadcliffe.png', 'Im_KeanuReeves.png', 'Im_GeorgeClooney.png', 'Im_JustinTimberlake.png', 'Im_ElijahWood.png', 'Im_PatrickDempsey.png', 'Im_RobertPattinson.png', 'Im_RyanGosling.png', 'Im_BenStiller.png', 'Im_LeonardoDiCaprio.png'],diff,0,0.41689409999980853,25,69.04761904761905,
PHTA2206,train,neg,fs,negfs_id6_im18.bmp_negfs_id6_im12.bmp,['Im_DanielRadcliffe.png', 'Im_KeanuReeves.png', 'Im_GeorgeClooney.png', 'Im_JustinTimberlake.png', 'Im_ElijahWood.png', 'Im_PatrickDempsey.png', 'Im_RobertPattinson.png', 'Im_RyanGosling.png', 'Im_BenStiller.png', 'Im_LeonardoDiCaprio.png'],diff,0,0.41670890000023064,25,69.04761904761905,
PHTA2206,train,neg,0,neg0_id17_im9.bmp_neg0_id2_im2.bmp,['Im_DanielRadcliffe.png', 'Im_KeanuReeves.png', 'Im_GeorgeClooney.png', 'Im_JustinTimberlake.png', 'Im_ElijahWood.png', 'Im_PatrickDempsey.png', 'Im_RobertPattinson.png', 'Im_RyanGosling.png', 'Im_BenStiller.png', 'Im_LeonardoDiCaprio.png'],same,0,0.4166288999999779,25,69.04761904761905,
PHTA2206,train,neg,0,neg0_id13_im29.bmp_neg0_id7_im14.bmp,['Im_DanielRadcliffe.png', 'Im_KeanuReeves.png', 'Im_GeorgeClooney.png', 'Im_JustinTimberlake.png', 'Im_ElijahWood.png', 'Im_PatrickDempsey.png', 'Im_RobertPattinson.png', 'Im_RyanGosling.png', 'Im_BenStiller.png', 'Im_LeonardoDiCaprio.png'],diff,1,0.3998507999999674,26,69.04761904761905,
PHTA2206,train,neg,60,neg60_id6_im19.bmp_neg60_id6_im12.bmp,['Im_DanielRadcliffe.png', 'Im_KeanuReeves.png', 'Im_GeorgeClooney.png', 'Im_JustinTimberlake.png', 'Im_ElijahWood.png', 'Im_PatrickDempsey.png', 'Im_RobertPattinson.png', 'Im_RyanGosling.png', 'Im_BenStiller.png', 'Im_LeonardoDiCaprio.png'],diff,0,0.4167842000001656,26,69.04761904761905,
PHTA2206,train,neg,150,neg150_id17_im8.bmp_neg150_id10_im17.bmp,['Im_DanielRadcliffe.png', 'Im_KeanuReeves.png', 'Im_GeorgeClooney.png', 'Im_JustinTimberlake.png', 'Im_ElijahWood.png', 'Im_PatrickDempsey.png', 'Im_RobertPattinson.png', 'Im_RyanGosling.png', 'Im_BenStiller.png', 'Im_LeonardoDiCaprio.png'],same,0,0.399886300000162,26,69.04761904761905,
PHTA2206,train,neg,60,neg60_id13_im15.bmp_neg60_id13_im10.bmp,['Im_DanielRadcliffe.png', 'Im_KeanuReeves.png', 'Im_GeorgeClooney.png', 'Im_JustinTimberlake.png', 'Im_ElijahWood.png', 'Im_PatrickDempsey.png', 'Im_RobertPattinson.png', 'Im_RyanGosling.png', 'Im_BenStiller.png', 'Im_LeonardoDiCaprio.png'],same,1,0.41654920000019047,27,69.04761904761905,
PHTA2206,train,neg,90,neg90_id17_im8.bmp_neg90_id5_im20.bmp,['Im_DanielRadcliffe.png', 'Im_KeanuReeves.png', 'Im_GeorgeClooney.png', 'Im_JustinTimberlake.png', 'Im_ElijahWood.png', 'Im_PatrickDempsey.png', 'Im_RobertPattinson.png', 'Im_RyanGosling.png', 'Im_BenStiller.png', 'Im_LeonardoDiCaprio.png'],diff,1,0.41684459999987666,28,69.04761904761905,
PHTA2206,train,neg,150,neg150_id6_im19.bmp_neg150_id6_im12.bmp,['Im_DanielRadcliffe.png', 'Im_KeanuReeves.png', 'Im_GeorgeClooney.png', 'Im_JustinTimberlake.png', 'Im_ElijahWood.png', 'Im_PatrickDempsey.png', 'Im_RobertPattinson.png', 'Im_RyanGosling.png', 'Im_BenStiller.png', 'Im_LeonardoDiCaprio.png'],same,1,0.8166879999998855,29,69.04761904761905,
PHTA2206,train,neg,30,neg30_id2_im2.bmp_neg30_id2_im3.bmp,['Im_DanielRadcliffe.png', 'Im_KeanuReeves.png', 'Im_GeorgeClooney.png', 'Im_JustinTimberlake.png', 'Im_ElijahWood.png', 'Im_PatrickDempsey.png', 'Im_RobertPattinson.png', 'Im_RyanGosling.png', 'Im_BenStiller.png', 'Im_LeonardoDiCaprio.png'],same,1,0.41649809999989884,30,69.04761904761905,
PHTA2206,train,neg,30,neg30_id19_im27.bmp_neg30_id19_im4.bmp,['Im_DanielRadcliffe.png', 'Im_KeanuReeves.png', 'Im_GeorgeClooney.png', 'Im_JustinTimberlake.png', 'Im_ElijahWood.png', 'Im_PatrickDempsey.png', 'Im_RobertPattinson.png', 'Im_RyanGosling.png', 'Im_BenStiller.png', 'Im_LeonardoDiCaprio.png'],same,1,0.4083762000000206,1,71.42857142857143,
PHTA2206,train,neg,150,neg150_id20_im3.bmp_neg150_id6_im19.bmp,['Im_DanielRadcliffe.png', 'Im_KeanuReeves.png', 'Im_GeorgeClooney.png', 'Im_JustinTimberlake.png', 'Im_ElijahWood.png', 'Im_PatrickDempsey.png', 'Im_RobertPattinson.png', 'Im_RyanGosling.png', 'Im_BenStiller.png', 'Im_LeonardoDiCaprio.png'],same,0,0.41672860000016954,1,71.42857142857143,
PHTA2206,train,neg,90,neg90_id7_im15.bmp_neg90_id20_im12.bmp,['Im_DanielRadcliffe.png', 'Im_KeanuReeves.png', 'Im_GeorgeClooney.png', 'Im_JustinTimberlake.png', 'Im_ElijahWood.png', 'Im_PatrickDempsey.png', 'Im_RobertPattinson.png', 'Im_RyanGosling.png', 'Im_BenStiller.png', 'Im_LeonardoDiCaprio.png'],same,0,0.40017900000020745,1,71.42857142857143,
PHTA2206,train,neg,60,neg60_id13_im29.bmp_neg60_id13_im15.bmp,['Im_DanielRadcliffe.png', 'Im_KeanuReeves.png', 'Im_GeorgeClooney.png', 'Im_JustinTimberlake.png', 'Im_ElijahWood.png', 'Im_PatrickDempsey.png', 'Im_RobertPattinson.png', 'Im_RyanGosling.png', 'Im_BenStiller.png', 'Im_LeonardoDiCaprio.png'],same,1,0.4165451999997458,2,71.42857142857143,
PHTA2206,train,neg,0,neg0_id2_im3.bmp_neg0_id2_im2.bmp,['Im_DanielRadcliffe.png', 'Im_KeanuReeves.png', 'Im_GeorgeClooney.png', 'Im_JustinTimberlake.png', 'Im_ElijahWood.png', 'Im_PatrickDempsey.png', 'Im_RobertPattinson.png', 'Im_RyanGosling.png', 'Im_BenStiller.png', 'Im_LeonardoDiCaprio.png'],same,1,0.4165205999997852,3,71.42857142857143,
PHTA2206,train,neg,150,neg150_id19_im27.bmp_neg150_id19_im4.bmp,['Im_DanielRadcliffe.png', 'Im_KeanuReeves.png', 'Im_GeorgeClooney.png', 'Im_JustinTimberlake.png', 'Im_ElijahWood.png', 'Im_PatrickDempsey.png', 'Im_RobertPattinson.png', 'Im_RyanGosling.png', 'Im_BenStiller.png', 'Im_LeonardoDiCaprio.png'],same,1,0.4165352999998504,4,71.42857142857143,
PHTA2206,train,neg,0,neg0_id20_im3.bmp_neg0_id6_im19.bmp,['Im_DanielRadcliffe.png', 'Im_KeanuReeves.png', 'Im_GeorgeClooney.png', 'Im_JustinTimberlake.png', 'Im_ElijahWood.png', 'Im_PatrickDempsey.png', 'Im_RobertPattinson.png', 'Im_RyanGosling.png', 'Im_BenStiller.png', 'Im_LeonardoDiCaprio.png'],same,0,0.41671439999981885,4,71.42857142857143,
PHTA2206,train,neg,fs,negfs_id19_im8.bmp_negfs_id19_im27.bmp,['Im_DanielRadcliffe.png', 'Im_KeanuReeves.png', 'Im_GeorgeClooney.png', 'Im_JustinTimberlake.png', 'Im_ElijahWood.png', 'Im_PatrickDempsey.png', 'Im_RobertPattinson.png', 'Im_RyanGosling.png', 'Im_BenStiller.png', 'Im_LeonardoDiCaprio.png'],diff,0,0.4082094000000325,4,71.42857142857143,
PHTA2206,train,neg,fs,negfs_id20_im12.bmp_negfs_id20_im30.bmp,['Im_DanielRadcliffe.png', 'Im_KeanuReeves.png', 'Im_GeorgeClooney.png', 'Im_JustinTimberlake.png', 'Im_ElijahWood.png', 'Im_PatrickDempsey.png', 'Im_RobertPattinson.png', 'Im_RyanGosling.png', 'Im_BenStiller.png', 'Im_LeonardoDiCaprio.png'],same,1,0.40822690000004513,5,71.42857142857143,
PHTA2206,train,neg,120,neg120_id11_im10.bmp_neg120_id11_im2.bmp,['Im_DanielRadcliffe.png', 'Im_KeanuReeves.png', 'Im_GeorgeClooney.png', 'Im_JustinTimberlake.png', 'Im_ElijahWood.png', 'Im_PatrickDempsey.png', 'Im_RobertPattinson.png', 'Im_RyanGosling.png', 'Im_BenStiller.png', 'Im_LeonardoDiCaprio.png'],diff,0,0.41685199999983524,5,71.42857142857143,
PHTA2206,train,neg,30,neg30_id7_im15.bmp_neg30_id7_im26.bmp,['Im_DanielRadcliffe.png', 'Im_KeanuReeves.png', 'Im_GeorgeClooney.png', 'Im_JustinTimberlake.png', 'Im_ElijahWood.png', 'Im_PatrickDempsey.png', 'Im_RobertPattinson.png', 'Im_RyanGosling.png', 'Im_BenStiller.png', 'Im_LeonardoDiCaprio.png'],diff,0,0.4081815999998071,5,71.42857142857143,
PHTA2206,train,neg,120,neg120_id20_im30.bmp_neg120_id5_im10.bmp,['Im_DanielRadcliffe.png', 'Im_KeanuReeves.png', 'Im_GeorgeClooney.png', 'Im_JustinTimberlake.png', 'Im_ElijahWood.png', 'Im_PatrickDempsey.png', 'Im_RobertPattinson.png', 'Im_RyanGosling.png', 'Im_BenStiller.png', 'Im_LeonardoDiCaprio.png'],diff,1,0.4166576999996323,6,71.42857142857143,
PHTA2206,train,neg,60,neg60_id13_im10.bmp_neg60_id6_im19.bmp,['Im_DanielRadcliffe.png', 'Im_KeanuReeves.png', 'Im_GeorgeClooney.png', 'Im_JustinTimberlake.png', 'Im_ElijahWood.png', 'Im_PatrickDempsey.png', 'Im_RobertPattinson.png', 'Im_RyanGosling.png', 'Im_BenStiller.png', 'Im_LeonardoDiCaprio.png'],diff,1,0.4083724000001894,7,71.42857142857143,
PHTA2206,train,neg,90,neg90_id19_im27.bmp_neg90_id19_im8.bmp,['Im_DanielRadcliffe.png', 'Im_KeanuReeves.png', 'Im_GeorgeClooney.png', 'Im_JustinTimberlake.png', 'Im_ElijahWood.png', 'Im_PatrickDempsey.png', 'Im_RobertPattinson.png', 'Im_RyanGosling.png', 'Im_BenStiller.png', 'Im_LeonardoDiCaprio.png'],same,1,0.4167080000001988,8,71.42857142857143,
PHTA2206,train,pos,30,pos30_id13_im10.bmp_pos30_id20_im12.bmp,['Im_DanielRadcliffe.png', 'Im_KeanuReeves.png', 'Im_GeorgeClooney.png', 'Im_JustinTimberlake.png', 'Im_ElijahWood.png', 'Im_PatrickDempsey.png', 'Im_RobertPattinson.png', 'Im_RyanGosling.png', 'Im_BenStiller.png', 'Im_LeonardoDiCaprio.png'],diff,1,0.4166927000001124,9,71.42857142857143,
PHTA2206,train,pos,150,pos150_id17_im8.bmp_pos150_id5_im20.bmp,['Im_DanielRadcliffe.png', 'Im_KeanuReeves.png', 'Im_GeorgeClooney.png', 'Im_JustinTimberlake.png', 'Im_ElijahWood.png', 'Im_PatrickDempsey.png', 'Im_RobertPattinson.png', 'Im_RyanGosling.png', 'Im_BenStiller.png', 'Im_LeonardoDiCaprio.png'],diff,1,0.40839260000029753,10,71.42857142857143,
PHTA2206,train,pos,120,pos120_id17_im9.bmp_pos120_id2_im2.bmp,['Im_DanielRadcliffe.png', 'Im_KeanuReeves.png', 'Im_GeorgeClooney.png', 'Im_JustinTimberlake.png', 'Im_ElijahWood.png', 'Im_PatrickDempsey.png', 'Im_RobertPattinson.png', 'Im_RyanGosling.png', 'Im_BenStiller.png', 'Im_LeonardoDiCaprio.png'],diff,1,0.3997098999998343,11,71.42857142857143,
PHTA2206,train,pos,fs,posfs_id6_im19.bmp_posfs_id20_im3.bmp,['Im_DanielRadcliffe.png', 'Im_KeanuReeves.png', 'Im_GeorgeClooney.png', 'Im_JustinTimberlake.png', 'Im_ElijahWood.png', 'Im_PatrickDempsey.png', 'Im_RobertPattinson.png', 'Im_RyanGosling.png', 'Im_BenStiller.png', 'Im_LeonardoDiCaprio.png'],diff,1,0.4083860000000641,12,71.42857142857143,
PHTA2206,train,pos,120,pos120_id11_im10.bmp_pos120_id19_im27.bmp,['Im_DanielRadcliffe.png', 'Im_KeanuReeves.png', 'Im_GeorgeClooney.png', 'Im_JustinTimberlake.png', 'Im_ElijahWood.png', 'Im_PatrickDempsey.png', 'Im_RobertPattinson.png', 'Im_RyanGosling.png', 'Im_BenStiller.png', 'Im_LeonardoDiCaprio.png'],diff,1,0.41670269999985976,13,71.42857142857143,
PHTA2206,train,pos,60,pos60_id2_im2.bmp_pos60_id2_im16.bmp,['Im_DanielRadcliffe.png', 'Im_KeanuReeves.png', 'Im_GeorgeClooney.png', 'Im_JustinTimberlake.png', 'Im_ElijahWood.png', 'Im_PatrickDempsey.png', 'Im_RobertPattinson.png', 'Im_RyanGosling.png', 'Im_BenStiller.png', 'Im_LeonardoDiCaprio.png'],same,1,0.5418126999998094,14,71.42857142857143,
PHTA2206,train,pos,fs,posfs_id11_im2.bmp_posfs_id10_im18.bmp,['Im_DanielRadcliffe.png', 'Im_KeanuReeves.png', 'Im_GeorgeClooney.png', 'Im_JustinTimberlake.png', 'Im_ElijahWood.png', 'Im_PatrickDempsey.png', 'Im_RobertPattinson.png', 'Im_RyanGosling.png', 'Im_BenStiller.png', 'Im_LeonardoDiCaprio.png'],diff,1,0.40005169999994905,15,71.42857142857143,
PHTA2206,train,pos,150,pos150_id6_im19.bmp_pos150_id20_im3.bmp,['Im_DanielRadcliffe.png', 'Im_KeanuReeves.png', 'Im_GeorgeClooney.png', 'Im_JustinTimberlake.png', 'Im_ElijahWood.png', 'Im_PatrickDempsey.png', 'Im_RobertPattinson.png', 'Im_RyanGosling.png', 'Im_BenStiller.png', 'Im_LeonardoDiCaprio.png'],diff,1,0.40839980000009746,16,71.42857142857143,
PHTA2206,train,pos,0,pos0_id19_im4.bmp_pos0_id7_im26.bmp,['Im_DanielRadcliffe.png', 'Im_KeanuReeves.png', 'Im_GeorgeClooney.png', 'Im_JustinTimberlake.png', 'Im_ElijahWood.png', 'Im_PatrickDempsey.png', 'Im_RobertPattinson.png', 'Im_RyanGosling.png', 'Im_BenStiller.png', 'Im_LeonardoDiCaprio.png'],diff,1,0.41673039999977846,17,71.42857142857143,
PHTA2206,train,pos,30,pos30_id19_im4.bmp_pos30_id7_im15.bmp,['Im_DanielRadcliffe.png', 'Im_KeanuReeves.png', 'Im_GeorgeClooney.png', 'Im_JustinTimberlake.png', 'Im_ElijahWood.png', 'Im_PatrickDempsey.png', 'Im_RobertPattinson.png', 'Im_RyanGosling.png', 'Im_BenStiller.png', 'Im_LeonardoDiCaprio.png'],diff,1,0.4083842000000004,18,71.42857142857143,
PHTA2206,train,pos,0,pos0_id6_im12.bmp_pos0_id6_im19.bmp,['Im_DanielRadcliffe.png', 'Im_KeanuReeves.png', 'Im_GeorgeClooney.png', 'Im_JustinTimberlake.png', 'Im_ElijahWood.png', 'Im_PatrickDempsey.png', 'Im_RobertPattinson.png', 'Im_RyanGosling.png', 'Im_BenStiller.png', 'Im_LeonardoDiCaprio.png'],same,1,0.40011900000035894,19,71.42857142857143,
PHTA2206,train,pos,90,pos90_id6_im19.bmp_pos90_id20_im3.bmp,['Im_DanielRadcliffe.png', 'Im_KeanuReeves.png', 'Im_GeorgeClooney.png', 'Im_JustinTimberlake.png', 'Im_ElijahWood.png', 'Im_PatrickDempsey.png', 'Im_RobertPattinson.png', 'Im_RyanGosling.png', 'Im_BenStiller.png', 'Im_LeonardoDiCaprio.png'],diff,1,0.4084266999998363,20,71.42857142857143,
PHTA2206,train,pos,90,pos90_id6_im18.bmp_pos90_id13_im15.bmp,['Im_DanielRadcliffe.png', 'Im_KeanuReeves.png', 'Im_GeorgeClooney.png', 'Im_JustinTimberlake.png', 'Im_ElijahWood.png', 'Im_PatrickDempsey.png', 'Im_RobertPattinson.png', 'Im_RyanGosling.png', 'Im_BenStiller.png', 'Im_LeonardoDiCaprio.png'],diff,1,0.3999862000000576,21,71.42857142857143,
PHTA2206,train,pos,60,pos60_id19_im4.bmp_pos60_id7_im26.bmp,['Im_DanielRadcliffe.png', 'Im_KeanuReeves.png', 'Im_GeorgeClooney.png', 'Im_JustinTimberlake.png', 'Im_ElijahWood.png', 'Im_PatrickDempsey.png', 'Im_RobertPattinson.png', 'Im_RyanGosling.png', 'Im_BenStiller.png', 'Im_LeonardoDiCaprio.png'],diff,1,0.4167467000002034,22,71.42857142857143,
PHTA2206,train,inv,30,pos30_id7_im26.bmp_pos30_id7_im15.bmp,['Im_DanielRadcliffe.png', 'Im_KeanuReeves.png', 'Im_GeorgeClooney.png', 'Im_JustinTimberlake.png', 'Im_ElijahWood.png', 'Im_PatrickDempsey.png', 'Im_RobertPattinson.png', 'Im_RyanGosling.png', 'Im_BenStiller.png', 'Im_LeonardoDiCaprio.png'],same,1,0.40831930000013017,23,71.42857142857143,
PHTA2206,train,inv,60,pos60_id7_im15.bmp_pos60_id20_im12.bmp,['Im_DanielRadcliffe.png', 'Im_KeanuReeves.png', 'Im_GeorgeClooney.png', 'Im_JustinTimberlake.png', 'Im_ElijahWood.png', 'Im_PatrickDempsey.png', 'Im_RobertPattinson.png', 'Im_RyanGosling.png', 'Im_BenStiller.png', 'Im_LeonardoDiCaprio.png'],diff,1,0.4167160000001786,24,71.42857142857143,
PHTA2206,train,inv,30,pos30_id17_im8.bmp_pos30_id17_im9.bmp,['Im_DanielRadcliffe.png', 'Im_KeanuReeves.png', 'Im_GeorgeClooney.png', 'Im_JustinTimberlake.png', 'Im_ElijahWood.png', 'Im_PatrickDempsey.png', 'Im_RobertPattinson.png', 'Im_RyanGosling.png', 'Im_BenStiller.png', 'Im_LeonardoDiCaprio.png'],diff,0,0.40828389999978754,24,71.42857142857143,
PHTA2206,train,inv,90,pos90_id7_im26.bmp_pos90_id7_im14.bmp,['Im_DanielRadcliffe.png', 'Im_KeanuReeves.png', 'Im_GeorgeClooney.png', 'Im_JustinTimberlake.png', 'Im_ElijahWood.png', 'Im_PatrickDempsey.png', 'Im_RobertPattinson.png', 'Im_RyanGosling.png', 'Im_BenStiller.png', 'Im_LeonardoDiCaprio.png'],diff,0,0.4167539999998553,24,71.42857142857143,
PHTA2206,train,inv,150,pos150_id11_im10.bmp_pos150_id11_im1.bmp,['Im_DanielRadcliffe.png', 'Im_KeanuReeves.png', 'Im_GeorgeClooney.png', 'Im_JustinTimberlake.png', 'Im_ElijahWood.png', 'Im_PatrickDempsey.png', 'Im_RobertPattinson.png', 'Im_RyanGosling.png', 'Im_BenStiller.png', 'Im_LeonardoDiCaprio.png'],same,1,0.40839710000000196,25,71.42857142857143,
PHTA2206,train,inv,120,pos120_id17_im14.bmp_pos120_id17_im8.bmp,['Im_DanielRadcliffe.png', 'Im_KeanuReeves.png', 'Im_GeorgeClooney.png', 'Im_JustinTimberlake.png', 'Im_ElijahWood.png', 'Im_PatrickDempsey.png', 'Im_RobertPattinson.png', 'Im_RyanGosling.png', 'Im_BenStiller.png', 'Im_LeonardoDiCaprio.png'],same,1,0.40843109999968874,26,71.42857142857143,
PHTA2206,train,inv,0,pos0_id13_im10.bmp_pos0_id13_im29.bmp,['Im_DanielRadcliffe.png', 'Im_KeanuReeves.png', 'Im_GeorgeClooney.png', 'Im_JustinTimberlake.png', 'Im_ElijahWood.png', 'Im_PatrickDempsey.png', 'Im_RobertPattinson.png', 'Im_RyanGosling.png', 'Im_BenStiller.png', 'Im_LeonardoDiCaprio.png'],diff,0,0.41670079999994414,26,71.42857142857143,
PHTA2206,train,inv,fs,posfs_id2_im3.bmp_posfs_id2_im2.bmp,['Im_DanielRadcliffe.png', 'Im_KeanuReeves.png', 'Im_GeorgeClooney.png', 'Im_JustinTimberlake.png', 'Im_ElijahWood.png', 'Im_PatrickDempsey.png', 'Im_RobertPattinson.png', 'Im_RyanGosling.png', 'Im_BenStiller.png', 'Im_LeonardoDiCaprio.png'],diff,0,0.4165325999997549,26,71.42857142857143,
PHTA2206,train,inv,90,pos90_id13_im15.bmp_pos90_id6_im18.bmp,['Im_DanielRadcliffe.png', 'Im_KeanuReeves.png', 'Im_GeorgeClooney.png', 'Im_JustinTimberlake.png', 'Im_ElijahWood.png', 'Im_PatrickDempsey.png', 'Im_RobertPattinson.png', 'Im_RyanGosling.png', 'Im_BenStiller.png', 'Im_LeonardoDiCaprio.png'],diff,1,0.4166807000001427,27,71.42857142857143,
PHTA2206,train,inv,150,pos150_id17_im8.bmp_pos150_id17_im14.bmp,['Im_DanielRadcliffe.png', 'Im_KeanuReeves.png', 'Im_GeorgeClooney.png', 'Im_JustinTimberlake.png', 'Im_ElijahWood.png', 'Im_PatrickDempsey.png', 'Im_RobertPattinson.png', 'Im_RyanGosling.png', 'Im_BenStiller.png', 'Im_LeonardoDiCaprio.png'],same,1,0.41671999999971376,28,71.42857142857143,
PHTA2206,train,inv,0,pos0_id11_im2.bmp_pos0_id11_im1.bmp,['Im_DanielRadcliffe.png', 'Im_KeanuReeves.png', 'Im_GeorgeClooney.png', 'Im_JustinTimberlake.png', 'Im_ElijahWood.png', 'Im_PatrickDempsey.png', 'Im_RobertPattinson.png', 'Im_RyanGosling.png', 'Im_BenStiller.png', 'Im_LeonardoDiCaprio.png'],diff,0,0.4083784999997988,28,71.42857142857143,
PHTA2206,train,inv,60,pos60_id10_im17.bmp_pos60_id10_im1.bmp,['Im_DanielRadcliffe.png', 'Im_KeanuReeves.png', 'Im_GeorgeClooney.png', 'Im_JustinTimberlake.png', 'Im_ElijahWood.png', 'Im_PatrickDempsey.png', 'Im_RobertPattinson.png', 'Im_RyanGosling.png', 'Im_BenStiller.png', 'Im_LeonardoDiCaprio.png'],same,1,0.4167005999997855,29,71.42857142857143,
PHTA2206,train,inv,fs,posfs_id19_im4.bmp_posfs_id7_im26.bmp,['Im_DanielRadcliffe.png', 'Im_KeanuReeves.png', 'Im_GeorgeClooney.png', 'Im_JustinTimberlake.png', 'Im_ElijahWood.png', 'Im_PatrickDempsey.png', 'Im_RobertPattinson.png', 'Im_RyanGosling.png', 'Im_BenStiller.png', 'Im_LeonardoDiCaprio.png'],diff,1,0.4167775000000802,30,71.42857142857143,
PHTA2206,train,inv,120,pos120_id20_im12.bmp_pos120_id13_im10.bmp,['Im_DanielRadcliffe.png', 'Im_KeanuReeves.png', 'Im_GeorgeClooney.png', 'Im_JustinTimberlake.png', 'Im_ElijahWood.png', 'Im_PatrickDempsey.png', 'Im_RobertPattinson.png', 'Im_RyanGosling.png', 'Im_BenStiller.png', 'Im_LeonardoDiCaprio.png'],diff,1,0.40843130000030214,31,71.42857142857143,
PHTA2206,train,inv,fs,posfs_id17_im8.bmp_posfs_id17_im9.bmp,['Im_DanielRadcliffe.png', 'Im_KeanuReeves.png', 'Im_GeorgeClooney.png', 'Im_JustinTimberlake.png', 'Im_ElijahWood.png', 'Im_PatrickDempsey.png', 'Im_RobertPattinson.png', 'Im_RyanGosling.png', 'Im_BenStiller.png', 'Im_LeonardoDiCaprio.png'],diff,0,0.41671439999981885,0,73.80952380952381,
PHTA2206,train,inv,0,pos0_id20_im3.bmp_pos0_id6_im19.bmp,['Im_DanielRadcliffe.png', 'Im_KeanuReeves.png', 'Im_GeorgeClooney.png', 'Im_JustinTimberlake.png', 'Im_ElijahWood.png', 'Im_PatrickDempsey.png', 'Im_RobertPattinson.png', 'Im_RyanGosling.png', 'Im_BenStiller.png', 'Im_LeonardoDiCaprio.png'],diff,1,0.41648720000011963,1,73.80952380952381,
PHTA2206,train,inv,150,pos150_id6_im19.bmp_pos150_id13_im10.bmp,['Im_DanielRadcliffe.png', 'Im_KeanuReeves.png', 'Im_GeorgeClooney.png', 'Im_JustinTimberlake.png', 'Im_ElijahWood.png', 'Im_PatrickDempsey.png', 'Im_RobertPattinson.png', 'Im_RyanGosling.png', 'Im_BenStiller.png', 'Im_LeonardoDiCaprio.png'],same,0,0.4083009000000857,1,73.80952380952381,
PHTA2206,train,inv,90,pos90_id6_im19.bmp_pos90_id6_im12.bmp,['Im_DanielRadcliffe.png', 'Im_KeanuReeves.png', 'Im_GeorgeClooney.png', 'Im_JustinTimberlake.png', 'Im_ElijahWood.png', 'Im_PatrickDempsey.png', 'Im_RobertPattinson.png', 'Im_RyanGosling.png', 'Im_BenStiller.png', 'Im_LeonardoDiCaprio.png'],diff,0,0.4165643999999702,1,73.80952380952381,
PHTA2206,train,inv,60,pos60_id5_im10.bmp_pos60_id20_im30.bmp,['Im_DanielRadcliffe.png', 'Im_KeanuReeves.png', 'Im_GeorgeClooney.png', 'Im_JustinTimberlake.png', 'Im_ElijahWood.png', 'Im_PatrickDempsey.png', 'Im_RobertPattinson.png', 'Im_RyanGosling.png', 'Im_BenStiller.png', 'Im_LeonardoDiCaprio.png'],diff,1,0.4081630000000587,2,73.80952380952381,
