Sujet,Trial,Condition,Filter,Imname,Actor0,Actor1,Actor2,Actor3,Actor4,Actor5,Actor6,Actor7,Actor8,Actor9,Answer,Accu,RT,Score,Scoreperc, 
PIFR3008,train,pos,60,pos60_id13_im29.bmp_pos60_id13_im15.bmp,['Im_LeonardoDiCaprio.png', 'Im_RyanGosling.png', 'Im_BenStiller.png', 'Im_JustinTimberlake.png', 'Im_DanielCraig.png', 'Im_MattDamon.png', 'Im_GeorgeClooney.png', 'Im_BenAffleck.png', 'Im_BradPitt.png', 'Im_HughJackman.png'],same,1,0.416687599999932,1,0,
PIFR3008,train,pos,90,pos90_id14_im24.bmp_pos90_id20_im30.bmp,['Im_LeonardoDiCaprio.png', 'Im_RyanGosling.png', 'Im_BenStiller.png', 'Im_JustinTimberlake.png', 'Im_DanielCraig.png', 'Im_MattDamon.png', 'Im_GeorgeClooney.png', 'Im_BenAffleck.png', 'Im_BradPitt.png', 'Im_HughJackman.png'],diff,1,0.4250725000001694,2,0,
PIFR3008,train,pos,120,pos120_id14_im18.bmp_pos120_id7_im15.bmp,['Im_LeonardoDiCaprio.png', 'Im_RyanGosling.png', 'Im_BenStiller.png', 'Im_JustinTimberlake.png', 'Im_DanielCraig.png', 'Im_MattDamon.png', 'Im_GeorgeClooney.png', 'Im_BenAffleck.png', 'Im_BradPitt.png', 'Im_HughJackman.png'],diff,1,0.40821059999962017,3,0,
PIFR3008,train,pos,90,pos90_id4_im7.bmp_pos90_id4_im15.bmp,['Im_LeonardoDiCaprio.png', 'Im_RyanGosling.png', 'Im_BenStiller.png', 'Im_JustinTimberlake.png', 'Im_DanielCraig.png', 'Im_MattDamon.png', 'Im_GeorgeClooney.png', 'Im_BenAffleck.png', 'Im_BradPitt.png', 'Im_HughJackman.png'],same,1,0.4251117999992857,4,0,
PIFR3008,train,pos,30,pos30_id2_im3.bmp_pos30_id2_im16.bmp,['Im_LeonardoDiCaprio.png', 'Im_RyanGosling.png', 'Im_BenStiller.png', 'Im_JustinTimberlake.png', 'Im_DanielCraig.png', 'Im_MattDamon.png', 'Im_GeorgeClooney.png', 'Im_BenAffleck.png', 'Im_BradPitt.png', 'Im_HughJackman.png'],same,1,0.4083842999998524,5,0,
PIFR3008,train,pos,0,pos0_id14_im16.bmp_pos0_id2_im16.bmp,['Im_LeonardoDiCaprio.png', 'Im_RyanGosling.png', 'Im_BenStiller.png', 'Im_JustinTimberlake.png', 'Im_DanielCraig.png', 'Im_MattDamon.png', 'Im_GeorgeClooney.png', 'Im_BenAffleck.png', 'Im_BradPitt.png', 'Im_HughJackman.png'],diff,1,0.41671729999961826,6,0,
PIFR3008,train,pos,fs,posfs_id14_im24.bmp_posfs_id14_im18.bmp,['Im_LeonardoDiCaprio.png', 'Im_RyanGosling.png', 'Im_BenStiller.png', 'Im_JustinTimberlake.png', 'Im_DanielCraig.png', 'Im_MattDamon.png', 'Im_GeorgeClooney.png', 'Im_BenAffleck.png', 'Im_BradPitt.png', 'Im_HughJackman.png'],same,1,0.425116600000365,7,0,
PIFR3008,train,pos,fs,posfs_id20_im30.bmp_posfs_id14_im24.bmp,['Im_LeonardoDiCaprio.png', 'Im_RyanGosling.png', 'Im_BenStiller.png', 'Im_JustinTimberlake.png', 'Im_DanielCraig.png', 'Im_MattDamon.png', 'Im_GeorgeClooney.png', 'Im_BenAffleck.png', 'Im_BradPitt.png', 'Im_HughJackman.png'],diff,1,0.42504079999980604,8,0,
PIFR3008,train,pos,150,pos150_id2_im2.bmp_pos150_id7_im15.bmp,['Im_LeonardoDiCaprio.png', 'Im_RyanGosling.png', 'Im_BenStiller.png', 'Im_JustinTimberlake.png', 'Im_DanielCraig.png', 'Im_MattDamon.png', 'Im_GeorgeClooney.png', 'Im_BenAffleck.png', 'Im_BradPitt.png', 'Im_HughJackman.png'],diff,1,0.4167250000000422,9,0,
PIFR3008,train,pos,150,pos150_id2_im3.bmp_pos150_id2_im2.bmp,['Im_LeonardoDiCaprio.png', 'Im_RyanGosling.png', 'Im_BenStiller.png', 'Im_JustinTimberlake.png', 'Im_DanielCraig.png', 'Im_MattDamon.png', 'Im_GeorgeClooney.png', 'Im_BenAffleck.png', 'Im_BradPitt.png', 'Im_HughJackman.png'],same,1,0.4084467000002405,10,0,
PIFR3008,train,pos,60,pos60_id7_im26.bmp_pos60_id7_im15.bmp,['Im_LeonardoDiCaprio.png', 'Im_RyanGosling.png', 'Im_BenStiller.png', 'Im_JustinTimberlake.png', 'Im_DanielCraig.png', 'Im_MattDamon.png', 'Im_GeorgeClooney.png', 'Im_BenAffleck.png', 'Im_BradPitt.png', 'Im_HughJackman.png'],same,1,0.40837050000027375,11,0,
PIFR3008,train,pos,120,pos120_id1_im24.bmp_pos120_id1_im4.bmp,['Im_LeonardoDiCaprio.png', 'Im_RyanGosling.png', 'Im_BenStiller.png', 'Im_JustinTimberlake.png', 'Im_DanielCraig.png', 'Im_MattDamon.png', 'Im_GeorgeClooney.png', 'Im_BenAffleck.png', 'Im_BradPitt.png', 'Im_HughJackman.png'],same,1,0.46699639999951614,12,0,
PIFR3008,train,pos,30,pos30_id1_im24.bmp_pos30_id10_im17.bmp,['Im_LeonardoDiCaprio.png', 'Im_RyanGosling.png', 'Im_BenStiller.png', 'Im_JustinTimberlake.png', 'Im_DanielCraig.png', 'Im_MattDamon.png', 'Im_GeorgeClooney.png', 'Im_BenAffleck.png', 'Im_BradPitt.png', 'Im_HughJackman.png'],diff,1,0.4167293000000427,13,0,
PIFR3008,train,pos,0,pos0_id3_im8.bmp_pos0_id3_im6.bmp,['Im_LeonardoDiCaprio.png', 'Im_RyanGosling.png', 'Im_BenStiller.png', 'Im_JustinTimberlake.png', 'Im_DanielCraig.png', 'Im_MattDamon.png', 'Im_GeorgeClooney.png', 'Im_BenAffleck.png', 'Im_BradPitt.png', 'Im_HughJackman.png'],same,1,0.40833500000007916,14,0,
PIFR3008,train,pos,fs,posfs_id1_im24.bmp_posfs_id1_im4.bmp,['Im_LeonardoDiCaprio.png', 'Im_RyanGosling.png', 'Im_BenStiller.png', 'Im_JustinTimberlake.png', 'Im_DanielCraig.png', 'Im_MattDamon.png', 'Im_GeorgeClooney.png', 'Im_BenAffleck.png', 'Im_BradPitt.png', 'Im_HughJackman.png'],same,1,0.4083772999993016,15,0,
PIFR3008,train,pos,120,pos120_id13_im10.bmp_pos120_id20_im30.bmp,['Im_LeonardoDiCaprio.png', 'Im_RyanGosling.png', 'Im_BenStiller.png', 'Im_JustinTimberlake.png', 'Im_DanielCraig.png', 'Im_MattDamon.png', 'Im_GeorgeClooney.png', 'Im_BenAffleck.png', 'Im_BradPitt.png', 'Im_HughJackman.png'],diff,1,0.4250394000000597,16,0,
PIFR3008,train,pos,60,pos60_id4_im7.bmp_pos60_id4_im15.bmp,['Im_LeonardoDiCaprio.png', 'Im_RyanGosling.png', 'Im_BenStiller.png', 'Im_JustinTimberlake.png', 'Im_DanielCraig.png', 'Im_MattDamon.png', 'Im_GeorgeClooney.png', 'Im_BenAffleck.png', 'Im_BradPitt.png', 'Im_HughJackman.png'],same,1,0.4167369000006147,17,0,
PIFR3008,train,pos,30,pos30_id8_im21.bmp_pos30_id3_im8.bmp,['Im_LeonardoDiCaprio.png', 'Im_RyanGosling.png', 'Im_BenStiller.png', 'Im_JustinTimberlake.png', 'Im_DanielCraig.png', 'Im_MattDamon.png', 'Im_GeorgeClooney.png', 'Im_BenAffleck.png', 'Im_BradPitt.png', 'Im_HughJackman.png'],diff,1,0.4250211999997191,18,0,
PIFR3008,train,pos,60,pos60_id1_im24.bmp_pos60_id4_im7.bmp,['Im_LeonardoDiCaprio.png', 'Im_RyanGosling.png', 'Im_BenStiller.png', 'Im_JustinTimberlake.png', 'Im_DanielCraig.png', 'Im_MattDamon.png', 'Im_GeorgeClooney.png', 'Im_BenAffleck.png', 'Im_BradPitt.png', 'Im_HughJackman.png'],diff,1,0.4083823000000848,19,0,
PIFR3008,train,pos,0,pos0_id13_im10.bmp_pos0_id13_im29.bmp,['Im_LeonardoDiCaprio.png', 'Im_RyanGosling.png', 'Im_BenStiller.png', 'Im_JustinTimberlake.png', 'Im_DanielCraig.png', 'Im_MattDamon.png', 'Im_GeorgeClooney.png', 'Im_BenAffleck.png', 'Im_BradPitt.png', 'Im_HughJackman.png'],diff,0,0.6252221000004283,19,0,
PIFR3008,train,pos,90,pos90_id3_im17.bmp_pos90_id13_im29.bmp,['Im_LeonardoDiCaprio.png', 'Im_RyanGosling.png', 'Im_BenStiller.png', 'Im_JustinTimberlake.png', 'Im_DanielCraig.png', 'Im_MattDamon.png', 'Im_GeorgeClooney.png', 'Im_BenAffleck.png', 'Im_BradPitt.png', 'Im_HughJackman.png'],same,0,0.766847300000336,19,0,
PIFR3008,train,pos,150,pos150_id4_im15.bmp_pos150_id20_im12.bmp,['Im_LeonardoDiCaprio.png', 'Im_RyanGosling.png', 'Im_BenStiller.png', 'Im_JustinTimberlake.png', 'Im_DanielCraig.png', 'Im_MattDamon.png', 'Im_GeorgeClooney.png', 'Im_BenAffleck.png', 'Im_BradPitt.png', 'Im_HughJackman.png'],diff,1,0.43338049999965733,20,0,
PIFR3008,train,pos,150,pos150_id4_im20.bmp_pos150_id2_im3.bmp,['Im_LeonardoDiCaprio.png', 'Im_RyanGosling.png', 'Im_BenStiller.png', 'Im_JustinTimberlake.png', 'Im_DanielCraig.png', 'Im_MattDamon.png', 'Im_GeorgeClooney.png', 'Im_BenAffleck.png', 'Im_BradPitt.png', 'Im_HughJackman.png'],diff,1,0.4083709999995335,21,0,
PIFR3008,train,pos,90,pos90_id1_im24.bmp_pos90_id4_im7.bmp,['Im_LeonardoDiCaprio.png', 'Im_RyanGosling.png', 'Im_BenStiller.png', 'Im_JustinTimberlake.png', 'Im_DanielCraig.png', 'Im_MattDamon.png', 'Im_GeorgeClooney.png', 'Im_BenAffleck.png', 'Im_BradPitt.png', 'Im_HughJackman.png'],diff,1,0.40841529999943305,22,0,
PIFR3008,train,pos,30,pos30_id8_im13.bmp_pos30_id8_im21.bmp,['Im_LeonardoDiCaprio.png', 'Im_RyanGosling.png', 'Im_BenStiller.png', 'Im_JustinTimberlake.png', 'Im_DanielCraig.png', 'Im_MattDamon.png', 'Im_GeorgeClooney.png', 'Im_BenAffleck.png', 'Im_BradPitt.png', 'Im_HughJackman.png'],same,1,0.41656960000000254,23,0,
PIFR3008,train,pos,120,pos120_id1_im24.bmp_pos120_id4_im7.bmp,['Im_LeonardoDiCaprio.png', 'Im_RyanGosling.png', 'Im_BenStiller.png', 'Im_JustinTimberlake.png', 'Im_DanielCraig.png', 'Im_MattDamon.png', 'Im_GeorgeClooney.png', 'Im_BenAffleck.png', 'Im_BradPitt.png', 'Im_HughJackman.png'],diff,1,0.40838979999989533,24,0,
PIFR3008,train,pos,0,pos0_id4_im15.bmp_pos0_id20_im12.bmp,['Im_LeonardoDiCaprio.png', 'Im_RyanGosling.png', 'Im_BenStiller.png', 'Im_JustinTimberlake.png', 'Im_DanielCraig.png', 'Im_MattDamon.png', 'Im_GeorgeClooney.png', 'Im_BenAffleck.png', 'Im_BradPitt.png', 'Im_HughJackman.png'],diff,1,0.43339800000012474,25,0,
PIFR3008,train,pos,fs,posfs_id7_im15.bmp_posfs_id2_im2.bmp,['Im_LeonardoDiCaprio.png', 'Im_RyanGosling.png', 'Im_BenStiller.png', 'Im_JustinTimberlake.png', 'Im_DanielCraig.png', 'Im_MattDamon.png', 'Im_GeorgeClooney.png', 'Im_BenAffleck.png', 'Im_BradPitt.png', 'Im_HughJackman.png'],diff,1,0.42505549999987124,26,0,
PIFR3008,train,neg,150,neg150_id4_im7.bmp_neg150_id1_im4.bmp,['Im_LeonardoDiCaprio.png', 'Im_RyanGosling.png', 'Im_BenStiller.png', 'Im_JustinTimberlake.png', 'Im_DanielCraig.png', 'Im_MattDamon.png', 'Im_GeorgeClooney.png', 'Im_BenAffleck.png', 'Im_BradPitt.png', 'Im_HughJackman.png'],diff,1,0.4250632000002952,27,0,
PIFR3008,train,neg,0,neg0_id4_im7.bmp_neg0_id4_im15.bmp,['Im_LeonardoDiCaprio.png', 'Im_RyanGosling.png', 'Im_BenStiller.png', 'Im_JustinTimberlake.png', 'Im_DanielCraig.png', 'Im_MattDamon.png', 'Im_GeorgeClooney.png', 'Im_BenAffleck.png', 'Im_BradPitt.png', 'Im_HughJackman.png'],same,1,0.44239139999990584,28,0,
PIFR3008,train,neg,0,neg0_id3_im6.bmp_neg0_id3_im17.bmp,['Im_LeonardoDiCaprio.png', 'Im_RyanGosling.png', 'Im_BenStiller.png', 'Im_JustinTimberlake.png', 'Im_DanielCraig.png', 'Im_MattDamon.png', 'Im_GeorgeClooney.png', 'Im_BenAffleck.png', 'Im_BradPitt.png', 'Im_HughJackman.png'],same,1,0.41679819999990286,29,0,
PIFR3008,train,neg,90,neg90_id2_im3.bmp_neg90_id2_im16.bmp,['Im_LeonardoDiCaprio.png', 'Im_RyanGosling.png', 'Im_BenStiller.png', 'Im_JustinTimberlake.png', 'Im_DanielCraig.png', 'Im_MattDamon.png', 'Im_GeorgeClooney.png', 'Im_BenAffleck.png', 'Im_BradPitt.png', 'Im_HughJackman.png'],diff,0,0.40843369999947754,29,0,
PIFR3008,train,neg,fs,negfs_id3_im8.bmp_negfs_id8_im21.bmp,['Im_LeonardoDiCaprio.png', 'Im_RyanGosling.png', 'Im_BenStiller.png', 'Im_JustinTimberlake.png', 'Im_DanielCraig.png', 'Im_MattDamon.png', 'Im_GeorgeClooney.png', 'Im_BenAffleck.png', 'Im_BradPitt.png', 'Im_HughJackman.png'],diff,1,0.4166856000001644,30,0,
PIFR3008,train,neg,30,neg30_id1_im21.bmp_neg30_id1_im4.bmp,['Im_LeonardoDiCaprio.png', 'Im_RyanGosling.png', 'Im_BenStiller.png', 'Im_JustinTimberlake.png', 'Im_DanielCraig.png', 'Im_MattDamon.png', 'Im_GeorgeClooney.png', 'Im_BenAffleck.png', 'Im_BradPitt.png', 'Im_HughJackman.png'],same,1,0.4083777000005284,31,0,
PIFR3008,train,neg,30,neg30_id10_im1.bmp_neg30_id3_im17.bmp,['Im_LeonardoDiCaprio.png', 'Im_RyanGosling.png', 'Im_BenStiller.png', 'Im_JustinTimberlake.png', 'Im_DanielCraig.png', 'Im_MattDamon.png', 'Im_GeorgeClooney.png', 'Im_BenAffleck.png', 'Im_BradPitt.png', 'Im_HughJackman.png'],diff,1,0.40836230000059004,32,0,
PIFR3008,train,neg,120,neg120_id4_im15.bmp_neg120_id7_im14.bmp,['Im_LeonardoDiCaprio.png', 'Im_RyanGosling.png', 'Im_BenStiller.png', 'Im_JustinTimberlake.png', 'Im_DanielCraig.png', 'Im_MattDamon.png', 'Im_GeorgeClooney.png', 'Im_BenAffleck.png', 'Im_BradPitt.png', 'Im_HughJackman.png'],diff,1,0.42520190000050206,33,0,
PIFR3008,train,neg,120,neg120_id3_im17.bmp_neg120_id13_im29.bmp,['Im_LeonardoDiCaprio.png', 'Im_RyanGosling.png', 'Im_BenStiller.png', 'Im_JustinTimberlake.png', 'Im_DanielCraig.png', 'Im_MattDamon.png', 'Im_GeorgeClooney.png', 'Im_BenAffleck.png', 'Im_BradPitt.png', 'Im_HughJackman.png'],diff,1,0.4750418000003265,34,0,
PIFR3008,train,neg,150,neg150_id14_im24.bmp_neg150_id8_im13.bmp,['Im_LeonardoDiCaprio.png', 'Im_RyanGosling.png', 'Im_BenStiller.png', 'Im_JustinTimberlake.png', 'Im_DanielCraig.png', 'Im_MattDamon.png', 'Im_GeorgeClooney.png', 'Im_BenAffleck.png', 'Im_BradPitt.png', 'Im_HughJackman.png'],diff,1,0.4165562999996837,35,0,
PIFR3008,train,neg,fs,negfs_id10_im1.bmp_negfs_id3_im17.bmp,['Im_LeonardoDiCaprio.png', 'Im_RyanGosling.png', 'Im_BenStiller.png', 'Im_JustinTimberlake.png', 'Im_DanielCraig.png', 'Im_MattDamon.png', 'Im_GeorgeClooney.png', 'Im_BenAffleck.png', 'Im_BradPitt.png', 'Im_HughJackman.png'],diff,1,0.5169120999998995,36,0,
PIFR3008,train,neg,90,neg90_id20_im3.bmp_neg90_id8_im20.bmp,['Im_LeonardoDiCaprio.png', 'Im_RyanGosling.png', 'Im_BenStiller.png', 'Im_JustinTimberlake.png', 'Im_DanielCraig.png', 'Im_MattDamon.png', 'Im_GeorgeClooney.png', 'Im_BenAffleck.png', 'Im_BradPitt.png', 'Im_HughJackman.png'],diff,1,0.7835574000000634,37,0,
PIFR3008,train,neg,60,neg60_id10_im17.bmp_neg60_id10_im1.bmp,['Im_LeonardoDiCaprio.png', 'Im_RyanGosling.png', 'Im_BenStiller.png', 'Im_JustinTimberlake.png', 'Im_DanielCraig.png', 'Im_MattDamon.png', 'Im_GeorgeClooney.png', 'Im_BenAffleck.png', 'Im_BradPitt.png', 'Im_HughJackman.png'],same,1,0.5252824999997756,38,0,
PIFR3008,train,neg,60,neg60_id1_im21.bmp_neg60_id1_im4.bmp,['Im_LeonardoDiCaprio.png', 'Im_RyanGosling.png', 'Im_BenStiller.png', 'Im_JustinTimberlake.png', 'Im_DanielCraig.png', 'Im_MattDamon.png', 'Im_GeorgeClooney.png', 'Im_BenAffleck.png', 'Im_BradPitt.png', 'Im_HughJackman.png'],same,1,0.40849270000035176,39,0,
PIFR3008,train,inv,120,pos120_id10_im17.bmp_pos120_id10_im1.bmp,['Im_LeonardoDiCaprio.png', 'Im_RyanGosling.png', 'Im_BenStiller.png', 'Im_JustinTimberlake.png', 'Im_DanielCraig.png', 'Im_MattDamon.png', 'Im_GeorgeClooney.png', 'Im_BenAffleck.png', 'Im_BradPitt.png', 'Im_HughJackman.png'],same,1,0.5253669000003356,1,92.85714285714286,
PIFR3008,train,inv,fs,posfs_id7_im26.bmp_posfs_id7_im15.bmp,['Im_LeonardoDiCaprio.png', 'Im_RyanGosling.png', 'Im_BenStiller.png', 'Im_JustinTimberlake.png', 'Im_DanielCraig.png', 'Im_MattDamon.png', 'Im_GeorgeClooney.png', 'Im_BenAffleck.png', 'Im_BradPitt.png', 'Im_HughJackman.png'],same,1,0.4334016000002521,2,92.85714285714286,
PIFR3008,train,inv,60,pos60_id1_im4.bmp_pos60_id1_im21.bmp,['Im_LeonardoDiCaprio.png', 'Im_RyanGosling.png', 'Im_BenStiller.png', 'Im_JustinTimberlake.png', 'Im_DanielCraig.png', 'Im_MattDamon.png', 'Im_GeorgeClooney.png', 'Im_BenAffleck.png', 'Im_BradPitt.png', 'Im_HughJackman.png'],same,1,0.5417734000002383,3,92.85714285714286,
PIFR3008,train,inv,fs,posfs_id20_im3.bmp_posfs_id20_im30.bmp,['Im_LeonardoDiCaprio.png', 'Im_RyanGosling.png', 'Im_BenStiller.png', 'Im_JustinTimberlake.png', 'Im_DanielCraig.png', 'Im_MattDamon.png', 'Im_GeorgeClooney.png', 'Im_BenAffleck.png', 'Im_BradPitt.png', 'Im_HughJackman.png'],same,1,0.4251844999998866,4,92.85714285714286,
PIFR3008,train,inv,90,pos90_id20_im30.bmp_pos90_id20_im12.bmp,['Im_LeonardoDiCaprio.png', 'Im_RyanGosling.png', 'Im_BenStiller.png', 'Im_JustinTimberlake.png', 'Im_DanielCraig.png', 'Im_MattDamon.png', 'Im_GeorgeClooney.png', 'Im_BenAffleck.png', 'Im_BradPitt.png', 'Im_HughJackman.png'],same,1,0.4166877999996359,5,92.85714285714286,
PIFR3008,train,inv,150,pos150_id4_im15.bmp_pos150_id4_im7.bmp,['Im_LeonardoDiCaprio.png', 'Im_RyanGosling.png', 'Im_BenStiller.png', 'Im_JustinTimberlake.png', 'Im_DanielCraig.png', 'Im_MattDamon.png', 'Im_GeorgeClooney.png', 'Im_BenAffleck.png', 'Im_BradPitt.png', 'Im_HughJackman.png'],same,1,0.4167256000000634,6,92.85714285714286,
PIFR3008,train,inv,60,pos60_id20_im3.bmp_pos60_id20_im30.bmp,['Im_LeonardoDiCaprio.png', 'Im_RyanGosling.png', 'Im_BenStiller.png', 'Im_JustinTimberlake.png', 'Im_DanielCraig.png', 'Im_MattDamon.png', 'Im_GeorgeClooney.png', 'Im_BenAffleck.png', 'Im_BradPitt.png', 'Im_HughJackman.png'],same,1,0.4250369999999748,7,92.85714285714286,
PIFR3008,train,inv,30,pos30_id1_im21.bmp_pos30_id1_im4.bmp,['Im_LeonardoDiCaprio.png', 'Im_RyanGosling.png', 'Im_BenStiller.png', 'Im_JustinTimberlake.png', 'Im_DanielCraig.png', 'Im_MattDamon.png', 'Im_GeorgeClooney.png', 'Im_BenAffleck.png', 'Im_BradPitt.png', 'Im_HughJackman.png'],same,1,0.40828270000019984,8,92.85714285714286,
PIFR3008,train,inv,150,pos150_id4_im7.bmp_pos150_id4_im20.bmp,['Im_LeonardoDiCaprio.png', 'Im_RyanGosling.png', 'Im_BenStiller.png', 'Im_JustinTimberlake.png', 'Im_DanielCraig.png', 'Im_MattDamon.png', 'Im_GeorgeClooney.png', 'Im_BenAffleck.png', 'Im_BradPitt.png', 'Im_HughJackman.png'],same,1,0.40840729999945324,9,92.85714285714286,
PIFR3008,train,inv,120,pos120_id10_im17.bmp_pos120_id1_im24.bmp,['Im_LeonardoDiCaprio.png', 'Im_RyanGosling.png', 'Im_BenStiller.png', 'Im_JustinTimberlake.png', 'Im_DanielCraig.png', 'Im_MattDamon.png', 'Im_GeorgeClooney.png', 'Im_BenAffleck.png', 'Im_BradPitt.png', 'Im_HughJackman.png'],same,0,0.408368899999914,9,92.85714285714286,
PIFR3008,train,inv,0,pos0_id20_im3.bmp_pos0_id8_im21.bmp,['Im_LeonardoDiCaprio.png', 'Im_RyanGosling.png', 'Im_BenStiller.png', 'Im_JustinTimberlake.png', 'Im_DanielCraig.png', 'Im_MattDamon.png', 'Im_GeorgeClooney.png', 'Im_BenAffleck.png', 'Im_BradPitt.png', 'Im_HughJackman.png'],diff,1,0.4166920999996364,10,92.85714285714286,
PIFR3008,train,inv,0,pos0_id14_im18.bmp_pos0_id14_im24.bmp,['Im_LeonardoDiCaprio.png', 'Im_RyanGosling.png', 'Im_BenStiller.png', 'Im_JustinTimberlake.png', 'Im_DanielCraig.png', 'Im_MattDamon.png', 'Im_GeorgeClooney.png', 'Im_BenAffleck.png', 'Im_BradPitt.png', 'Im_HughJackman.png'],same,1,0.43336829999952897,11,92.85714285714286,
PIFR3008,train,inv,30,pos30_id7_im15.bmp_pos30_id7_im14.bmp,['Im_LeonardoDiCaprio.png', 'Im_RyanGosling.png', 'Im_BenStiller.png', 'Im_JustinTimberlake.png', 'Im_DanielCraig.png', 'Im_MattDamon.png', 'Im_GeorgeClooney.png', 'Im_BenAffleck.png', 'Im_BradPitt.png', 'Im_HughJackman.png'],same,1,0.7751552999998239,12,92.85714285714286,
PIFR3008,train,inv,90,pos90_id3_im6.bmp_pos90_id10_im17.bmp,['Im_LeonardoDiCaprio.png', 'Im_RyanGosling.png', 'Im_BenStiller.png', 'Im_JustinTimberlake.png', 'Im_DanielCraig.png', 'Im_MattDamon.png', 'Im_GeorgeClooney.png', 'Im_BenAffleck.png', 'Im_BradPitt.png', 'Im_HughJackman.png'],diff,1,0.9082218000003195,13,92.85714285714286,
PIFR3008,train,inv,150,pos150_id7_im15.bmp_pos150_id14_im18.bmp,['Im_LeonardoDiCaprio.png', 'Im_RyanGosling.png', 'Im_BenStiller.png', 'Im_JustinTimberlake.png', 'Im_DanielCraig.png', 'Im_MattDamon.png', 'Im_GeorgeClooney.png', 'Im_BenAffleck.png', 'Im_BradPitt.png', 'Im_HughJackman.png'],diff,1,0.41681940000034956,14,92.85714285714286,
PIFR3008,train,inv,fs,posfs_id3_im8.bmp_posfs_id3_im6.bmp,['Im_LeonardoDiCaprio.png', 'Im_RyanGosling.png', 'Im_BenStiller.png', 'Im_JustinTimberlake.png', 'Im_DanielCraig.png', 'Im_MattDamon.png', 'Im_GeorgeClooney.png', 'Im_BenAffleck.png', 'Im_BradPitt.png', 'Im_HughJackman.png'],same,1,1.025052500000129,15,92.85714285714286,
PIFR3008,train,inv,0,pos0_id13_im10.bmp_pos0_id13_im29.bmp,['Im_LeonardoDiCaprio.png', 'Im_RyanGosling.png', 'Im_BenStiller.png', 'Im_JustinTimberlake.png', 'Im_DanielCraig.png', 'Im_MattDamon.png', 'Im_GeorgeClooney.png', 'Im_BenAffleck.png', 'Im_BradPitt.png', 'Im_HughJackman.png'],same,1,0.4082235000005312,16,92.85714285714286,
PIFR3008,train,inv,90,pos90_id2_im2.bmp_pos90_id7_im26.bmp,['Im_LeonardoDiCaprio.png', 'Im_RyanGosling.png', 'Im_BenStiller.png', 'Im_JustinTimberlake.png', 'Im_DanielCraig.png', 'Im_MattDamon.png', 'Im_GeorgeClooney.png', 'Im_BenAffleck.png', 'Im_BradPitt.png', 'Im_HughJackman.png'],diff,1,0.408386199999768,17,92.85714285714286,
PIFR3008,train,inv,60,pos60_id4_im20.bmp_pos60_id4_im15.bmp,['Im_LeonardoDiCaprio.png', 'Im_RyanGosling.png', 'Im_BenStiller.png', 'Im_JustinTimberlake.png', 'Im_DanielCraig.png', 'Im_MattDamon.png', 'Im_GeorgeClooney.png', 'Im_BenAffleck.png', 'Im_BradPitt.png', 'Im_HughJackman.png'],diff,0,0.4917404000007082,17,92.85714285714286,
PIFR3008,train,inv,120,pos120_id7_im26.bmp_pos120_id2_im2.bmp,['Im_LeonardoDiCaprio.png', 'Im_RyanGosling.png', 'Im_BenStiller.png', 'Im_JustinTimberlake.png', 'Im_DanielCraig.png', 'Im_MattDamon.png', 'Im_GeorgeClooney.png', 'Im_BenAffleck.png', 'Im_BradPitt.png', 'Im_HughJackman.png'],diff,1,0.4249479000000065,18,92.85714285714286,
PIFR3008,train,inv,150,pos150_id20_im12.bmp_pos150_id20_im3.bmp,['Im_LeonardoDiCaprio.png', 'Im_RyanGosling.png', 'Im_BenStiller.png', 'Im_JustinTimberlake.png', 'Im_DanielCraig.png', 'Im_MattDamon.png', 'Im_GeorgeClooney.png', 'Im_BenAffleck.png', 'Im_BradPitt.png', 'Im_HughJackman.png'],same,1,1.449908100000357,19,92.85714285714286,
PIFR3008,train,inv,90,pos90_id13_im29.bmp_pos90_id13_im15.bmp,['Im_LeonardoDiCaprio.png', 'Im_RyanGosling.png', 'Im_BenStiller.png', 'Im_JustinTimberlake.png', 'Im_DanielCraig.png', 'Im_MattDamon.png', 'Im_GeorgeClooney.png', 'Im_BenAffleck.png', 'Im_BradPitt.png', 'Im_HughJackman.png'],diff,0,0.725294799999574,19,92.85714285714286,
PIFR3008,train,inv,30,pos30_id7_im26.bmp_pos30_id2_im2.bmp,['Im_LeonardoDiCaprio.png', 'Im_RyanGosling.png', 'Im_BenStiller.png', 'Im_JustinTimberlake.png', 'Im_DanielCraig.png', 'Im_MattDamon.png', 'Im_GeorgeClooney.png', 'Im_BenAffleck.png', 'Im_BradPitt.png', 'Im_HughJackman.png'],diff,1,0.42505049999999756,20,92.85714285714286,
PIFR3008,train,inv,120,pos120_id20_im3.bmp_pos120_id20_im12.bmp,['Im_LeonardoDiCaprio.png', 'Im_RyanGosling.png', 'Im_BenStiller.png', 'Im_JustinTimberlake.png', 'Im_DanielCraig.png', 'Im_MattDamon.png', 'Im_GeorgeClooney.png', 'Im_BenAffleck.png', 'Im_BradPitt.png', 'Im_HughJackman.png'],same,1,0.4248443000005864,21,92.85714285714286,
PIFR3008,train,inv,fs,posfs_id8_im21.bmp_posfs_id8_im13.bmp,['Im_LeonardoDiCaprio.png', 'Im_RyanGosling.png', 'Im_BenStiller.png', 'Im_JustinTimberlake.png', 'Im_DanielCraig.png', 'Im_MattDamon.png', 'Im_GeorgeClooney.png', 'Im_BenAffleck.png', 'Im_BradPitt.png', 'Im_HughJackman.png'],same,1,0.42502799999965646,22,92.85714285714286,
PIFR3008,train,inv,30,pos30_id3_im8.bmp_pos30_id3_im6.bmp,['Im_LeonardoDiCaprio.png', 'Im_RyanGosling.png', 'Im_BenStiller.png', 'Im_JustinTimberlake.png', 'Im_DanielCraig.png', 'Im_MattDamon.png', 'Im_GeorgeClooney.png', 'Im_BenAffleck.png', 'Im_BradPitt.png', 'Im_HughJackman.png'],same,1,0.42505459999938466,23,92.85714285714286,
PIFR3008,train,inv,0,pos0_id20_im12.bmp_pos0_id4_im15.bmp,['Im_LeonardoDiCaprio.png', 'Im_RyanGosling.png', 'Im_BenStiller.png', 'Im_JustinTimberlake.png', 'Im_DanielCraig.png', 'Im_MattDamon.png', 'Im_GeorgeClooney.png', 'Im_BenAffleck.png', 'Im_BradPitt.png', 'Im_HughJackman.png'],diff,1,0.5251040000002831,24,92.85714285714286,
PIFR3008,train,inv,60,pos60_id8_im20.bmp_pos60_id8_im13.bmp,['Im_LeonardoDiCaprio.png', 'Im_RyanGosling.png', 'Im_BenStiller.png', 'Im_JustinTimberlake.png', 'Im_DanielCraig.png', 'Im_MattDamon.png', 'Im_GeorgeClooney.png', 'Im_BenAffleck.png', 'Im_BradPitt.png', 'Im_HughJackman.png'],same,1,0.42518510000081733,25,92.85714285714286,
PIFR3008,train,pos,fs,posfs_id1_im24.bmp_posfs_id4_im7.bmp,['Im_LeonardoDiCaprio.png', 'Im_RyanGosling.png', 'Im_BenStiller.png', 'Im_JustinTimberlake.png', 'Im_DanielCraig.png', 'Im_MattDamon.png', 'Im_GeorgeClooney.png', 'Im_BenAffleck.png', 'Im_BradPitt.png', 'Im_HughJackman.png'],diff,1,0.4250716000005923,26,92.85714285714286,
PIFR3008,train,pos,120,pos120_id13_im29.bmp_pos120_id10_im18.bmp,['Im_LeonardoDiCaprio.png', 'Im_RyanGosling.png', 'Im_BenStiller.png', 'Im_JustinTimberlake.png', 'Im_DanielCraig.png', 'Im_MattDamon.png', 'Im_GeorgeClooney.png', 'Im_BenAffleck.png', 'Im_BradPitt.png', 'Im_HughJackman.png'],diff,1,0.5167312000003221,27,92.85714285714286,
PIFR3008,train,pos,90,pos90_id7_im15.bmp_pos90_id2_im2.bmp,['Im_LeonardoDiCaprio.png', 'Im_RyanGosling.png', 'Im_BenStiller.png', 'Im_JustinTimberlake.png', 'Im_DanielCraig.png', 'Im_MattDamon.png', 'Im_GeorgeClooney.png', 'Im_BenAffleck.png', 'Im_BradPitt.png', 'Im_HughJackman.png'],diff,1,0.42505029999938415,28,92.85714285714286,
PIFR3008,train,pos,0,pos0_id20_im12.bmp_pos0_id20_im30.bmp,['Im_LeonardoDiCaprio.png', 'Im_RyanGosling.png', 'Im_BenStiller.png', 'Im_JustinTimberlake.png', 'Im_DanielCraig.png', 'Im_MattDamon.png', 'Im_GeorgeClooney.png', 'Im_BenAffleck.png', 'Im_BradPitt.png', 'Im_HughJackman.png'],same,1,0.44192689999999857,29,92.85714285714286,
PIFR3008,train,pos,60,pos60_id14_im16.bmp_pos60_id14_im18.bmp,['Im_LeonardoDiCaprio.png', 'Im_RyanGosling.png', 'Im_BenStiller.png', 'Im_JustinTimberlake.png', 'Im_DanielCraig.png', 'Im_MattDamon.png', 'Im_GeorgeClooney.png', 'Im_BenAffleck.png', 'Im_BradPitt.png', 'Im_HughJackman.png'],same,1,0.4167823000007047,30,92.85714285714286,
PIFR3008,train,pos,150,pos150_id7_im14.bmp_pos150_id4_im15.bmp,['Im_LeonardoDiCaprio.png', 'Im_RyanGosling.png', 'Im_BenStiller.png', 'Im_JustinTimberlake.png', 'Im_DanielCraig.png', 'Im_MattDamon.png', 'Im_GeorgeClooney.png', 'Im_BenAffleck.png', 'Im_BradPitt.png', 'Im_HughJackman.png'],diff,1,0.41670539999995526,31,92.85714285714286,
PIFR3008,train,pos,60,pos60_id10_im18.bmp_pos60_id2_im3.bmp,['Im_LeonardoDiCaprio.png', 'Im_RyanGosling.png', 'Im_BenStiller.png', 'Im_JustinTimberlake.png', 'Im_DanielCraig.png', 'Im_MattDamon.png', 'Im_GeorgeClooney.png', 'Im_BenAffleck.png', 'Im_BradPitt.png', 'Im_HughJackman.png'],diff,1,0.40846569999939675,32,92.85714285714286,
PIFR3008,train,pos,30,pos30_id2_im2.bmp_pos30_id7_im15.bmp,['Im_LeonardoDiCaprio.png', 'Im_RyanGosling.png', 'Im_BenStiller.png', 'Im_JustinTimberlake.png', 'Im_DanielCraig.png', 'Im_MattDamon.png', 'Im_GeorgeClooney.png', 'Im_BenAffleck.png', 'Im_BradPitt.png', 'Im_HughJackman.png'],diff,1,0.4332127000006949,33,92.85714285714286,
PIFR3008,train,pos,150,pos150_id1_im24.bmp_pos150_id1_im21.bmp,['Im_LeonardoDiCaprio.png', 'Im_RyanGosling.png', 'Im_BenStiller.png', 'Im_JustinTimberlake.png', 'Im_DanielCraig.png', 'Im_MattDamon.png', 'Im_GeorgeClooney.png', 'Im_BenAffleck.png', 'Im_BradPitt.png', 'Im_HughJackman.png'],same,1,0.4251169999997728,34,92.85714285714286,
PIFR3008,train,pos,30,pos30_id10_im1.bmp_pos30_id10_im17.bmp,['Im_LeonardoDiCaprio.png', 'Im_RyanGosling.png', 'Im_BenStiller.png', 'Im_JustinTimberlake.png', 'Im_DanielCraig.png', 'Im_MattDamon.png', 'Im_GeorgeClooney.png', 'Im_BenAffleck.png', 'Im_BradPitt.png', 'Im_HughJackman.png'],same,1,0.4250756999999794,35,92.85714285714286,
PIFR3008,train,pos,0,pos0_id20_im3.bmp_pos0_id20_im12.bmp,['Im_LeonardoDiCaprio.png', 'Im_RyanGosling.png', 'Im_BenStiller.png', 'Im_JustinTimberlake.png', 'Im_DanielCraig.png', 'Im_MattDamon.png', 'Im_GeorgeClooney.png', 'Im_BenAffleck.png', 'Im_BradPitt.png', 'Im_HughJackman.png'],same,1,0.4250031999999919,36,92.85714285714286,
PIFR3008,train,pos,90,pos90_id2_im3.bmp_pos90_id2_im2.bmp,['Im_LeonardoDiCaprio.png', 'Im_RyanGosling.png', 'Im_BenStiller.png', 'Im_JustinTimberlake.png', 'Im_DanielCraig.png', 'Im_MattDamon.png', 'Im_GeorgeClooney.png', 'Im_BenAffleck.png', 'Im_BradPitt.png', 'Im_HughJackman.png'],same,1,0.4250643000004857,37,92.85714285714286,
PIFR3008,train,pos,fs,posfs_id10_im17.bmp_posfs_id1_im24.bmp,['Im_LeonardoDiCaprio.png', 'Im_RyanGosling.png', 'Im_BenStiller.png', 'Im_JustinTimberlake.png', 'Im_DanielCraig.png', 'Im_MattDamon.png', 'Im_GeorgeClooney.png', 'Im_BenAffleck.png', 'Im_BradPitt.png', 'Im_HughJackman.png'],diff,1,0.43332829999962996,38,92.85714285714286,
PIFR3008,train,pos,120,pos120_id8_im13.bmp_pos120_id8_im20.bmp,['Im_LeonardoDiCaprio.png', 'Im_RyanGosling.png', 'Im_BenStiller.png', 'Im_JustinTimberlake.png', 'Im_DanielCraig.png', 'Im_MattDamon.png', 'Im_GeorgeClooney.png', 'Im_BenAffleck.png', 'Im_BradPitt.png', 'Im_HughJackman.png'],same,1,0.43367729999954463,39,92.85714285714286,
PIFR3008,0,neg,fs,negfs_id10_im17.bmp_negfs_id3_im6.bmp,['Im_LeonardoDiCaprio.png', 'Im_RyanGosling.png', 'Im_BenStiller.png', 'Im_JustinTimberlake.png', 'Im_DanielCraig.png', 'Im_MattDamon.png', 'Im_GeorgeClooney.png', 'Im_BenAffleck.png', 'Im_BradPitt.png', 'Im_HughJackman.png'],diff,1,0.42506589999993594,1,0,
PIFR3008,0,neg,90,neg90_id10_im18.bmp_neg90_id13_im29.bmp,['Im_LeonardoDiCaprio.png', 'Im_RyanGosling.png', 'Im_BenStiller.png', 'Im_JustinTimberlake.png', 'Im_DanielCraig.png', 'Im_MattDamon.png', 'Im_GeorgeClooney.png', 'Im_BenAffleck.png', 'Im_BradPitt.png', 'Im_HughJackman.png'],diff,1,0.4249226000001727,2,0,
PIFR3008,0,neg,90,neg90_id14_im18.bmp_neg90_id14_im16.bmp,['Im_LeonardoDiCaprio.png', 'Im_RyanGosling.png', 'Im_BenStiller.png', 'Im_JustinTimberlake.png', 'Im_DanielCraig.png', 'Im_MattDamon.png', 'Im_GeorgeClooney.png', 'Im_BenAffleck.png', 'Im_BradPitt.png', 'Im_HughJackman.png'],same,1,0.4167613999998139,3,0,
PIFR3008,0,neg,150,neg150_id13_im15.bmp_neg150_id20_im12.bmp,['Im_LeonardoDiCaprio.png', 'Im_RyanGosling.png', 'Im_BenStiller.png', 'Im_JustinTimberlake.png', 'Im_DanielCraig.png', 'Im_MattDamon.png', 'Im_GeorgeClooney.png', 'Im_BenAffleck.png', 'Im_BradPitt.png', 'Im_HughJackman.png'],diff,1,0.41684040000018285,4,0,
PIFR3008,0,neg,120,neg120_id7_im14.bmp_neg120_id7_im26.bmp,['Im_LeonardoDiCaprio.png', 'Im_RyanGosling.png', 'Im_BenStiller.png', 'Im_JustinTimberlake.png', 'Im_DanielCraig.png', 'Im_MattDamon.png', 'Im_GeorgeClooney.png', 'Im_BenAffleck.png', 'Im_BradPitt.png', 'Im_HughJackman.png'],same,1,0.41670520000025135,5,0,
PIFR3008,0,neg,30,neg30_id13_im29.bmp_neg30_id3_im17.bmp,['Im_LeonardoDiCaprio.png', 'Im_RyanGosling.png', 'Im_BenStiller.png', 'Im_JustinTimberlake.png', 'Im_DanielCraig.png', 'Im_MattDamon.png', 'Im_GeorgeClooney.png', 'Im_BenAffleck.png', 'Im_BradPitt.png', 'Im_HughJackman.png'],diff,1,0.4167861999994784,6,0,
PIFR3008,0,neg,fs,negfs_id13_im10.bmp_negfs_id13_im29.bmp,['Im_LeonardoDiCaprio.png', 'Im_RyanGosling.png', 'Im_BenStiller.png', 'Im_JustinTimberlake.png', 'Im_DanielCraig.png', 'Im_MattDamon.png', 'Im_GeorgeClooney.png', 'Im_BenAffleck.png', 'Im_BradPitt.png', 'Im_HughJackman.png'],same,1,0.42501699999957054,7,0,
PIFR3008,0,neg,150,neg150_id4_im15.bmp_neg150_id4_im7.bmp,['Im_LeonardoDiCaprio.png', 'Im_RyanGosling.png', 'Im_BenStiller.png', 'Im_JustinTimberlake.png', 'Im_DanielCraig.png', 'Im_MattDamon.png', 'Im_GeorgeClooney.png', 'Im_BenAffleck.png', 'Im_BradPitt.png', 'Im_HughJackman.png'],same,1,0.4167680000000473,8,0,
PIFR3008,0,neg,30,neg30_id13_im29.bmp_neg30_id10_im18.bmp,['Im_LeonardoDiCaprio.png', 'Im_RyanGosling.png', 'Im_BenStiller.png', 'Im_JustinTimberlake.png', 'Im_DanielCraig.png', 'Im_MattDamon.png', 'Im_GeorgeClooney.png', 'Im_BenAffleck.png', 'Im_BradPitt.png', 'Im_HughJackman.png'],diff,1,0.40830619999997,9,0,
PIFR3008,0,neg,120,neg120_id20_im3.bmp_neg120_id20_im30.bmp,['Im_LeonardoDiCaprio.png', 'Im_RyanGosling.png', 'Im_BenStiller.png', 'Im_JustinTimberlake.png', 'Im_DanielCraig.png', 'Im_MattDamon.png', 'Im_GeorgeClooney.png', 'Im_BenAffleck.png', 'Im_BradPitt.png', 'Im_HughJackman.png'],same,1,0.42510200000015175,10,0,
PIFR3008,0,neg,0,neg0_id4_im7.bmp_neg0_id1_im24.bmp,['Im_LeonardoDiCaprio.png', 'Im_RyanGosling.png', 'Im_BenStiller.png', 'Im_JustinTimberlake.png', 'Im_DanielCraig.png', 'Im_MattDamon.png', 'Im_GeorgeClooney.png', 'Im_BenAffleck.png', 'Im_BradPitt.png', 'Im_HughJackman.png'],diff,1,1.6332165000003442,11,0,
PIFR3008,0,neg,60,neg60_id1_im24.bmp_neg60_id10_im17.bmp,['Im_LeonardoDiCaprio.png', 'Im_RyanGosling.png', 'Im_BenStiller.png', 'Im_JustinTimberlake.png', 'Im_DanielCraig.png', 'Im_MattDamon.png', 'Im_GeorgeClooney.png', 'Im_BenAffleck.png', 'Im_BradPitt.png', 'Im_HughJackman.png'],same,0,0.42523780000010447,11,0,
PIFR3008,0,neg,0,neg0_id10_im1.bmp_neg0_id3_im17.bmp,['Im_LeonardoDiCaprio.png', 'Im_RyanGosling.png', 'Im_BenStiller.png', 'Im_JustinTimberlake.png', 'Im_DanielCraig.png', 'Im_MattDamon.png', 'Im_GeorgeClooney.png', 'Im_BenAffleck.png', 'Im_BradPitt.png', 'Im_HughJackman.png'],diff,1,0.41673119999995833,12,0,
PIFR3008,0,neg,60,neg60_id3_im6.bmp_neg60_id1_im4.bmp,['Im_LeonardoDiCaprio.png', 'Im_RyanGosling.png', 'Im_BenStiller.png', 'Im_JustinTimberlake.png', 'Im_DanielCraig.png', 'Im_MattDamon.png', 'Im_GeorgeClooney.png', 'Im_BenAffleck.png', 'Im_BradPitt.png', 'Im_HughJackman.png'],diff,1,0.7415971000000354,13,0,
PIFR3008,1,inv,90,pos90_id2_im2.bmp_pos90_id2_im3.bmp,['Im_LeonardoDiCaprio.png', 'Im_RyanGosling.png', 'Im_BenStiller.png', 'Im_JustinTimberlake.png', 'Im_DanielCraig.png', 'Im_MattDamon.png', 'Im_GeorgeClooney.png', 'Im_BenAffleck.png', 'Im_BradPitt.png', 'Im_HughJackman.png'],same,1,0.4752985000004628,14,0,
PIFR3008,1,inv,120,pos120_id14_im24.bmp_pos120_id14_im16.bmp,['Im_LeonardoDiCaprio.png', 'Im_RyanGosling.png', 'Im_BenStiller.png', 'Im_JustinTimberlake.png', 'Im_DanielCraig.png', 'Im_MattDamon.png', 'Im_GeorgeClooney.png', 'Im_BenAffleck.png', 'Im_BradPitt.png', 'Im_HughJackman.png'],diff,0,0.4334384999992835,14,0,
PIFR3008,1,inv,150,pos150_id1_im21.bmp_pos150_id3_im8.bmp,['Im_LeonardoDiCaprio.png', 'Im_RyanGosling.png', 'Im_BenStiller.png', 'Im_JustinTimberlake.png', 'Im_DanielCraig.png', 'Im_MattDamon.png', 'Im_GeorgeClooney.png', 'Im_BenAffleck.png', 'Im_BradPitt.png', 'Im_HughJackman.png'],same,0,0.4168383999995058,14,0,
PIFR3008,1,inv,60,pos60_id20_im3.bmp_pos60_id8_im20.bmp,['Im_LeonardoDiCaprio.png', 'Im_RyanGosling.png', 'Im_BenStiller.png', 'Im_JustinTimberlake.png', 'Im_DanielCraig.png', 'Im_MattDamon.png', 'Im_GeorgeClooney.png', 'Im_BenAffleck.png', 'Im_BradPitt.png', 'Im_HughJackman.png'],diff,1,0.4167338999995991,15,0,
PIFR3008,1,inv,0,pos0_id8_im21.bmp_pos0_id8_im20.bmp,['Im_LeonardoDiCaprio.png', 'Im_RyanGosling.png', 'Im_BenStiller.png', 'Im_JustinTimberlake.png', 'Im_DanielCraig.png', 'Im_MattDamon.png', 'Im_GeorgeClooney.png', 'Im_BenAffleck.png', 'Im_BradPitt.png', 'Im_HughJackman.png'],same,1,0.4250405000002502,16,0,
PIFR3008,1,inv,120,pos120_id10_im18.bmp_pos120_id10_im17.bmp,['Im_LeonardoDiCaprio.png', 'Im_RyanGosling.png', 'Im_BenStiller.png', 'Im_JustinTimberlake.png', 'Im_DanielCraig.png', 'Im_MattDamon.png', 'Im_GeorgeClooney.png', 'Im_BenAffleck.png', 'Im_BradPitt.png', 'Im_HughJackman.png'],diff,0,0.4250278999998045,16,0,
PIFR3008,1,inv,30,pos30_id4_im15.bmp_pos30_id4_im7.bmp,['Im_LeonardoDiCaprio.png', 'Im_RyanGosling.png', 'Im_BenStiller.png', 'Im_JustinTimberlake.png', 'Im_DanielCraig.png', 'Im_MattDamon.png', 'Im_GeorgeClooney.png', 'Im_BenAffleck.png', 'Im_BradPitt.png', 'Im_HughJackman.png'],same,1,0.416730899999493,17,0,
PIFR3008,1,inv,60,pos60_id2_im2.bmp_pos60_id2_im3.bmp,['Im_LeonardoDiCaprio.png', 'Im_RyanGosling.png', 'Im_BenStiller.png', 'Im_JustinTimberlake.png', 'Im_DanielCraig.png', 'Im_MattDamon.png', 'Im_GeorgeClooney.png', 'Im_BenAffleck.png', 'Im_BradPitt.png', 'Im_HughJackman.png'],same,1,0.4251260999999431,18,0,
PIFR3008,1,inv,fs,posfs_id4_im15.bmp_posfs_id20_im12.bmp,['Im_LeonardoDiCaprio.png', 'Im_RyanGosling.png', 'Im_BenStiller.png', 'Im_JustinTimberlake.png', 'Im_DanielCraig.png', 'Im_MattDamon.png', 'Im_GeorgeClooney.png', 'Im_BenAffleck.png', 'Im_BradPitt.png', 'Im_HughJackman.png'],diff,1,0.4165333999999348,19,0,
PIFR3008,1,inv,30,pos30_id20_im3.bmp_pos30_id20_im30.bmp,['Im_LeonardoDiCaprio.png', 'Im_RyanGosling.png', 'Im_BenStiller.png', 'Im_JustinTimberlake.png', 'Im_DanielCraig.png', 'Im_MattDamon.png', 'Im_GeorgeClooney.png', 'Im_BenAffleck.png', 'Im_BradPitt.png', 'Im_HughJackman.png'],same,1,0.5502698000000237,20,0,
PIFR3008,1,inv,fs,posfs_id2_im3.bmp_posfs_id2_im16.bmp,['Im_LeonardoDiCaprio.png', 'Im_RyanGosling.png', 'Im_BenStiller.png', 'Im_JustinTimberlake.png', 'Im_DanielCraig.png', 'Im_MattDamon.png', 'Im_GeorgeClooney.png', 'Im_BenAffleck.png', 'Im_BradPitt.png', 'Im_HughJackman.png'],same,1,0.42518160000054195,21,0,
PIFR3008,1,inv,0,pos0_id7_im14.bmp_pos0_id7_im15.bmp,['Im_LeonardoDiCaprio.png', 'Im_RyanGosling.png', 'Im_BenStiller.png', 'Im_JustinTimberlake.png', 'Im_DanielCraig.png', 'Im_MattDamon.png', 'Im_GeorgeClooney.png', 'Im_BenAffleck.png', 'Im_BradPitt.png', 'Im_HughJackman.png'],same,1,0.733678499999769,22,0,
PIFR3008,1,inv,150,pos150_id4_im7.bmp_pos150_id1_im4.bmp,['Im_LeonardoDiCaprio.png', 'Im_RyanGosling.png', 'Im_BenStiller.png', 'Im_JustinTimberlake.png', 'Im_DanielCraig.png', 'Im_MattDamon.png', 'Im_GeorgeClooney.png', 'Im_BenAffleck.png', 'Im_BradPitt.png', 'Im_HughJackman.png'],diff,1,0.4251145999996879,23,0,
PIFR3008,1,inv,90,pos90_id3_im6.bmp_pos90_id1_im4.bmp,['Im_LeonardoDiCaprio.png', 'Im_RyanGosling.png', 'Im_BenStiller.png', 'Im_JustinTimberlake.png', 'Im_DanielCraig.png', 'Im_MattDamon.png', 'Im_GeorgeClooney.png', 'Im_BenAffleck.png', 'Im_BradPitt.png', 'Im_HughJackman.png'],same,0,0.41675190000023576,23,0,
PIFR3008,2,neg,30,neg30_id3_im8.bmp_neg30_id3_im6.bmp,['Im_LeonardoDiCaprio.png', 'Im_RyanGosling.png', 'Im_BenStiller.png', 'Im_JustinTimberlake.png', 'Im_DanielCraig.png', 'Im_MattDamon.png', 'Im_GeorgeClooney.png', 'Im_BenAffleck.png', 'Im_BradPitt.png', 'Im_HughJackman.png'],same,1,0.4250513000006322,24,0,
PIFR3008,2,neg,fs,negfs_id20_im3.bmp_negfs_id8_im20.bmp,['Im_LeonardoDiCaprio.png', 'Im_RyanGosling.png', 'Im_BenStiller.png', 'Im_JustinTimberlake.png', 'Im_DanielCraig.png', 'Im_MattDamon.png', 'Im_GeorgeClooney.png', 'Im_BenAffleck.png', 'Im_BradPitt.png', 'Im_HughJackman.png'],diff,1,0.433333599999969,25,0,
PIFR3008,2,neg,120,neg120_id4_im20.bmp_neg120_id2_im3.bmp,['Im_LeonardoDiCaprio.png', 'Im_RyanGosling.png', 'Im_BenStiller.png', 'Im_JustinTimberlake.png', 'Im_DanielCraig.png', 'Im_MattDamon.png', 'Im_GeorgeClooney.png', 'Im_BenAffleck.png', 'Im_BradPitt.png', 'Im_HughJackman.png'],diff,1,0.4166354999997566,26,0,
PIFR3008,2,neg,fs,negfs_id2_im2.bmp_negfs_id7_im15.bmp,['Im_LeonardoDiCaprio.png', 'Im_RyanGosling.png', 'Im_BenStiller.png', 'Im_JustinTimberlake.png', 'Im_DanielCraig.png', 'Im_MattDamon.png', 'Im_GeorgeClooney.png', 'Im_BenAffleck.png', 'Im_BradPitt.png', 'Im_HughJackman.png'],diff,1,0.42495250000047236,27,0,
PIFR3008,2,neg,90,neg90_id10_im1.bmp_neg90_id7_im14.bmp,['Im_LeonardoDiCaprio.png', 'Im_RyanGosling.png', 'Im_BenStiller.png', 'Im_JustinTimberlake.png', 'Im_DanielCraig.png', 'Im_MattDamon.png', 'Im_GeorgeClooney.png', 'Im_BenAffleck.png', 'Im_BradPitt.png', 'Im_HughJackman.png'],diff,1,0.7669470000000729,28,0,
PIFR3008,2,neg,60,neg60_id7_im14.bmp_neg60_id4_im15.bmp,['Im_LeonardoDiCaprio.png', 'Im_RyanGosling.png', 'Im_BenStiller.png', 'Im_JustinTimberlake.png', 'Im_DanielCraig.png', 'Im_MattDamon.png', 'Im_GeorgeClooney.png', 'Im_BenAffleck.png', 'Im_BradPitt.png', 'Im_HughJackman.png'],diff,1,0.8665441000002829,29,0,
PIFR3008,2,neg,150,neg150_id13_im15.bmp_neg150_id13_im29.bmp,['Im_LeonardoDiCaprio.png', 'Im_RyanGosling.png', 'Im_BenStiller.png', 'Im_JustinTimberlake.png', 'Im_DanielCraig.png', 'Im_MattDamon.png', 'Im_GeorgeClooney.png', 'Im_BenAffleck.png', 'Im_BradPitt.png', 'Im_HughJackman.png'],same,1,0.41679759999988164,30,0,
PIFR3008,2,neg,150,neg150_id8_im21.bmp_neg150_id8_im13.bmp,['Im_LeonardoDiCaprio.png', 'Im_RyanGosling.png', 'Im_BenStiller.png', 'Im_JustinTimberlake.png', 'Im_DanielCraig.png', 'Im_MattDamon.png', 'Im_GeorgeClooney.png', 'Im_BenAffleck.png', 'Im_BradPitt.png', 'Im_HughJackman.png'],same,1,0.4166737999994439,31,0,
PIFR3008,2,neg,0,neg0_id4_im7.bmp_neg0_id4_im20.bmp,['Im_LeonardoDiCaprio.png', 'Im_RyanGosling.png', 'Im_BenStiller.png', 'Im_JustinTimberlake.png', 'Im_DanielCraig.png', 'Im_MattDamon.png', 'Im_GeorgeClooney.png', 'Im_BenAffleck.png', 'Im_BradPitt.png', 'Im_HughJackman.png'],same,1,0.416823800000202,32,0,
PIFR3008,2,neg,120,neg120_id4_im7.bmp_neg120_id4_im15.bmp,['Im_LeonardoDiCaprio.png', 'Im_RyanGosling.png', 'Im_BenStiller.png', 'Im_JustinTimberlake.png', 'Im_DanielCraig.png', 'Im_MattDamon.png', 'Im_GeorgeClooney.png', 'Im_BenAffleck.png', 'Im_BradPitt.png', 'Im_HughJackman.png'],same,1,0.41659709999930783,33,0,
PIFR3008,2,neg,0,neg0_id1_im4.bmp_neg0_id1_im24.bmp,['Im_LeonardoDiCaprio.png', 'Im_RyanGosling.png', 'Im_BenStiller.png', 'Im_JustinTimberlake.png', 'Im_DanielCraig.png', 'Im_MattDamon.png', 'Im_GeorgeClooney.png', 'Im_BenAffleck.png', 'Im_BradPitt.png', 'Im_HughJackman.png'],same,1,0.416787099999965,34,0,
PIFR3008,2,neg,60,neg60_id2_im2.bmp_neg60_id2_im3.bmp,['Im_LeonardoDiCaprio.png', 'Im_RyanGosling.png', 'Im_BenStiller.png', 'Im_JustinTimberlake.png', 'Im_DanielCraig.png', 'Im_MattDamon.png', 'Im_GeorgeClooney.png', 'Im_BenAffleck.png', 'Im_BradPitt.png', 'Im_HughJackman.png'],same,1,0.433521799999653,35,0,
PIFR3008,2,neg,90,neg90_id13_im15.bmp_neg90_id13_im29.bmp,['Im_LeonardoDiCaprio.png', 'Im_RyanGosling.png', 'Im_BenStiller.png', 'Im_JustinTimberlake.png', 'Im_DanielCraig.png', 'Im_MattDamon.png', 'Im_GeorgeClooney.png', 'Im_BenAffleck.png', 'Im_BradPitt.png', 'Im_HughJackman.png'],same,1,0.41676640000059706,36,0,
PIFR3008,2,neg,30,neg30_id20_im12.bmp_neg30_id13_im15.bmp,['Im_LeonardoDiCaprio.png', 'Im_RyanGosling.png', 'Im_BenStiller.png', 'Im_JustinTimberlake.png', 'Im_DanielCraig.png', 'Im_MattDamon.png', 'Im_GeorgeClooney.png', 'Im_BenAffleck.png', 'Im_BradPitt.png', 'Im_HughJackman.png'],diff,1,0.4167918000002828,37,0,
PIFR3008,3,pos,60,pos60_id10_im1.bmp_pos60_id3_im17.bmp,['Im_LeonardoDiCaprio.png', 'Im_RyanGosling.png', 'Im_BenStiller.png', 'Im_JustinTimberlake.png', 'Im_DanielCraig.png', 'Im_MattDamon.png', 'Im_GeorgeClooney.png', 'Im_BenAffleck.png', 'Im_BradPitt.png', 'Im_HughJackman.png'],diff,1,0.40836419999959617,1,88.0952380952381,
PIFR3008,3,pos,120,pos120_id2_im2.bmp_pos120_id2_im3.bmp,['Im_LeonardoDiCaprio.png', 'Im_RyanGosling.png', 'Im_BenStiller.png', 'Im_JustinTimberlake.png', 'Im_DanielCraig.png', 'Im_MattDamon.png', 'Im_GeorgeClooney.png', 'Im_BenAffleck.png', 'Im_BradPitt.png', 'Im_HughJackman.png'],same,1,0.4084204000000682,2,88.0952380952381,
PIFR3008,3,pos,30,pos30_id20_im3.bmp_pos30_id20_im30.bmp,['Im_LeonardoDiCaprio.png', 'Im_RyanGosling.png', 'Im_BenStiller.png', 'Im_JustinTimberlake.png', 'Im_DanielCraig.png', 'Im_MattDamon.png', 'Im_GeorgeClooney.png', 'Im_BenAffleck.png', 'Im_BradPitt.png', 'Im_HughJackman.png'],same,1,0.45836700000018027,3,88.0952380952381,
PIFR3008,3,pos,90,pos90_id2_im16.bmp_pos90_id2_im2.bmp,['Im_LeonardoDiCaprio.png', 'Im_RyanGosling.png', 'Im_BenStiller.png', 'Im_JustinTimberlake.png', 'Im_DanielCraig.png', 'Im_MattDamon.png', 'Im_GeorgeClooney.png', 'Im_BenAffleck.png', 'Im_BradPitt.png', 'Im_HughJackman.png'],same,1,0.4168960999995761,4,88.0952380952381,
PIFR3008,3,pos,90,pos90_id10_im17.bmp_pos90_id3_im6.bmp,['Im_LeonardoDiCaprio.png', 'Im_RyanGosling.png', 'Im_BenStiller.png', 'Im_JustinTimberlake.png', 'Im_DanielCraig.png', 'Im_MattDamon.png', 'Im_GeorgeClooney.png', 'Im_BenAffleck.png', 'Im_BradPitt.png', 'Im_HughJackman.png'],diff,1,0.4084548000000723,5,88.0952380952381,
PIFR3008,3,pos,0,pos0_id8_im20.bmp_pos0_id8_im21.bmp,['Im_LeonardoDiCaprio.png', 'Im_RyanGosling.png', 'Im_BenStiller.png', 'Im_JustinTimberlake.png', 'Im_DanielCraig.png', 'Im_MattDamon.png', 'Im_GeorgeClooney.png', 'Im_BenAffleck.png', 'Im_BradPitt.png', 'Im_HughJackman.png'],same,1,0.41682870000022376,6,88.0952380952381,
PIFR3008,3,pos,60,pos60_id3_im8.bmp_pos60_id3_im17.bmp,['Im_LeonardoDiCaprio.png', 'Im_RyanGosling.png', 'Im_BenStiller.png', 'Im_JustinTimberlake.png', 'Im_DanielCraig.png', 'Im_MattDamon.png', 'Im_GeorgeClooney.png', 'Im_BenAffleck.png', 'Im_BradPitt.png', 'Im_HughJackman.png'],same,1,0.41675260000010894,7,88.0952380952381,
PIFR3008,3,pos,fs,posfs_id3_im17.bmp_posfs_id3_im6.bmp,['Im_LeonardoDiCaprio.png', 'Im_RyanGosling.png', 'Im_BenStiller.png', 'Im_JustinTimberlake.png', 'Im_DanielCraig.png', 'Im_MattDamon.png', 'Im_GeorgeClooney.png', 'Im_BenAffleck.png', 'Im_BradPitt.png', 'Im_HughJackman.png'],same,1,0.408443499999521,8,88.0952380952381,
PIFR3008,3,pos,150,pos150_id10_im17.bmp_pos150_id10_im1.bmp,['Im_LeonardoDiCaprio.png', 'Im_RyanGosling.png', 'Im_BenStiller.png', 'Im_JustinTimberlake.png', 'Im_DanielCraig.png', 'Im_MattDamon.png', 'Im_GeorgeClooney.png', 'Im_BenAffleck.png', 'Im_BradPitt.png', 'Im_HughJackman.png'],same,1,0.4169296000000031,9,88.0952380952381,
PIFR3008,3,pos,30,pos30_id8_im20.bmp_pos30_id2_im16.bmp,['Im_LeonardoDiCaprio.png', 'Im_RyanGosling.png', 'Im_BenStiller.png', 'Im_JustinTimberlake.png', 'Im_DanielCraig.png', 'Im_MattDamon.png', 'Im_GeorgeClooney.png', 'Im_BenAffleck.png', 'Im_BradPitt.png', 'Im_HughJackman.png'],diff,1,0.42508039999938774,10,88.0952380952381,
PIFR3008,3,pos,120,pos120_id7_im14.bmp_pos120_id4_im15.bmp,['Im_LeonardoDiCaprio.png', 'Im_RyanGosling.png', 'Im_BenStiller.png', 'Im_JustinTimberlake.png', 'Im_DanielCraig.png', 'Im_MattDamon.png', 'Im_GeorgeClooney.png', 'Im_BenAffleck.png', 'Im_BradPitt.png', 'Im_HughJackman.png'],diff,1,0.41671779999978753,11,88.0952380952381,
PIFR3008,3,pos,150,pos150_id8_im13.bmp_pos150_id14_im24.bmp,['Im_LeonardoDiCaprio.png', 'Im_RyanGosling.png', 'Im_BenStiller.png', 'Im_JustinTimberlake.png', 'Im_DanielCraig.png', 'Im_MattDamon.png', 'Im_GeorgeClooney.png', 'Im_BenAffleck.png', 'Im_BradPitt.png', 'Im_HughJackman.png'],diff,1,0.4250281000004179,12,88.0952380952381,
PIFR3008,3,pos,0,pos0_id14_im24.bmp_pos0_id20_im30.bmp,['Im_LeonardoDiCaprio.png', 'Im_RyanGosling.png', 'Im_BenStiller.png', 'Im_JustinTimberlake.png', 'Im_DanielCraig.png', 'Im_MattDamon.png', 'Im_GeorgeClooney.png', 'Im_BenAffleck.png', 'Im_BradPitt.png', 'Im_HughJackman.png'],diff,1,0.4250578000001042,13,88.0952380952381,
PIFR3008,3,pos,fs,posfs_id7_im26.bmp_posfs_id14_im16.bmp,['Im_LeonardoDiCaprio.png', 'Im_RyanGosling.png', 'Im_BenStiller.png', 'Im_JustinTimberlake.png', 'Im_DanielCraig.png', 'Im_MattDamon.png', 'Im_GeorgeClooney.png', 'Im_BenAffleck.png', 'Im_BradPitt.png', 'Im_HughJackman.png'],diff,1,0.41672530000050756,14,88.0952380952381,
PIFR3008,4,pos,0,pos0_id10_im18.bmp_pos0_id10_im1.bmp,['Im_LeonardoDiCaprio.png', 'Im_RyanGosling.png', 'Im_BenStiller.png', 'Im_JustinTimberlake.png', 'Im_DanielCraig.png', 'Im_MattDamon.png', 'Im_GeorgeClooney.png', 'Im_BenAffleck.png', 'Im_BradPitt.png', 'Im_HughJackman.png'],same,1,0.42506020000018907,15,88.0952380952381,
PIFR3008,4,pos,fs,posfs_id7_im14.bmp_posfs_id4_im15.bmp,['Im_LeonardoDiCaprio.png', 'Im_RyanGosling.png', 'Im_BenStiller.png', 'Im_JustinTimberlake.png', 'Im_DanielCraig.png', 'Im_MattDamon.png', 'Im_GeorgeClooney.png', 'Im_BenAffleck.png', 'Im_BradPitt.png', 'Im_HughJackman.png'],diff,1,0.42506130000037956,16,88.0952380952381,
PIFR3008,4,pos,150,pos150_id1_im4.bmp_pos150_id1_im24.bmp,['Im_LeonardoDiCaprio.png', 'Im_RyanGosling.png', 'Im_BenStiller.png', 'Im_JustinTimberlake.png', 'Im_DanielCraig.png', 'Im_MattDamon.png', 'Im_GeorgeClooney.png', 'Im_BenAffleck.png', 'Im_BradPitt.png', 'Im_HughJackman.png'],same,1,0.4250875999996424,17,88.0952380952381,
PIFR3008,4,pos,30,pos30_id4_im7.bmp_pos30_id4_im15.bmp,['Im_LeonardoDiCaprio.png', 'Im_RyanGosling.png', 'Im_BenStiller.png', 'Im_JustinTimberlake.png', 'Im_DanielCraig.png', 'Im_MattDamon.png', 'Im_GeorgeClooney.png', 'Im_BenAffleck.png', 'Im_BradPitt.png', 'Im_HughJackman.png'],same,1,0.42502710000007937,18,88.0952380952381,
PIFR3008,4,pos,90,pos90_id20_im12.bmp_pos90_id4_im15.bmp,['Im_LeonardoDiCaprio.png', 'Im_RyanGosling.png', 'Im_BenStiller.png', 'Im_JustinTimberlake.png', 'Im_DanielCraig.png', 'Im_MattDamon.png', 'Im_GeorgeClooney.png', 'Im_BenAffleck.png', 'Im_BradPitt.png', 'Im_HughJackman.png'],diff,1,0.4251389000000927,19,88.0952380952381,
PIFR3008,4,pos,60,pos60_id7_im14.bmp_pos60_id7_im26.bmp,['Im_LeonardoDiCaprio.png', 'Im_RyanGosling.png', 'Im_BenStiller.png', 'Im_JustinTimberlake.png', 'Im_DanielCraig.png', 'Im_MattDamon.png', 'Im_GeorgeClooney.png', 'Im_BenAffleck.png', 'Im_BradPitt.png', 'Im_HughJackman.png'],same,1,0.4251113999998779,20,88.0952380952381,
PIFR3008,4,pos,150,pos150_id10_im1.bmp_pos150_id10_im18.bmp,['Im_LeonardoDiCaprio.png', 'Im_RyanGosling.png', 'Im_BenStiller.png', 'Im_JustinTimberlake.png', 'Im_DanielCraig.png', 'Im_MattDamon.png', 'Im_GeorgeClooney.png', 'Im_BenAffleck.png', 'Im_BradPitt.png', 'Im_HughJackman.png'],same,1,0.41675000000032014,21,88.0952380952381,
PIFR3008,4,pos,30,pos30_id2_im2.bmp_pos30_id2_im3.bmp,['Im_LeonardoDiCaprio.png', 'Im_RyanGosling.png', 'Im_BenStiller.png', 'Im_JustinTimberlake.png', 'Im_DanielCraig.png', 'Im_MattDamon.png', 'Im_GeorgeClooney.png', 'Im_BenAffleck.png', 'Im_BradPitt.png', 'Im_HughJackman.png'],same,1,0.42493800000011106,22,88.0952380952381,
PIFR3008,4,pos,0,pos0_id4_im20.bmp_pos0_id4_im7.bmp,['Im_LeonardoDiCaprio.png', 'Im_RyanGosling.png', 'Im_BenStiller.png', 'Im_JustinTimberlake.png', 'Im_DanielCraig.png', 'Im_MattDamon.png', 'Im_GeorgeClooney.png', 'Im_BenAffleck.png', 'Im_BradPitt.png', 'Im_HughJackman.png'],same,1,0.42505700000037905,23,88.0952380952381,
PIFR3008,4,pos,fs,posfs_id4_im20.bmp_posfs_id2_im3.bmp,['Im_LeonardoDiCaprio.png', 'Im_RyanGosling.png', 'Im_BenStiller.png', 'Im_JustinTimberlake.png', 'Im_DanielCraig.png', 'Im_MattDamon.png', 'Im_GeorgeClooney.png', 'Im_BenAffleck.png', 'Im_BradPitt.png', 'Im_HughJackman.png'],diff,1,0.4167486000005738,24,88.0952380952381,
PIFR3008,4,pos,120,pos120_id1_im21.bmp_pos120_id1_im24.bmp,['Im_LeonardoDiCaprio.png', 'Im_RyanGosling.png', 'Im_BenStiller.png', 'Im_JustinTimberlake.png', 'Im_DanielCraig.png', 'Im_MattDamon.png', 'Im_GeorgeClooney.png', 'Im_BenAffleck.png', 'Im_BradPitt.png', 'Im_HughJackman.png'],same,1,0.43354619999990973,25,88.0952380952381,
PIFR3008,4,pos,120,pos120_id8_im20.bmp_pos120_id2_im16.bmp,['Im_LeonardoDiCaprio.png', 'Im_RyanGosling.png', 'Im_BenStiller.png', 'Im_JustinTimberlake.png', 'Im_DanielCraig.png', 'Im_MattDamon.png', 'Im_GeorgeClooney.png', 'Im_BenAffleck.png', 'Im_BradPitt.png', 'Im_HughJackman.png'],diff,1,0.41672960000050807,26,88.0952380952381,
PIFR3008,4,pos,60,pos60_id8_im13.bmp_pos60_id14_im24.bmp,['Im_LeonardoDiCaprio.png', 'Im_RyanGosling.png', 'Im_BenStiller.png', 'Im_JustinTimberlake.png', 'Im_DanielCraig.png', 'Im_MattDamon.png', 'Im_GeorgeClooney.png', 'Im_BenAffleck.png', 'Im_BradPitt.png', 'Im_HughJackman.png'],diff,1,0.4248760000000402,27,88.0952380952381,
PIFR3008,4,pos,90,pos90_id20_im12.bmp_pos90_id20_im3.bmp,['Im_LeonardoDiCaprio.png', 'Im_RyanGosling.png', 'Im_BenStiller.png', 'Im_JustinTimberlake.png', 'Im_DanielCraig.png', 'Im_MattDamon.png', 'Im_GeorgeClooney.png', 'Im_BenAffleck.png', 'Im_BradPitt.png', 'Im_HughJackman.png'],same,1,0.41669980000006035,28,88.0952380952381,
PIFR3008,5,inv,30,pos30_id10_im18.bmp_pos30_id13_im29.bmp,['Im_LeonardoDiCaprio.png', 'Im_RyanGosling.png', 'Im_BenStiller.png', 'Im_JustinTimberlake.png', 'Im_DanielCraig.png', 'Im_MattDamon.png', 'Im_GeorgeClooney.png', 'Im_BenAffleck.png', 'Im_BradPitt.png', 'Im_HughJackman.png'],diff,1,0.42494450000049255,29,88.0952380952381,
PIFR3008,5,inv,90,pos90_id14_im16.bmp_pos90_id2_im16.bmp,['Im_LeonardoDiCaprio.png', 'Im_RyanGosling.png', 'Im_BenStiller.png', 'Im_JustinTimberlake.png', 'Im_DanielCraig.png', 'Im_MattDamon.png', 'Im_GeorgeClooney.png', 'Im_BenAffleck.png', 'Im_BradPitt.png', 'Im_HughJackman.png'],diff,1,0.4250499999998283,30,88.0952380952381,
PIFR3008,5,inv,60,pos60_id2_im2.bmp_pos60_id7_im26.bmp,['Im_LeonardoDiCaprio.png', 'Im_RyanGosling.png', 'Im_BenStiller.png', 'Im_JustinTimberlake.png', 'Im_DanielCraig.png', 'Im_MattDamon.png', 'Im_GeorgeClooney.png', 'Im_BenAffleck.png', 'Im_BradPitt.png', 'Im_HughJackman.png'],diff,1,0.5836540000000241,31,88.0952380952381,
PIFR3008,5,inv,fs,posfs_id20_im12.bmp_posfs_id20_im3.bmp,['Im_LeonardoDiCaprio.png', 'Im_RyanGosling.png', 'Im_BenStiller.png', 'Im_JustinTimberlake.png', 'Im_DanielCraig.png', 'Im_MattDamon.png', 'Im_GeorgeClooney.png', 'Im_BenAffleck.png', 'Im_BradPitt.png', 'Im_HughJackman.png'],same,1,0.41676920000008977,32,88.0952380952381,
PIFR3008,5,inv,30,pos30_id1_im21.bmp_pos30_id1_im24.bmp,['Im_LeonardoDiCaprio.png', 'Im_RyanGosling.png', 'Im_BenStiller.png', 'Im_JustinTimberlake.png', 'Im_DanielCraig.png', 'Im_MattDamon.png', 'Im_GeorgeClooney.png', 'Im_BenAffleck.png', 'Im_BradPitt.png', 'Im_HughJackman.png'],same,1,0.4332527000005939,33,88.0952380952381,
PIFR3008,5,inv,120,pos120_id10_im1.bmp_pos120_id7_im14.bmp,['Im_LeonardoDiCaprio.png', 'Im_RyanGosling.png', 'Im_BenStiller.png', 'Im_JustinTimberlake.png', 'Im_DanielCraig.png', 'Im_MattDamon.png', 'Im_GeorgeClooney.png', 'Im_BenAffleck.png', 'Im_BradPitt.png', 'Im_HughJackman.png'],same,0,0.4166015000000698,33,88.0952380952381,
PIFR3008,5,inv,150,pos150_id7_im15.bmp_pos150_id7_im14.bmp,['Im_LeonardoDiCaprio.png', 'Im_RyanGosling.png', 'Im_BenStiller.png', 'Im_JustinTimberlake.png', 'Im_DanielCraig.png', 'Im_MattDamon.png', 'Im_GeorgeClooney.png', 'Im_BenAffleck.png', 'Im_BradPitt.png', 'Im_HughJackman.png'],same,1,0.416784899999584,34,88.0952380952381,
PIFR3008,5,inv,90,pos90_id10_im1.bmp_pos90_id10_im17.bmp,['Im_LeonardoDiCaprio.png', 'Im_RyanGosling.png', 'Im_BenStiller.png', 'Im_JustinTimberlake.png', 'Im_DanielCraig.png', 'Im_MattDamon.png', 'Im_GeorgeClooney.png', 'Im_BenAffleck.png', 'Im_BradPitt.png', 'Im_HughJackman.png'],diff,0,0.42510260000017297,34,88.0952380952381,
PIFR3008,5,inv,0,pos0_id2_im3.bmp_pos0_id4_im20.bmp,['Im_LeonardoDiCaprio.png', 'Im_RyanGosling.png', 'Im_BenStiller.png', 'Im_JustinTimberlake.png', 'Im_DanielCraig.png', 'Im_MattDamon.png', 'Im_GeorgeClooney.png', 'Im_BenAffleck.png', 'Im_BradPitt.png', 'Im_HughJackman.png'],diff,1,0.4167436000007001,35,88.0952380952381,
PIFR3008,5,inv,0,pos0_id14_im18.bmp_pos0_id14_im16.bmp,['Im_LeonardoDiCaprio.png', 'Im_RyanGosling.png', 'Im_BenStiller.png', 'Im_JustinTimberlake.png', 'Im_DanielCraig.png', 'Im_MattDamon.png', 'Im_GeorgeClooney.png', 'Im_BenAffleck.png', 'Im_BradPitt.png', 'Im_HughJackman.png'],same,1,0.41663040000003093,36,88.0952380952381,
PIFR3008,5,inv,60,pos60_id2_im2.bmp_pos60_id2_im16.bmp,['Im_LeonardoDiCaprio.png', 'Im_RyanGosling.png', 'Im_BenStiller.png', 'Im_JustinTimberlake.png', 'Im_DanielCraig.png', 'Im_MattDamon.png', 'Im_GeorgeClooney.png', 'Im_BenAffleck.png', 'Im_BradPitt.png', 'Im_HughJackman.png'],diff,0,0.5763674999998329,36,88.0952380952381,
PIFR3008,5,inv,120,pos120_id20_im12.bmp_pos120_id4_im15.bmp,['Im_LeonardoDiCaprio.png', 'Im_RyanGosling.png', 'Im_BenStiller.png', 'Im_JustinTimberlake.png', 'Im_DanielCraig.png', 'Im_MattDamon.png', 'Im_GeorgeClooney.png', 'Im_BenAffleck.png', 'Im_BradPitt.png', 'Im_HughJackman.png'],diff,1,0.4084329000006619,37,88.0952380952381,
PIFR3008,5,inv,150,pos150_id7_im26.bmp_pos150_id14_im16.bmp,['Im_LeonardoDiCaprio.png', 'Im_RyanGosling.png', 'Im_BenStiller.png', 'Im_JustinTimberlake.png', 'Im_DanielCraig.png', 'Im_MattDamon.png', 'Im_GeorgeClooney.png', 'Im_BenAffleck.png', 'Im_BradPitt.png', 'Im_HughJackman.png'],diff,1,0.4418617000001177,38,88.0952380952381,
PIFR3008,5,inv,fs,posfs_id13_im29.bmp_posfs_id13_im10.bmp,['Im_LeonardoDiCaprio.png', 'Im_RyanGosling.png', 'Im_BenStiller.png', 'Im_JustinTimberlake.png', 'Im_DanielCraig.png', 'Im_MattDamon.png', 'Im_GeorgeClooney.png', 'Im_BenAffleck.png', 'Im_BradPitt.png', 'Im_HughJackman.png'],same,1,0.41675779999968654,39,88.0952380952381,
PIFR3008,6,neg,30,neg30_id20_im30.bmp_neg30_id20_im12.bmp,['Im_LeonardoDiCaprio.png', 'Im_RyanGosling.png', 'Im_BenStiller.png', 'Im_JustinTimberlake.png', 'Im_DanielCraig.png', 'Im_MattDamon.png', 'Im_GeorgeClooney.png', 'Im_BenAffleck.png', 'Im_BradPitt.png', 'Im_HughJackman.png'],same,1,0.4250598999997237,1,92.85714285714286,
PIFR3008,6,neg,150,neg150_id2_im16.bmp_neg150_id8_im20.bmp,['Im_LeonardoDiCaprio.png', 'Im_RyanGosling.png', 'Im_BenStiller.png', 'Im_JustinTimberlake.png', 'Im_DanielCraig.png', 'Im_MattDamon.png', 'Im_GeorgeClooney.png', 'Im_BenAffleck.png', 'Im_BradPitt.png', 'Im_HughJackman.png'],diff,1,0.40844319999996515,2,92.85714285714286,
PIFR3008,6,neg,0,neg0_id3_im6.bmp_neg0_id3_im8.bmp,['Im_LeonardoDiCaprio.png', 'Im_RyanGosling.png', 'Im_BenStiller.png', 'Im_JustinTimberlake.png', 'Im_DanielCraig.png', 'Im_MattDamon.png', 'Im_GeorgeClooney.png', 'Im_BenAffleck.png', 'Im_BradPitt.png', 'Im_HughJackman.png'],same,1,0.4084818000001178,3,92.85714285714286,
PIFR3008,6,neg,0,neg0_id20_im3.bmp_neg0_id20_im12.bmp,['Im_LeonardoDiCaprio.png', 'Im_RyanGosling.png', 'Im_BenStiller.png', 'Im_JustinTimberlake.png', 'Im_DanielCraig.png', 'Im_MattDamon.png', 'Im_GeorgeClooney.png', 'Im_BenAffleck.png', 'Im_BradPitt.png', 'Im_HughJackman.png'],same,1,0.4167450999993889,4,92.85714285714286,
PIFR3008,6,neg,60,neg60_id4_im15.bmp_neg60_id4_im7.bmp,['Im_LeonardoDiCaprio.png', 'Im_RyanGosling.png', 'Im_BenStiller.png', 'Im_JustinTimberlake.png', 'Im_DanielCraig.png', 'Im_MattDamon.png', 'Im_GeorgeClooney.png', 'Im_BenAffleck.png', 'Im_BradPitt.png', 'Im_HughJackman.png'],same,1,0.47526319999997213,5,92.85714285714286,
PIFR3008,6,neg,60,neg60_id13_im10.bmp_neg60_id13_im29.bmp,['Im_LeonardoDiCaprio.png', 'Im_RyanGosling.png', 'Im_BenStiller.png', 'Im_JustinTimberlake.png', 'Im_DanielCraig.png', 'Im_MattDamon.png', 'Im_GeorgeClooney.png', 'Im_BenAffleck.png', 'Im_BradPitt.png', 'Im_HughJackman.png'],same,1,0.42522050000025047,6,92.85714285714286,
PIFR3008,6,neg,90,neg90_id2_im16.bmp_neg90_id2_im2.bmp,['Im_LeonardoDiCaprio.png', 'Im_RyanGosling.png', 'Im_BenStiller.png', 'Im_JustinTimberlake.png', 'Im_DanielCraig.png', 'Im_MattDamon.png', 'Im_GeorgeClooney.png', 'Im_BenAffleck.png', 'Im_BradPitt.png', 'Im_HughJackman.png'],diff,0,0.43347280000034516,6,92.85714285714286,
PIFR3008,6,neg,150,neg150_id13_im10.bmp_neg150_id13_im29.bmp,['Im_LeonardoDiCaprio.png', 'Im_RyanGosling.png', 'Im_BenStiller.png', 'Im_JustinTimberlake.png', 'Im_DanielCraig.png', 'Im_MattDamon.png', 'Im_GeorgeClooney.png', 'Im_BenAffleck.png', 'Im_BradPitt.png', 'Im_HughJackman.png'],diff,0,0.42521690000012313,6,92.85714285714286,
PIFR3008,6,neg,90,neg90_id4_im20.bmp_neg90_id4_im7.bmp,['Im_LeonardoDiCaprio.png', 'Im_RyanGosling.png', 'Im_BenStiller.png', 'Im_JustinTimberlake.png', 'Im_DanielCraig.png', 'Im_MattDamon.png', 'Im_GeorgeClooney.png', 'Im_BenAffleck.png', 'Im_BradPitt.png', 'Im_HughJackman.png'],same,1,0.41669480000018666,7,92.85714285714286,
PIFR3008,6,neg,fs,negfs_id7_im26.bmp_negfs_id2_im2.bmp,['Im_LeonardoDiCaprio.png', 'Im_RyanGosling.png', 'Im_BenStiller.png', 'Im_JustinTimberlake.png', 'Im_DanielCraig.png', 'Im_MattDamon.png', 'Im_GeorgeClooney.png', 'Im_BenAffleck.png', 'Im_BradPitt.png', 'Im_HughJackman.png'],diff,1,0.516656900000271,8,92.85714285714286,
PIFR3008,6,neg,120,neg120_id20_im12.bmp_neg120_id4_im15.bmp,['Im_LeonardoDiCaprio.png', 'Im_RyanGosling.png', 'Im_BenStiller.png', 'Im_JustinTimberlake.png', 'Im_DanielCraig.png', 'Im_MattDamon.png', 'Im_GeorgeClooney.png', 'Im_BenAffleck.png', 'Im_BradPitt.png', 'Im_HughJackman.png'],diff,1,0.41679950000070676,9,92.85714285714286,
PIFR3008,6,neg,120,neg120_id1_im4.bmp_neg120_id4_im7.bmp,['Im_LeonardoDiCaprio.png', 'Im_RyanGosling.png', 'Im_BenStiller.png', 'Im_JustinTimberlake.png', 'Im_DanielCraig.png', 'Im_MattDamon.png', 'Im_GeorgeClooney.png', 'Im_BenAffleck.png', 'Im_BradPitt.png', 'Im_HughJackman.png'],diff,1,0.41670219999923575,10,92.85714285714286,
PIFR3008,6,neg,fs,negfs_id14_im16.bmp_negfs_id14_im18.bmp,['Im_LeonardoDiCaprio.png', 'Im_RyanGosling.png', 'Im_BenStiller.png', 'Im_JustinTimberlake.png', 'Im_DanielCraig.png', 'Im_MattDamon.png', 'Im_GeorgeClooney.png', 'Im_BenAffleck.png', 'Im_BradPitt.png', 'Im_HughJackman.png'],same,1,0.40830909999931464,11,92.85714285714286,
PIFR3008,6,neg,30,neg30_id7_im26.bmp_neg30_id7_im15.bmp,['Im_LeonardoDiCaprio.png', 'Im_RyanGosling.png', 'Im_BenStiller.png', 'Im_JustinTimberlake.png', 'Im_DanielCraig.png', 'Im_MattDamon.png', 'Im_GeorgeClooney.png', 'Im_BenAffleck.png', 'Im_BradPitt.png', 'Im_HughJackman.png'],same,1,0.4167692999999417,12,92.85714285714286,
PIFR3008,7,inv,90,pos90_id8_im21.bmp_pos90_id20_im3.bmp,['Im_LeonardoDiCaprio.png', 'Im_RyanGosling.png', 'Im_BenStiller.png', 'Im_JustinTimberlake.png', 'Im_DanielCraig.png', 'Im_MattDamon.png', 'Im_GeorgeClooney.png', 'Im_BenAffleck.png', 'Im_BradPitt.png', 'Im_HughJackman.png'],diff,1,0.4251012000004266,13,92.85714285714286,
PIFR3008,7,inv,0,pos0_id20_im12.bmp_pos0_id20_im30.bmp,['Im_LeonardoDiCaprio.png', 'Im_RyanGosling.png', 'Im_BenStiller.png', 'Im_JustinTimberlake.png', 'Im_DanielCraig.png', 'Im_MattDamon.png', 'Im_GeorgeClooney.png', 'Im_BenAffleck.png', 'Im_BradPitt.png', 'Im_HughJackman.png'],same,1,0.44233540000004723,14,92.85714285714286,
PIFR3008,7,inv,150,pos150_id3_im17.bmp_pos150_id10_im1.bmp,['Im_LeonardoDiCaprio.png', 'Im_RyanGosling.png', 'Im_BenStiller.png', 'Im_JustinTimberlake.png', 'Im_DanielCraig.png', 'Im_MattDamon.png', 'Im_GeorgeClooney.png', 'Im_BenAffleck.png', 'Im_BradPitt.png', 'Im_HughJackman.png'],diff,1,0.4083911999996417,15,92.85714285714286,
PIFR3008,7,inv,30,pos30_id4_im20.bmp_pos30_id8_im13.bmp,['Im_LeonardoDiCaprio.png', 'Im_RyanGosling.png', 'Im_BenStiller.png', 'Im_JustinTimberlake.png', 'Im_DanielCraig.png', 'Im_MattDamon.png', 'Im_GeorgeClooney.png', 'Im_BenAffleck.png', 'Im_BradPitt.png', 'Im_HughJackman.png'],diff,1,0.5168236999998044,16,92.85714285714286,
PIFR3008,7,inv,120,pos120_id3_im8.bmp_pos120_id8_im21.bmp,['Im_LeonardoDiCaprio.png', 'Im_RyanGosling.png', 'Im_BenStiller.png', 'Im_JustinTimberlake.png', 'Im_DanielCraig.png', 'Im_MattDamon.png', 'Im_GeorgeClooney.png', 'Im_BenAffleck.png', 'Im_BradPitt.png', 'Im_HughJackman.png'],diff,1,0.42509980000068026,17,92.85714285714286,
PIFR3008,7,inv,0,pos0_id2_im2.bmp_pos0_id7_im26.bmp,['Im_LeonardoDiCaprio.png', 'Im_RyanGosling.png', 'Im_BenStiller.png', 'Im_JustinTimberlake.png', 'Im_DanielCraig.png', 'Im_MattDamon.png', 'Im_GeorgeClooney.png', 'Im_BenAffleck.png', 'Im_BradPitt.png', 'Im_HughJackman.png'],diff,1,0.4167712999997093,18,92.85714285714286,
PIFR3008,7,inv,60,pos60_id2_im3.bmp_pos60_id2_im16.bmp,['Im_LeonardoDiCaprio.png', 'Im_RyanGosling.png', 'Im_BenStiller.png', 'Im_JustinTimberlake.png', 'Im_DanielCraig.png', 'Im_MattDamon.png', 'Im_GeorgeClooney.png', 'Im_BenAffleck.png', 'Im_BradPitt.png', 'Im_HughJackman.png'],same,1,0.41662989999986166,19,92.85714285714286,
PIFR3008,7,inv,fs,posfs_id8_im21.bmp_posfs_id8_im20.bmp,['Im_LeonardoDiCaprio.png', 'Im_RyanGosling.png', 'Im_BenStiller.png', 'Im_JustinTimberlake.png', 'Im_DanielCraig.png', 'Im_MattDamon.png', 'Im_GeorgeClooney.png', 'Im_BenAffleck.png', 'Im_BradPitt.png', 'Im_HughJackman.png'],same,1,0.42491960000006657,20,92.85714285714286,
PIFR3008,7,inv,30,pos30_id14_im24.bmp_pos30_id20_im30.bmp,['Im_LeonardoDiCaprio.png', 'Im_RyanGosling.png', 'Im_BenStiller.png', 'Im_JustinTimberlake.png', 'Im_DanielCraig.png', 'Im_MattDamon.png', 'Im_GeorgeClooney.png', 'Im_BenAffleck.png', 'Im_BradPitt.png', 'Im_HughJackman.png'],same,0,0.41678999999930966,20,92.85714285714286,
PIFR3008,7,inv,fs,posfs_id10_im18.bmp_posfs_id10_im17.bmp,['Im_LeonardoDiCaprio.png', 'Im_RyanGosling.png', 'Im_BenStiller.png', 'Im_JustinTimberlake.png', 'Im_DanielCraig.png', 'Im_MattDamon.png', 'Im_GeorgeClooney.png', 'Im_BenAffleck.png', 'Im_BradPitt.png', 'Im_HughJackman.png'],same,1,0.408453300000474,21,92.85714285714286,
PIFR3008,7,inv,60,pos60_id20_im12.bmp_pos60_id13_im15.bmp,['Im_LeonardoDiCaprio.png', 'Im_RyanGosling.png', 'Im_BenStiller.png', 'Im_JustinTimberlake.png', 'Im_DanielCraig.png', 'Im_MattDamon.png', 'Im_GeorgeClooney.png', 'Im_BenAffleck.png', 'Im_BradPitt.png', 'Im_HughJackman.png'],diff,1,0.4167324000000008,22,92.85714285714286,
PIFR3008,7,inv,120,pos120_id13_im29.bmp_pos120_id3_im17.bmp,['Im_LeonardoDiCaprio.png', 'Im_RyanGosling.png', 'Im_BenStiller.png', 'Im_JustinTimberlake.png', 'Im_DanielCraig.png', 'Im_MattDamon.png', 'Im_GeorgeClooney.png', 'Im_BenAffleck.png', 'Im_BradPitt.png', 'Im_HughJackman.png'],diff,1,0.4250382999998692,23,92.85714285714286,
PIFR3008,7,inv,150,pos150_id14_im18.bmp_pos150_id13_im10.bmp,['Im_LeonardoDiCaprio.png', 'Im_RyanGosling.png', 'Im_BenStiller.png', 'Im_JustinTimberlake.png', 'Im_DanielCraig.png', 'Im_MattDamon.png', 'Im_GeorgeClooney.png', 'Im_BenAffleck.png', 'Im_BradPitt.png', 'Im_HughJackman.png'],same,0,0.5502954000003228,23,92.85714285714286,
PIFR3008,7,inv,90,pos90_id3_im17.bmp_pos90_id10_im1.bmp,['Im_LeonardoDiCaprio.png', 'Im_RyanGosling.png', 'Im_BenStiller.png', 'Im_JustinTimberlake.png', 'Im_DanielCraig.png', 'Im_MattDamon.png', 'Im_GeorgeClooney.png', 'Im_BenAffleck.png', 'Im_BradPitt.png', 'Im_HughJackman.png'],diff,1,1.2750542000003406,24,92.85714285714286,
PIFR3008,8,pos,60,pos60_id3_im17.bmp_pos60_id3_im6.bmp,['Im_LeonardoDiCaprio.png', 'Im_RyanGosling.png', 'Im_BenStiller.png', 'Im_JustinTimberlake.png', 'Im_DanielCraig.png', 'Im_MattDamon.png', 'Im_GeorgeClooney.png', 'Im_BenAffleck.png', 'Im_BradPitt.png', 'Im_HughJackman.png'],same,1,0.4166115999996691,25,92.85714285714286,
PIFR3008,8,pos,fs,posfs_id10_im18.bmp_posfs_id10_im17.bmp,['Im_LeonardoDiCaprio.png', 'Im_RyanGosling.png', 'Im_BenStiller.png', 'Im_JustinTimberlake.png', 'Im_DanielCraig.png', 'Im_MattDamon.png', 'Im_GeorgeClooney.png', 'Im_BenAffleck.png', 'Im_BradPitt.png', 'Im_HughJackman.png'],same,1,0.41675820000000385,26,92.85714285714286,
PIFR3008,8,pos,0,pos0_id3_im8.bmp_pos0_id8_im21.bmp,['Im_LeonardoDiCaprio.png', 'Im_RyanGosling.png', 'Im_BenStiller.png', 'Im_JustinTimberlake.png', 'Im_DanielCraig.png', 'Im_MattDamon.png', 'Im_GeorgeClooney.png', 'Im_BenAffleck.png', 'Im_BradPitt.png', 'Im_HughJackman.png'],diff,1,0.41663819999939733,27,92.85714285714286,
PIFR3008,8,pos,90,pos90_id8_im13.bmp_pos90_id14_im24.bmp,['Im_LeonardoDiCaprio.png', 'Im_RyanGosling.png', 'Im_BenStiller.png', 'Im_JustinTimberlake.png', 'Im_DanielCraig.png', 'Im_MattDamon.png', 'Im_GeorgeClooney.png', 'Im_BenAffleck.png', 'Im_BradPitt.png', 'Im_HughJackman.png'],diff,1,0.41674499999953696,28,92.85714285714286,
PIFR3008,8,pos,120,pos120_id4_im20.bmp_pos120_id4_im15.bmp,['Im_LeonardoDiCaprio.png', 'Im_RyanGosling.png', 'Im_BenStiller.png', 'Im_JustinTimberlake.png', 'Im_DanielCraig.png', 'Im_MattDamon.png', 'Im_GeorgeClooney.png', 'Im_BenAffleck.png', 'Im_BradPitt.png', 'Im_HughJackman.png'],same,1,0.4167969999998604,29,92.85714285714286,
PIFR3008,8,pos,30,pos30_id7_im15.bmp_pos30_id14_im18.bmp,['Im_LeonardoDiCaprio.png', 'Im_RyanGosling.png', 'Im_BenStiller.png', 'Im_JustinTimberlake.png', 'Im_DanielCraig.png', 'Im_MattDamon.png', 'Im_GeorgeClooney.png', 'Im_BenAffleck.png', 'Im_BradPitt.png', 'Im_HughJackman.png'],diff,1,0.4251465000006647,30,92.85714285714286,
PIFR3008,8,pos,0,pos0_id20_im3.bmp_pos0_id8_im20.bmp,['Im_LeonardoDiCaprio.png', 'Im_RyanGosling.png', 'Im_BenStiller.png', 'Im_JustinTimberlake.png', 'Im_DanielCraig.png', 'Im_MattDamon.png', 'Im_GeorgeClooney.png', 'Im_BenAffleck.png', 'Im_BradPitt.png', 'Im_HughJackman.png'],diff,1,0.4167668000000049,31,92.85714285714286,
PIFR3008,8,pos,60,pos60_id14_im18.bmp_pos60_id13_im10.bmp,['Im_LeonardoDiCaprio.png', 'Im_RyanGosling.png', 'Im_BenStiller.png', 'Im_JustinTimberlake.png', 'Im_DanielCraig.png', 'Im_MattDamon.png', 'Im_GeorgeClooney.png', 'Im_BenAffleck.png', 'Im_BradPitt.png', 'Im_HughJackman.png'],diff,1,0.4166988000006313,32,92.85714285714286,
PIFR3008,8,pos,90,pos90_id3_im17.bmp_pos90_id3_im8.bmp,['Im_LeonardoDiCaprio.png', 'Im_RyanGosling.png', 'Im_BenStiller.png', 'Im_JustinTimberlake.png', 'Im_DanielCraig.png', 'Im_MattDamon.png', 'Im_GeorgeClooney.png', 'Im_BenAffleck.png', 'Im_BradPitt.png', 'Im_HughJackman.png'],diff,0,0.41674539999985427,32,92.85714285714286,
PIFR3008,8,pos,fs,posfs_id8_im21.bmp_posfs_id20_im3.bmp,['Im_LeonardoDiCaprio.png', 'Im_RyanGosling.png', 'Im_BenStiller.png', 'Im_JustinTimberlake.png', 'Im_DanielCraig.png', 'Im_MattDamon.png', 'Im_GeorgeClooney.png', 'Im_BenAffleck.png', 'Im_BradPitt.png', 'Im_HughJackman.png'],diff,1,0.41670520000025135,33,92.85714285714286,
PIFR3008,8,pos,120,pos120_id3_im6.bmp_pos120_id1_im4.bmp,['Im_LeonardoDiCaprio.png', 'Im_RyanGosling.png', 'Im_BenStiller.png', 'Im_JustinTimberlake.png', 'Im_DanielCraig.png', 'Im_MattDamon.png', 'Im_GeorgeClooney.png', 'Im_BenAffleck.png', 'Im_BradPitt.png', 'Im_HughJackman.png'],diff,1,0.41672559999915393,34,92.85714285714286,
PIFR3008,8,pos,150,pos150_id8_im20.bmp_pos150_id8_im13.bmp,['Im_LeonardoDiCaprio.png', 'Im_RyanGosling.png', 'Im_BenStiller.png', 'Im_JustinTimberlake.png', 'Im_DanielCraig.png', 'Im_MattDamon.png', 'Im_GeorgeClooney.png', 'Im_BenAffleck.png', 'Im_BradPitt.png', 'Im_HughJackman.png'],same,1,0.41672139999991487,35,92.85714285714286,
PIFR3008,8,pos,150,pos150_id10_im17.bmp_pos150_id10_im18.bmp,['Im_LeonardoDiCaprio.png', 'Im_RyanGosling.png', 'Im_BenStiller.png', 'Im_JustinTimberlake.png', 'Im_DanielCraig.png', 'Im_MattDamon.png', 'Im_GeorgeClooney.png', 'Im_BenAffleck.png', 'Im_BradPitt.png', 'Im_HughJackman.png'],same,1,0.4168840000002092,36,92.85714285714286,
PIFR3008,8,pos,30,pos30_id4_im15.bmp_pos30_id7_im14.bmp,['Im_LeonardoDiCaprio.png', 'Im_RyanGosling.png', 'Im_BenStiller.png', 'Im_JustinTimberlake.png', 'Im_DanielCraig.png', 'Im_MattDamon.png', 'Im_GeorgeClooney.png', 'Im_BenAffleck.png', 'Im_BradPitt.png', 'Im_HughJackman.png'],diff,1,0.8752377000000706,37,92.85714285714286,
PIFR3008,9,neg,90,neg90_id14_im18.bmp_neg90_id13_im10.bmp,['Im_LeonardoDiCaprio.png', 'Im_RyanGosling.png', 'Im_BenStiller.png', 'Im_JustinTimberlake.png', 'Im_DanielCraig.png', 'Im_MattDamon.png', 'Im_GeorgeClooney.png', 'Im_BenAffleck.png', 'Im_BradPitt.png', 'Im_HughJackman.png'],same,0,0.42508660000021337,0,88.0952380952381,
PIFR3008,9,neg,150,neg150_id4_im7.bmp_neg150_id4_im20.bmp,['Im_LeonardoDiCaprio.png', 'Im_RyanGosling.png', 'Im_BenStiller.png', 'Im_JustinTimberlake.png', 'Im_DanielCraig.png', 'Im_MattDamon.png', 'Im_GeorgeClooney.png', 'Im_BenAffleck.png', 'Im_BradPitt.png', 'Im_HughJackman.png'],same,1,0.42504770000050485,1,88.0952380952381,
PIFR3008,9,neg,0,neg0_id14_im16.bmp_neg0_id14_im24.bmp,['Im_LeonardoDiCaprio.png', 'Im_RyanGosling.png', 'Im_BenStiller.png', 'Im_JustinTimberlake.png', 'Im_DanielCraig.png', 'Im_MattDamon.png', 'Im_GeorgeClooney.png', 'Im_BenAffleck.png', 'Im_BradPitt.png', 'Im_HughJackman.png'],diff,0,0.41677049999998417,1,88.0952380952381,
PIFR3008,9,neg,fs,negfs_id1_im21.bmp_negfs_id13_im15.bmp,['Im_LeonardoDiCaprio.png', 'Im_RyanGosling.png', 'Im_BenStiller.png', 'Im_JustinTimberlake.png', 'Im_DanielCraig.png', 'Im_MattDamon.png', 'Im_GeorgeClooney.png', 'Im_BenAffleck.png', 'Im_BradPitt.png', 'Im_HughJackman.png'],diff,1,0.4167320999995354,2,88.0952380952381,
PIFR3008,9,neg,150,neg150_id10_im18.bmp_neg150_id13_im29.bmp,['Im_LeonardoDiCaprio.png', 'Im_RyanGosling.png', 'Im_BenStiller.png', 'Im_JustinTimberlake.png', 'Im_DanielCraig.png', 'Im_MattDamon.png', 'Im_GeorgeClooney.png', 'Im_BenAffleck.png', 'Im_BradPitt.png', 'Im_HughJackman.png'],diff,1,0.42502479999984644,3,88.0952380952381,
PIFR3008,9,neg,60,neg60_id2_im2.bmp_neg60_id2_im16.bmp,['Im_LeonardoDiCaprio.png', 'Im_RyanGosling.png', 'Im_BenStiller.png', 'Im_JustinTimberlake.png', 'Im_DanielCraig.png', 'Im_MattDamon.png', 'Im_GeorgeClooney.png', 'Im_BenAffleck.png', 'Im_BradPitt.png', 'Im_HughJackman.png'],same,1,0.4087458999993032,4,88.0952380952381,
PIFR3008,9,neg,0,neg0_id10_im18.bmp_neg0_id2_im3.bmp,['Im_LeonardoDiCaprio.png', 'Im_RyanGosling.png', 'Im_BenStiller.png', 'Im_JustinTimberlake.png', 'Im_DanielCraig.png', 'Im_MattDamon.png', 'Im_GeorgeClooney.png', 'Im_BenAffleck.png', 'Im_BradPitt.png', 'Im_HughJackman.png'],diff,1,0.7332613999997193,5,88.0952380952381,
PIFR3008,9,neg,fs,negfs_id3_im6.bmp_negfs_id3_im17.bmp,['Im_LeonardoDiCaprio.png', 'Im_RyanGosling.png', 'Im_BenStiller.png', 'Im_JustinTimberlake.png', 'Im_DanielCraig.png', 'Im_MattDamon.png', 'Im_GeorgeClooney.png', 'Im_BenAffleck.png', 'Im_BradPitt.png', 'Im_HughJackman.png'],same,1,0.4582915999999386,6,88.0952380952381,
PIFR3008,9,neg,30,neg30_id8_im13.bmp_neg30_id8_im21.bmp,['Im_LeonardoDiCaprio.png', 'Im_RyanGosling.png', 'Im_BenStiller.png', 'Im_JustinTimberlake.png', 'Im_DanielCraig.png', 'Im_MattDamon.png', 'Im_GeorgeClooney.png', 'Im_BenAffleck.png', 'Im_BradPitt.png', 'Im_HughJackman.png'],same,1,0.4167459999998755,7,88.0952380952381,
PIFR3008,9,neg,120,neg120_id2_im16.bmp_neg120_id2_im2.bmp,['Im_LeonardoDiCaprio.png', 'Im_RyanGosling.png', 'Im_BenStiller.png', 'Im_JustinTimberlake.png', 'Im_DanielCraig.png', 'Im_MattDamon.png', 'Im_GeorgeClooney.png', 'Im_BenAffleck.png', 'Im_BradPitt.png', 'Im_HughJackman.png'],same,1,0.4333261000001585,8,88.0952380952381,
PIFR3008,9,neg,120,neg120_id14_im24.bmp_neg120_id14_im18.bmp,['Im_LeonardoDiCaprio.png', 'Im_RyanGosling.png', 'Im_BenStiller.png', 'Im_JustinTimberlake.png', 'Im_DanielCraig.png', 'Im_MattDamon.png', 'Im_GeorgeClooney.png', 'Im_BenAffleck.png', 'Im_BradPitt.png', 'Im_HughJackman.png'],same,1,0.41676709999956074,9,88.0952380952381,
PIFR3008,9,neg,90,neg90_id3_im17.bmp_neg90_id13_im29.bmp,['Im_LeonardoDiCaprio.png', 'Im_RyanGosling.png', 'Im_BenStiller.png', 'Im_JustinTimberlake.png', 'Im_DanielCraig.png', 'Im_MattDamon.png', 'Im_GeorgeClooney.png', 'Im_BenAffleck.png', 'Im_BradPitt.png', 'Im_HughJackman.png'],diff,1,0.408217400000467,10,88.0952380952381,
PIFR3008,9,neg,30,neg30_id14_im18.bmp_neg30_id13_im10.bmp,['Im_LeonardoDiCaprio.png', 'Im_RyanGosling.png', 'Im_BenStiller.png', 'Im_JustinTimberlake.png', 'Im_DanielCraig.png', 'Im_MattDamon.png', 'Im_GeorgeClooney.png', 'Im_BenAffleck.png', 'Im_BradPitt.png', 'Im_HughJackman.png'],diff,1,0.4166957999996157,11,88.0952380952381,
PIFR3008,9,neg,60,neg60_id14_im16.bmp_neg60_id14_im24.bmp,['Im_LeonardoDiCaprio.png', 'Im_RyanGosling.png', 'Im_BenStiller.png', 'Im_JustinTimberlake.png', 'Im_DanielCraig.png', 'Im_MattDamon.png', 'Im_GeorgeClooney.png', 'Im_BenAffleck.png', 'Im_BradPitt.png', 'Im_HughJackman.png'],same,1,0.5419818000000305,12,88.0952380952381,
PIFR3008,10,inv,fs,posfs_id4_im20.bmp_posfs_id4_im7.bmp,['Im_LeonardoDiCaprio.png', 'Im_RyanGosling.png', 'Im_BenStiller.png', 'Im_JustinTimberlake.png', 'Im_DanielCraig.png', 'Im_MattDamon.png', 'Im_GeorgeClooney.png', 'Im_BenAffleck.png', 'Im_BradPitt.png', 'Im_HughJackman.png'],same,1,0.41677849999996397,13,88.0952380952381,
PIFR3008,10,inv,0,pos0_id10_im17.bmp_pos0_id3_im6.bmp,['Im_LeonardoDiCaprio.png', 'Im_RyanGosling.png', 'Im_BenStiller.png', 'Im_JustinTimberlake.png', 'Im_DanielCraig.png', 'Im_MattDamon.png', 'Im_GeorgeClooney.png', 'Im_BenAffleck.png', 'Im_BradPitt.png', 'Im_HughJackman.png'],same,0,0.425083099999938,13,88.0952380952381,
PIFR3008,10,inv,fs,posfs_id1_im4.bmp_posfs_id1_im24.bmp,['Im_LeonardoDiCaprio.png', 'Im_RyanGosling.png', 'Im_BenStiller.png', 'Im_JustinTimberlake.png', 'Im_DanielCraig.png', 'Im_MattDamon.png', 'Im_GeorgeClooney.png', 'Im_BenAffleck.png', 'Im_BradPitt.png', 'Im_HughJackman.png'],same,1,0.41677679999975226,14,88.0952380952381,
PIFR3008,10,inv,30,pos30_id4_im20.bmp_pos30_id2_im3.bmp,['Im_LeonardoDiCaprio.png', 'Im_RyanGosling.png', 'Im_BenStiller.png', 'Im_JustinTimberlake.png', 'Im_DanielCraig.png', 'Im_MattDamon.png', 'Im_GeorgeClooney.png', 'Im_BenAffleck.png', 'Im_BradPitt.png', 'Im_HughJackman.png'],diff,1,0.42508490000000165,15,88.0952380952381,
PIFR3008,10,inv,120,pos120_id14_im18.bmp_pos120_id13_im10.bmp,['Im_LeonardoDiCaprio.png', 'Im_RyanGosling.png', 'Im_BenStiller.png', 'Im_JustinTimberlake.png', 'Im_DanielCraig.png', 'Im_MattDamon.png', 'Im_GeorgeClooney.png', 'Im_BenAffleck.png', 'Im_BradPitt.png', 'Im_HughJackman.png'],same,0,0.416689700000461,15,88.0952380952381,
PIFR3008,10,inv,60,pos60_id8_im13.bmp_pos60_id4_im20.bmp,['Im_LeonardoDiCaprio.png', 'Im_RyanGosling.png', 'Im_BenStiller.png', 'Im_JustinTimberlake.png', 'Im_DanielCraig.png', 'Im_MattDamon.png', 'Im_GeorgeClooney.png', 'Im_BenAffleck.png', 'Im_BradPitt.png', 'Im_HughJackman.png'],diff,1,0.41667619999952876,16,88.0952380952381,
PIFR3008,10,inv,30,pos30_id13_im15.bmp_pos30_id1_im21.bmp,['Im_LeonardoDiCaprio.png', 'Im_RyanGosling.png', 'Im_BenStiller.png', 'Im_JustinTimberlake.png', 'Im_DanielCraig.png', 'Im_MattDamon.png', 'Im_GeorgeClooney.png', 'Im_BenAffleck.png', 'Im_BradPitt.png', 'Im_HughJackman.png'],diff,1,0.4250454000002719,17,88.0952380952381,
PIFR3008,10,inv,90,pos90_id7_im14.bmp_pos90_id4_im15.bmp,['Im_LeonardoDiCaprio.png', 'Im_RyanGosling.png', 'Im_BenStiller.png', 'Im_JustinTimberlake.png', 'Im_DanielCraig.png', 'Im_MattDamon.png', 'Im_GeorgeClooney.png', 'Im_BenAffleck.png', 'Im_BradPitt.png', 'Im_HughJackman.png'],diff,1,0.4167542000004687,18,88.0952380952381,
PIFR3008,10,inv,0,pos0_id13_im15.bmp_pos0_id1_im21.bmp,['Im_LeonardoDiCaprio.png', 'Im_RyanGosling.png', 'Im_BenStiller.png', 'Im_JustinTimberlake.png', 'Im_DanielCraig.png', 'Im_MattDamon.png', 'Im_GeorgeClooney.png', 'Im_BenAffleck.png', 'Im_BradPitt.png', 'Im_HughJackman.png'],diff,1,0.4084038999999393,19,88.0952380952381,
PIFR3008,10,inv,150,pos150_id13_im15.bmp_pos150_id1_im21.bmp,['Im_LeonardoDiCaprio.png', 'Im_RyanGosling.png', 'Im_BenStiller.png', 'Im_JustinTimberlake.png', 'Im_DanielCraig.png', 'Im_MattDamon.png', 'Im_GeorgeClooney.png', 'Im_BenAffleck.png', 'Im_BradPitt.png', 'Im_HughJackman.png'],diff,1,0.41677680000066175,20,88.0952380952381,
PIFR3008,10,inv,90,pos90_id8_im13.bmp_pos90_id14_im24.bmp,['Im_LeonardoDiCaprio.png', 'Im_RyanGosling.png', 'Im_BenStiller.png', 'Im_JustinTimberlake.png', 'Im_DanielCraig.png', 'Im_MattDamon.png', 'Im_GeorgeClooney.png', 'Im_BenAffleck.png', 'Im_BradPitt.png', 'Im_HughJackman.png'],diff,1,0.4081919000000198,21,88.0952380952381,
PIFR3008,10,inv,150,pos150_id10_im1.bmp_pos150_id10_im17.bmp,['Im_LeonardoDiCaprio.png', 'Im_RyanGosling.png', 'Im_BenStiller.png', 'Im_JustinTimberlake.png', 'Im_DanielCraig.png', 'Im_MattDamon.png', 'Im_GeorgeClooney.png', 'Im_BenAffleck.png', 'Im_BradPitt.png', 'Im_HughJackman.png'],same,1,0.48340680000001157,22,88.0952380952381,
PIFR3008,10,inv,120,pos120_id1_im24.bmp_pos120_id4_im7.bmp,['Im_LeonardoDiCaprio.png', 'Im_RyanGosling.png', 'Im_BenStiller.png', 'Im_JustinTimberlake.png', 'Im_DanielCraig.png', 'Im_MattDamon.png', 'Im_GeorgeClooney.png', 'Im_BenAffleck.png', 'Im_BradPitt.png', 'Im_HughJackman.png'],diff,1,0.41691009999976814,23,88.0952380952381,
PIFR3008,10,inv,60,pos60_id13_im29.bmp_pos60_id13_im15.bmp,['Im_LeonardoDiCaprio.png', 'Im_RyanGosling.png', 'Im_BenStiller.png', 'Im_JustinTimberlake.png', 'Im_DanielCraig.png', 'Im_MattDamon.png', 'Im_GeorgeClooney.png', 'Im_BenAffleck.png', 'Im_BradPitt.png', 'Im_HughJackman.png'],same,1,0.41659009999966656,24,88.0952380952381,
PIFR3008,11,neg,120,neg120_id8_im13.bmp_neg120_id8_im21.bmp,['Im_LeonardoDiCaprio.png', 'Im_RyanGosling.png', 'Im_BenStiller.png', 'Im_JustinTimberlake.png', 'Im_DanielCraig.png', 'Im_MattDamon.png', 'Im_GeorgeClooney.png', 'Im_BenAffleck.png', 'Im_BradPitt.png', 'Im_HughJackman.png'],same,1,0.4167388000005303,25,88.0952380952381,
PIFR3008,11,neg,fs,negfs_id14_im24.bmp_negfs_id8_im13.bmp,['Im_LeonardoDiCaprio.png', 'Im_RyanGosling.png', 'Im_BenStiller.png', 'Im_JustinTimberlake.png', 'Im_DanielCraig.png', 'Im_MattDamon.png', 'Im_GeorgeClooney.png', 'Im_BenAffleck.png', 'Im_BradPitt.png', 'Im_HughJackman.png'],diff,1,0.42508189999989554,26,88.0952380952381,
PIFR3008,11,neg,fs,negfs_id20_im12.bmp_negfs_id20_im30.bmp,['Im_LeonardoDiCaprio.png', 'Im_RyanGosling.png', 'Im_BenStiller.png', 'Im_JustinTimberlake.png', 'Im_DanielCraig.png', 'Im_MattDamon.png', 'Im_GeorgeClooney.png', 'Im_BenAffleck.png', 'Im_BradPitt.png', 'Im_HughJackman.png'],same,1,0.42514329999994516,27,88.0952380952381,
PIFR3008,11,neg,60,neg60_id10_im17.bmp_neg60_id10_im18.bmp,['Im_LeonardoDiCaprio.png', 'Im_RyanGosling.png', 'Im_BenStiller.png', 'Im_JustinTimberlake.png', 'Im_DanielCraig.png', 'Im_MattDamon.png', 'Im_GeorgeClooney.png', 'Im_BenAffleck.png', 'Im_BradPitt.png', 'Im_HughJackman.png'],same,1,0.41660159999992175,28,88.0952380952381,
PIFR3008,11,neg,90,neg90_id1_im24.bmp_neg90_id10_im17.bmp,['Im_LeonardoDiCaprio.png', 'Im_RyanGosling.png', 'Im_BenStiller.png', 'Im_JustinTimberlake.png', 'Im_DanielCraig.png', 'Im_MattDamon.png', 'Im_GeorgeClooney.png', 'Im_BenAffleck.png', 'Im_BradPitt.png', 'Im_HughJackman.png'],diff,1,0.4167766999999003,29,88.0952380952381,
PIFR3008,11,neg,150,neg150_id1_im4.bmp_neg150_id1_im24.bmp,['Im_LeonardoDiCaprio.png', 'Im_RyanGosling.png', 'Im_BenStiller.png', 'Im_JustinTimberlake.png', 'Im_DanielCraig.png', 'Im_MattDamon.png', 'Im_GeorgeClooney.png', 'Im_BenAffleck.png', 'Im_BradPitt.png', 'Im_HughJackman.png'],diff,0,0.47518899999977293,29,88.0952380952381,
PIFR3008,11,neg,60,neg60_id4_im20.bmp_neg60_id4_im7.bmp,['Im_LeonardoDiCaprio.png', 'Im_RyanGosling.png', 'Im_BenStiller.png', 'Im_JustinTimberlake.png', 'Im_DanielCraig.png', 'Im_MattDamon.png', 'Im_GeorgeClooney.png', 'Im_BenAffleck.png', 'Im_BradPitt.png', 'Im_HughJackman.png'],same,1,0.41674369999964256,30,88.0952380952381,
PIFR3008,11,neg,0,neg0_id13_im29.bmp_neg0_id10_im18.bmp,['Im_LeonardoDiCaprio.png', 'Im_RyanGosling.png', 'Im_BenStiller.png', 'Im_JustinTimberlake.png', 'Im_DanielCraig.png', 'Im_MattDamon.png', 'Im_GeorgeClooney.png', 'Im_BenAffleck.png', 'Im_BradPitt.png', 'Im_HughJackman.png'],diff,1,0.47500209999998333,31,88.0952380952381,
PIFR3008,11,neg,30,neg30_id14_im18.bmp_neg30_id14_im16.bmp,['Im_LeonardoDiCaprio.png', 'Im_RyanGosling.png', 'Im_BenStiller.png', 'Im_JustinTimberlake.png', 'Im_DanielCraig.png', 'Im_MattDamon.png', 'Im_GeorgeClooney.png', 'Im_BenAffleck.png', 'Im_BradPitt.png', 'Im_HughJackman.png'],same,1,0.4919648999994024,32,88.0952380952381,
PIFR3008,11,neg,90,neg90_id3_im8.bmp_neg90_id8_im21.bmp,['Im_LeonardoDiCaprio.png', 'Im_RyanGosling.png', 'Im_BenStiller.png', 'Im_JustinTimberlake.png', 'Im_DanielCraig.png', 'Im_MattDamon.png', 'Im_GeorgeClooney.png', 'Im_BenAffleck.png', 'Im_BradPitt.png', 'Im_HughJackman.png'],diff,1,0.4168603999996776,33,88.0952380952381,
PIFR3008,11,neg,120,neg120_id14_im16.bmp_neg120_id14_im24.bmp,['Im_LeonardoDiCaprio.png', 'Im_RyanGosling.png', 'Im_BenStiller.png', 'Im_JustinTimberlake.png', 'Im_DanielCraig.png', 'Im_MattDamon.png', 'Im_GeorgeClooney.png', 'Im_BenAffleck.png', 'Im_BradPitt.png', 'Im_HughJackman.png'],diff,0,0.41678030000002764,33,88.0952380952381,
PIFR3008,11,neg,30,neg30_id13_im10.bmp_neg30_id20_im30.bmp,['Im_LeonardoDiCaprio.png', 'Im_RyanGosling.png', 'Im_BenStiller.png', 'Im_JustinTimberlake.png', 'Im_DanielCraig.png', 'Im_MattDamon.png', 'Im_GeorgeClooney.png', 'Im_BenAffleck.png', 'Im_BradPitt.png', 'Im_HughJackman.png'],diff,1,0.41663140000036947,34,88.0952380952381,
PIFR3008,11,neg,150,neg150_id3_im8.bmp_neg150_id1_im21.bmp,['Im_LeonardoDiCaprio.png', 'Im_RyanGosling.png', 'Im_BenStiller.png', 'Im_JustinTimberlake.png', 'Im_DanielCraig.png', 'Im_MattDamon.png', 'Im_GeorgeClooney.png', 'Im_BenAffleck.png', 'Im_BradPitt.png', 'Im_HughJackman.png'],diff,1,0.40849099999923055,35,88.0952380952381,
PIFR3008,11,neg,0,neg0_id3_im17.bmp_neg0_id13_im29.bmp,['Im_LeonardoDiCaprio.png', 'Im_RyanGosling.png', 'Im_BenStiller.png', 'Im_JustinTimberlake.png', 'Im_DanielCraig.png', 'Im_MattDamon.png', 'Im_GeorgeClooney.png', 'Im_BenAffleck.png', 'Im_BradPitt.png', 'Im_HughJackman.png'],diff,1,0.42499840000073164,36,88.0952380952381,
PIFR3008,12,pos,30,pos30_id3_im17.bmp_pos30_id13_im29.bmp,['Im_LeonardoDiCaprio.png', 'Im_RyanGosling.png', 'Im_BenStiller.png', 'Im_JustinTimberlake.png', 'Im_DanielCraig.png', 'Im_MattDamon.png', 'Im_GeorgeClooney.png', 'Im_BenAffleck.png', 'Im_BradPitt.png', 'Im_HughJackman.png'],diff,1,0.4251084000006813,1,85.71428571428571,
PIFR3008,12,pos,0,pos0_id3_im6.bmp_pos0_id1_im4.bmp,['Im_LeonardoDiCaprio.png', 'Im_RyanGosling.png', 'Im_BenStiller.png', 'Im_JustinTimberlake.png', 'Im_DanielCraig.png', 'Im_MattDamon.png', 'Im_GeorgeClooney.png', 'Im_BenAffleck.png', 'Im_BradPitt.png', 'Im_HughJackman.png'],diff,1,0.4167324000000008,2,85.71428571428571,
PIFR3008,12,pos,30,pos30_id3_im8.bmp_pos30_id3_im17.bmp,['Im_LeonardoDiCaprio.png', 'Im_RyanGosling.png', 'Im_BenStiller.png', 'Im_JustinTimberlake.png', 'Im_DanielCraig.png', 'Im_MattDamon.png', 'Im_GeorgeClooney.png', 'Im_BenAffleck.png', 'Im_BradPitt.png', 'Im_HughJackman.png'],diff,0,0.4167347999991762,2,85.71428571428571,
PIFR3008,12,pos,60,pos60_id8_im13.bmp_pos60_id4_im20.bmp,['Im_LeonardoDiCaprio.png', 'Im_RyanGosling.png', 'Im_BenStiller.png', 'Im_JustinTimberlake.png', 'Im_DanielCraig.png', 'Im_MattDamon.png', 'Im_GeorgeClooney.png', 'Im_BenAffleck.png', 'Im_BradPitt.png', 'Im_HughJackman.png'],diff,1,0.4083760000003167,3,85.71428571428571,
PIFR3008,12,pos,150,pos150_id13_im29.bmp_pos150_id3_im17.bmp,['Im_LeonardoDiCaprio.png', 'Im_RyanGosling.png', 'Im_BenStiller.png', 'Im_JustinTimberlake.png', 'Im_DanielCraig.png', 'Im_MattDamon.png', 'Im_GeorgeClooney.png', 'Im_BenAffleck.png', 'Im_BradPitt.png', 'Im_HughJackman.png'],diff,1,0.41668959999969957,4,85.71428571428571,
PIFR3008,12,pos,fs,posfs_id14_im16.bmp_posfs_id2_im16.bmp,['Im_LeonardoDiCaprio.png', 'Im_RyanGosling.png', 'Im_BenStiller.png', 'Im_JustinTimberlake.png', 'Im_DanielCraig.png', 'Im_MattDamon.png', 'Im_GeorgeClooney.png', 'Im_BenAffleck.png', 'Im_BradPitt.png', 'Im_HughJackman.png'],diff,1,0.4167523000005531,5,85.71428571428571,
PIFR3008,12,pos,90,pos90_id7_im14.bmp_pos90_id7_im15.bmp,['Im_LeonardoDiCaprio.png', 'Im_RyanGosling.png', 'Im_BenStiller.png', 'Im_JustinTimberlake.png', 'Im_DanielCraig.png', 'Im_MattDamon.png', 'Im_GeorgeClooney.png', 'Im_BenAffleck.png', 'Im_BradPitt.png', 'Im_HughJackman.png'],same,1,0.4167895000000499,6,85.71428571428571,
PIFR3008,12,pos,120,pos120_id3_im6.bmp_pos120_id10_im17.bmp,['Im_LeonardoDiCaprio.png', 'Im_RyanGosling.png', 'Im_BenStiller.png', 'Im_JustinTimberlake.png', 'Im_DanielCraig.png', 'Im_MattDamon.png', 'Im_GeorgeClooney.png', 'Im_BenAffleck.png', 'Im_BradPitt.png', 'Im_HughJackman.png'],diff,1,0.4167262999999366,7,85.71428571428571,
PIFR3008,12,pos,0,pos0_id4_im20.bmp_pos0_id2_im3.bmp,['Im_LeonardoDiCaprio.png', 'Im_RyanGosling.png', 'Im_BenStiller.png', 'Im_JustinTimberlake.png', 'Im_DanielCraig.png', 'Im_MattDamon.png', 'Im_GeorgeClooney.png', 'Im_BenAffleck.png', 'Im_BradPitt.png', 'Im_HughJackman.png'],diff,1,0.4166829999994661,8,85.71428571428571,
PIFR3008,12,pos,90,pos90_id14_im16.bmp_pos90_id14_im18.bmp,['Im_LeonardoDiCaprio.png', 'Im_RyanGosling.png', 'Im_BenStiller.png', 'Im_JustinTimberlake.png', 'Im_DanielCraig.png', 'Im_MattDamon.png', 'Im_GeorgeClooney.png', 'Im_BenAffleck.png', 'Im_BradPitt.png', 'Im_HughJackman.png'],diff,0,0.41688260000046284,8,85.71428571428571,
PIFR3008,12,pos,150,pos150_id13_im10.bmp_pos150_id14_im18.bmp,['Im_LeonardoDiCaprio.png', 'Im_RyanGosling.png', 'Im_BenStiller.png', 'Im_JustinTimberlake.png', 'Im_DanielCraig.png', 'Im_MattDamon.png', 'Im_GeorgeClooney.png', 'Im_BenAffleck.png', 'Im_BradPitt.png', 'Im_HughJackman.png'],diff,1,0.41672509999989416,9,85.71428571428571,
PIFR3008,12,pos,fs,posfs_id7_im26.bmp_posfs_id7_im15.bmp,['Im_LeonardoDiCaprio.png', 'Im_RyanGosling.png', 'Im_BenStiller.png', 'Im_JustinTimberlake.png', 'Im_DanielCraig.png', 'Im_MattDamon.png', 'Im_GeorgeClooney.png', 'Im_BenAffleck.png', 'Im_BradPitt.png', 'Im_HughJackman.png'],same,1,0.4333950000000186,10,85.71428571428571,
PIFR3008,12,pos,60,pos60_id8_im21.bmp_pos60_id20_im3.bmp,['Im_LeonardoDiCaprio.png', 'Im_RyanGosling.png', 'Im_BenStiller.png', 'Im_JustinTimberlake.png', 'Im_DanielCraig.png', 'Im_MattDamon.png', 'Im_GeorgeClooney.png', 'Im_BenAffleck.png', 'Im_BradPitt.png', 'Im_HughJackman.png'],diff,1,0.43329909999920346,11,85.71428571428571,
PIFR3008,12,pos,120,pos120_id1_im21.bmp_pos120_id1_im4.bmp,['Im_LeonardoDiCaprio.png', 'Im_RyanGosling.png', 'Im_BenStiller.png', 'Im_JustinTimberlake.png', 'Im_DanielCraig.png', 'Im_MattDamon.png', 'Im_GeorgeClooney.png', 'Im_BenAffleck.png', 'Im_BradPitt.png', 'Im_HughJackman.png'],same,1,0.41657219999979134,12,85.71428571428571,
PIFR3008,13,inv,30,pos30_id1_im4.bmp_pos30_id4_im7.bmp,['Im_LeonardoDiCaprio.png', 'Im_RyanGosling.png', 'Im_BenStiller.png', 'Im_JustinTimberlake.png', 'Im_DanielCraig.png', 'Im_MattDamon.png', 'Im_GeorgeClooney.png', 'Im_BenAffleck.png', 'Im_BradPitt.png', 'Im_HughJackman.png'],diff,1,0.4334080999997241,13,85.71428571428571,
PIFR3008,13,inv,90,pos90_id4_im15.bmp_pos90_id4_im20.bmp,['Im_LeonardoDiCaprio.png', 'Im_RyanGosling.png', 'Im_BenStiller.png', 'Im_JustinTimberlake.png', 'Im_DanielCraig.png', 'Im_MattDamon.png', 'Im_GeorgeClooney.png', 'Im_BenAffleck.png', 'Im_BradPitt.png', 'Im_HughJackman.png'],same,1,0.41673270000046614,14,85.71428571428571,
PIFR3008,13,inv,150,pos150_id1_im24.bmp_pos150_id1_im21.bmp,['Im_LeonardoDiCaprio.png', 'Im_RyanGosling.png', 'Im_BenStiller.png', 'Im_JustinTimberlake.png', 'Im_DanielCraig.png', 'Im_MattDamon.png', 'Im_GeorgeClooney.png', 'Im_BenAffleck.png', 'Im_BradPitt.png', 'Im_HughJackman.png'],same,1,0.4084094999998342,15,85.71428571428571,
PIFR3008,13,inv,0,pos0_id14_im24.bmp_pos0_id20_im30.bmp,['Im_LeonardoDiCaprio.png', 'Im_RyanGosling.png', 'Im_BenStiller.png', 'Im_JustinTimberlake.png', 'Im_DanielCraig.png', 'Im_MattDamon.png', 'Im_GeorgeClooney.png', 'Im_BenAffleck.png', 'Im_BradPitt.png', 'Im_HughJackman.png'],same,0,0.40838309999980993,15,85.71428571428571,
PIFR3008,13,inv,fs,posfs_id13_im29.bmp_posfs_id10_im18.bmp,['Im_LeonardoDiCaprio.png', 'Im_RyanGosling.png', 'Im_BenStiller.png', 'Im_JustinTimberlake.png', 'Im_DanielCraig.png', 'Im_MattDamon.png', 'Im_GeorgeClooney.png', 'Im_BenAffleck.png', 'Im_BradPitt.png', 'Im_HughJackman.png'],diff,1,0.4167717000000266,16,85.71428571428571,
PIFR3008,13,inv,60,pos60_id3_im17.bmp_pos60_id13_im29.bmp,['Im_LeonardoDiCaprio.png', 'Im_RyanGosling.png', 'Im_BenStiller.png', 'Im_JustinTimberlake.png', 'Im_DanielCraig.png', 'Im_MattDamon.png', 'Im_GeorgeClooney.png', 'Im_BenAffleck.png', 'Im_BradPitt.png', 'Im_HughJackman.png'],same,0,0.4167098999996597,16,85.71428571428571,
PIFR3008,13,inv,120,pos120_id13_im15.bmp_pos120_id20_im12.bmp,['Im_LeonardoDiCaprio.png', 'Im_RyanGosling.png', 'Im_BenStiller.png', 'Im_JustinTimberlake.png', 'Im_DanielCraig.png', 'Im_MattDamon.png', 'Im_GeorgeClooney.png', 'Im_BenAffleck.png', 'Im_BradPitt.png', 'Im_HughJackman.png'],diff,1,0.4250698999994711,17,85.71428571428571,
PIFR3008,13,inv,60,pos60_id14_im18.bmp_pos60_id14_im24.bmp,['Im_LeonardoDiCaprio.png', 'Im_RyanGosling.png', 'Im_BenStiller.png', 'Im_JustinTimberlake.png', 'Im_DanielCraig.png', 'Im_MattDamon.png', 'Im_GeorgeClooney.png', 'Im_BenAffleck.png', 'Im_BradPitt.png', 'Im_HughJackman.png'],same,1,0.5334449000001769,18,85.71428571428571,
PIFR3008,13,inv,150,pos150_id3_im8.bmp_pos150_id8_im21.bmp,['Im_LeonardoDiCaprio.png', 'Im_RyanGosling.png', 'Im_BenStiller.png', 'Im_JustinTimberlake.png', 'Im_DanielCraig.png', 'Im_MattDamon.png', 'Im_GeorgeClooney.png', 'Im_BenAffleck.png', 'Im_BradPitt.png', 'Im_HughJackman.png'],diff,1,0.41682700000001205,19,85.71428571428571,
PIFR3008,13,inv,120,pos120_id4_im20.bmp_pos120_id2_im3.bmp,['Im_LeonardoDiCaprio.png', 'Im_RyanGosling.png', 'Im_BenStiller.png', 'Im_JustinTimberlake.png', 'Im_DanielCraig.png', 'Im_MattDamon.png', 'Im_GeorgeClooney.png', 'Im_BenAffleck.png', 'Im_BradPitt.png', 'Im_HughJackman.png'],diff,1,0.41679519999979675,20,85.71428571428571,
PIFR3008,13,inv,90,pos90_id14_im16.bmp_pos90_id14_im24.bmp,['Im_LeonardoDiCaprio.png', 'Im_RyanGosling.png', 'Im_BenStiller.png', 'Im_JustinTimberlake.png', 'Im_DanielCraig.png', 'Im_MattDamon.png', 'Im_GeorgeClooney.png', 'Im_BenAffleck.png', 'Im_BradPitt.png', 'Im_HughJackman.png'],same,1,1.3336156999994273,21,85.71428571428571,
PIFR3008,13,inv,0,pos0_id13_im15.bmp_pos0_id20_im12.bmp,['Im_LeonardoDiCaprio.png', 'Im_RyanGosling.png', 'Im_BenStiller.png', 'Im_JustinTimberlake.png', 'Im_DanielCraig.png', 'Im_MattDamon.png', 'Im_GeorgeClooney.png', 'Im_BenAffleck.png', 'Im_BradPitt.png', 'Im_HughJackman.png'],diff,1,0.4167201999998724,22,85.71428571428571,
PIFR3008,13,inv,30,pos30_id7_im14.bmp_pos30_id10_im1.bmp,['Im_LeonardoDiCaprio.png', 'Im_RyanGosling.png', 'Im_BenStiller.png', 'Im_JustinTimberlake.png', 'Im_DanielCraig.png', 'Im_MattDamon.png', 'Im_GeorgeClooney.png', 'Im_BenAffleck.png', 'Im_BradPitt.png', 'Im_HughJackman.png'],diff,1,0.42522360000020853,23,85.71428571428571,
PIFR3008,13,inv,fs,posfs_id14_im24.bmp_posfs_id14_im16.bmp,['Im_LeonardoDiCaprio.png', 'Im_RyanGosling.png', 'Im_BenStiller.png', 'Im_JustinTimberlake.png', 'Im_DanielCraig.png', 'Im_MattDamon.png', 'Im_GeorgeClooney.png', 'Im_BenAffleck.png', 'Im_BradPitt.png', 'Im_HughJackman.png'],same,1,0.41672830000061367,24,85.71428571428571,
PIFR3008,14,neg,fs,negfs_id14_im18.bmp_negfs_id13_im10.bmp,['Im_LeonardoDiCaprio.png', 'Im_RyanGosling.png', 'Im_BenStiller.png', 'Im_JustinTimberlake.png', 'Im_DanielCraig.png', 'Im_MattDamon.png', 'Im_GeorgeClooney.png', 'Im_BenAffleck.png', 'Im_BradPitt.png', 'Im_HughJackman.png'],diff,1,0.424992199999906,25,85.71428571428571,
PIFR3008,14,neg,30,neg30_id7_im26.bmp_neg30_id7_im14.bmp,['Im_LeonardoDiCaprio.png', 'Im_RyanGosling.png', 'Im_BenStiller.png', 'Im_JustinTimberlake.png', 'Im_DanielCraig.png', 'Im_MattDamon.png', 'Im_GeorgeClooney.png', 'Im_BenAffleck.png', 'Im_BradPitt.png', 'Im_HughJackman.png'],same,1,0.41673460000038176,26,85.71428571428571,
PIFR3008,14,neg,fs,negfs_id14_im16.bmp_negfs_id7_im26.bmp,['Im_LeonardoDiCaprio.png', 'Im_RyanGosling.png', 'Im_BenStiller.png', 'Im_JustinTimberlake.png', 'Im_DanielCraig.png', 'Im_MattDamon.png', 'Im_GeorgeClooney.png', 'Im_BenAffleck.png', 'Im_BradPitt.png', 'Im_HughJackman.png'],diff,1,0.42512449999958335,27,85.71428571428571,
PIFR3008,14,neg,120,neg120_id13_im10.bmp_neg120_id14_im18.bmp,['Im_LeonardoDiCaprio.png', 'Im_RyanGosling.png', 'Im_BenStiller.png', 'Im_JustinTimberlake.png', 'Im_DanielCraig.png', 'Im_MattDamon.png', 'Im_GeorgeClooney.png', 'Im_BenAffleck.png', 'Im_BradPitt.png', 'Im_HughJackman.png'],same,0,0.42523549999987154,27,85.71428571428571,
PIFR3008,14,neg,30,neg30_id4_im7.bmp_neg30_id1_im4.bmp,['Im_LeonardoDiCaprio.png', 'Im_RyanGosling.png', 'Im_BenStiller.png', 'Im_JustinTimberlake.png', 'Im_DanielCraig.png', 'Im_MattDamon.png', 'Im_GeorgeClooney.png', 'Im_BenAffleck.png', 'Im_BradPitt.png', 'Im_HughJackman.png'],diff,1,0.4332102999997005,28,85.71428571428571,
PIFR3008,14,neg,150,neg150_id2_im3.bmp_neg150_id10_im18.bmp,['Im_LeonardoDiCaprio.png', 'Im_RyanGosling.png', 'Im_BenStiller.png', 'Im_JustinTimberlake.png', 'Im_DanielCraig.png', 'Im_MattDamon.png', 'Im_GeorgeClooney.png', 'Im_BenAffleck.png', 'Im_BradPitt.png', 'Im_HughJackman.png'],diff,1,0.4250317999994877,29,85.71428571428571,
PIFR3008,14,neg,150,neg150_id2_im16.bmp_neg150_id2_im2.bmp,['Im_LeonardoDiCaprio.png', 'Im_RyanGosling.png', 'Im_BenStiller.png', 'Im_JustinTimberlake.png', 'Im_DanielCraig.png', 'Im_MattDamon.png', 'Im_GeorgeClooney.png', 'Im_BenAffleck.png', 'Im_BradPitt.png', 'Im_HughJackman.png'],same,1,0.41665850000026694,30,85.71428571428571,
PIFR3008,14,neg,0,neg0_id1_im24.bmp_neg0_id1_im21.bmp,['Im_LeonardoDiCaprio.png', 'Im_RyanGosling.png', 'Im_BenStiller.png', 'Im_JustinTimberlake.png', 'Im_DanielCraig.png', 'Im_MattDamon.png', 'Im_GeorgeClooney.png', 'Im_BenAffleck.png', 'Im_BradPitt.png', 'Im_HughJackman.png'],same,1,0.41660810000030324,31,85.71428571428571,
PIFR3008,14,neg,120,neg120_id3_im6.bmp_neg120_id10_im17.bmp,['Im_LeonardoDiCaprio.png', 'Im_RyanGosling.png', 'Im_BenStiller.png', 'Im_JustinTimberlake.png', 'Im_DanielCraig.png', 'Im_MattDamon.png', 'Im_GeorgeClooney.png', 'Im_BenAffleck.png', 'Im_BradPitt.png', 'Im_HughJackman.png'],diff,1,0.41709720000017114,32,85.71428571428571,
PIFR3008,14,neg,90,neg90_id3_im6.bmp_neg90_id1_im4.bmp,['Im_LeonardoDiCaprio.png', 'Im_RyanGosling.png', 'Im_BenStiller.png', 'Im_JustinTimberlake.png', 'Im_DanielCraig.png', 'Im_MattDamon.png', 'Im_GeorgeClooney.png', 'Im_BenAffleck.png', 'Im_BradPitt.png', 'Im_HughJackman.png'],diff,1,0.42506520000006276,33,85.71428571428571,
PIFR3008,14,neg,0,neg0_id7_im26.bmp_neg0_id2_im2.bmp,['Im_LeonardoDiCaprio.png', 'Im_RyanGosling.png', 'Im_BenStiller.png', 'Im_JustinTimberlake.png', 'Im_DanielCraig.png', 'Im_MattDamon.png', 'Im_GeorgeClooney.png', 'Im_BenAffleck.png', 'Im_BradPitt.png', 'Im_HughJackman.png'],diff,1,0.425068999999894,34,85.71428571428571,
PIFR3008,14,neg,60,neg60_id2_im3.bmp_neg60_id10_im18.bmp,['Im_LeonardoDiCaprio.png', 'Im_RyanGosling.png', 'Im_BenStiller.png', 'Im_JustinTimberlake.png', 'Im_DanielCraig.png', 'Im_MattDamon.png', 'Im_GeorgeClooney.png', 'Im_BenAffleck.png', 'Im_BradPitt.png', 'Im_HughJackman.png'],diff,1,0.4252841999996235,35,85.71428571428571,
PIFR3008,14,neg,60,neg60_id13_im15.bmp_neg60_id13_im29.bmp,['Im_LeonardoDiCaprio.png', 'Im_RyanGosling.png', 'Im_BenStiller.png', 'Im_JustinTimberlake.png', 'Im_DanielCraig.png', 'Im_MattDamon.png', 'Im_GeorgeClooney.png', 'Im_BenAffleck.png', 'Im_BradPitt.png', 'Im_HughJackman.png'],same,1,0.42506929999944987,36,85.71428571428571,
PIFR3008,14,neg,90,neg90_id8_im13.bmp_neg90_id14_im24.bmp,['Im_LeonardoDiCaprio.png', 'Im_RyanGosling.png', 'Im_BenStiller.png', 'Im_JustinTimberlake.png', 'Im_DanielCraig.png', 'Im_MattDamon.png', 'Im_GeorgeClooney.png', 'Im_BenAffleck.png', 'Im_BradPitt.png', 'Im_HughJackman.png'],diff,1,0.4253390000003492,37,85.71428571428571,
PIFR3008,15,pos,150,pos150_id8_im20.bmp_pos150_id2_im16.bmp,['Im_LeonardoDiCaprio.png', 'Im_RyanGosling.png', 'Im_BenStiller.png', 'Im_JustinTimberlake.png', 'Im_DanielCraig.png', 'Im_MattDamon.png', 'Im_GeorgeClooney.png', 'Im_BenAffleck.png', 'Im_BradPitt.png', 'Im_HughJackman.png'],diff,1,0.41691960000025574,1,88.0952380952381,
PIFR3008,15,pos,0,pos0_id8_im13.bmp_pos0_id14_im24.bmp,['Im_LeonardoDiCaprio.png', 'Im_RyanGosling.png', 'Im_BenStiller.png', 'Im_JustinTimberlake.png', 'Im_DanielCraig.png', 'Im_MattDamon.png', 'Im_GeorgeClooney.png', 'Im_BenAffleck.png', 'Im_BradPitt.png', 'Im_HughJackman.png'],diff,1,0.42506669999966107,2,88.0952380952381,
PIFR3008,15,pos,60,pos60_id20_im3.bmp_pos60_id8_im20.bmp,['Im_LeonardoDiCaprio.png', 'Im_RyanGosling.png', 'Im_BenStiller.png', 'Im_JustinTimberlake.png', 'Im_DanielCraig.png', 'Im_MattDamon.png', 'Im_GeorgeClooney.png', 'Im_BenAffleck.png', 'Im_BradPitt.png', 'Im_HughJackman.png'],diff,1,0.4332161000002088,3,88.0952380952381,
PIFR3008,15,pos,120,pos120_id14_im18.bmp_pos120_id14_im24.bmp,['Im_LeonardoDiCaprio.png', 'Im_RyanGosling.png', 'Im_BenStiller.png', 'Im_JustinTimberlake.png', 'Im_DanielCraig.png', 'Im_MattDamon.png', 'Im_GeorgeClooney.png', 'Im_BenAffleck.png', 'Im_BradPitt.png', 'Im_HughJackman.png'],same,1,0.4166960000002291,4,88.0952380952381,
PIFR3008,15,pos,fs,posfs_id8_im20.bmp_posfs_id2_im16.bmp,['Im_LeonardoDiCaprio.png', 'Im_RyanGosling.png', 'Im_BenStiller.png', 'Im_JustinTimberlake.png', 'Im_DanielCraig.png', 'Im_MattDamon.png', 'Im_GeorgeClooney.png', 'Im_BenAffleck.png', 'Im_BradPitt.png', 'Im_HughJackman.png'],diff,1,0.4334343999998964,5,88.0952380952381,
PIFR3008,15,pos,150,pos150_id1_im4.bmp_pos150_id3_im6.bmp,['Im_LeonardoDiCaprio.png', 'Im_RyanGosling.png', 'Im_BenStiller.png', 'Im_JustinTimberlake.png', 'Im_DanielCraig.png', 'Im_MattDamon.png', 'Im_GeorgeClooney.png', 'Im_BenAffleck.png', 'Im_BradPitt.png', 'Im_HughJackman.png'],diff,1,0.41665609999927256,6,88.0952380952381,
PIFR3008,15,pos,90,pos90_id4_im20.bmp_pos90_id2_im3.bmp,['Im_LeonardoDiCaprio.png', 'Im_RyanGosling.png', 'Im_BenStiller.png', 'Im_JustinTimberlake.png', 'Im_DanielCraig.png', 'Im_MattDamon.png', 'Im_GeorgeClooney.png', 'Im_BenAffleck.png', 'Im_BradPitt.png', 'Im_HughJackman.png'],diff,1,0.41659359999994194,7,88.0952380952381,
PIFR3008,15,pos,fs,posfs_id3_im6.bmp_posfs_id3_im8.bmp,['Im_LeonardoDiCaprio.png', 'Im_RyanGosling.png', 'Im_BenStiller.png', 'Im_JustinTimberlake.png', 'Im_DanielCraig.png', 'Im_MattDamon.png', 'Im_GeorgeClooney.png', 'Im_BenAffleck.png', 'Im_BradPitt.png', 'Im_HughJackman.png'],same,1,0.4250298000006296,8,88.0952380952381,
PIFR3008,15,pos,0,pos0_id10_im17.bmp_pos0_id3_im6.bmp,['Im_LeonardoDiCaprio.png', 'Im_RyanGosling.png', 'Im_BenStiller.png', 'Im_JustinTimberlake.png', 'Im_DanielCraig.png', 'Im_MattDamon.png', 'Im_GeorgeClooney.png', 'Im_BenAffleck.png', 'Im_BradPitt.png', 'Im_HughJackman.png'],diff,1,0.41678030000002764,9,88.0952380952381,
PIFR3008,15,pos,120,pos120_id20_im30.bmp_pos120_id14_im24.bmp,['Im_LeonardoDiCaprio.png', 'Im_RyanGosling.png', 'Im_BenStiller.png', 'Im_JustinTimberlake.png', 'Im_DanielCraig.png', 'Im_MattDamon.png', 'Im_GeorgeClooney.png', 'Im_BenAffleck.png', 'Im_BradPitt.png', 'Im_HughJackman.png'],diff,1,0.41683279999961087,10,88.0952380952381,
