Sujet,Trial,Condition,Filter,Imname,Actor0,Actor1,Actor2,Actor3,Actor4,Actor5,Actor6,Actor7,Actor8,Actor9,Answer,Accu,RT,Score,Scoreperc, 
PIFR3008,_,posfs_DanielCraig_im15.bmp,DanielCraig,BenAffleck,BenAffleck,MattDamon,BenStiller,HughJackman,,,,,posfs_DanielCraig_im15.bmp,2.3737105999998676,
PIFR3008,_,posfs_BradPitt_im6.bmp,BradPitt,RyanGosling,RyanGosling,RobertDowneyJr,OrlandoBloom,HughJackman,,,,,posfs_BradPitt_im6.bmp,0.8447582999997394,
PIFR3008,_,posfs_MattDamon_im16.bmp,MattDamon,LeonardoDiCaprio,LeonardoDiCaprio,RyanGosling,KeanuReeves,BenStiller,,,,,posfs_MattDamon_im16.bmp,2.7695573000000877,
PIFR3008,_,posfs_HughJackman_im21.bmp,HughJackman,OrlandoBloom,OrlandoBloom,GeorgeClooney,RyanGosling,BradPitt,,,,,posfs_HughJackman_im21.bmp,3.2158557000002475,
PIFR3008,_,posfs_GeorgeClooney_im23.bmp,GeorgeClooney,BenAffleck,BenAffleck,MattDamon,OrlandoBloom,KeanuReeves,,,,,posfs_GeorgeClooney_im23.bmp,2.3492950999998357,
PIFR3008,_,posfs_HughJackman_im20.bmp,HughJackman,JustinTimberlake,JustinTimberlake,RyanReynolds,DanielCraig,OrlandoBloom,,,,,posfs_HughJackman_im20.bmp,1.7091982000001735,
PIFR3008,_,posfs_MattDamon_im9.bmp,MattDamon,BradPitt,BradPitt,HughJackman,DanielCraig,LeonardoDiCaprio,,,,,posfs_MattDamon_im9.bmp,2.110327100000177,
PIFR3008,_,posfs_DanielRadcliffe_im20.bmp,DanielRadcliffe,GeorgeClooney,GeorgeClooney,ElijahWood,RobertPattinson,KeanuReeves,,,,,posfs_DanielRadcliffe_im20.bmp,1.0877098999999362,
PIFR3008,_,posfs_RobertPattinson_im8.bmp,RobertPattinson,DanielRadcliffe,DanielRadcliffe,OrlandoBloom,MattDamon,RyanGosling,,,,,posfs_RobertPattinson_im8.bmp,1.5470911999991586,
PIFR3008,_,posfs_RyanGosling_im30.bmp,RyanGosling,RyanReynolds,RyanReynolds,DanielCraig,PatrickDempsey,RobertPattinson,,,,,posfs_RyanGosling_im30.bmp,1.8098110999999335,
PIFR3008,_,posfs_RyanReynolds_im3.bmp,RyanReynolds,BenAffleck,BenAffleck,DanielCraig,MattDamon,OrlandoBloom,,,,,posfs_RyanReynolds_im3.bmp,2.847843099999409,
PIFR3008,_,posfs_PatrickDempsey_im9.bmp,PatrickDempsey,HughJackman,HughJackman,RobertDowneyJr,KeanuReeves,BenAffleck,,,,,posfs_PatrickDempsey_im9.bmp,1.5239816000002975,
PIFR3008,_,posfs_JustinTimberlake_im17.bmp,JustinTimberlake,MattDamon,MattDamon,LeonardoDiCaprio,ElijahWood,GeorgeClooney,,,,,posfs_JustinTimberlake_im17.bmp,1.4131020000004355,
PIFR3008,_,posfs_BenStiller_im7.bmp,BenStiller,LeonardoDiCaprio,LeonardoDiCaprio,RyanGosling,DanielCraig,PatrickDempsey,,,,,posfs_BenStiller_im7.bmp,2.4351499999993393,
PIFR3008,_,posfs_HughJackman_im18.bmp,HughJackman,LeonardoDiCaprio,LeonardoDiCaprio,BradPitt,RyanGosling,DanielRadcliffe,,,,,posfs_HughJackman_im18.bmp,4.023738599999888,
PIFR3008,_,posfs_KeanuReeves_im1.bmp,KeanuReeves,LeonardoDiCaprio,LeonardoDiCaprio,BradPitt,JustinTimberlake,RobertPattinson,,,,,posfs_KeanuReeves_im1.bmp,2.3550026000002617,
PIFR3008,_,posfs_OrlandoBloom_im30.bmp,OrlandoBloom,JustinTimberlake,JustinTimberlake,BradPitt,KeanuReeves,RyanGosling,,,,,posfs_OrlandoBloom_im30.bmp,1.8039459999999963,
PIFR3008,_,posfs_GeorgeClooney_im26.bmp,GeorgeClooney,LeonardoDiCaprio,LeonardoDiCaprio,RobertPattinson,BenAffleck,ElijahWood,,,,,posfs_GeorgeClooney_im26.bmp,1.5700114000001122,
PIFR3008,_,posfs_RyanGosling_im12.bmp,RyanGosling,PatrickDempsey,PatrickDempsey,RyanReynolds,BradPitt,DanielCraig,,,,,posfs_RyanGosling_im12.bmp,2.7291182999997545,
PIFR3008,_,posfs_BenAffleck_im24.bmp,BenAffleck,OrlandoBloom,OrlandoBloom,DanielRadcliffe,MattDamon,GeorgeClooney,,,,,posfs_BenAffleck_im24.bmp,1.8501397999998517,
PIFR3008,_,posfs_GeorgeClooney_im15.bmp,GeorgeClooney,JustinTimberlake,JustinTimberlake,DanielRadcliffe,DanielCraig,BenAffleck,,,,,posfs_GeorgeClooney_im15.bmp,4.006300600000031,
PIFR3008,_,posfs_ElijahWood_im23.bmp,ElijahWood,BenAffleck,BenAffleck,RyanGosling,BenStiller,RobertDowneyJr,,,,,posfs_ElijahWood_im23.bmp,1.476112500000454,
PIFR3008,_,posfs_RyanGosling_im3.bmp,RyanGosling,RobertPattinson,RobertPattinson,PatrickDempsey,DanielCraig,JustinTimberlake,,,,,posfs_RyanGosling_im3.bmp,2.1588849999998274,
PIFR3008,_,posfs_JustinTimberlake_im1.bmp,JustinTimberlake,BenAffleck,BenAffleck,ElijahWood,PatrickDempsey,HughJackman,,,,,posfs_JustinTimberlake_im1.bmp,1.2944264999996449,
PIFR3008,_,posfs_LeonardoDiCaprio_im15.bmp,LeonardoDiCaprio,RobertPattinson,RobertPattinson,DanielCraig,BradPitt,DanielRadcliffe,,,,,posfs_LeonardoDiCaprio_im15.bmp,1.8332804000001488,
PIFR3008,_,posfs_BradPitt_im8.bmp,BradPitt,BenStiller,BenStiller,BenAffleck,OrlandoBloom,RobertPattinson,,,,,posfs_BradPitt_im8.bmp,1.3734527999995407,
PIFR3008,_,posfs_JustinTimberlake_im18.bmp,JustinTimberlake,ElijahWood,ElijahWood,RyanGosling,DanielRadcliffe,LeonardoDiCaprio,,,,,posfs_JustinTimberlake_im18.bmp,2.325739699999758,
PIFR3008,_,posfs_LeonardoDiCaprio_im24.bmp,LeonardoDiCaprio,DanielCraig,DanielCraig,BradPitt,PatrickDempsey,RyanGosling,,,,,posfs_LeonardoDiCaprio_im24.bmp,1.55810560000009,
PIFR3008,_,posfs_ElijahWood_im19.bmp,ElijahWood,PatrickDempsey,PatrickDempsey,RyanReynolds,BenAffleck,OrlandoBloom,,,,,posfs_ElijahWood_im19.bmp,1.3417420999994647,
PIFR3008,_,posfs_RobertDowneyJr_im11.bmp,RobertDowneyJr,HughJackman,HughJackman,RyanGosling,JustinTimberlake,BenStiller,,,,,0,1.1586766000000353,
PIFR3008,_,posfs_LeonardoDiCaprio_im29.bmp,LeonardoDiCaprio,RobertDowneyJr,RobertDowneyJr,PatrickDempsey,OrlandoBloom,DanielCraig,,,,,posfs_LeonardoDiCaprio_im29.bmp,2.1561665999997786,
PIFR3008,_,posfs_RyanReynolds_im16.bmp,RyanReynolds,OrlandoBloom,OrlandoBloom,RobertPattinson,RyanGosling,LeonardoDiCaprio,,,,,posfs_RyanReynolds_im16.bmp,2.7088590000003023,
PIFR3008,_,posfs_DanielCraig_im20.bmp,DanielCraig,BenStiller,BenStiller,BradPitt,LeonardoDiCaprio,OrlandoBloom,,,,,posfs_DanielCraig_im20.bmp,1.9108905000002778,
PIFR3008,_,posfs_HughJackman_im13.bmp,HughJackman,BradPitt,BradPitt,PatrickDempsey,MattDamon,RobertPattinson,,,,,posfs_HughJackman_im13.bmp,2.5933591000002707,
PIFR3008,_,posfs_PatrickDempsey_im8.bmp,PatrickDempsey,BenStiller,BenStiller,MattDamon,BradPitt,RyanGosling,,,,,posfs_PatrickDempsey_im8.bmp,1.5118076999997356,
PIFR3008,_,posfs_JustinTimberlake_im4.bmp,JustinTimberlake,BenStiller,BenStiller,RobertDowneyJr,OrlandoBloom,PatrickDempsey,,,,,posfs_JustinTimberlake_im4.bmp,1.7281269999994038,
PIFR3008,_,posfs_DanielRadcliffe_im10.bmp,DanielRadcliffe,LeonardoDiCaprio,LeonardoDiCaprio,KeanuReeves,ElijahWood,MattDamon,,,,,posfs_DanielRadcliffe_im10.bmp,1.5292497999998886,
PIFR3008,_,posfs_ElijahWood_im18.bmp,ElijahWood,PatrickDempsey,PatrickDempsey,JustinTimberlake,RobertPattinson,RobertDowneyJr,,,,,posfs_ElijahWood_im18.bmp,1.315036500000133,
PIFR3008,_,posfs_BenAffleck_im8.bmp,BenAffleck,OrlandoBloom,OrlandoBloom,RobertPattinson,RyanReynolds,MattDamon,,,,,posfs_BenAffleck_im8.bmp,1.14097750000019,
PIFR3008,_,posfs_KeanuReeves_im8.bmp,KeanuReeves,BenAffleck,BenAffleck,LeonardoDiCaprio,RyanGosling,GeorgeClooney,,,,,posfs_KeanuReeves_im8.bmp,2.8294623000001593,
PIFR3008,_,posfs_OrlandoBloom_im2.bmp,OrlandoBloom,BenAffleck,BenAffleck,RyanGosling,MattDamon,RobertDowneyJr,,,,,posfs_OrlandoBloom_im2.bmp,1.0893543000001955,
PIFR3008,_,posfs_BenStiller_im3.bmp,BenStiller,ElijahWood,ElijahWood,JustinTimberlake,BradPitt,RobertDowneyJr,,,,,posfs_BenStiller_im3.bmp,1.5477433000005476,
PIFR3008,_,posfs_DanielCraig_im7.bmp,DanielCraig,BenAffleck,BenAffleck,KeanuReeves,PatrickDempsey,DanielRadcliffe,,,,,posfs_DanielCraig_im7.bmp,1.4833882000002632,
PIFR3008,_,posfs_RobertDowneyJr_im4.bmp,RobertDowneyJr,RyanGosling,RyanGosling,BradPitt,HughJackman,ElijahWood,,,,,posfs_RobertDowneyJr_im4.bmp,2.7029416999994282,
PIFR3008,_,posfs_BradPitt_im17.bmp,BradPitt,PatrickDempsey,PatrickDempsey,LeonardoDiCaprio,JustinTimberlake,HughJackman,,,,,posfs_BradPitt_im17.bmp,1.5447173000002294,
PIFR3008,_,posfs_DanielRadcliffe_im8.bmp,DanielRadcliffe,MattDamon,MattDamon,PatrickDempsey,RyanReynolds,RobertDowneyJr,,,,,posfs_DanielRadcliffe_im8.bmp,2.20174119999956,
PIFR3008,_,posfs_BenStiller_im16.bmp,BenStiller,KeanuReeves,KeanuReeves,MattDamon,JustinTimberlake,BenAffleck,,,,,posfs_BenStiller_im16.bmp,1.4708614000001035,
PIFR3008,_,posfs_GeorgeClooney_im14.bmp,GeorgeClooney,KeanuReeves,KeanuReeves,LeonardoDiCaprio,PatrickDempsey,RobertPattinson,,,,,posfs_GeorgeClooney_im14.bmp,1.4578552999992098,
PIFR3008,_,posfs_RobertDowneyJr_im18.bmp,RobertDowneyJr,MattDamon,MattDamon,BradPitt,GeorgeClooney,JustinTimberlake,,,,,posfs_RobertDowneyJr_im18.bmp,2.58013530000062,
PIFR3008,_,posfs_PatrickDempsey_im16.bmp,PatrickDempsey,BradPitt,BradPitt,DanielCraig,DanielRadcliffe,LeonardoDiCaprio,,,,,4,5.5389911999991455,
PIFR3008,_,posfs_MattDamon_im24.bmp,MattDamon,RobertDowneyJr,RobertDowneyJr,BradPitt,HughJackman,RobertPattinson,,,,,posfs_MattDamon_im24.bmp,1.5956684000002497,
PIFR3008,_,posfs_RyanReynolds_im17.bmp,RyanReynolds,PatrickDempsey,PatrickDempsey,ElijahWood,BenStiller,BradPitt,,,,,posfs_RyanReynolds_im17.bmp,1.8977390000000014,
PIFR3008,_,posfs_BenStiller_im2.bmp,BenStiller,RobertDowneyJr,RobertDowneyJr,GeorgeClooney,DanielCraig,RyanReynolds,,,,,posfs_BenStiller_im2.bmp,1.492138600000544,
PIFR3008,_,posfs_PatrickDempsey_im14.bmp,PatrickDempsey,KeanuReeves,KeanuReeves,RobertDowneyJr,HughJackman,RyanReynolds,,,,,posfs_PatrickDempsey_im14.bmp,2.9654522999999244,
PIFR3008,_,posfs_DanielCraig_im8.bmp,DanielCraig,RobertPattinson,RobertPattinson,BenAffleck,BenStiller,LeonardoDiCaprio,,,,,posfs_DanielCraig_im8.bmp,1.299610400000347,
PIFR3008,_,posfs_KeanuReeves_im10.bmp,KeanuReeves,MattDamon,MattDamon,OrlandoBloom,PatrickDempsey,LeonardoDiCaprio,,,,,posfs_KeanuReeves_im10.bmp,1.1578166999997848,
PIFR3008,_,posfs_MattDamon_im18.bmp,MattDamon,DanielCraig,DanielCraig,PatrickDempsey,DanielRadcliffe,ElijahWood,,,,,posfs_MattDamon_im18.bmp,1.1651385000004666,
PIFR3008,_,posfs_RobertDowneyJr_im19.bmp,RobertDowneyJr,DanielRadcliffe,DanielRadcliffe,DanielCraig,PatrickDempsey,BenStiller,,,,,posfs_RobertDowneyJr_im19.bmp,1.9517146000007415,
PIFR3008,_,posfs_RobertPattinson_im4.bmp,RobertPattinson,DanielRadcliffe,DanielRadcliffe,RyanGosling,MattDamon,ElijahWood,,,,,4,4.524922100000367,
PIFR3008,_,posfs_BenAffleck_im21.bmp,BenAffleck,RyanGosling,RyanGosling,GeorgeClooney,ElijahWood,BradPitt,,,,,posfs_BenAffleck_im21.bmp,1.406431800000064,
PIFR3008,_,posfs_OrlandoBloom_im3.bmp,OrlandoBloom,RobertPattinson,RobertPattinson,RyanReynolds,RyanGosling,RobertDowneyJr,,,,,posfs_OrlandoBloom_im3.bmp,3.2600256000005174,
PIFR3008,_,posfs_BradPitt_im14.bmp,BradPitt,MattDamon,MattDamon,DanielCraig,OrlandoBloom,LeonardoDiCaprio,,,,,posfs_BradPitt_im14.bmp,1.4629869000000326,
PIFR3008,_,posfs_BenAffleck_im4.bmp,BenAffleck,BenStiller,BenStiller,KeanuReeves,ElijahWood,PatrickDempsey,,,,,posfs_BenAffleck_im4.bmp,3.1381164999993416,
PIFR3008,_,posfs_LeonardoDiCaprio_im10.bmp,LeonardoDiCaprio,BenStiller,BenStiller,RyanGosling,PatrickDempsey,RobertPattinson,,,,,posfs_LeonardoDiCaprio_im10.bmp,1.4581833000002007,
PIFR3008,_,posfs_ElijahWood_im12.bmp,ElijahWood,DanielRadcliffe,DanielRadcliffe,RobertDowneyJr,GeorgeClooney,BenStiller,,,,,posfs_ElijahWood_im12.bmp,1.6294037000006938,
PIFR3008,_,posfs_RobertPattinson_im30.bmp,RobertPattinson,DanielRadcliffe,DanielRadcliffe,DanielCraig,BenAffleck,JustinTimberlake,,,,,posfs_RobertPattinson_im30.bmp,1.546737800000301,
PIFR3008,_,posfs_DanielRadcliffe_im1.bmp,DanielRadcliffe,BradPitt,BradPitt,LeonardoDiCaprio,BenStiller,RobertPattinson,,,,,posfs_DanielRadcliffe_im1.bmp,1.0828480000000127,
PIFR3008,_,posfs_KeanuReeves_im2.bmp,KeanuReeves,HughJackman,HughJackman,GeorgeClooney,RobertPattinson,BenStiller,,,,,posfs_KeanuReeves_im2.bmp,1.7013602999995783,
PIFR3008,_,posfs_RyanGosling_im25.bmp,RyanGosling,DanielCraig,DanielCraig,KeanuReeves,BradPitt,MattDamon,,,,,posfs_RyanGosling_im25.bmp,1.4952805000002627,
PIFR3008,_,posfs_OrlandoBloom_im19.bmp,OrlandoBloom,ElijahWood,ElijahWood,DanielCraig,PatrickDempsey,LeonardoDiCaprio,,,,,posfs_OrlandoBloom_im19.bmp,1.1054328000000169,
PIFR3008,_,posfs_RyanReynolds_im22.bmp,RyanReynolds,JustinTimberlake,JustinTimberlake,BradPitt,KeanuReeves,LeonardoDiCaprio,,,,,posfs_RyanReynolds_im22.bmp,2.292372500000056,
PIFR3008,_,posfs_RobertPattinson_im27.bmp,RobertPattinson,RyanReynolds,RyanReynolds,OrlandoBloom,MattDamon,KeanuReeves,,,,,posfs_RobertPattinson_im27.bmp,1.806638600000042,
PIFR3008,train,pos,fs,posfs_id10_im1.bmp_posfs_id3_im17.bmp,['Im_BradPitt.png', 'Im_JustinTimberlake.png', 'Im_BenAffleck.png', 'Im_GeorgeClooney.png', 'Im_MattDamon.png', 'Im_DanielCraig.png', 'Im_BenStiller.png', 'Im_LeonardoDiCaprio.png', 'Im_RyanGosling.png', 'Im_HughJackman.png'],diff,1,2.399885499999982,1,0,
PIFR3008,train,pos,fs,posfs_id4_im20.bmp_posfs_id4_im7.bmp,['Im_BradPitt.png', 'Im_JustinTimberlake.png', 'Im_BenAffleck.png', 'Im_GeorgeClooney.png', 'Im_MattDamon.png', 'Im_DanielCraig.png', 'Im_BenStiller.png', 'Im_LeonardoDiCaprio.png', 'Im_RyanGosling.png', 'Im_HughJackman.png'],same,1,1.2749856000000364,2,0,
PIFR3008,train,pos,fs,posfs_id7_im26.bmp_posfs_id7_im14.bmp,['Im_BradPitt.png', 'Im_JustinTimberlake.png', 'Im_BenAffleck.png', 'Im_GeorgeClooney.png', 'Im_MattDamon.png', 'Im_DanielCraig.png', 'Im_BenStiller.png', 'Im_LeonardoDiCaprio.png', 'Im_RyanGosling.png', 'Im_HughJackman.png'],same,1,1.283317200000056,3,0,
PIFR3008,train,pos,fs,posfs_id4_im7.bmp_posfs_id4_im15.bmp,['Im_BradPitt.png', 'Im_JustinTimberlake.png', 'Im_BenAffleck.png', 'Im_GeorgeClooney.png', 'Im_MattDamon.png', 'Im_DanielCraig.png', 'Im_BenStiller.png', 'Im_LeonardoDiCaprio.png', 'Im_RyanGosling.png', 'Im_HughJackman.png'],diff,0,0.5335429000006116,3,0,
PIFR3008,train,pos,fs,posfs_id2_im2.bmp_posfs_id2_im3.bmp,['Im_BradPitt.png', 'Im_JustinTimberlake.png', 'Im_BenAffleck.png', 'Im_GeorgeClooney.png', 'Im_MattDamon.png', 'Im_DanielCraig.png', 'Im_BenStiller.png', 'Im_LeonardoDiCaprio.png', 'Im_RyanGosling.png', 'Im_HughJackman.png'],same,1,0.6166743999992832,4,0,
PIFR3008,train,pos,fs,posfs_id4_im20.bmp_posfs_id4_im15.bmp,['Im_BradPitt.png', 'Im_JustinTimberlake.png', 'Im_BenAffleck.png', 'Im_GeorgeClooney.png', 'Im_MattDamon.png', 'Im_DanielCraig.png', 'Im_BenStiller.png', 'Im_LeonardoDiCaprio.png', 'Im_RyanGosling.png', 'Im_HughJackman.png'],same,1,0.5582952000004298,5,0,
PIFR3008,train,pos,fs,posfs_id13_im15.bmp_posfs_id13_im10.bmp,['Im_BradPitt.png', 'Im_JustinTimberlake.png', 'Im_BenAffleck.png', 'Im_GeorgeClooney.png', 'Im_MattDamon.png', 'Im_DanielCraig.png', 'Im_BenStiller.png', 'Im_LeonardoDiCaprio.png', 'Im_RyanGosling.png', 'Im_HughJackman.png'],same,1,0.566589600000043,6,0,
PIFR3008,train,pos,fs,posfs_id20_im3.bmp_posfs_id20_im12.bmp,['Im_BradPitt.png', 'Im_JustinTimberlake.png', 'Im_BenAffleck.png', 'Im_GeorgeClooney.png', 'Im_MattDamon.png', 'Im_DanielCraig.png', 'Im_BenStiller.png', 'Im_LeonardoDiCaprio.png', 'Im_RyanGosling.png', 'Im_HughJackman.png'],same,1,0.5002121999996234,7,0,
PIFR3008,train,pos,fs,posfs_id8_im13.bmp_posfs_id8_im21.bmp,['Im_BradPitt.png', 'Im_JustinTimberlake.png', 'Im_BenAffleck.png', 'Im_GeorgeClooney.png', 'Im_MattDamon.png', 'Im_DanielCraig.png', 'Im_BenStiller.png', 'Im_LeonardoDiCaprio.png', 'Im_RyanGosling.png', 'Im_HughJackman.png'],same,1,0.5415758999997706,8,0,
PIFR3008,train,pos,fs,posfs_id1_im24.bmp_posfs_id1_im21.bmp,['Im_BradPitt.png', 'Im_JustinTimberlake.png', 'Im_BenAffleck.png', 'Im_GeorgeClooney.png', 'Im_MattDamon.png', 'Im_DanielCraig.png', 'Im_BenStiller.png', 'Im_LeonardoDiCaprio.png', 'Im_RyanGosling.png', 'Im_HughJackman.png'],same,1,0.6752128999996785,9,0,
PIFR3008,train,pos,fs,posfs_id10_im18.bmp_posfs_id2_im3.bmp,['Im_BradPitt.png', 'Im_JustinTimberlake.png', 'Im_BenAffleck.png', 'Im_GeorgeClooney.png', 'Im_MattDamon.png', 'Im_DanielCraig.png', 'Im_BenStiller.png', 'Im_LeonardoDiCaprio.png', 'Im_RyanGosling.png', 'Im_HughJackman.png'],diff,1,0.7418429999997898,10,0,
PIFR3008,train,pos,fs,posfs_id13_im29.bmp_posfs_id13_im15.bmp,['Im_BradPitt.png', 'Im_JustinTimberlake.png', 'Im_BenAffleck.png', 'Im_GeorgeClooney.png', 'Im_MattDamon.png', 'Im_DanielCraig.png', 'Im_BenStiller.png', 'Im_LeonardoDiCaprio.png', 'Im_RyanGosling.png', 'Im_HughJackman.png'],same,1,0.6916228000000046,11,0,
PIFR3008,train,pos,fs,posfs_id13_im29.bmp_posfs_id13_im10.bmp,['Im_BradPitt.png', 'Im_JustinTimberlake.png', 'Im_BenAffleck.png', 'Im_GeorgeClooney.png', 'Im_MattDamon.png', 'Im_DanielCraig.png', 'Im_BenStiller.png', 'Im_LeonardoDiCaprio.png', 'Im_RyanGosling.png', 'Im_HughJackman.png'],same,1,0.566666300000179,12,0,
PIFR3008,train,pos,fs,posfs_id3_im6.bmp_posfs_id1_im4.bmp,['Im_BradPitt.png', 'Im_JustinTimberlake.png', 'Im_BenAffleck.png', 'Im_GeorgeClooney.png', 'Im_MattDamon.png', 'Im_DanielCraig.png', 'Im_BenStiller.png', 'Im_LeonardoDiCaprio.png', 'Im_RyanGosling.png', 'Im_HughJackman.png'],diff,1,0.5666509000002407,13,0,
PIFR3008,train,pos,fs,posfs_id3_im17.bmp_posfs_id3_im6.bmp,['Im_BradPitt.png', 'Im_JustinTimberlake.png', 'Im_BenAffleck.png', 'Im_GeorgeClooney.png', 'Im_MattDamon.png', 'Im_DanielCraig.png', 'Im_BenStiller.png', 'Im_LeonardoDiCaprio.png', 'Im_RyanGosling.png', 'Im_HughJackman.png'],same,1,0.5582597000002352,14,0,
PIFR3008,train,pos,fs,posfs_id14_im16.bmp_posfs_id7_im26.bmp,['Im_BradPitt.png', 'Im_JustinTimberlake.png', 'Im_BenAffleck.png', 'Im_GeorgeClooney.png', 'Im_MattDamon.png', 'Im_DanielCraig.png', 'Im_BenStiller.png', 'Im_LeonardoDiCaprio.png', 'Im_RyanGosling.png', 'Im_HughJackman.png'],diff,1,0.5915151999997761,15,0,
PIFR3008,train,pos,fs,posfs_id4_im15.bmp_posfs_id7_im14.bmp,['Im_BradPitt.png', 'Im_JustinTimberlake.png', 'Im_BenAffleck.png', 'Im_GeorgeClooney.png', 'Im_MattDamon.png', 'Im_DanielCraig.png', 'Im_BenStiller.png', 'Im_LeonardoDiCaprio.png', 'Im_RyanGosling.png', 'Im_HughJackman.png'],diff,1,0.5749807000001965,16,0,
PIFR3008,train,pos,fs,posfs_id4_im20.bmp_posfs_id2_im3.bmp,['Im_BradPitt.png', 'Im_JustinTimberlake.png', 'Im_BenAffleck.png', 'Im_GeorgeClooney.png', 'Im_MattDamon.png', 'Im_DanielCraig.png', 'Im_BenStiller.png', 'Im_LeonardoDiCaprio.png', 'Im_RyanGosling.png', 'Im_HughJackman.png'],diff,1,0.6668831000006321,17,0,
PIFR3008,train,pos,fs,posfs_id8_im21.bmp_posfs_id20_im3.bmp,['Im_BradPitt.png', 'Im_JustinTimberlake.png', 'Im_BenAffleck.png', 'Im_GeorgeClooney.png', 'Im_MattDamon.png', 'Im_DanielCraig.png', 'Im_BenStiller.png', 'Im_LeonardoDiCaprio.png', 'Im_RyanGosling.png', 'Im_HughJackman.png'],diff,1,0.6346040000007633,18,0,
PIFR3008,train,pos,fs,posfs_id10_im17.bmp_posfs_id10_im18.bmp,['Im_BradPitt.png', 'Im_JustinTimberlake.png', 'Im_BenAffleck.png', 'Im_GeorgeClooney.png', 'Im_MattDamon.png', 'Im_DanielCraig.png', 'Im_BenStiller.png', 'Im_LeonardoDiCaprio.png', 'Im_RyanGosling.png', 'Im_HughJackman.png'],same,1,0.9832774999995308,19,0,
PIFR3008,train,inv,fs,posfs_id8_im20.bmp_posfs_id8_im13.bmp,['Im_BradPitt.png', 'Im_JustinTimberlake.png', 'Im_BenAffleck.png', 'Im_GeorgeClooney.png', 'Im_MattDamon.png', 'Im_DanielCraig.png', 'Im_BenStiller.png', 'Im_LeonardoDiCaprio.png', 'Im_RyanGosling.png', 'Im_HughJackman.png'],same,1,1.0083850000000893,1,0,
PIFR3008,train,pos,fs,posfs_id1_im4.bmp_posfs_id1_im21.bmp,['Im_BradPitt.png', 'Im_JustinTimberlake.png', 'Im_BenAffleck.png', 'Im_GeorgeClooney.png', 'Im_MattDamon.png', 'Im_DanielCraig.png', 'Im_BenStiller.png', 'Im_LeonardoDiCaprio.png', 'Im_RyanGosling.png', 'Im_HughJackman.png'],same,1,0.6501926000000822,2,0,
PIFR3008,train,pos,fs,posfs_id14_im24.bmp_posfs_id8_im13.bmp,['Im_BradPitt.png', 'Im_JustinTimberlake.png', 'Im_BenAffleck.png', 'Im_GeorgeClooney.png', 'Im_MattDamon.png', 'Im_DanielCraig.png', 'Im_BenStiller.png', 'Im_LeonardoDiCaprio.png', 'Im_RyanGosling.png', 'Im_HughJackman.png'],diff,1,0.5833933000003526,3,0,
PIFR3008,train,inv,fs,posfs_id10_im18.bmp_posfs_id10_im1.bmp,['Im_BradPitt.png', 'Im_JustinTimberlake.png', 'Im_BenAffleck.png', 'Im_GeorgeClooney.png', 'Im_MattDamon.png', 'Im_DanielCraig.png', 'Im_BenStiller.png', 'Im_LeonardoDiCaprio.png', 'Im_RyanGosling.png', 'Im_HughJackman.png'],diff,0,0.6336189000003287,3,0,
PIFR3008,train,neg,fs,negfs_id8_im13.bmp_negfs_id14_im24.bmp,['Im_BradPitt.png', 'Im_JustinTimberlake.png', 'Im_BenAffleck.png', 'Im_GeorgeClooney.png', 'Im_MattDamon.png', 'Im_DanielCraig.png', 'Im_BenStiller.png', 'Im_LeonardoDiCaprio.png', 'Im_RyanGosling.png', 'Im_HughJackman.png'],diff,1,0.5504296999997678,4,0,
PIFR3008,train,pos,fs,posfs_id13_im10.bmp_posfs_id13_im15.bmp,['Im_BradPitt.png', 'Im_JustinTimberlake.png', 'Im_BenAffleck.png', 'Im_GeorgeClooney.png', 'Im_MattDamon.png', 'Im_DanielCraig.png', 'Im_BenStiller.png', 'Im_LeonardoDiCaprio.png', 'Im_RyanGosling.png', 'Im_HughJackman.png'],same,1,0.4250843999998324,5,0,
PIFR3008,train,neg,fs,negfs_id1_im24.bmp_negfs_id4_im7.bmp,['Im_BradPitt.png', 'Im_JustinTimberlake.png', 'Im_BenAffleck.png', 'Im_GeorgeClooney.png', 'Im_MattDamon.png', 'Im_DanielCraig.png', 'Im_BenStiller.png', 'Im_LeonardoDiCaprio.png', 'Im_RyanGosling.png', 'Im_HughJackman.png'],diff,1,0.4668489000005138,6,0,
PIFR3008,train,pos,fs,posfs_id3_im8.bmp_posfs_id3_im17.bmp,['Im_BradPitt.png', 'Im_JustinTimberlake.png', 'Im_BenAffleck.png', 'Im_GeorgeClooney.png', 'Im_MattDamon.png', 'Im_DanielCraig.png', 'Im_BenStiller.png', 'Im_LeonardoDiCaprio.png', 'Im_RyanGosling.png', 'Im_HughJackman.png'],same,1,0.6086487000002307,7,0,
PIFR3008,train,pos,fs,posfs_id20_im30.bmp_posfs_id20_im3.bmp,['Im_BradPitt.png', 'Im_JustinTimberlake.png', 'Im_BenAffleck.png', 'Im_GeorgeClooney.png', 'Im_MattDamon.png', 'Im_DanielCraig.png', 'Im_BenStiller.png', 'Im_LeonardoDiCaprio.png', 'Im_RyanGosling.png', 'Im_HughJackman.png'],same,1,1.0331600999998045,8,0,
PIFR3008,train,inv,fs,posfs_id4_im15.bmp_posfs_id7_im14.bmp,['Im_BradPitt.png', 'Im_JustinTimberlake.png', 'Im_BenAffleck.png', 'Im_GeorgeClooney.png', 'Im_MattDamon.png', 'Im_DanielCraig.png', 'Im_BenStiller.png', 'Im_LeonardoDiCaprio.png', 'Im_RyanGosling.png', 'Im_HughJackman.png'],diff,1,0.4171759999999267,9,0,
PIFR3008,train,pos,fs,posfs_id1_im21.bmp_posfs_id13_im15.bmp,['Im_BradPitt.png', 'Im_JustinTimberlake.png', 'Im_BenAffleck.png', 'Im_GeorgeClooney.png', 'Im_MattDamon.png', 'Im_DanielCraig.png', 'Im_BenStiller.png', 'Im_LeonardoDiCaprio.png', 'Im_RyanGosling.png', 'Im_HughJackman.png'],diff,1,0.41676149999966583,10,0,
PIFR3008,train,inv,fs,posfs_id10_im1.bmp_posfs_id10_im17.bmp,['Im_BradPitt.png', 'Im_JustinTimberlake.png', 'Im_BenAffleck.png', 'Im_GeorgeClooney.png', 'Im_MattDamon.png', 'Im_DanielCraig.png', 'Im_BenStiller.png', 'Im_LeonardoDiCaprio.png', 'Im_RyanGosling.png', 'Im_HughJackman.png'],same,1,0.5585254999996323,11,0,
PIFR3008,train,neg,fs,negfs_id14_im16.bmp_negfs_id2_im16.bmp,['Im_BradPitt.png', 'Im_JustinTimberlake.png', 'Im_BenAffleck.png', 'Im_GeorgeClooney.png', 'Im_MattDamon.png', 'Im_DanielCraig.png', 'Im_BenStiller.png', 'Im_LeonardoDiCaprio.png', 'Im_RyanGosling.png', 'Im_HughJackman.png'],diff,1,0.4669947000002139,12,0,
PIFR3008,train,pos,fs,posfs_id14_im18.bmp_posfs_id7_im15.bmp,['Im_BradPitt.png', 'Im_JustinTimberlake.png', 'Im_BenAffleck.png', 'Im_GeorgeClooney.png', 'Im_MattDamon.png', 'Im_DanielCraig.png', 'Im_BenStiller.png', 'Im_LeonardoDiCaprio.png', 'Im_RyanGosling.png', 'Im_HughJackman.png'],diff,1,0.4167434000000867,13,0,
PIFR3008,train,inv,fs,posfs_id20_im12.bmp_posfs_id20_im3.bmp,['Im_BradPitt.png', 'Im_JustinTimberlake.png', 'Im_BenAffleck.png', 'Im_GeorgeClooney.png', 'Im_MattDamon.png', 'Im_DanielCraig.png', 'Im_BenStiller.png', 'Im_LeonardoDiCaprio.png', 'Im_RyanGosling.png', 'Im_HughJackman.png'],same,1,0.500258400000348,14,0,
PIFR3008,train,pos,fs,posfs_id4_im15.bmp_posfs_id20_im12.bmp,['Im_BradPitt.png', 'Im_JustinTimberlake.png', 'Im_BenAffleck.png', 'Im_GeorgeClooney.png', 'Im_MattDamon.png', 'Im_DanielCraig.png', 'Im_BenStiller.png', 'Im_LeonardoDiCaprio.png', 'Im_RyanGosling.png', 'Im_HughJackman.png'],diff,1,0.41669809999984864,15,0,
PIFR3008,train,neg,fs,negfs_id10_im18.bmp_negfs_id13_im29.bmp,['Im_BradPitt.png', 'Im_JustinTimberlake.png', 'Im_BenAffleck.png', 'Im_GeorgeClooney.png', 'Im_MattDamon.png', 'Im_DanielCraig.png', 'Im_BenStiller.png', 'Im_LeonardoDiCaprio.png', 'Im_RyanGosling.png', 'Im_HughJackman.png'],diff,1,0.41668399999980466,16,0,
PIFR3008,train,pos,fs,posfs_id8_im13.bmp_posfs_id4_im20.bmp,['Im_BradPitt.png', 'Im_JustinTimberlake.png', 'Im_BenAffleck.png', 'Im_GeorgeClooney.png', 'Im_MattDamon.png', 'Im_DanielCraig.png', 'Im_BenStiller.png', 'Im_LeonardoDiCaprio.png', 'Im_RyanGosling.png', 'Im_HughJackman.png'],same,0,0.4167334000003393,16,0,
PIFR3008,train,inv,fs,posfs_id14_im16.bmp_posfs_id2_im16.bmp,['Im_BradPitt.png', 'Im_JustinTimberlake.png', 'Im_BenAffleck.png', 'Im_GeorgeClooney.png', 'Im_MattDamon.png', 'Im_DanielCraig.png', 'Im_BenStiller.png', 'Im_LeonardoDiCaprio.png', 'Im_RyanGosling.png', 'Im_HughJackman.png'],diff,1,0.4167581000001519,17,0,
PIFR3008,train,pos,fs,posfs_id7_im15.bmp_posfs_id2_im2.bmp,['Im_BradPitt.png', 'Im_JustinTimberlake.png', 'Im_BenAffleck.png', 'Im_GeorgeClooney.png', 'Im_MattDamon.png', 'Im_DanielCraig.png', 'Im_BenStiller.png', 'Im_LeonardoDiCaprio.png', 'Im_RyanGosling.png', 'Im_HughJackman.png'],diff,1,0.4167302000005293,18,0,
PIFR3008,train,pos,0,pos0_id10_im1.bmp_pos0_id10_im18.bmp,['Im_BradPitt.png', 'Im_JustinTimberlake.png', 'Im_BenAffleck.png', 'Im_GeorgeClooney.png', 'Im_MattDamon.png', 'Im_DanielCraig.png', 'Im_BenStiller.png', 'Im_LeonardoDiCaprio.png', 'Im_RyanGosling.png', 'Im_HughJackman.png'],same,1,0.6000487000001158,1,0,
PIFR3008,train,pos,fs,posfs_id4_im15.bmp_posfs_id7_im14.bmp,['Im_BradPitt.png', 'Im_JustinTimberlake.png', 'Im_BenAffleck.png', 'Im_GeorgeClooney.png', 'Im_MattDamon.png', 'Im_DanielCraig.png', 'Im_BenStiller.png', 'Im_LeonardoDiCaprio.png', 'Im_RyanGosling.png', 'Im_HughJackman.png'],diff,1,0.40837269999974524,2,0,
PIFR3008,train,pos,150,pos150_id1_im24.bmp_pos150_id1_im4.bmp,['Im_BradPitt.png', 'Im_JustinTimberlake.png', 'Im_BenAffleck.png', 'Im_GeorgeClooney.png', 'Im_MattDamon.png', 'Im_DanielCraig.png', 'Im_BenStiller.png', 'Im_LeonardoDiCaprio.png', 'Im_RyanGosling.png', 'Im_HughJackman.png'],same,1,0.40836570000010397,3,0,
PIFR3008,train,pos,30,pos30_id4_im7.bmp_pos30_id4_im15.bmp,['Im_BradPitt.png', 'Im_JustinTimberlake.png', 'Im_BenAffleck.png', 'Im_GeorgeClooney.png', 'Im_MattDamon.png', 'Im_DanielCraig.png', 'Im_BenStiller.png', 'Im_LeonardoDiCaprio.png', 'Im_RyanGosling.png', 'Im_HughJackman.png'],same,1,0.4083196000001408,4,0,
PIFR3008,train,pos,90,pos90_id20_im12.bmp_pos90_id4_im15.bmp,['Im_BradPitt.png', 'Im_JustinTimberlake.png', 'Im_BenAffleck.png', 'Im_GeorgeClooney.png', 'Im_MattDamon.png', 'Im_DanielCraig.png', 'Im_BenStiller.png', 'Im_LeonardoDiCaprio.png', 'Im_RyanGosling.png', 'Im_HughJackman.png'],diff,1,0.43337849999988975,5,0,
PIFR3008,train,pos,60,pos60_id7_im14.bmp_pos60_id7_im26.bmp,['Im_BradPitt.png', 'Im_JustinTimberlake.png', 'Im_BenAffleck.png', 'Im_GeorgeClooney.png', 'Im_MattDamon.png', 'Im_DanielCraig.png', 'Im_BenStiller.png', 'Im_LeonardoDiCaprio.png', 'Im_RyanGosling.png', 'Im_HughJackman.png'],diff,0,0.4166778999997405,5,0,
PIFR3008,train,pos,150,pos150_id10_im1.bmp_pos150_id10_im18.bmp,['Im_BradPitt.png', 'Im_JustinTimberlake.png', 'Im_BenAffleck.png', 'Im_GeorgeClooney.png', 'Im_MattDamon.png', 'Im_DanielCraig.png', 'Im_BenStiller.png', 'Im_LeonardoDiCaprio.png', 'Im_RyanGosling.png', 'Im_HughJackman.png'],same,1,0.42501110000011977,6,0,
PIFR3008,train,pos,30,pos30_id2_im2.bmp_pos30_id2_im3.bmp,['Im_BradPitt.png', 'Im_JustinTimberlake.png', 'Im_BenAffleck.png', 'Im_GeorgeClooney.png', 'Im_MattDamon.png', 'Im_DanielCraig.png', 'Im_BenStiller.png', 'Im_LeonardoDiCaprio.png', 'Im_RyanGosling.png', 'Im_HughJackman.png'],same,1,0.41672539999945,7,0,
PIFR3008,train,pos,0,pos0_id4_im7.bmp_pos0_id4_im20.bmp,['Im_BradPitt.png', 'Im_JustinTimberlake.png', 'Im_BenAffleck.png', 'Im_GeorgeClooney.png', 'Im_MattDamon.png', 'Im_DanielCraig.png', 'Im_BenStiller.png', 'Im_LeonardoDiCaprio.png', 'Im_RyanGosling.png', 'Im_HughJackman.png'],same,1,0.41666950000035285,8,0,
PIFR3008,train,pos,fs,posfs_id4_im20.bmp_posfs_id2_im3.bmp,['Im_BradPitt.png', 'Im_JustinTimberlake.png', 'Im_BenAffleck.png', 'Im_GeorgeClooney.png', 'Im_MattDamon.png', 'Im_DanielCraig.png', 'Im_BenStiller.png', 'Im_LeonardoDiCaprio.png', 'Im_RyanGosling.png', 'Im_HughJackman.png'],diff,1,0.40825800000038726,9,0,
PIFR3008,train,pos,120,pos120_id1_im21.bmp_pos120_id1_im24.bmp,['Im_BradPitt.png', 'Im_JustinTimberlake.png', 'Im_BenAffleck.png', 'Im_GeorgeClooney.png', 'Im_MattDamon.png', 'Im_DanielCraig.png', 'Im_BenStiller.png', 'Im_LeonardoDiCaprio.png', 'Im_RyanGosling.png', 'Im_HughJackman.png'],same,1,0.4582166000000143,10,0,
PIFR3008,train,pos,120,pos120_id2_im16.bmp_pos120_id8_im20.bmp,['Im_BradPitt.png', 'Im_JustinTimberlake.png', 'Im_BenAffleck.png', 'Im_GeorgeClooney.png', 'Im_MattDamon.png', 'Im_DanielCraig.png', 'Im_BenStiller.png', 'Im_LeonardoDiCaprio.png', 'Im_RyanGosling.png', 'Im_HughJackman.png'],diff,1,0.4084074000002147,11,0,
PIFR3008,train,pos,60,pos60_id14_im24.bmp_pos60_id8_im13.bmp,['Im_BradPitt.png', 'Im_JustinTimberlake.png', 'Im_BenAffleck.png', 'Im_GeorgeClooney.png', 'Im_MattDamon.png', 'Im_DanielCraig.png', 'Im_BenStiller.png', 'Im_LeonardoDiCaprio.png', 'Im_RyanGosling.png', 'Im_HughJackman.png'],diff,1,0.43338300000050367,12,0,
PIFR3008,train,pos,90,pos90_id20_im3.bmp_pos90_id20_im12.bmp,['Im_BradPitt.png', 'Im_JustinTimberlake.png', 'Im_BenAffleck.png', 'Im_GeorgeClooney.png', 'Im_MattDamon.png', 'Im_DanielCraig.png', 'Im_BenStiller.png', 'Im_LeonardoDiCaprio.png', 'Im_RyanGosling.png', 'Im_HughJackman.png'],same,1,0.4250876000005519,13,0,
PIFR3008,train,inv,30,pos30_id13_im29.bmp_pos30_id10_im18.bmp,['Im_BradPitt.png', 'Im_JustinTimberlake.png', 'Im_BenAffleck.png', 'Im_GeorgeClooney.png', 'Im_MattDamon.png', 'Im_DanielCraig.png', 'Im_BenStiller.png', 'Im_LeonardoDiCaprio.png', 'Im_RyanGosling.png', 'Im_HughJackman.png'],same,0,0.4334214999998949,13,0,
PIFR3008,train,inv,90,pos90_id2_im16.bmp_pos90_id14_im16.bmp,['Im_BradPitt.png', 'Im_JustinTimberlake.png', 'Im_BenAffleck.png', 'Im_GeorgeClooney.png', 'Im_MattDamon.png', 'Im_DanielCraig.png', 'Im_BenStiller.png', 'Im_LeonardoDiCaprio.png', 'Im_RyanGosling.png', 'Im_HughJackman.png'],diff,1,0.40838499999972555,14,0,
PIFR3008,train,inv,60,pos60_id2_im2.bmp_pos60_id7_im26.bmp,['Im_BradPitt.png', 'Im_JustinTimberlake.png', 'Im_BenAffleck.png', 'Im_GeorgeClooney.png', 'Im_MattDamon.png', 'Im_DanielCraig.png', 'Im_BenStiller.png', 'Im_LeonardoDiCaprio.png', 'Im_RyanGosling.png', 'Im_HughJackman.png'],diff,1,0.5251926000000822,15,0,
PIFR3008,train,inv,fs,posfs_id20_im12.bmp_posfs_id20_im3.bmp,['Im_BradPitt.png', 'Im_JustinTimberlake.png', 'Im_BenAffleck.png', 'Im_GeorgeClooney.png', 'Im_MattDamon.png', 'Im_DanielCraig.png', 'Im_BenStiller.png', 'Im_LeonardoDiCaprio.png', 'Im_RyanGosling.png', 'Im_HughJackman.png'],same,1,0.7001729999992676,16,0,
PIFR3008,train,inv,30,pos30_id1_im21.bmp_pos30_id1_im24.bmp,['Im_BradPitt.png', 'Im_JustinTimberlake.png', 'Im_BenAffleck.png', 'Im_GeorgeClooney.png', 'Im_MattDamon.png', 'Im_DanielCraig.png', 'Im_BenStiller.png', 'Im_LeonardoDiCaprio.png', 'Im_RyanGosling.png', 'Im_HughJackman.png'],same,1,0.4248525000002701,17,0,
PIFR3008,train,inv,120,pos120_id7_im14.bmp_pos120_id10_im1.bmp,['Im_BradPitt.png', 'Im_JustinTimberlake.png', 'Im_BenAffleck.png', 'Im_GeorgeClooney.png', 'Im_MattDamon.png', 'Im_DanielCraig.png', 'Im_BenStiller.png', 'Im_LeonardoDiCaprio.png', 'Im_RyanGosling.png', 'Im_HughJackman.png'],diff,1,0.4250835000002553,18,0,
PIFR3008,train,inv,150,pos150_id7_im15.bmp_pos150_id7_im14.bmp,['Im_BradPitt.png', 'Im_JustinTimberlake.png', 'Im_BenAffleck.png', 'Im_GeorgeClooney.png', 'Im_MattDamon.png', 'Im_DanielCraig.png', 'Im_BenStiller.png', 'Im_LeonardoDiCaprio.png', 'Im_RyanGosling.png', 'Im_HughJackman.png'],same,1,0.6086007999992944,19,0,
PIFR3008,train,inv,90,pos90_id10_im17.bmp_pos90_id10_im1.bmp,['Im_BradPitt.png', 'Im_JustinTimberlake.png', 'Im_BenAffleck.png', 'Im_GeorgeClooney.png', 'Im_MattDamon.png', 'Im_DanielCraig.png', 'Im_BenStiller.png', 'Im_LeonardoDiCaprio.png', 'Im_RyanGosling.png', 'Im_HughJackman.png'],diff,0,0.4417284999999538,19,0,
PIFR3008,train,inv,0,pos0_id2_im3.bmp_pos0_id4_im20.bmp,['Im_BradPitt.png', 'Im_JustinTimberlake.png', 'Im_BenAffleck.png', 'Im_GeorgeClooney.png', 'Im_MattDamon.png', 'Im_DanielCraig.png', 'Im_BenStiller.png', 'Im_LeonardoDiCaprio.png', 'Im_RyanGosling.png', 'Im_HughJackman.png'],diff,1,0.5749133999997866,20,0,
PIFR3008,train,inv,0,pos0_id14_im16.bmp_pos0_id14_im18.bmp,['Im_BradPitt.png', 'Im_JustinTimberlake.png', 'Im_BenAffleck.png', 'Im_GeorgeClooney.png', 'Im_MattDamon.png', 'Im_DanielCraig.png', 'Im_BenStiller.png', 'Im_LeonardoDiCaprio.png', 'Im_RyanGosling.png', 'Im_HughJackman.png'],same,1,0.43337630000041827,21,0,
PIFR3008,train,inv,60,pos60_id2_im2.bmp_pos60_id2_im16.bmp,['Im_BradPitt.png', 'Im_JustinTimberlake.png', 'Im_BenAffleck.png', 'Im_GeorgeClooney.png', 'Im_MattDamon.png', 'Im_DanielCraig.png', 'Im_BenStiller.png', 'Im_LeonardoDiCaprio.png', 'Im_RyanGosling.png', 'Im_HughJackman.png'],diff,0,0.5166823000008662,21,0,
PIFR3008,train,inv,120,pos120_id20_im12.bmp_pos120_id4_im15.bmp,['Im_BradPitt.png', 'Im_JustinTimberlake.png', 'Im_BenAffleck.png', 'Im_GeorgeClooney.png', 'Im_MattDamon.png', 'Im_DanielCraig.png', 'Im_BenStiller.png', 'Im_LeonardoDiCaprio.png', 'Im_RyanGosling.png', 'Im_HughJackman.png'],same,0,0.41672509999989416,21,0,
PIFR3008,train,inv,150,pos150_id14_im16.bmp_pos150_id7_im26.bmp,['Im_BradPitt.png', 'Im_JustinTimberlake.png', 'Im_BenAffleck.png', 'Im_GeorgeClooney.png', 'Im_MattDamon.png', 'Im_DanielCraig.png', 'Im_BenStiller.png', 'Im_LeonardoDiCaprio.png', 'Im_RyanGosling.png', 'Im_HughJackman.png'],diff,1,1.3667022999998153,22,0,
PIFR3008,train,inv,fs,posfs_id13_im29.bmp_posfs_id13_im10.bmp,['Im_BradPitt.png', 'Im_JustinTimberlake.png', 'Im_BenAffleck.png', 'Im_GeorgeClooney.png', 'Im_MattDamon.png', 'Im_DanielCraig.png', 'Im_BenStiller.png', 'Im_LeonardoDiCaprio.png', 'Im_RyanGosling.png', 'Im_HughJackman.png'],same,1,0.733317100000022,23,0,
PIFR3008,train,neg,30,neg30_id20_im12.bmp_neg30_id20_im30.bmp,['Im_BradPitt.png', 'Im_JustinTimberlake.png', 'Im_BenAffleck.png', 'Im_GeorgeClooney.png', 'Im_MattDamon.png', 'Im_DanielCraig.png', 'Im_BenStiller.png', 'Im_LeonardoDiCaprio.png', 'Im_RyanGosling.png', 'Im_HughJackman.png'],same,1,0.41669980000006035,24,0,
PIFR3008,train,neg,150,neg150_id2_im16.bmp_neg150_id8_im20.bmp,['Im_BradPitt.png', 'Im_JustinTimberlake.png', 'Im_BenAffleck.png', 'Im_GeorgeClooney.png', 'Im_MattDamon.png', 'Im_DanielCraig.png', 'Im_BenStiller.png', 'Im_LeonardoDiCaprio.png', 'Im_RyanGosling.png', 'Im_HughJackman.png'],same,0,1.1750111000001198,24,0,
PIFR3008,train,neg,0,neg0_id3_im8.bmp_neg0_id3_im6.bmp,['Im_BradPitt.png', 'Im_JustinTimberlake.png', 'Im_BenAffleck.png', 'Im_GeorgeClooney.png', 'Im_MattDamon.png', 'Im_DanielCraig.png', 'Im_BenStiller.png', 'Im_LeonardoDiCaprio.png', 'Im_RyanGosling.png', 'Im_HughJackman.png'],diff,0,1.675231100000019,24,0,
PIFR3008,train,neg,0,neg0_id20_im3.bmp_neg0_id20_im12.bmp,['Im_BradPitt.png', 'Im_JustinTimberlake.png', 'Im_BenAffleck.png', 'Im_GeorgeClooney.png', 'Im_MattDamon.png', 'Im_DanielCraig.png', 'Im_BenStiller.png', 'Im_LeonardoDiCaprio.png', 'Im_RyanGosling.png', 'Im_HughJackman.png'],same,1,0.4250511000000188,25,0,
PIFR3008,train,neg,60,neg60_id4_im7.bmp_neg60_id4_im15.bmp,['Im_BradPitt.png', 'Im_JustinTimberlake.png', 'Im_BenAffleck.png', 'Im_GeorgeClooney.png', 'Im_MattDamon.png', 'Im_DanielCraig.png', 'Im_BenStiller.png', 'Im_LeonardoDiCaprio.png', 'Im_RyanGosling.png', 'Im_HughJackman.png'],same,1,0.4668326999999408,26,0,
PIFR3008,train,neg,60,neg60_id13_im29.bmp_neg60_id13_im10.bmp,['Im_BradPitt.png', 'Im_JustinTimberlake.png', 'Im_BenAffleck.png', 'Im_GeorgeClooney.png', 'Im_MattDamon.png', 'Im_DanielCraig.png', 'Im_BenStiller.png', 'Im_LeonardoDiCaprio.png', 'Im_RyanGosling.png', 'Im_HughJackman.png'],same,1,0.42516710000018065,27,0,
PIFR3008,train,neg,90,neg90_id2_im16.bmp_neg90_id2_im2.bmp,['Im_BradPitt.png', 'Im_JustinTimberlake.png', 'Im_BenAffleck.png', 'Im_GeorgeClooney.png', 'Im_MattDamon.png', 'Im_DanielCraig.png', 'Im_BenStiller.png', 'Im_LeonardoDiCaprio.png', 'Im_RyanGosling.png', 'Im_HughJackman.png'],same,1,0.41668509999999515,28,0,
PIFR3008,train,neg,150,neg150_id13_im29.bmp_neg150_id13_im10.bmp,['Im_BradPitt.png', 'Im_JustinTimberlake.png', 'Im_BenAffleck.png', 'Im_GeorgeClooney.png', 'Im_MattDamon.png', 'Im_DanielCraig.png', 'Im_BenStiller.png', 'Im_LeonardoDiCaprio.png', 'Im_RyanGosling.png', 'Im_HughJackman.png'],same,1,0.48322060000009515,29,0,
PIFR3008,train,neg,90,neg90_id4_im20.bmp_neg90_id4_im7.bmp,['Im_BradPitt.png', 'Im_JustinTimberlake.png', 'Im_BenAffleck.png', 'Im_GeorgeClooney.png', 'Im_MattDamon.png', 'Im_DanielCraig.png', 'Im_BenStiller.png', 'Im_LeonardoDiCaprio.png', 'Im_RyanGosling.png', 'Im_HughJackman.png'],same,1,0.42505700000037905,30,0,
PIFR3008,train,neg,fs,negfs_id7_im26.bmp_negfs_id2_im2.bmp,['Im_BradPitt.png', 'Im_JustinTimberlake.png', 'Im_BenAffleck.png', 'Im_GeorgeClooney.png', 'Im_MattDamon.png', 'Im_DanielCraig.png', 'Im_BenStiller.png', 'Im_LeonardoDiCaprio.png', 'Im_RyanGosling.png', 'Im_HughJackman.png'],diff,1,0.4167084000000614,31,0,
PIFR3008,train,neg,120,neg120_id4_im15.bmp_neg120_id20_im12.bmp,['Im_BradPitt.png', 'Im_JustinTimberlake.png', 'Im_BenAffleck.png', 'Im_GeorgeClooney.png', 'Im_MattDamon.png', 'Im_DanielCraig.png', 'Im_BenStiller.png', 'Im_LeonardoDiCaprio.png', 'Im_RyanGosling.png', 'Im_HughJackman.png'],diff,1,0.42514219999975467,32,0,
PIFR3008,train,neg,120,neg120_id4_im7.bmp_neg120_id1_im4.bmp,['Im_BradPitt.png', 'Im_JustinTimberlake.png', 'Im_BenAffleck.png', 'Im_GeorgeClooney.png', 'Im_MattDamon.png', 'Im_DanielCraig.png', 'Im_BenStiller.png', 'Im_LeonardoDiCaprio.png', 'Im_RyanGosling.png', 'Im_HughJackman.png'],diff,1,0.42503430000033404,33,0,
PIFR3008,train,neg,fs,negfs_id14_im18.bmp_negfs_id14_im16.bmp,['Im_BradPitt.png', 'Im_JustinTimberlake.png', 'Im_BenAffleck.png', 'Im_GeorgeClooney.png', 'Im_MattDamon.png', 'Im_DanielCraig.png', 'Im_BenStiller.png', 'Im_LeonardoDiCaprio.png', 'Im_RyanGosling.png', 'Im_HughJackman.png'],same,1,0.5417030999997223,34,0,
PIFR3008,train,neg,30,neg30_id7_im15.bmp_neg30_id7_im26.bmp,['Im_BradPitt.png', 'Im_JustinTimberlake.png', 'Im_BenAffleck.png', 'Im_GeorgeClooney.png', 'Im_MattDamon.png', 'Im_DanielCraig.png', 'Im_BenStiller.png', 'Im_LeonardoDiCaprio.png', 'Im_RyanGosling.png', 'Im_HughJackman.png'],diff,0,0.7586880999997447,34,0,
PIFR3008,train,inv,90,pos90_id20_im3.bmp_pos90_id8_im21.bmp,['Im_BradPitt.png', 'Im_JustinTimberlake.png', 'Im_BenAffleck.png', 'Im_GeorgeClooney.png', 'Im_MattDamon.png', 'Im_DanielCraig.png', 'Im_BenStiller.png', 'Im_LeonardoDiCaprio.png', 'Im_RyanGosling.png', 'Im_HughJackman.png'],diff,1,0.4917228000003888,1,80.95238095238095,
PIFR3008,train,inv,0,pos0_id20_im12.bmp_pos0_id20_im30.bmp,['Im_BradPitt.png', 'Im_JustinTimberlake.png', 'Im_BenAffleck.png', 'Im_GeorgeClooney.png', 'Im_MattDamon.png', 'Im_DanielCraig.png', 'Im_BenStiller.png', 'Im_LeonardoDiCaprio.png', 'Im_RyanGosling.png', 'Im_HughJackman.png'],same,1,0.6750912999996217,2,80.95238095238095,
PIFR3008,train,inv,150,pos150_id3_im17.bmp_pos150_id10_im1.bmp,['Im_BradPitt.png', 'Im_JustinTimberlake.png', 'Im_BenAffleck.png', 'Im_GeorgeClooney.png', 'Im_MattDamon.png', 'Im_DanielCraig.png', 'Im_BenStiller.png', 'Im_LeonardoDiCaprio.png', 'Im_RyanGosling.png', 'Im_HughJackman.png'],diff,1,1.0085237000002962,3,80.95238095238095,
PIFR3008,train,inv,30,pos30_id4_im20.bmp_pos30_id8_im13.bmp,['Im_BradPitt.png', 'Im_JustinTimberlake.png', 'Im_BenAffleck.png', 'Im_GeorgeClooney.png', 'Im_MattDamon.png', 'Im_DanielCraig.png', 'Im_BenStiller.png', 'Im_LeonardoDiCaprio.png', 'Im_RyanGosling.png', 'Im_HughJackman.png'],diff,1,0.7502470999997968,4,80.95238095238095,
PIFR3008,train,inv,120,pos120_id3_im8.bmp_pos120_id8_im21.bmp,['Im_BradPitt.png', 'Im_JustinTimberlake.png', 'Im_BenAffleck.png', 'Im_GeorgeClooney.png', 'Im_MattDamon.png', 'Im_DanielCraig.png', 'Im_BenStiller.png', 'Im_LeonardoDiCaprio.png', 'Im_RyanGosling.png', 'Im_HughJackman.png'],same,0,0.591614799999661,4,80.95238095238095,
PIFR3008,train,inv,0,pos0_id7_im26.bmp_pos0_id2_im2.bmp,['Im_BradPitt.png', 'Im_JustinTimberlake.png', 'Im_BenAffleck.png', 'Im_GeorgeClooney.png', 'Im_MattDamon.png', 'Im_DanielCraig.png', 'Im_BenStiller.png', 'Im_LeonardoDiCaprio.png', 'Im_RyanGosling.png', 'Im_HughJackman.png'],diff,1,0.6000480000002426,5,80.95238095238095,
PIFR3008,train,inv,60,pos60_id2_im3.bmp_pos60_id2_im16.bmp,['Im_BradPitt.png', 'Im_JustinTimberlake.png', 'Im_BenAffleck.png', 'Im_GeorgeClooney.png', 'Im_MattDamon.png', 'Im_DanielCraig.png', 'Im_BenStiller.png', 'Im_LeonardoDiCaprio.png', 'Im_RyanGosling.png', 'Im_HughJackman.png'],same,1,1.0915559000004578,6,80.95238095238095,
PIFR3008,train,inv,fs,posfs_id8_im20.bmp_posfs_id8_im21.bmp,['Im_BradPitt.png', 'Im_JustinTimberlake.png', 'Im_BenAffleck.png', 'Im_GeorgeClooney.png', 'Im_MattDamon.png', 'Im_DanielCraig.png', 'Im_BenStiller.png', 'Im_LeonardoDiCaprio.png', 'Im_RyanGosling.png', 'Im_HughJackman.png'],same,1,0.8585533000004943,7,80.95238095238095,
PIFR3008,train,inv,30,pos30_id14_im24.bmp_pos30_id20_im30.bmp,['Im_BradPitt.png', 'Im_JustinTimberlake.png', 'Im_BenAffleck.png', 'Im_GeorgeClooney.png', 'Im_MattDamon.png', 'Im_DanielCraig.png', 'Im_BenStiller.png', 'Im_LeonardoDiCaprio.png', 'Im_RyanGosling.png', 'Im_HughJackman.png'],same,0,0.4917347000000518,7,80.95238095238095,
PIFR3008,train,inv,fs,posfs_id10_im17.bmp_posfs_id10_im18.bmp,['Im_BradPitt.png', 'Im_JustinTimberlake.png', 'Im_BenAffleck.png', 'Im_GeorgeClooney.png', 'Im_MattDamon.png', 'Im_DanielCraig.png', 'Im_BenStiller.png', 'Im_LeonardoDiCaprio.png', 'Im_RyanGosling.png', 'Im_HughJackman.png'],diff,0,1.8915494000002582,7,80.95238095238095,
PIFR3008,train,inv,60,pos60_id13_im15.bmp_pos60_id20_im12.bmp,['Im_BradPitt.png', 'Im_JustinTimberlake.png', 'Im_BenAffleck.png', 'Im_GeorgeClooney.png', 'Im_MattDamon.png', 'Im_DanielCraig.png', 'Im_BenStiller.png', 'Im_LeonardoDiCaprio.png', 'Im_RyanGosling.png', 'Im_HughJackman.png'],same,0,0.733709899999667,7,80.95238095238095,
PIFR3008,train,inv,120,pos120_id3_im17.bmp_pos120_id13_im29.bmp,['Im_BradPitt.png', 'Im_JustinTimberlake.png', 'Im_BenAffleck.png', 'Im_GeorgeClooney.png', 'Im_MattDamon.png', 'Im_DanielCraig.png', 'Im_BenStiller.png', 'Im_LeonardoDiCaprio.png', 'Im_RyanGosling.png', 'Im_HughJackman.png'],diff,1,1.7917349999997896,8,80.95238095238095,
PIFR3008,train,inv,150,pos150_id14_im18.bmp_pos150_id13_im10.bmp,['Im_BradPitt.png', 'Im_JustinTimberlake.png', 'Im_BenAffleck.png', 'Im_GeorgeClooney.png', 'Im_MattDamon.png', 'Im_DanielCraig.png', 'Im_BenStiller.png', 'Im_LeonardoDiCaprio.png', 'Im_RyanGosling.png', 'Im_HughJackman.png'],same,0,0.8419192999999723,8,80.95238095238095,
PIFR3008,train,inv,90,pos90_id3_im17.bmp_pos90_id10_im1.bmp,['Im_BradPitt.png', 'Im_JustinTimberlake.png', 'Im_BenAffleck.png', 'Im_GeorgeClooney.png', 'Im_MattDamon.png', 'Im_DanielCraig.png', 'Im_BenStiller.png', 'Im_LeonardoDiCaprio.png', 'Im_RyanGosling.png', 'Im_HughJackman.png'],diff,1,1.149981900000057,9,80.95238095238095,
PIFR3008,train,pos,60,pos60_id3_im6.bmp_pos60_id3_im17.bmp,['Im_BradPitt.png', 'Im_JustinTimberlake.png', 'Im_BenAffleck.png', 'Im_GeorgeClooney.png', 'Im_MattDamon.png', 'Im_DanielCraig.png', 'Im_BenStiller.png', 'Im_LeonardoDiCaprio.png', 'Im_RyanGosling.png', 'Im_HughJackman.png'],same,1,0.5003056000005017,10,80.95238095238095,
PIFR3008,train,pos,fs,posfs_id10_im18.bmp_posfs_id10_im17.bmp,['Im_BradPitt.png', 'Im_JustinTimberlake.png', 'Im_BenAffleck.png', 'Im_GeorgeClooney.png', 'Im_MattDamon.png', 'Im_DanielCraig.png', 'Im_BenStiller.png', 'Im_LeonardoDiCaprio.png', 'Im_RyanGosling.png', 'Im_HughJackman.png'],same,1,0.4166867000003549,11,80.95238095238095,
PIFR3008,train,pos,0,pos0_id8_im21.bmp_pos0_id3_im8.bmp,['Im_BradPitt.png', 'Im_JustinTimberlake.png', 'Im_BenAffleck.png', 'Im_GeorgeClooney.png', 'Im_MattDamon.png', 'Im_DanielCraig.png', 'Im_BenStiller.png', 'Im_LeonardoDiCaprio.png', 'Im_RyanGosling.png', 'Im_HughJackman.png'],diff,1,0.5251544999991893,12,80.95238095238095,
PIFR3008,train,pos,90,pos90_id8_im13.bmp_pos90_id14_im24.bmp,['Im_BradPitt.png', 'Im_JustinTimberlake.png', 'Im_BenAffleck.png', 'Im_GeorgeClooney.png', 'Im_MattDamon.png', 'Im_DanielCraig.png', 'Im_BenStiller.png', 'Im_LeonardoDiCaprio.png', 'Im_RyanGosling.png', 'Im_HughJackman.png'],diff,1,0.4250578000001042,13,80.95238095238095,
PIFR3008,train,pos,120,pos120_id4_im20.bmp_pos120_id4_im15.bmp,['Im_BradPitt.png', 'Im_JustinTimberlake.png', 'Im_BenAffleck.png', 'Im_GeorgeClooney.png', 'Im_MattDamon.png', 'Im_DanielCraig.png', 'Im_BenStiller.png', 'Im_LeonardoDiCaprio.png', 'Im_RyanGosling.png', 'Im_HughJackman.png'],same,1,0.4167347000002337,14,80.95238095238095,
PIFR3008,train,pos,30,pos30_id7_im15.bmp_pos30_id14_im18.bmp,['Im_BradPitt.png', 'Im_JustinTimberlake.png', 'Im_BenAffleck.png', 'Im_GeorgeClooney.png', 'Im_MattDamon.png', 'Im_DanielCraig.png', 'Im_BenStiller.png', 'Im_LeonardoDiCaprio.png', 'Im_RyanGosling.png', 'Im_HughJackman.png'],diff,1,0.42520450000029086,15,80.95238095238095,
PIFR3008,train,pos,0,pos0_id20_im3.bmp_pos0_id8_im20.bmp,['Im_BradPitt.png', 'Im_JustinTimberlake.png', 'Im_BenAffleck.png', 'Im_GeorgeClooney.png', 'Im_MattDamon.png', 'Im_DanielCraig.png', 'Im_BenStiller.png', 'Im_LeonardoDiCaprio.png', 'Im_RyanGosling.png', 'Im_HughJackman.png'],diff,1,0.4250417000002926,16,80.95238095238095,
PIFR3008,train,pos,60,pos60_id13_im10.bmp_pos60_id14_im18.bmp,['Im_BradPitt.png', 'Im_JustinTimberlake.png', 'Im_BenAffleck.png', 'Im_GeorgeClooney.png', 'Im_MattDamon.png', 'Im_DanielCraig.png', 'Im_BenStiller.png', 'Im_LeonardoDiCaprio.png', 'Im_RyanGosling.png', 'Im_HughJackman.png'],same,0,1.608425200000056,16,80.95238095238095,
PIFR3008,train,pos,90,pos90_id3_im8.bmp_pos90_id3_im17.bmp,['Im_BradPitt.png', 'Im_JustinTimberlake.png', 'Im_BenAffleck.png', 'Im_GeorgeClooney.png', 'Im_MattDamon.png', 'Im_DanielCraig.png', 'Im_BenStiller.png', 'Im_LeonardoDiCaprio.png', 'Im_RyanGosling.png', 'Im_HughJackman.png'],diff,0,0.43342050000046584,16,80.95238095238095,
PIFR3008,train,pos,fs,posfs_id20_im3.bmp_posfs_id8_im21.bmp,['Im_BradPitt.png', 'Im_JustinTimberlake.png', 'Im_BenAffleck.png', 'Im_GeorgeClooney.png', 'Im_MattDamon.png', 'Im_DanielCraig.png', 'Im_BenStiller.png', 'Im_LeonardoDiCaprio.png', 'Im_RyanGosling.png', 'Im_HughJackman.png'],diff,1,0.4169097999993028,17,80.95238095238095,
PIFR3008,train,pos,120,pos120_id1_im4.bmp_pos120_id3_im6.bmp,['Im_BradPitt.png', 'Im_JustinTimberlake.png', 'Im_BenAffleck.png', 'Im_GeorgeClooney.png', 'Im_MattDamon.png', 'Im_DanielCraig.png', 'Im_BenStiller.png', 'Im_LeonardoDiCaprio.png', 'Im_RyanGosling.png', 'Im_HughJackman.png'],diff,1,0.5084989000006317,18,80.95238095238095,
PIFR3008,train,pos,150,pos150_id8_im20.bmp_pos150_id8_im13.bmp,['Im_BradPitt.png', 'Im_JustinTimberlake.png', 'Im_BenAffleck.png', 'Im_GeorgeClooney.png', 'Im_MattDamon.png', 'Im_DanielCraig.png', 'Im_BenStiller.png', 'Im_LeonardoDiCaprio.png', 'Im_RyanGosling.png', 'Im_HughJackman.png'],same,1,0.925154499999735,19,80.95238095238095,
PIFR3008,train,pos,150,pos150_id10_im17.bmp_pos150_id10_im18.bmp,['Im_BradPitt.png', 'Im_JustinTimberlake.png', 'Im_BenAffleck.png', 'Im_GeorgeClooney.png', 'Im_MattDamon.png', 'Im_DanielCraig.png', 'Im_BenStiller.png', 'Im_LeonardoDiCaprio.png', 'Im_RyanGosling.png', 'Im_HughJackman.png'],same,1,0.41667469999993045,20,80.95238095238095,
PIFR3008,train,pos,30,pos30_id7_im14.bmp_pos30_id4_im15.bmp,['Im_BradPitt.png', 'Im_JustinTimberlake.png', 'Im_BenAffleck.png', 'Im_GeorgeClooney.png', 'Im_MattDamon.png', 'Im_DanielCraig.png', 'Im_BenStiller.png', 'Im_LeonardoDiCaprio.png', 'Im_RyanGosling.png', 'Im_HughJackman.png'],diff,1,0.4166998999999123,21,80.95238095238095,
PIFR3008,train,neg,90,neg90_id14_im18.bmp_neg90_id13_im10.bmp,['Im_BradPitt.png', 'Im_JustinTimberlake.png', 'Im_BenAffleck.png', 'Im_GeorgeClooney.png', 'Im_MattDamon.png', 'Im_DanielCraig.png', 'Im_BenStiller.png', 'Im_LeonardoDiCaprio.png', 'Im_RyanGosling.png', 'Im_HughJackman.png'],same,0,0.624977399999807,21,80.95238095238095,
PIFR3008,train,neg,150,neg150_id4_im20.bmp_neg150_id4_im7.bmp,['Im_BradPitt.png', 'Im_JustinTimberlake.png', 'Im_BenAffleck.png', 'Im_GeorgeClooney.png', 'Im_MattDamon.png', 'Im_DanielCraig.png', 'Im_BenStiller.png', 'Im_LeonardoDiCaprio.png', 'Im_RyanGosling.png', 'Im_HughJackman.png'],same,1,0.5668230000001131,22,80.95238095238095,
PIFR3008,train,neg,0,neg0_id14_im24.bmp_neg0_id14_im16.bmp,['Im_BradPitt.png', 'Im_JustinTimberlake.png', 'Im_BenAffleck.png', 'Im_GeorgeClooney.png', 'Im_MattDamon.png', 'Im_DanielCraig.png', 'Im_BenStiller.png', 'Im_LeonardoDiCaprio.png', 'Im_RyanGosling.png', 'Im_HughJackman.png'],diff,0,0.6751713000003292,22,80.95238095238095,
PIFR3008,train,neg,fs,negfs_id13_im15.bmp_negfs_id1_im21.bmp,['Im_BradPitt.png', 'Im_JustinTimberlake.png', 'Im_BenAffleck.png', 'Im_GeorgeClooney.png', 'Im_MattDamon.png', 'Im_DanielCraig.png', 'Im_BenStiller.png', 'Im_LeonardoDiCaprio.png', 'Im_RyanGosling.png', 'Im_HughJackman.png'],diff,1,0.6001420000002327,23,80.95238095238095,
PIFR3008,train,neg,150,neg150_id13_im29.bmp_neg150_id10_im18.bmp,['Im_BradPitt.png', 'Im_JustinTimberlake.png', 'Im_BenAffleck.png', 'Im_GeorgeClooney.png', 'Im_MattDamon.png', 'Im_DanielCraig.png', 'Im_BenStiller.png', 'Im_LeonardoDiCaprio.png', 'Im_RyanGosling.png', 'Im_HughJackman.png'],same,0,1.091920900000332,23,80.95238095238095,
PIFR3008,train,neg,60,neg60_id2_im16.bmp_neg60_id2_im2.bmp,['Im_BradPitt.png', 'Im_JustinTimberlake.png', 'Im_BenAffleck.png', 'Im_GeorgeClooney.png', 'Im_MattDamon.png', 'Im_DanielCraig.png', 'Im_BenStiller.png', 'Im_LeonardoDiCaprio.png', 'Im_RyanGosling.png', 'Im_HughJackman.png'],diff,0,0.508239699999649,23,80.95238095238095,
PIFR3008,train,neg,0,neg0_id2_im3.bmp_neg0_id10_im18.bmp,['Im_BradPitt.png', 'Im_JustinTimberlake.png', 'Im_BenAffleck.png', 'Im_GeorgeClooney.png', 'Im_MattDamon.png', 'Im_DanielCraig.png', 'Im_BenStiller.png', 'Im_LeonardoDiCaprio.png', 'Im_RyanGosling.png', 'Im_HughJackman.png'],diff,1,0.6419136000004073,24,80.95238095238095,
PIFR3008,train,neg,fs,negfs_id3_im17.bmp_negfs_id3_im6.bmp,['Im_BradPitt.png', 'Im_JustinTimberlake.png', 'Im_BenAffleck.png', 'Im_GeorgeClooney.png', 'Im_MattDamon.png', 'Im_DanielCraig.png', 'Im_BenStiller.png', 'Im_LeonardoDiCaprio.png', 'Im_RyanGosling.png', 'Im_HughJackman.png'],same,1,0.5334378999996261,25,80.95238095238095,
PIFR3008,train,neg,30,neg30_id8_im13.bmp_neg30_id8_im21.bmp,['Im_BradPitt.png', 'Im_JustinTimberlake.png', 'Im_BenAffleck.png', 'Im_GeorgeClooney.png', 'Im_MattDamon.png', 'Im_DanielCraig.png', 'Im_BenStiller.png', 'Im_LeonardoDiCaprio.png', 'Im_RyanGosling.png', 'Im_HughJackman.png'],same,1,0.4167227999996612,26,80.95238095238095,
PIFR3008,train,neg,120,neg120_id2_im16.bmp_neg120_id2_im2.bmp,['Im_BradPitt.png', 'Im_JustinTimberlake.png', 'Im_BenAffleck.png', 'Im_GeorgeClooney.png', 'Im_MattDamon.png', 'Im_DanielCraig.png', 'Im_BenStiller.png', 'Im_LeonardoDiCaprio.png', 'Im_RyanGosling.png', 'Im_HughJackman.png'],same,1,0.4250443999999334,27,80.95238095238095,
PIFR3008,train,neg,120,neg120_id14_im24.bmp_neg120_id14_im18.bmp,['Im_BradPitt.png', 'Im_JustinTimberlake.png', 'Im_BenAffleck.png', 'Im_GeorgeClooney.png', 'Im_MattDamon.png', 'Im_DanielCraig.png', 'Im_BenStiller.png', 'Im_LeonardoDiCaprio.png', 'Im_RyanGosling.png', 'Im_HughJackman.png'],same,1,0.4083430999999109,28,80.95238095238095,
PIFR3008,train,neg,90,neg90_id3_im17.bmp_neg90_id13_im29.bmp,['Im_BradPitt.png', 'Im_JustinTimberlake.png', 'Im_BenAffleck.png', 'Im_GeorgeClooney.png', 'Im_MattDamon.png', 'Im_DanielCraig.png', 'Im_BenStiller.png', 'Im_LeonardoDiCaprio.png', 'Im_RyanGosling.png', 'Im_HughJackman.png'],same,0,0.42487660000006144,28,80.95238095238095,
PIFR3008,train,neg,30,neg30_id13_im10.bmp_neg30_id14_im18.bmp,['Im_BradPitt.png', 'Im_JustinTimberlake.png', 'Im_BenAffleck.png', 'Im_GeorgeClooney.png', 'Im_MattDamon.png', 'Im_DanielCraig.png', 'Im_BenStiller.png', 'Im_LeonardoDiCaprio.png', 'Im_RyanGosling.png', 'Im_HughJackman.png'],same,0,0.4752816999998686,28,80.95238095238095,
PIFR3008,train,neg,60,neg60_id14_im24.bmp_neg60_id14_im16.bmp,['Im_BradPitt.png', 'Im_JustinTimberlake.png', 'Im_BenAffleck.png', 'Im_GeorgeClooney.png', 'Im_MattDamon.png', 'Im_DanielCraig.png', 'Im_BenStiller.png', 'Im_LeonardoDiCaprio.png', 'Im_RyanGosling.png', 'Im_HughJackman.png'],same,1,0.42505329999949026,29,80.95238095238095,
PIFR3008,train,inv,fs,posfs_id4_im20.bmp_posfs_id4_im7.bmp,['Im_BradPitt.png', 'Im_JustinTimberlake.png', 'Im_BenAffleck.png', 'Im_GeorgeClooney.png', 'Im_MattDamon.png', 'Im_DanielCraig.png', 'Im_BenStiller.png', 'Im_LeonardoDiCaprio.png', 'Im_RyanGosling.png', 'Im_HughJackman.png'],same,1,0.5250028000000384,1,69.04761904761905,
PIFR3008,train,inv,0,pos0_id3_im6.bmp_pos0_id10_im17.bmp,['Im_BradPitt.png', 'Im_JustinTimberlake.png', 'Im_BenAffleck.png', 'Im_GeorgeClooney.png', 'Im_MattDamon.png', 'Im_DanielCraig.png', 'Im_BenStiller.png', 'Im_LeonardoDiCaprio.png', 'Im_RyanGosling.png', 'Im_HughJackman.png'],same,0,0.4583849000000555,1,69.04761904761905,
PIFR3008,train,inv,fs,posfs_id1_im4.bmp_posfs_id1_im24.bmp,['Im_BradPitt.png', 'Im_JustinTimberlake.png', 'Im_BenAffleck.png', 'Im_GeorgeClooney.png', 'Im_MattDamon.png', 'Im_DanielCraig.png', 'Im_BenStiller.png', 'Im_LeonardoDiCaprio.png', 'Im_RyanGosling.png', 'Im_HughJackman.png'],same,1,0.48370190000059665,2,69.04761904761905,
PIFR3008,train,inv,30,pos30_id2_im3.bmp_pos30_id4_im20.bmp,['Im_BradPitt.png', 'Im_JustinTimberlake.png', 'Im_BenAffleck.png', 'Im_GeorgeClooney.png', 'Im_MattDamon.png', 'Im_DanielCraig.png', 'Im_BenStiller.png', 'Im_LeonardoDiCaprio.png', 'Im_RyanGosling.png', 'Im_HughJackman.png'],diff,1,0.491621799999848,3,69.04761904761905,
PIFR3008,train,inv,120,pos120_id13_im10.bmp_pos120_id14_im18.bmp,['Im_BradPitt.png', 'Im_JustinTimberlake.png', 'Im_BenAffleck.png', 'Im_GeorgeClooney.png', 'Im_MattDamon.png', 'Im_DanielCraig.png', 'Im_BenStiller.png', 'Im_LeonardoDiCaprio.png', 'Im_RyanGosling.png', 'Im_HughJackman.png'],same,0,0.6252464999997756,3,69.04761904761905,
PIFR3008,train,inv,60,pos60_id4_im20.bmp_pos60_id8_im13.bmp,['Im_BradPitt.png', 'Im_JustinTimberlake.png', 'Im_BenAffleck.png', 'Im_GeorgeClooney.png', 'Im_MattDamon.png', 'Im_DanielCraig.png', 'Im_BenStiller.png', 'Im_LeonardoDiCaprio.png', 'Im_RyanGosling.png', 'Im_HughJackman.png'],diff,1,0.7168438999997306,4,69.04761904761905,
PIFR3008,train,inv,30,pos30_id13_im15.bmp_pos30_id1_im21.bmp,['Im_BradPitt.png', 'Im_JustinTimberlake.png', 'Im_BenAffleck.png', 'Im_GeorgeClooney.png', 'Im_MattDamon.png', 'Im_DanielCraig.png', 'Im_BenStiller.png', 'Im_LeonardoDiCaprio.png', 'Im_RyanGosling.png', 'Im_HughJackman.png'],diff,1,0.9752606000001833,5,69.04761904761905,
PIFR3008,train,inv,90,pos90_id4_im15.bmp_pos90_id7_im14.bmp,['Im_BradPitt.png', 'Im_JustinTimberlake.png', 'Im_BenAffleck.png', 'Im_GeorgeClooney.png', 'Im_MattDamon.png', 'Im_DanielCraig.png', 'Im_BenStiller.png', 'Im_LeonardoDiCaprio.png', 'Im_RyanGosling.png', 'Im_HughJackman.png'],diff,1,0.5585729000003994,6,69.04761904761905,
PIFR3008,train,inv,0,pos0_id13_im15.bmp_pos0_id1_im21.bmp,['Im_BradPitt.png', 'Im_JustinTimberlake.png', 'Im_BenAffleck.png', 'Im_GeorgeClooney.png', 'Im_MattDamon.png', 'Im_DanielCraig.png', 'Im_BenStiller.png', 'Im_LeonardoDiCaprio.png', 'Im_RyanGosling.png', 'Im_HughJackman.png'],same,0,0.6166200999996363,6,69.04761904761905,
PIFR3008,train,inv,150,pos150_id13_im15.bmp_pos150_id1_im21.bmp,['Im_BradPitt.png', 'Im_JustinTimberlake.png', 'Im_BenAffleck.png', 'Im_GeorgeClooney.png', 'Im_MattDamon.png', 'Im_DanielCraig.png', 'Im_BenStiller.png', 'Im_LeonardoDiCaprio.png', 'Im_RyanGosling.png', 'Im_HughJackman.png'],diff,1,0.4250919999994949,7,69.04761904761905,
PIFR3008,train,inv,90,pos90_id8_im13.bmp_pos90_id14_im24.bmp,['Im_BradPitt.png', 'Im_JustinTimberlake.png', 'Im_BenAffleck.png', 'Im_GeorgeClooney.png', 'Im_MattDamon.png', 'Im_DanielCraig.png', 'Im_BenStiller.png', 'Im_LeonardoDiCaprio.png', 'Im_RyanGosling.png', 'Im_HughJackman.png'],diff,1,1.7002538999995522,8,69.04761904761905,
PIFR3008,train,inv,150,pos150_id10_im17.bmp_pos150_id10_im1.bmp,['Im_BradPitt.png', 'Im_JustinTimberlake.png', 'Im_BenAffleck.png', 'Im_GeorgeClooney.png', 'Im_MattDamon.png', 'Im_DanielCraig.png', 'Im_BenStiller.png', 'Im_LeonardoDiCaprio.png', 'Im_RyanGosling.png', 'Im_HughJackman.png'],diff,0,0.8918318999994881,8,69.04761904761905,
PIFR3008,train,inv,120,pos120_id4_im7.bmp_pos120_id1_im24.bmp,['Im_BradPitt.png', 'Im_JustinTimberlake.png', 'Im_BenAffleck.png', 'Im_GeorgeClooney.png', 'Im_MattDamon.png', 'Im_DanielCraig.png', 'Im_BenStiller.png', 'Im_LeonardoDiCaprio.png', 'Im_RyanGosling.png', 'Im_HughJackman.png'],diff,1,1.9167279000002964,9,69.04761904761905,
PIFR3008,train,inv,60,pos60_id13_im15.bmp_pos60_id13_im29.bmp,['Im_BradPitt.png', 'Im_JustinTimberlake.png', 'Im_BenAffleck.png', 'Im_GeorgeClooney.png', 'Im_MattDamon.png', 'Im_DanielCraig.png', 'Im_BenStiller.png', 'Im_LeonardoDiCaprio.png', 'Im_RyanGosling.png', 'Im_HughJackman.png'],diff,0,0.6082405000006474,9,69.04761904761905,
PIFR3008,train,neg,120,neg120_id8_im21.bmp_neg120_id8_im13.bmp,['Im_BradPitt.png', 'Im_JustinTimberlake.png', 'Im_BenAffleck.png', 'Im_GeorgeClooney.png', 'Im_MattDamon.png', 'Im_DanielCraig.png', 'Im_BenStiller.png', 'Im_LeonardoDiCaprio.png', 'Im_RyanGosling.png', 'Im_HughJackman.png'],same,1,0.6166998999997304,10,69.04761904761905,
PIFR3008,train,neg,fs,negfs_id14_im24.bmp_negfs_id8_im13.bmp,['Im_BradPitt.png', 'Im_JustinTimberlake.png', 'Im_BenAffleck.png', 'Im_GeorgeClooney.png', 'Im_MattDamon.png', 'Im_DanielCraig.png', 'Im_BenStiller.png', 'Im_LeonardoDiCaprio.png', 'Im_RyanGosling.png', 'Im_HughJackman.png'],diff,1,0.4250007000000551,11,69.04761904761905,
PIFR3008,train,neg,fs,negfs_id20_im30.bmp_negfs_id20_im12.bmp,['Im_BradPitt.png', 'Im_JustinTimberlake.png', 'Im_BenAffleck.png', 'Im_GeorgeClooney.png', 'Im_MattDamon.png', 'Im_DanielCraig.png', 'Im_BenStiller.png', 'Im_LeonardoDiCaprio.png', 'Im_RyanGosling.png', 'Im_HughJackman.png'],same,1,0.42494209999949817,12,69.04761904761905,
PIFR3008,train,neg,60,neg60_id10_im17.bmp_neg60_id10_im18.bmp,['Im_BradPitt.png', 'Im_JustinTimberlake.png', 'Im_BenAffleck.png', 'Im_GeorgeClooney.png', 'Im_MattDamon.png', 'Im_DanielCraig.png', 'Im_BenStiller.png', 'Im_LeonardoDiCaprio.png', 'Im_RyanGosling.png', 'Im_HughJackman.png'],same,1,0.4750401999999667,13,69.04761904761905,
PIFR3008,train,neg,90,neg90_id10_im17.bmp_neg90_id1_im24.bmp,['Im_BradPitt.png', 'Im_JustinTimberlake.png', 'Im_BenAffleck.png', 'Im_GeorgeClooney.png', 'Im_MattDamon.png', 'Im_DanielCraig.png', 'Im_BenStiller.png', 'Im_LeonardoDiCaprio.png', 'Im_RyanGosling.png', 'Im_HughJackman.png'],diff,1,0.4167354000001069,14,69.04761904761905,
PIFR3008,train,neg,150,neg150_id1_im4.bmp_neg150_id1_im24.bmp,['Im_BradPitt.png', 'Im_JustinTimberlake.png', 'Im_BenAffleck.png', 'Im_GeorgeClooney.png', 'Im_MattDamon.png', 'Im_DanielCraig.png', 'Im_BenStiller.png', 'Im_LeonardoDiCaprio.png', 'Im_RyanGosling.png', 'Im_HughJackman.png'],same,1,0.42514220000066416,15,69.04761904761905,
PIFR3008,train,neg,60,neg60_id4_im20.bmp_neg60_id4_im7.bmp,['Im_BradPitt.png', 'Im_JustinTimberlake.png', 'Im_BenAffleck.png', 'Im_GeorgeClooney.png', 'Im_MattDamon.png', 'Im_DanielCraig.png', 'Im_BenStiller.png', 'Im_LeonardoDiCaprio.png', 'Im_RyanGosling.png', 'Im_HughJackman.png'],same,1,0.4084344000002602,16,69.04761904761905,
PIFR3008,train,neg,0,neg0_id10_im18.bmp_neg0_id13_im29.bmp,['Im_BradPitt.png', 'Im_JustinTimberlake.png', 'Im_BenAffleck.png', 'Im_GeorgeClooney.png', 'Im_MattDamon.png', 'Im_DanielCraig.png', 'Im_BenStiller.png', 'Im_LeonardoDiCaprio.png', 'Im_RyanGosling.png', 'Im_HughJackman.png'],diff,1,0.5333388999997624,17,69.04761904761905,
PIFR3008,train,neg,30,neg30_id14_im16.bmp_neg30_id14_im18.bmp,['Im_BradPitt.png', 'Im_JustinTimberlake.png', 'Im_BenAffleck.png', 'Im_GeorgeClooney.png', 'Im_MattDamon.png', 'Im_DanielCraig.png', 'Im_BenStiller.png', 'Im_LeonardoDiCaprio.png', 'Im_RyanGosling.png', 'Im_HughJackman.png'],same,1,0.43338740000035614,18,69.04761904761905,
PIFR3008,train,neg,90,neg90_id8_im21.bmp_neg90_id3_im8.bmp,['Im_BradPitt.png', 'Im_JustinTimberlake.png', 'Im_BenAffleck.png', 'Im_GeorgeClooney.png', 'Im_MattDamon.png', 'Im_DanielCraig.png', 'Im_BenStiller.png', 'Im_LeonardoDiCaprio.png', 'Im_RyanGosling.png', 'Im_HughJackman.png'],diff,1,0.45004729999982374,19,69.04761904761905,
PIFR3008,train,neg,120,neg120_id14_im24.bmp_neg120_id14_im16.bmp,['Im_BradPitt.png', 'Im_JustinTimberlake.png', 'Im_BenAffleck.png', 'Im_GeorgeClooney.png', 'Im_MattDamon.png', 'Im_DanielCraig.png', 'Im_BenStiller.png', 'Im_LeonardoDiCaprio.png', 'Im_RyanGosling.png', 'Im_HughJackman.png'],same,1,0.4333787999994456,20,69.04761904761905,
PIFR3008,train,neg,30,neg30_id13_im10.bmp_neg30_id20_im30.bmp,['Im_BradPitt.png', 'Im_JustinTimberlake.png', 'Im_BenAffleck.png', 'Im_GeorgeClooney.png', 'Im_MattDamon.png', 'Im_DanielCraig.png', 'Im_BenStiller.png', 'Im_LeonardoDiCaprio.png', 'Im_RyanGosling.png', 'Im_HughJackman.png'],diff,1,0.5083740000000034,21,69.04761904761905,
PIFR3008,train,neg,150,neg150_id1_im21.bmp_neg150_id3_im8.bmp,['Im_BradPitt.png', 'Im_JustinTimberlake.png', 'Im_BenAffleck.png', 'Im_GeorgeClooney.png', 'Im_MattDamon.png', 'Im_DanielCraig.png', 'Im_BenStiller.png', 'Im_LeonardoDiCaprio.png', 'Im_RyanGosling.png', 'Im_HughJackman.png'],same,0,0.5586621000002197,21,69.04761904761905,
PIFR3008,train,neg,0,neg0_id3_im17.bmp_neg0_id13_im29.bmp,['Im_BradPitt.png', 'Im_JustinTimberlake.png', 'Im_BenAffleck.png', 'Im_GeorgeClooney.png', 'Im_MattDamon.png', 'Im_DanielCraig.png', 'Im_BenStiller.png', 'Im_LeonardoDiCaprio.png', 'Im_RyanGosling.png', 'Im_HughJackman.png'],diff,1,0.5087380000004487,22,69.04761904761905,
PIFR3008,train,pos,30,pos30_id3_im17.bmp_pos30_id13_im29.bmp,['Im_BradPitt.png', 'Im_JustinTimberlake.png', 'Im_BenAffleck.png', 'Im_GeorgeClooney.png', 'Im_MattDamon.png', 'Im_DanielCraig.png', 'Im_BenStiller.png', 'Im_LeonardoDiCaprio.png', 'Im_RyanGosling.png', 'Im_HughJackman.png'],diff,1,0.516765100000157,23,69.04761904761905,
PIFR3008,train,pos,0,pos0_id1_im4.bmp_pos0_id3_im6.bmp,['Im_BradPitt.png', 'Im_JustinTimberlake.png', 'Im_BenAffleck.png', 'Im_GeorgeClooney.png', 'Im_MattDamon.png', 'Im_DanielCraig.png', 'Im_BenStiller.png', 'Im_LeonardoDiCaprio.png', 'Im_RyanGosling.png', 'Im_HughJackman.png'],diff,1,0.5585961999995561,24,69.04761904761905,
PIFR3008,train,pos,30,pos30_id3_im17.bmp_pos30_id3_im8.bmp,['Im_BradPitt.png', 'Im_JustinTimberlake.png', 'Im_BenAffleck.png', 'Im_GeorgeClooney.png', 'Im_MattDamon.png', 'Im_DanielCraig.png', 'Im_BenStiller.png', 'Im_LeonardoDiCaprio.png', 'Im_RyanGosling.png', 'Im_HughJackman.png'],diff,0,0.5082164999994347,24,69.04761904761905,
PIFR3008,train,pos,60,pos60_id8_im13.bmp_pos60_id4_im20.bmp,['Im_BradPitt.png', 'Im_JustinTimberlake.png', 'Im_BenAffleck.png', 'Im_GeorgeClooney.png', 'Im_MattDamon.png', 'Im_DanielCraig.png', 'Im_BenStiller.png', 'Im_LeonardoDiCaprio.png', 'Im_RyanGosling.png', 'Im_HughJackman.png'],diff,1,0.4083663000001252,25,69.04761904761905,
PIFR3008,train,pos,150,pos150_id13_im29.bmp_pos150_id3_im17.bmp,['Im_BradPitt.png', 'Im_JustinTimberlake.png', 'Im_BenAffleck.png', 'Im_GeorgeClooney.png', 'Im_MattDamon.png', 'Im_DanielCraig.png', 'Im_BenStiller.png', 'Im_LeonardoDiCaprio.png', 'Im_RyanGosling.png', 'Im_HughJackman.png'],diff,1,0.4083911999996417,26,69.04761904761905,
PIFR3008,train,pos,fs,posfs_id2_im16.bmp_posfs_id14_im16.bmp,['Im_BradPitt.png', 'Im_JustinTimberlake.png', 'Im_BenAffleck.png', 'Im_GeorgeClooney.png', 'Im_MattDamon.png', 'Im_DanielCraig.png', 'Im_BenStiller.png', 'Im_LeonardoDiCaprio.png', 'Im_RyanGosling.png', 'Im_HughJackman.png'],diff,1,0.52502960000038,27,69.04761904761905,
PIFR3008,train,pos,90,pos90_id7_im14.bmp_pos90_id7_im15.bmp,['Im_BradPitt.png', 'Im_JustinTimberlake.png', 'Im_BenAffleck.png', 'Im_GeorgeClooney.png', 'Im_MattDamon.png', 'Im_DanielCraig.png', 'Im_BenStiller.png', 'Im_LeonardoDiCaprio.png', 'Im_RyanGosling.png', 'Im_HughJackman.png'],same,1,0.6832495000007839,28,69.04761904761905,
PIFR3008,train,pos,120,pos120_id3_im6.bmp_pos120_id10_im17.bmp,['Im_BradPitt.png', 'Im_JustinTimberlake.png', 'Im_BenAffleck.png', 'Im_GeorgeClooney.png', 'Im_MattDamon.png', 'Im_DanielCraig.png', 'Im_BenStiller.png', 'Im_LeonardoDiCaprio.png', 'Im_RyanGosling.png', 'Im_HughJackman.png'],diff,1,0.4167142000005697,29,69.04761904761905,
PIFR3008,train,pos,0,pos0_id4_im20.bmp_pos0_id2_im3.bmp,['Im_BradPitt.png', 'Im_JustinTimberlake.png', 'Im_BenAffleck.png', 'Im_GeorgeClooney.png', 'Im_MattDamon.png', 'Im_DanielCraig.png', 'Im_BenStiller.png', 'Im_LeonardoDiCaprio.png', 'Im_RyanGosling.png', 'Im_HughJackman.png'],diff,1,0.416687599999932,30,69.04761904761905,
PIFR3008,train,pos,90,pos90_id14_im18.bmp_pos90_id14_im16.bmp,['Im_BradPitt.png', 'Im_JustinTimberlake.png', 'Im_BenAffleck.png', 'Im_GeorgeClooney.png', 'Im_MattDamon.png', 'Im_DanielCraig.png', 'Im_BenStiller.png', 'Im_LeonardoDiCaprio.png', 'Im_RyanGosling.png', 'Im_HughJackman.png'],same,1,0.4249957000001814,31,69.04761904761905,
PIFR3008,train,pos,150,pos150_id13_im10.bmp_pos150_id14_im18.bmp,['Im_BradPitt.png', 'Im_JustinTimberlake.png', 'Im_BenAffleck.png', 'Im_GeorgeClooney.png', 'Im_MattDamon.png', 'Im_DanielCraig.png', 'Im_BenStiller.png', 'Im_LeonardoDiCaprio.png', 'Im_RyanGosling.png', 'Im_HughJackman.png'],diff,1,0.6419421000000511,32,69.04761904761905,
PIFR3008,train,pos,fs,posfs_id7_im15.bmp_posfs_id7_im26.bmp,['Im_BradPitt.png', 'Im_JustinTimberlake.png', 'Im_BenAffleck.png', 'Im_GeorgeClooney.png', 'Im_MattDamon.png', 'Im_DanielCraig.png', 'Im_BenStiller.png', 'Im_LeonardoDiCaprio.png', 'Im_RyanGosling.png', 'Im_HughJackman.png'],same,1,0.43331709999984014,33,69.04761904761905,
PIFR3008,train,pos,60,pos60_id8_im21.bmp_pos60_id20_im3.bmp,['Im_BradPitt.png', 'Im_JustinTimberlake.png', 'Im_BenAffleck.png', 'Im_GeorgeClooney.png', 'Im_MattDamon.png', 'Im_DanielCraig.png', 'Im_BenStiller.png', 'Im_LeonardoDiCaprio.png', 'Im_RyanGosling.png', 'Im_HughJackman.png'],diff,1,0.6583368999999948,34,69.04761904761905,
PIFR3008,train,pos,120,pos120_id1_im21.bmp_pos120_id1_im4.bmp,['Im_BradPitt.png', 'Im_JustinTimberlake.png', 'Im_BenAffleck.png', 'Im_GeorgeClooney.png', 'Im_MattDamon.png', 'Im_DanielCraig.png', 'Im_BenStiller.png', 'Im_LeonardoDiCaprio.png', 'Im_RyanGosling.png', 'Im_HughJackman.png'],same,1,0.5834022999997615,35,69.04761904761905,
PIFR3008,train,inv,30,pos30_id1_im4.bmp_pos30_id4_im7.bmp,['Im_BradPitt.png', 'Im_JustinTimberlake.png', 'Im_BenAffleck.png', 'Im_GeorgeClooney.png', 'Im_MattDamon.png', 'Im_DanielCraig.png', 'Im_BenStiller.png', 'Im_LeonardoDiCaprio.png', 'Im_RyanGosling.png', 'Im_HughJackman.png'],diff,1,0.566572300000189,1,83.33333333333333,
PIFR3008,train,inv,90,pos90_id4_im20.bmp_pos90_id4_im15.bmp,['Im_BradPitt.png', 'Im_JustinTimberlake.png', 'Im_BenAffleck.png', 'Im_GeorgeClooney.png', 'Im_MattDamon.png', 'Im_DanielCraig.png', 'Im_BenStiller.png', 'Im_LeonardoDiCaprio.png', 'Im_RyanGosling.png', 'Im_HughJackman.png'],same,1,0.5749578999993901,2,83.33333333333333,
PIFR3008,train,inv,150,pos150_id1_im24.bmp_pos150_id1_im21.bmp,['Im_BradPitt.png', 'Im_JustinTimberlake.png', 'Im_BenAffleck.png', 'Im_GeorgeClooney.png', 'Im_MattDamon.png', 'Im_DanielCraig.png', 'Im_BenStiller.png', 'Im_LeonardoDiCaprio.png', 'Im_RyanGosling.png', 'Im_HughJackman.png'],same,1,0.408414300000004,3,83.33333333333333,
PIFR3008,train,inv,0,pos0_id20_im30.bmp_pos0_id14_im24.bmp,['Im_BradPitt.png', 'Im_JustinTimberlake.png', 'Im_BenAffleck.png', 'Im_GeorgeClooney.png', 'Im_MattDamon.png', 'Im_DanielCraig.png', 'Im_BenStiller.png', 'Im_LeonardoDiCaprio.png', 'Im_RyanGosling.png', 'Im_HughJackman.png'],same,0,0.6250283999997919,3,83.33333333333333,
PIFR3008,train,inv,fs,posfs_id13_im29.bmp_posfs_id10_im18.bmp,['Im_BradPitt.png', 'Im_JustinTimberlake.png', 'Im_BenAffleck.png', 'Im_GeorgeClooney.png', 'Im_MattDamon.png', 'Im_DanielCraig.png', 'Im_BenStiller.png', 'Im_LeonardoDiCaprio.png', 'Im_RyanGosling.png', 'Im_HughJackman.png'],diff,1,0.4249666999994588,4,83.33333333333333,
PIFR3008,train,inv,60,pos60_id13_im29.bmp_pos60_id3_im17.bmp,['Im_BradPitt.png', 'Im_JustinTimberlake.png', 'Im_BenAffleck.png', 'Im_GeorgeClooney.png', 'Im_MattDamon.png', 'Im_DanielCraig.png', 'Im_BenStiller.png', 'Im_LeonardoDiCaprio.png', 'Im_RyanGosling.png', 'Im_HughJackman.png'],diff,1,0.583509399999457,5,83.33333333333333,
PIFR3008,train,inv,120,pos120_id13_im15.bmp_pos120_id20_im12.bmp,['Im_BradPitt.png', 'Im_JustinTimberlake.png', 'Im_BenAffleck.png', 'Im_GeorgeClooney.png', 'Im_MattDamon.png', 'Im_DanielCraig.png', 'Im_BenStiller.png', 'Im_LeonardoDiCaprio.png', 'Im_RyanGosling.png', 'Im_HughJackman.png'],diff,1,1.2420743000002403,6,83.33333333333333,
PIFR3008,train,inv,60,pos60_id14_im18.bmp_pos60_id14_im24.bmp,['Im_BradPitt.png', 'Im_JustinTimberlake.png', 'Im_BenAffleck.png', 'Im_GeorgeClooney.png', 'Im_MattDamon.png', 'Im_DanielCraig.png', 'Im_BenStiller.png', 'Im_LeonardoDiCaprio.png', 'Im_RyanGosling.png', 'Im_HughJackman.png'],same,1,0.7752074999998513,7,83.33333333333333,
PIFR3008,train,inv,150,pos150_id3_im8.bmp_pos150_id8_im21.bmp,['Im_BradPitt.png', 'Im_JustinTimberlake.png', 'Im_BenAffleck.png', 'Im_GeorgeClooney.png', 'Im_MattDamon.png', 'Im_DanielCraig.png', 'Im_BenStiller.png', 'Im_LeonardoDiCaprio.png', 'Im_RyanGosling.png', 'Im_HughJackman.png'],diff,1,0.7839699999994991,8,83.33333333333333,
PIFR3008,train,inv,120,pos120_id2_im3.bmp_pos120_id4_im20.bmp,['Im_BradPitt.png', 'Im_JustinTimberlake.png', 'Im_BenAffleck.png', 'Im_GeorgeClooney.png', 'Im_MattDamon.png', 'Im_DanielCraig.png', 'Im_BenStiller.png', 'Im_LeonardoDiCaprio.png', 'Im_RyanGosling.png', 'Im_HughJackman.png'],same,0,0.658374399999957,8,83.33333333333333,
PIFR3008,train,inv,90,pos90_id14_im24.bmp_pos90_id14_im16.bmp,['Im_BradPitt.png', 'Im_JustinTimberlake.png', 'Im_BenAffleck.png', 'Im_GeorgeClooney.png', 'Im_MattDamon.png', 'Im_DanielCraig.png', 'Im_BenStiller.png', 'Im_LeonardoDiCaprio.png', 'Im_RyanGosling.png', 'Im_HughJackman.png'],same,1,0.4834326999998666,9,83.33333333333333,
PIFR3008,train,inv,0,pos0_id20_im12.bmp_pos0_id13_im15.bmp,['Im_BradPitt.png', 'Im_JustinTimberlake.png', 'Im_BenAffleck.png', 'Im_GeorgeClooney.png', 'Im_MattDamon.png', 'Im_DanielCraig.png', 'Im_BenStiller.png', 'Im_LeonardoDiCaprio.png', 'Im_RyanGosling.png', 'Im_HughJackman.png'],diff,1,0.4251233000004504,10,83.33333333333333,
PIFR3008,train,inv,30,pos30_id10_im1.bmp_pos30_id7_im14.bmp,['Im_BradPitt.png', 'Im_JustinTimberlake.png', 'Im_BenAffleck.png', 'Im_GeorgeClooney.png', 'Im_MattDamon.png', 'Im_DanielCraig.png', 'Im_BenStiller.png', 'Im_LeonardoDiCaprio.png', 'Im_RyanGosling.png', 'Im_HughJackman.png'],same,0,0.9917341999998825,10,83.33333333333333,
PIFR3008,train,inv,fs,posfs_id14_im16.bmp_posfs_id14_im24.bmp,['Im_BradPitt.png', 'Im_JustinTimberlake.png', 'Im_BenAffleck.png', 'Im_GeorgeClooney.png', 'Im_MattDamon.png', 'Im_DanielCraig.png', 'Im_BenStiller.png', 'Im_LeonardoDiCaprio.png', 'Im_RyanGosling.png', 'Im_HughJackman.png'],same,1,0.4250060000003941,11,83.33333333333333,
PIFR3008,train,neg,fs,negfs_id14_im18.bmp_negfs_id13_im10.bmp,['Im_BradPitt.png', 'Im_JustinTimberlake.png', 'Im_BenAffleck.png', 'Im_GeorgeClooney.png', 'Im_MattDamon.png', 'Im_DanielCraig.png', 'Im_BenStiller.png', 'Im_LeonardoDiCaprio.png', 'Im_RyanGosling.png', 'Im_HughJackman.png'],diff,1,1.1416509000000588,12,83.33333333333333,
PIFR3008,train,neg,30,neg30_id7_im26.bmp_neg30_id7_im14.bmp,['Im_BradPitt.png', 'Im_JustinTimberlake.png', 'Im_BenAffleck.png', 'Im_GeorgeClooney.png', 'Im_MattDamon.png', 'Im_DanielCraig.png', 'Im_BenStiller.png', 'Im_LeonardoDiCaprio.png', 'Im_RyanGosling.png', 'Im_HughJackman.png'],diff,0,0.45860309999989113,12,83.33333333333333,
PIFR3008,train,neg,fs,negfs_id14_im16.bmp_negfs_id7_im26.bmp,['Im_BradPitt.png', 'Im_JustinTimberlake.png', 'Im_BenAffleck.png', 'Im_GeorgeClooney.png', 'Im_MattDamon.png', 'Im_DanielCraig.png', 'Im_BenStiller.png', 'Im_LeonardoDiCaprio.png', 'Im_RyanGosling.png', 'Im_HughJackman.png'],diff,1,0.4250523999999132,13,83.33333333333333,
PIFR3008,train,neg,120,neg120_id13_im10.bmp_neg120_id14_im18.bmp,['Im_BradPitt.png', 'Im_JustinTimberlake.png', 'Im_BenAffleck.png', 'Im_GeorgeClooney.png', 'Im_MattDamon.png', 'Im_DanielCraig.png', 'Im_BenStiller.png', 'Im_LeonardoDiCaprio.png', 'Im_RyanGosling.png', 'Im_HughJackman.png'],same,0,0.8088071000001946,13,83.33333333333333,
PIFR3008,train,neg,30,neg30_id4_im7.bmp_neg30_id1_im4.bmp,['Im_BradPitt.png', 'Im_JustinTimberlake.png', 'Im_BenAffleck.png', 'Im_GeorgeClooney.png', 'Im_MattDamon.png', 'Im_DanielCraig.png', 'Im_BenStiller.png', 'Im_LeonardoDiCaprio.png', 'Im_RyanGosling.png', 'Im_HughJackman.png'],diff,1,0.42507519999981014,14,83.33333333333333,
PIFR3008,train,neg,150,neg150_id10_im18.bmp_neg150_id2_im3.bmp,['Im_BradPitt.png', 'Im_JustinTimberlake.png', 'Im_BenAffleck.png', 'Im_GeorgeClooney.png', 'Im_MattDamon.png', 'Im_DanielCraig.png', 'Im_BenStiller.png', 'Im_LeonardoDiCaprio.png', 'Im_RyanGosling.png', 'Im_HughJackman.png'],diff,1,0.6498938999993698,15,83.33333333333333,
PIFR3008,train,neg,150,neg150_id2_im16.bmp_neg150_id2_im2.bmp,['Im_BradPitt.png', 'Im_JustinTimberlake.png', 'Im_BenAffleck.png', 'Im_GeorgeClooney.png', 'Im_MattDamon.png', 'Im_DanielCraig.png', 'Im_BenStiller.png', 'Im_LeonardoDiCaprio.png', 'Im_RyanGosling.png', 'Im_HughJackman.png'],same,1,0.5336281999998391,16,83.33333333333333,
PIFR3008,train,neg,0,neg0_id1_im21.bmp_neg0_id1_im24.bmp,['Im_BradPitt.png', 'Im_JustinTimberlake.png', 'Im_BenAffleck.png', 'Im_GeorgeClooney.png', 'Im_MattDamon.png', 'Im_DanielCraig.png', 'Im_BenStiller.png', 'Im_LeonardoDiCaprio.png', 'Im_RyanGosling.png', 'Im_HughJackman.png'],same,1,0.43358729999999923,17,83.33333333333333,
PIFR3008,train,neg,120,neg120_id3_im6.bmp_neg120_id10_im17.bmp,['Im_BradPitt.png', 'Im_JustinTimberlake.png', 'Im_BenAffleck.png', 'Im_GeorgeClooney.png', 'Im_MattDamon.png', 'Im_DanielCraig.png', 'Im_BenStiller.png', 'Im_LeonardoDiCaprio.png', 'Im_RyanGosling.png', 'Im_HughJackman.png'],diff,1,0.4669253000001845,18,83.33333333333333,
PIFR3008,train,neg,90,neg90_id1_im4.bmp_neg90_id3_im6.bmp,['Im_BradPitt.png', 'Im_JustinTimberlake.png', 'Im_BenAffleck.png', 'Im_GeorgeClooney.png', 'Im_MattDamon.png', 'Im_DanielCraig.png', 'Im_BenStiller.png', 'Im_LeonardoDiCaprio.png', 'Im_RyanGosling.png', 'Im_HughJackman.png'],diff,1,0.8082001000002492,19,83.33333333333333,
PIFR3008,train,neg,0,neg0_id2_im2.bmp_neg0_id7_im26.bmp,['Im_BradPitt.png', 'Im_JustinTimberlake.png', 'Im_BenAffleck.png', 'Im_GeorgeClooney.png', 'Im_MattDamon.png', 'Im_DanielCraig.png', 'Im_BenStiller.png', 'Im_LeonardoDiCaprio.png', 'Im_RyanGosling.png', 'Im_HughJackman.png'],diff,1,0.45840859999952954,20,83.33333333333333,
PIFR3008,train,neg,60,neg60_id2_im3.bmp_neg60_id10_im18.bmp,['Im_BradPitt.png', 'Im_JustinTimberlake.png', 'Im_BenAffleck.png', 'Im_GeorgeClooney.png', 'Im_MattDamon.png', 'Im_DanielCraig.png', 'Im_BenStiller.png', 'Im_LeonardoDiCaprio.png', 'Im_RyanGosling.png', 'Im_HughJackman.png'],diff,1,0.5335717000007207,21,83.33333333333333,
PIFR3008,train,neg,60,neg60_id13_im15.bmp_neg60_id13_im29.bmp,['Im_BradPitt.png', 'Im_JustinTimberlake.png', 'Im_BenAffleck.png', 'Im_GeorgeClooney.png', 'Im_MattDamon.png', 'Im_DanielCraig.png', 'Im_BenStiller.png', 'Im_LeonardoDiCaprio.png', 'Im_RyanGosling.png', 'Im_HughJackman.png'],same,1,0.5669348999999784,22,83.33333333333333,
PIFR3008,train,neg,90,neg90_id8_im13.bmp_neg90_id14_im24.bmp,['Im_BradPitt.png', 'Im_JustinTimberlake.png', 'Im_BenAffleck.png', 'Im_GeorgeClooney.png', 'Im_MattDamon.png', 'Im_DanielCraig.png', 'Im_BenStiller.png', 'Im_LeonardoDiCaprio.png', 'Im_RyanGosling.png', 'Im_HughJackman.png'],diff,1,1.233499899999515,23,83.33333333333333,
PIFR3008,train,pos,150,pos150_id8_im20.bmp_pos150_id2_im16.bmp,['Im_BradPitt.png', 'Im_JustinTimberlake.png', 'Im_BenAffleck.png', 'Im_GeorgeClooney.png', 'Im_MattDamon.png', 'Im_DanielCraig.png', 'Im_BenStiller.png', 'Im_LeonardoDiCaprio.png', 'Im_RyanGosling.png', 'Im_HughJackman.png'],same,0,0.6083710000002611,23,83.33333333333333,
PIFR3008,train,pos,0,pos0_id8_im13.bmp_pos0_id14_im24.bmp,['Im_BradPitt.png', 'Im_JustinTimberlake.png', 'Im_BenAffleck.png', 'Im_GeorgeClooney.png', 'Im_MattDamon.png', 'Im_DanielCraig.png', 'Im_BenStiller.png', 'Im_LeonardoDiCaprio.png', 'Im_RyanGosling.png', 'Im_HughJackman.png'],same,0,0.8415518000001612,23,83.33333333333333,
PIFR3008,train,pos,60,pos60_id8_im20.bmp_pos60_id20_im3.bmp,['Im_BradPitt.png', 'Im_JustinTimberlake.png', 'Im_BenAffleck.png', 'Im_GeorgeClooney.png', 'Im_MattDamon.png', 'Im_DanielCraig.png', 'Im_BenStiller.png', 'Im_LeonardoDiCaprio.png', 'Im_RyanGosling.png', 'Im_HughJackman.png'],diff,1,0.42498040000009496,24,83.33333333333333,
PIFR3008,train,pos,120,pos120_id14_im24.bmp_pos120_id14_im18.bmp,['Im_BradPitt.png', 'Im_JustinTimberlake.png', 'Im_BenAffleck.png', 'Im_GeorgeClooney.png', 'Im_MattDamon.png', 'Im_DanielCraig.png', 'Im_BenStiller.png', 'Im_LeonardoDiCaprio.png', 'Im_RyanGosling.png', 'Im_HughJackman.png'],same,1,0.925151299999925,25,83.33333333333333,
PIFR3008,train,pos,fs,posfs_id2_im16.bmp_posfs_id8_im20.bmp,['Im_BradPitt.png', 'Im_JustinTimberlake.png', 'Im_BenAffleck.png', 'Im_GeorgeClooney.png', 'Im_MattDamon.png', 'Im_DanielCraig.png', 'Im_BenStiller.png', 'Im_LeonardoDiCaprio.png', 'Im_RyanGosling.png', 'Im_HughJackman.png'],diff,1,0.4083828999991965,26,83.33333333333333,
PIFR3008,train,pos,150,pos150_id1_im4.bmp_pos150_id3_im6.bmp,['Im_BradPitt.png', 'Im_JustinTimberlake.png', 'Im_BenAffleck.png', 'Im_GeorgeClooney.png', 'Im_MattDamon.png', 'Im_DanielCraig.png', 'Im_BenStiller.png', 'Im_LeonardoDiCaprio.png', 'Im_RyanGosling.png', 'Im_HughJackman.png'],diff,1,0.4251011999995171,27,83.33333333333333,
PIFR3008,train,pos,90,pos90_id2_im3.bmp_pos90_id4_im20.bmp,['Im_BradPitt.png', 'Im_JustinTimberlake.png', 'Im_BenAffleck.png', 'Im_GeorgeClooney.png', 'Im_MattDamon.png', 'Im_DanielCraig.png', 'Im_BenStiller.png', 'Im_LeonardoDiCaprio.png', 'Im_RyanGosling.png', 'Im_HughJackman.png'],diff,1,0.4250628999998298,28,83.33333333333333,
PIFR3008,train,pos,fs,posfs_id3_im6.bmp_posfs_id3_im8.bmp,['Im_BradPitt.png', 'Im_JustinTimberlake.png', 'Im_BenAffleck.png', 'Im_GeorgeClooney.png', 'Im_MattDamon.png', 'Im_DanielCraig.png', 'Im_BenStiller.png', 'Im_LeonardoDiCaprio.png', 'Im_RyanGosling.png', 'Im_HughJackman.png'],diff,0,0.43337739999969926,28,83.33333333333333,
PIFR3008,train,pos,0,pos0_id3_im6.bmp_pos0_id10_im17.bmp,['Im_BradPitt.png', 'Im_JustinTimberlake.png', 'Im_BenAffleck.png', 'Im_GeorgeClooney.png', 'Im_MattDamon.png', 'Im_DanielCraig.png', 'Im_BenStiller.png', 'Im_LeonardoDiCaprio.png', 'Im_RyanGosling.png', 'Im_HughJackman.png'],diff,1,0.5249513000007937,29,83.33333333333333,
PIFR3008,train,pos,120,pos120_id20_im30.bmp_pos120_id14_im24.bmp,['Im_BradPitt.png', 'Im_JustinTimberlake.png', 'Im_BenAffleck.png', 'Im_GeorgeClooney.png', 'Im_MattDamon.png', 'Im_DanielCraig.png', 'Im_BenStiller.png', 'Im_LeonardoDiCaprio.png', 'Im_RyanGosling.png', 'Im_HughJackman.png'],diff,1,0.4250684000007823,30,83.33333333333333,
PIFR3008,train,pos,60,pos60_id3_im6.bmp_pos60_id1_im4.bmp,['Im_BradPitt.png', 'Im_JustinTimberlake.png', 'Im_BenAffleck.png', 'Im_GeorgeClooney.png', 'Im_MattDamon.png', 'Im_DanielCraig.png', 'Im_BenStiller.png', 'Im_LeonardoDiCaprio.png', 'Im_RyanGosling.png', 'Im_HughJackman.png'],diff,1,0.40846289999990404,31,83.33333333333333,
PIFR3008,train,pos,90,pos90_id10_im17.bmp_pos90_id1_im24.bmp,['Im_BradPitt.png', 'Im_JustinTimberlake.png', 'Im_BenAffleck.png', 'Im_GeorgeClooney.png', 'Im_MattDamon.png', 'Im_DanielCraig.png', 'Im_BenStiller.png', 'Im_LeonardoDiCaprio.png', 'Im_RyanGosling.png', 'Im_HughJackman.png'],diff,1,0.8088163000002169,32,83.33333333333333,
PIFR3008,train,pos,30,pos30_id8_im13.bmp_pos30_id4_im20.bmp,['Im_BradPitt.png', 'Im_JustinTimberlake.png', 'Im_BenAffleck.png', 'Im_GeorgeClooney.png', 'Im_MattDamon.png', 'Im_DanielCraig.png', 'Im_BenStiller.png', 'Im_LeonardoDiCaprio.png', 'Im_RyanGosling.png', 'Im_HughJackman.png'],diff,1,0.40819899999951303,33,83.33333333333333,
PIFR3008,train,pos,30,pos30_id8_im20.bmp_pos30_id8_im13.bmp,['Im_BradPitt.png', 'Im_JustinTimberlake.png', 'Im_BenAffleck.png', 'Im_GeorgeClooney.png', 'Im_MattDamon.png', 'Im_DanielCraig.png', 'Im_BenStiller.png', 'Im_LeonardoDiCaprio.png', 'Im_RyanGosling.png', 'Im_HughJackman.png'],same,1,0.43340380000063305,34,83.33333333333333,
PIFR3008,0,pos,0,pos0_id13_im10.bmp_pos0_id20_im30.bmp,['Im_BradPitt.png', 'Im_JustinTimberlake.png', 'Im_BenAffleck.png', 'Im_GeorgeClooney.png', 'Im_MattDamon.png', 'Im_DanielCraig.png', 'Im_BenStiller.png', 'Im_LeonardoDiCaprio.png', 'Im_RyanGosling.png', 'Im_HughJackman.png'],same,0,2.350221500000771,0,0,
PIFR3008,0,pos,120,pos120_id4_im20.bmp_pos120_id2_im3.bmp,['Im_BradPitt.png', 'Im_JustinTimberlake.png', 'Im_BenAffleck.png', 'Im_GeorgeClooney.png', 'Im_MattDamon.png', 'Im_DanielCraig.png', 'Im_BenStiller.png', 'Im_LeonardoDiCaprio.png', 'Im_RyanGosling.png', 'Im_HughJackman.png'],diff,1,1.4252716000000873,1,0,
PIFR3008,0,pos,30,pos30_id4_im15.bmp_pos30_id20_im12.bmp,['Im_BradPitt.png', 'Im_JustinTimberlake.png', 'Im_BenAffleck.png', 'Im_GeorgeClooney.png', 'Im_MattDamon.png', 'Im_DanielCraig.png', 'Im_BenStiller.png', 'Im_LeonardoDiCaprio.png', 'Im_RyanGosling.png', 'Im_HughJackman.png'],diff,1,1.266705600000023,2,0,
PIFR3008,0,pos,60,pos60_id10_im17.bmp_pos60_id3_im6.bmp,['Im_BradPitt.png', 'Im_JustinTimberlake.png', 'Im_BenAffleck.png', 'Im_GeorgeClooney.png', 'Im_MattDamon.png', 'Im_DanielCraig.png', 'Im_BenStiller.png', 'Im_LeonardoDiCaprio.png', 'Im_RyanGosling.png', 'Im_HughJackman.png'],diff,1,0.46689729999980045,3,0,
PIFR3008,0,pos,60,pos60_id7_im15.bmp_pos60_id14_im18.bmp,['Im_BradPitt.png', 'Im_JustinTimberlake.png', 'Im_BenAffleck.png', 'Im_GeorgeClooney.png', 'Im_MattDamon.png', 'Im_DanielCraig.png', 'Im_BenStiller.png', 'Im_LeonardoDiCaprio.png', 'Im_RyanGosling.png', 'Im_HughJackman.png'],diff,1,0.5335623000000851,4,0,
PIFR3008,0,pos,120,pos120_id8_im20.bmp_pos120_id8_im21.bmp,['Im_BradPitt.png', 'Im_JustinTimberlake.png', 'Im_BenAffleck.png', 'Im_GeorgeClooney.png', 'Im_MattDamon.png', 'Im_DanielCraig.png', 'Im_BenStiller.png', 'Im_LeonardoDiCaprio.png', 'Im_RyanGosling.png', 'Im_HughJackman.png'],same,1,0.9916905999998562,5,0,
PIFR3008,0,pos,0,pos0_id14_im18.bmp_pos0_id14_im16.bmp,['Im_BradPitt.png', 'Im_JustinTimberlake.png', 'Im_BenAffleck.png', 'Im_GeorgeClooney.png', 'Im_MattDamon.png', 'Im_DanielCraig.png', 'Im_BenStiller.png', 'Im_LeonardoDiCaprio.png', 'Im_RyanGosling.png', 'Im_HughJackman.png'],same,1,1.3165110999998433,6,0,
PIFR3008,0,pos,fs,posfs_id3_im17.bmp_posfs_id10_im1.bmp,['Im_BradPitt.png', 'Im_JustinTimberlake.png', 'Im_BenAffleck.png', 'Im_GeorgeClooney.png', 'Im_MattDamon.png', 'Im_DanielCraig.png', 'Im_BenStiller.png', 'Im_LeonardoDiCaprio.png', 'Im_RyanGosling.png', 'Im_HughJackman.png'],diff,1,0.8165515000000596,7,0,
PIFR3008,0,pos,30,pos30_id2_im16.bmp_pos30_id14_im16.bmp,['Im_BradPitt.png', 'Im_JustinTimberlake.png', 'Im_BenAffleck.png', 'Im_GeorgeClooney.png', 'Im_MattDamon.png', 'Im_DanielCraig.png', 'Im_BenStiller.png', 'Im_LeonardoDiCaprio.png', 'Im_RyanGosling.png', 'Im_HughJackman.png'],diff,1,0.7168942999996943,8,0,
PIFR3008,0,pos,90,pos90_id20_im12.bmp_pos90_id13_im15.bmp,['Im_BradPitt.png', 'Im_JustinTimberlake.png', 'Im_BenAffleck.png', 'Im_GeorgeClooney.png', 'Im_MattDamon.png', 'Im_DanielCraig.png', 'Im_BenStiller.png', 'Im_LeonardoDiCaprio.png', 'Im_RyanGosling.png', 'Im_HughJackman.png'],diff,1,1.2003717000006873,9,0,
PIFR3008,0,pos,fs,posfs_id4_im20.bmp_posfs_id4_im7.bmp,['Im_BradPitt.png', 'Im_JustinTimberlake.png', 'Im_BenAffleck.png', 'Im_GeorgeClooney.png', 'Im_MattDamon.png', 'Im_DanielCraig.png', 'Im_BenStiller.png', 'Im_LeonardoDiCaprio.png', 'Im_RyanGosling.png', 'Im_HughJackman.png'],same,1,0.9753077999994275,10,0,
PIFR3008,0,pos,90,pos90_id1_im4.bmp_pos90_id4_im7.bmp,['Im_BradPitt.png', 'Im_JustinTimberlake.png', 'Im_BenAffleck.png', 'Im_GeorgeClooney.png', 'Im_MattDamon.png', 'Im_DanielCraig.png', 'Im_BenStiller.png', 'Im_LeonardoDiCaprio.png', 'Im_RyanGosling.png', 'Im_HughJackman.png'],diff,1,0.4667046999993545,11,0,
PIFR3008,0,pos,150,pos150_id13_im29.bmp_pos150_id13_im10.bmp,['Im_BradPitt.png', 'Im_JustinTimberlake.png', 'Im_BenAffleck.png', 'Im_GeorgeClooney.png', 'Im_MattDamon.png', 'Im_DanielCraig.png', 'Im_BenStiller.png', 'Im_LeonardoDiCaprio.png', 'Im_RyanGosling.png', 'Im_HughJackman.png'],diff,0,0.4168788000006316,11,0,
PIFR3008,0,pos,150,pos150_id1_im4.bmp_pos150_id4_im7.bmp,['Im_BradPitt.png', 'Im_JustinTimberlake.png', 'Im_BenAffleck.png', 'Im_GeorgeClooney.png', 'Im_MattDamon.png', 'Im_DanielCraig.png', 'Im_BenStiller.png', 'Im_LeonardoDiCaprio.png', 'Im_RyanGosling.png', 'Im_HughJackman.png'],diff,1,0.4168467999998029,12,0,
PIFR3008,1,inv,120,pos120_id1_im4.bmp_pos120_id3_im6.bmp,['Im_BradPitt.png', 'Im_JustinTimberlake.png', 'Im_BenAffleck.png', 'Im_GeorgeClooney.png', 'Im_MattDamon.png', 'Im_DanielCraig.png', 'Im_BenStiller.png', 'Im_LeonardoDiCaprio.png', 'Im_RyanGosling.png', 'Im_HughJackman.png'],diff,1,0.45005530000071303,13,0,
PIFR3008,1,inv,60,pos60_id1_im24.bmp_pos60_id10_im17.bmp,['Im_BradPitt.png', 'Im_JustinTimberlake.png', 'Im_BenAffleck.png', 'Im_GeorgeClooney.png', 'Im_MattDamon.png', 'Im_DanielCraig.png', 'Im_BenStiller.png', 'Im_LeonardoDiCaprio.png', 'Im_RyanGosling.png', 'Im_HughJackman.png'],diff,1,0.566720400000122,14,0,
PIFR3008,1,inv,60,pos60_id14_im24.bmp_pos60_id20_im30.bmp,['Im_BradPitt.png', 'Im_JustinTimberlake.png', 'Im_BenAffleck.png', 'Im_GeorgeClooney.png', 'Im_MattDamon.png', 'Im_DanielCraig.png', 'Im_BenStiller.png', 'Im_LeonardoDiCaprio.png', 'Im_RyanGosling.png', 'Im_HughJackman.png'],diff,1,0.4169435000003432,15,0,
PIFR3008,1,inv,0,pos0_id7_im14.bmp_pos0_id7_im26.bmp,['Im_BradPitt.png', 'Im_JustinTimberlake.png', 'Im_BenAffleck.png', 'Im_GeorgeClooney.png', 'Im_MattDamon.png', 'Im_DanielCraig.png', 'Im_BenStiller.png', 'Im_LeonardoDiCaprio.png', 'Im_RyanGosling.png', 'Im_HughJackman.png'],same,1,0.4500335000002451,16,0,
PIFR3008,1,inv,30,pos30_id1_im21.bmp_pos30_id3_im8.bmp,['Im_BradPitt.png', 'Im_JustinTimberlake.png', 'Im_BenAffleck.png', 'Im_GeorgeClooney.png', 'Im_MattDamon.png', 'Im_DanielCraig.png', 'Im_BenStiller.png', 'Im_LeonardoDiCaprio.png', 'Im_RyanGosling.png', 'Im_HughJackman.png'],diff,1,0.4502474999999322,17,0,
PIFR3008,1,inv,0,pos0_id8_im20.bmp_pos0_id8_im13.bmp,['Im_BradPitt.png', 'Im_JustinTimberlake.png', 'Im_BenAffleck.png', 'Im_GeorgeClooney.png', 'Im_MattDamon.png', 'Im_DanielCraig.png', 'Im_BenStiller.png', 'Im_LeonardoDiCaprio.png', 'Im_RyanGosling.png', 'Im_HughJackman.png'],same,1,0.6667537000002994,18,0,
PIFR3008,1,inv,fs,posfs_id3_im6.bmp_posfs_id3_im17.bmp,['Im_BradPitt.png', 'Im_JustinTimberlake.png', 'Im_BenAffleck.png', 'Im_GeorgeClooney.png', 'Im_MattDamon.png', 'Im_DanielCraig.png', 'Im_BenStiller.png', 'Im_LeonardoDiCaprio.png', 'Im_RyanGosling.png', 'Im_HughJackman.png'],same,1,0.5750775000005888,19,0,
PIFR3008,1,inv,120,pos120_id13_im29.bmp_pos120_id13_im10.bmp,['Im_BradPitt.png', 'Im_JustinTimberlake.png', 'Im_BenAffleck.png', 'Im_GeorgeClooney.png', 'Im_MattDamon.png', 'Im_DanielCraig.png', 'Im_BenStiller.png', 'Im_LeonardoDiCaprio.png', 'Im_RyanGosling.png', 'Im_HughJackman.png'],diff,0,0.41687090000050375,19,0,
PIFR3008,1,inv,90,pos90_id20_im30.bmp_pos90_id14_im24.bmp,['Im_BradPitt.png', 'Im_JustinTimberlake.png', 'Im_BenAffleck.png', 'Im_GeorgeClooney.png', 'Im_MattDamon.png', 'Im_DanielCraig.png', 'Im_BenStiller.png', 'Im_LeonardoDiCaprio.png', 'Im_RyanGosling.png', 'Im_HughJackman.png'],same,0,0.4167281999998522,19,0,
PIFR3008,1,inv,30,pos30_id20_im30.bmp_pos30_id20_im12.bmp,['Im_BradPitt.png', 'Im_JustinTimberlake.png', 'Im_BenAffleck.png', 'Im_GeorgeClooney.png', 'Im_MattDamon.png', 'Im_DanielCraig.png', 'Im_BenStiller.png', 'Im_LeonardoDiCaprio.png', 'Im_RyanGosling.png', 'Im_HughJackman.png'],same,1,0.5416288000005807,20,0,
PIFR3008,1,inv,90,pos90_id2_im3.bmp_pos90_id4_im20.bmp,['Im_BradPitt.png', 'Im_JustinTimberlake.png', 'Im_BenAffleck.png', 'Im_GeorgeClooney.png', 'Im_MattDamon.png', 'Im_DanielCraig.png', 'Im_BenStiller.png', 'Im_LeonardoDiCaprio.png', 'Im_RyanGosling.png', 'Im_HughJackman.png'],diff,1,0.4167612999999619,21,0,
PIFR3008,1,inv,150,pos150_id13_im29.bmp_pos150_id13_im15.bmp,['Im_BradPitt.png', 'Im_JustinTimberlake.png', 'Im_BenAffleck.png', 'Im_GeorgeClooney.png', 'Im_MattDamon.png', 'Im_DanielCraig.png', 'Im_BenStiller.png', 'Im_LeonardoDiCaprio.png', 'Im_RyanGosling.png', 'Im_HughJackman.png'],diff,0,0.5665737999997873,21,0,
PIFR3008,1,inv,150,pos150_id8_im13.bmp_pos150_id8_im21.bmp,['Im_BradPitt.png', 'Im_JustinTimberlake.png', 'Im_BenAffleck.png', 'Im_GeorgeClooney.png', 'Im_MattDamon.png', 'Im_DanielCraig.png', 'Im_BenStiller.png', 'Im_LeonardoDiCaprio.png', 'Im_RyanGosling.png', 'Im_HughJackman.png'],same,1,0.5084686999998667,22,0,
PIFR3008,1,inv,fs,posfs_id8_im21.bmp_posfs_id3_im8.bmp,['Im_BradPitt.png', 'Im_JustinTimberlake.png', 'Im_BenAffleck.png', 'Im_GeorgeClooney.png', 'Im_MattDamon.png', 'Im_DanielCraig.png', 'Im_BenStiller.png', 'Im_LeonardoDiCaprio.png', 'Im_RyanGosling.png', 'Im_HughJackman.png'],diff,1,1.2168733000007705,23,0,
PIFR3008,2,neg,90,neg90_id14_im16.bmp_neg90_id14_im24.bmp,['Im_BradPitt.png', 'Im_JustinTimberlake.png', 'Im_BenAffleck.png', 'Im_GeorgeClooney.png', 'Im_MattDamon.png', 'Im_DanielCraig.png', 'Im_BenStiller.png', 'Im_LeonardoDiCaprio.png', 'Im_RyanGosling.png', 'Im_HughJackman.png'],same,1,0.5250217000002522,24,0,
PIFR3008,2,neg,0,neg0_id4_im15.bmp_neg0_id4_im20.bmp,['Im_BradPitt.png', 'Im_JustinTimberlake.png', 'Im_BenAffleck.png', 'Im_GeorgeClooney.png', 'Im_MattDamon.png', 'Im_DanielCraig.png', 'Im_BenStiller.png', 'Im_LeonardoDiCaprio.png', 'Im_RyanGosling.png', 'Im_HughJackman.png'],same,1,1.0335503999995126,25,0,
PIFR3008,2,neg,0,neg0_id10_im17.bmp_neg0_id1_im24.bmp,['Im_BradPitt.png', 'Im_JustinTimberlake.png', 'Im_BenAffleck.png', 'Im_GeorgeClooney.png', 'Im_MattDamon.png', 'Im_DanielCraig.png', 'Im_BenStiller.png', 'Im_LeonardoDiCaprio.png', 'Im_RyanGosling.png', 'Im_HughJackman.png'],same,0,0.4251061999993908,25,0,
PIFR3008,2,neg,60,neg60_id14_im18.bmp_neg60_id14_im16.bmp,['Im_BradPitt.png', 'Im_JustinTimberlake.png', 'Im_BenAffleck.png', 'Im_GeorgeClooney.png', 'Im_MattDamon.png', 'Im_DanielCraig.png', 'Im_BenStiller.png', 'Im_LeonardoDiCaprio.png', 'Im_RyanGosling.png', 'Im_HughJackman.png'],diff,0,0.40837200000078155,25,0,
PIFR3008,2,neg,fs,negfs_id8_im13.bmp_negfs_id4_im20.bmp,['Im_BradPitt.png', 'Im_JustinTimberlake.png', 'Im_BenAffleck.png', 'Im_GeorgeClooney.png', 'Im_MattDamon.png', 'Im_DanielCraig.png', 'Im_BenStiller.png', 'Im_LeonardoDiCaprio.png', 'Im_RyanGosling.png', 'Im_HughJackman.png'],diff,1,0.41688390000035724,26,0,
PIFR3008,2,neg,30,neg30_id20_im3.bmp_neg30_id8_im21.bmp,['Im_BradPitt.png', 'Im_JustinTimberlake.png', 'Im_BenAffleck.png', 'Im_GeorgeClooney.png', 'Im_MattDamon.png', 'Im_DanielCraig.png', 'Im_BenStiller.png', 'Im_LeonardoDiCaprio.png', 'Im_RyanGosling.png', 'Im_HughJackman.png'],diff,1,0.9332804000005126,27,0,
PIFR3008,2,neg,150,neg150_id8_im13.bmp_neg150_id4_im20.bmp,['Im_BradPitt.png', 'Im_JustinTimberlake.png', 'Im_BenAffleck.png', 'Im_GeorgeClooney.png', 'Im_MattDamon.png', 'Im_DanielCraig.png', 'Im_BenStiller.png', 'Im_LeonardoDiCaprio.png', 'Im_RyanGosling.png', 'Im_HughJackman.png'],diff,1,0.45862209999995684,28,0,
PIFR3008,2,neg,fs,negfs_id7_im15.bmp_negfs_id14_im18.bmp,['Im_BradPitt.png', 'Im_JustinTimberlake.png', 'Im_BenAffleck.png', 'Im_GeorgeClooney.png', 'Im_MattDamon.png', 'Im_DanielCraig.png', 'Im_BenStiller.png', 'Im_LeonardoDiCaprio.png', 'Im_RyanGosling.png', 'Im_HughJackman.png'],diff,1,0.42508380000072066,29,0,
PIFR3008,2,neg,150,neg150_id1_im21.bmp_neg150_id1_im24.bmp,['Im_BradPitt.png', 'Im_JustinTimberlake.png', 'Im_BenAffleck.png', 'Im_GeorgeClooney.png', 'Im_MattDamon.png', 'Im_DanielCraig.png', 'Im_BenStiller.png', 'Im_LeonardoDiCaprio.png', 'Im_RyanGosling.png', 'Im_HughJackman.png'],same,1,0.416719999999259,30,0,
PIFR3008,2,neg,120,neg120_id7_im15.bmp_neg120_id7_im26.bmp,['Im_BradPitt.png', 'Im_JustinTimberlake.png', 'Im_BenAffleck.png', 'Im_GeorgeClooney.png', 'Im_MattDamon.png', 'Im_DanielCraig.png', 'Im_BenStiller.png', 'Im_LeonardoDiCaprio.png', 'Im_RyanGosling.png', 'Im_HughJackman.png'],same,1,0.6835865000002741,31,0,
PIFR3008,2,neg,120,neg120_id13_im29.bmp_neg120_id10_im18.bmp,['Im_BradPitt.png', 'Im_JustinTimberlake.png', 'Im_BenAffleck.png', 'Im_GeorgeClooney.png', 'Im_MattDamon.png', 'Im_DanielCraig.png', 'Im_BenStiller.png', 'Im_LeonardoDiCaprio.png', 'Im_RyanGosling.png', 'Im_HughJackman.png'],diff,1,0.4999710000001869,32,0,
PIFR3008,2,neg,60,neg60_id10_im18.bmp_neg60_id13_im29.bmp,['Im_BradPitt.png', 'Im_JustinTimberlake.png', 'Im_BenAffleck.png', 'Im_GeorgeClooney.png', 'Im_MattDamon.png', 'Im_DanielCraig.png', 'Im_BenStiller.png', 'Im_LeonardoDiCaprio.png', 'Im_RyanGosling.png', 'Im_HughJackman.png'],same,0,0.41675240000040503,32,0,
PIFR3008,2,neg,90,neg90_id14_im24.bmp_neg90_id14_im18.bmp,['Im_BradPitt.png', 'Im_JustinTimberlake.png', 'Im_BenAffleck.png', 'Im_GeorgeClooney.png', 'Im_MattDamon.png', 'Im_DanielCraig.png', 'Im_BenStiller.png', 'Im_LeonardoDiCaprio.png', 'Im_RyanGosling.png', 'Im_HughJackman.png'],diff,0,0.49173419999988255,32,0,
PIFR3008,2,neg,30,neg30_id13_im10.bmp_neg30_id13_im29.bmp,['Im_BradPitt.png', 'Im_JustinTimberlake.png', 'Im_BenAffleck.png', 'Im_GeorgeClooney.png', 'Im_MattDamon.png', 'Im_DanielCraig.png', 'Im_BenStiller.png', 'Im_LeonardoDiCaprio.png', 'Im_RyanGosling.png', 'Im_HughJackman.png'],diff,0,1.2832862999994177,32,0,
PIFR3008,3,inv,150,pos150_id3_im17.bmp_pos150_id13_im29.bmp,['Im_BradPitt.png', 'Im_JustinTimberlake.png', 'Im_BenAffleck.png', 'Im_GeorgeClooney.png', 'Im_MattDamon.png', 'Im_DanielCraig.png', 'Im_BenStiller.png', 'Im_LeonardoDiCaprio.png', 'Im_RyanGosling.png', 'Im_HughJackman.png'],diff,1,0.6586353000002418,1,76.19047619047619,
PIFR3008,3,inv,90,pos90_id4_im20.bmp_pos90_id8_im13.bmp,['Im_BradPitt.png', 'Im_JustinTimberlake.png', 'Im_BenAffleck.png', 'Im_GeorgeClooney.png', 'Im_MattDamon.png', 'Im_DanielCraig.png', 'Im_BenStiller.png', 'Im_LeonardoDiCaprio.png', 'Im_RyanGosling.png', 'Im_HughJackman.png'],diff,1,0.5501667999997153,2,76.19047619047619,
PIFR3008,3,inv,30,pos30_id8_im20.bmp_pos30_id8_im13.bmp,['Im_BradPitt.png', 'Im_JustinTimberlake.png', 'Im_BenAffleck.png', 'Im_GeorgeClooney.png', 'Im_MattDamon.png', 'Im_DanielCraig.png', 'Im_BenStiller.png', 'Im_LeonardoDiCaprio.png', 'Im_RyanGosling.png', 'Im_HughJackman.png'],same,1,0.5586832000008144,3,76.19047619047619,
PIFR3008,3,inv,fs,posfs_id8_im20.bmp_posfs_id2_im16.bmp,['Im_BradPitt.png', 'Im_JustinTimberlake.png', 'Im_BenAffleck.png', 'Im_GeorgeClooney.png', 'Im_MattDamon.png', 'Im_DanielCraig.png', 'Im_BenStiller.png', 'Im_LeonardoDiCaprio.png', 'Im_RyanGosling.png', 'Im_HughJackman.png'],diff,1,0.4166959999993196,4,76.19047619047619,
PIFR3008,3,inv,120,pos120_id10_im18.bmp_pos120_id13_im29.bmp,['Im_BradPitt.png', 'Im_JustinTimberlake.png', 'Im_BenAffleck.png', 'Im_GeorgeClooney.png', 'Im_MattDamon.png', 'Im_DanielCraig.png', 'Im_BenStiller.png', 'Im_LeonardoDiCaprio.png', 'Im_RyanGosling.png', 'Im_HughJackman.png'],diff,1,0.5250363000004654,5,76.19047619047619,
PIFR3008,3,inv,60,pos60_id8_im13.bmp_pos60_id14_im24.bmp,['Im_BradPitt.png', 'Im_JustinTimberlake.png', 'Im_BenAffleck.png', 'Im_GeorgeClooney.png', 'Im_MattDamon.png', 'Im_DanielCraig.png', 'Im_BenStiller.png', 'Im_LeonardoDiCaprio.png', 'Im_RyanGosling.png', 'Im_HughJackman.png'],diff,1,1.0416619999996328,6,76.19047619047619,
PIFR3008,3,inv,150,pos150_id14_im24.bmp_pos150_id20_im30.bmp,['Im_BradPitt.png', 'Im_JustinTimberlake.png', 'Im_BenAffleck.png', 'Im_GeorgeClooney.png', 'Im_MattDamon.png', 'Im_DanielCraig.png', 'Im_BenStiller.png', 'Im_LeonardoDiCaprio.png', 'Im_RyanGosling.png', 'Im_HughJackman.png'],diff,1,1.0498377999992954,7,76.19047619047619,
PIFR3008,3,inv,0,pos0_id2_im16.bmp_pos0_id8_im20.bmp,['Im_BradPitt.png', 'Im_JustinTimberlake.png', 'Im_BenAffleck.png', 'Im_GeorgeClooney.png', 'Im_MattDamon.png', 'Im_DanielCraig.png', 'Im_BenStiller.png', 'Im_LeonardoDiCaprio.png', 'Im_RyanGosling.png', 'Im_HughJackman.png'],diff,1,0.49992790000032983,8,76.19047619047619,
PIFR3008,3,inv,0,pos0_id1_im24.bmp_pos0_id10_im17.bmp,['Im_BradPitt.png', 'Im_JustinTimberlake.png', 'Im_BenAffleck.png', 'Im_GeorgeClooney.png', 'Im_MattDamon.png', 'Im_DanielCraig.png', 'Im_BenStiller.png', 'Im_LeonardoDiCaprio.png', 'Im_RyanGosling.png', 'Im_HughJackman.png'],same,0,0.49174000000039086,8,76.19047619047619,
PIFR3008,3,inv,30,pos30_id14_im18.bmp_pos30_id7_im15.bmp,['Im_BradPitt.png', 'Im_JustinTimberlake.png', 'Im_BenAffleck.png', 'Im_GeorgeClooney.png', 'Im_MattDamon.png', 'Im_DanielCraig.png', 'Im_BenStiller.png', 'Im_LeonardoDiCaprio.png', 'Im_RyanGosling.png', 'Im_HughJackman.png'],diff,1,1.6003178999999363,9,76.19047619047619,
PIFR3008,3,inv,120,pos120_id4_im7.bmp_pos120_id4_im15.bmp,['Im_BradPitt.png', 'Im_JustinTimberlake.png', 'Im_BenAffleck.png', 'Im_GeorgeClooney.png', 'Im_MattDamon.png', 'Im_DanielCraig.png', 'Im_BenStiller.png', 'Im_LeonardoDiCaprio.png', 'Im_RyanGosling.png', 'Im_HughJackman.png'],diff,0,0.8083469000002879,9,76.19047619047619,
PIFR3008,3,inv,90,pos90_id14_im18.bmp_pos90_id14_im16.bmp,['Im_BradPitt.png', 'Im_JustinTimberlake.png', 'Im_BenAffleck.png', 'Im_GeorgeClooney.png', 'Im_MattDamon.png', 'Im_DanielCraig.png', 'Im_BenStiller.png', 'Im_LeonardoDiCaprio.png', 'Im_RyanGosling.png', 'Im_HughJackman.png'],same,1,0.9252587999999378,10,76.19047619047619,
PIFR3008,3,inv,fs,posfs_id1_im21.bmp_posfs_id13_im15.bmp,['Im_BradPitt.png', 'Im_JustinTimberlake.png', 'Im_BenAffleck.png', 'Im_GeorgeClooney.png', 'Im_MattDamon.png', 'Im_DanielCraig.png', 'Im_BenStiller.png', 'Im_LeonardoDiCaprio.png', 'Im_RyanGosling.png', 'Im_HughJackman.png'],diff,1,0.5415627000002132,11,76.19047619047619,
PIFR3008,3,inv,60,pos60_id13_im15.bmp_pos60_id13_im10.bmp,['Im_BradPitt.png', 'Im_JustinTimberlake.png', 'Im_BenAffleck.png', 'Im_GeorgeClooney.png', 'Im_MattDamon.png', 'Im_DanielCraig.png', 'Im_BenStiller.png', 'Im_LeonardoDiCaprio.png', 'Im_RyanGosling.png', 'Im_HughJackman.png'],same,1,0.44195330000002286,12,76.19047619047619,
PIFR3008,4,pos,150,pos150_id7_im14.bmp_pos150_id10_im1.bmp,['Im_BradPitt.png', 'Im_JustinTimberlake.png', 'Im_BenAffleck.png', 'Im_GeorgeClooney.png', 'Im_MattDamon.png', 'Im_DanielCraig.png', 'Im_BenStiller.png', 'Im_LeonardoDiCaprio.png', 'Im_RyanGosling.png', 'Im_HughJackman.png'],diff,1,0.4418639000004987,13,76.19047619047619,
PIFR3008,4,pos,90,pos90_id1_im21.bmp_pos90_id1_im4.bmp,['Im_BradPitt.png', 'Im_JustinTimberlake.png', 'Im_BenAffleck.png', 'Im_GeorgeClooney.png', 'Im_MattDamon.png', 'Im_DanielCraig.png', 'Im_BenStiller.png', 'Im_LeonardoDiCaprio.png', 'Im_RyanGosling.png', 'Im_HughJackman.png'],diff,0,1.7251306999996814,13,76.19047619047619,
PIFR3008,4,pos,0,pos0_id3_im17.bmp_pos0_id13_im29.bmp,['Im_BradPitt.png', 'Im_JustinTimberlake.png', 'Im_BenAffleck.png', 'Im_GeorgeClooney.png', 'Im_MattDamon.png', 'Im_DanielCraig.png', 'Im_BenStiller.png', 'Im_LeonardoDiCaprio.png', 'Im_RyanGosling.png', 'Im_HughJackman.png'],diff,1,0.7500619999991613,14,76.19047619047619,
PIFR3008,4,pos,90,pos90_id7_im15.bmp_pos90_id14_im18.bmp,['Im_BradPitt.png', 'Im_JustinTimberlake.png', 'Im_BenAffleck.png', 'Im_GeorgeClooney.png', 'Im_MattDamon.png', 'Im_DanielCraig.png', 'Im_BenStiller.png', 'Im_LeonardoDiCaprio.png', 'Im_RyanGosling.png', 'Im_HughJackman.png'],diff,1,0.5168281000005663,15,76.19047619047619,
