Sujet,Trial,Condition,Filter,Imname,Actor0,Actor1,Actor2,Actor3,Actor4,Actor5,Actor6,Actor7,Actor8,Actor9,Answer,Accu,RT,Score,Scoreperc, 
PIFR3008,train,pos,30,pos30_id3_im6.bmp_pos30_id1_im4.bmp,['Im_HughJackman.png', 'Im_GeorgeClooney.png', 'Im_BenAffleck.png', 'Im_LeonardoDiCaprio.png', 'Im_BradPitt.png', 'Im_BenStiller.png', 'Im_RyanGosling.png', 'Im_JustinTimberlake.png', 'Im_MattDamon.png', 'Im_DanielCraig.png'],diff,1,0.591867999999522,1,0,
PIFR3008,train,pos,150,pos150_id8_im13.bmp_pos150_id4_im20.bmp,['Im_HughJackman.png', 'Im_GeorgeClooney.png', 'Im_BenAffleck.png', 'Im_LeonardoDiCaprio.png', 'Im_BradPitt.png', 'Im_BenStiller.png', 'Im_RyanGosling.png', 'Im_JustinTimberlake.png', 'Im_MattDamon.png', 'Im_DanielCraig.png'],diff,1,0.41671620000033727,2,0,
PIFR3008,train,pos,30,pos30_id2_im16.bmp_pos30_id2_im2.bmp,['Im_HughJackman.png', 'Im_GeorgeClooney.png', 'Im_BenAffleck.png', 'Im_LeonardoDiCaprio.png', 'Im_BradPitt.png', 'Im_BenStiller.png', 'Im_RyanGosling.png', 'Im_JustinTimberlake.png', 'Im_MattDamon.png', 'Im_DanielCraig.png'],same,1,0.4249547999997958,3,0,
PIFR3008,train,pos,90,pos90_id7_im26.bmp_pos90_id7_im15.bmp,['Im_HughJackman.png', 'Im_GeorgeClooney.png', 'Im_BenAffleck.png', 'Im_LeonardoDiCaprio.png', 'Im_BradPitt.png', 'Im_BenStiller.png', 'Im_RyanGosling.png', 'Im_JustinTimberlake.png', 'Im_MattDamon.png', 'Im_DanielCraig.png'],same,1,0.42469919999984995,4,0,
PIFR3008,train,pos,0,pos0_id2_im3.bmp_pos0_id2_im2.bmp,['Im_HughJackman.png', 'Im_GeorgeClooney.png', 'Im_BenAffleck.png', 'Im_LeonardoDiCaprio.png', 'Im_BradPitt.png', 'Im_BenStiller.png', 'Im_RyanGosling.png', 'Im_JustinTimberlake.png', 'Im_MattDamon.png', 'Im_DanielCraig.png'],same,1,0.42499880000013945,5,0,
PIFR3008,train,pos,fs,posfs_id13_im10.bmp_posfs_id14_im18.bmp,['Im_HughJackman.png', 'Im_GeorgeClooney.png', 'Im_BenAffleck.png', 'Im_LeonardoDiCaprio.png', 'Im_BradPitt.png', 'Im_BenStiller.png', 'Im_RyanGosling.png', 'Im_JustinTimberlake.png', 'Im_MattDamon.png', 'Im_DanielCraig.png'],diff,1,0.41666040000018256,6,0,
PIFR3008,train,pos,fs,posfs_id3_im6.bmp_posfs_id10_im17.bmp,['Im_HughJackman.png', 'Im_GeorgeClooney.png', 'Im_BenAffleck.png', 'Im_LeonardoDiCaprio.png', 'Im_BradPitt.png', 'Im_BenStiller.png', 'Im_RyanGosling.png', 'Im_JustinTimberlake.png', 'Im_MattDamon.png', 'Im_DanielCraig.png'],diff,1,0.41623280000021623,7,0,
PIFR3008,train,pos,90,pos90_id7_im26.bmp_pos90_id2_im2.bmp,['Im_HughJackman.png', 'Im_GeorgeClooney.png', 'Im_BenAffleck.png', 'Im_LeonardoDiCaprio.png', 'Im_BradPitt.png', 'Im_BenStiller.png', 'Im_RyanGosling.png', 'Im_JustinTimberlake.png', 'Im_MattDamon.png', 'Im_DanielCraig.png'],diff,1,0.4250232000003962,8,0,
PIFR3008,train,pos,60,pos60_id2_im16.bmp_pos60_id2_im3.bmp,['Im_HughJackman.png', 'Im_GeorgeClooney.png', 'Im_BenAffleck.png', 'Im_LeonardoDiCaprio.png', 'Im_BradPitt.png', 'Im_BenStiller.png', 'Im_RyanGosling.png', 'Im_JustinTimberlake.png', 'Im_MattDamon.png', 'Im_DanielCraig.png'],same,1,0.41655440000067756,9,0,
PIFR3008,train,pos,60,pos60_id1_im21.bmp_pos60_id3_im8.bmp,['Im_HughJackman.png', 'Im_GeorgeClooney.png', 'Im_BenAffleck.png', 'Im_LeonardoDiCaprio.png', 'Im_BradPitt.png', 'Im_BenStiller.png', 'Im_RyanGosling.png', 'Im_JustinTimberlake.png', 'Im_MattDamon.png', 'Im_DanielCraig.png'],diff,1,0.43353949999982433,10,0,
PIFR3008,train,pos,120,pos120_id7_im26.bmp_pos120_id7_im14.bmp,['Im_HughJackman.png', 'Im_GeorgeClooney.png', 'Im_BenAffleck.png', 'Im_LeonardoDiCaprio.png', 'Im_BradPitt.png', 'Im_BenStiller.png', 'Im_RyanGosling.png', 'Im_JustinTimberlake.png', 'Im_MattDamon.png', 'Im_DanielCraig.png'],same,1,0.4078158000002077,11,0,
PIFR3008,train,pos,0,pos0_id8_im13.bmp_pos0_id8_im21.bmp,['Im_HughJackman.png', 'Im_GeorgeClooney.png', 'Im_BenAffleck.png', 'Im_LeonardoDiCaprio.png', 'Im_BradPitt.png', 'Im_BenStiller.png', 'Im_RyanGosling.png', 'Im_JustinTimberlake.png', 'Im_MattDamon.png', 'Im_DanielCraig.png'],same,1,0.4166408000000956,12,0,
PIFR3008,train,pos,150,pos150_id10_im1.bmp_pos150_id3_im17.bmp,['Im_HughJackman.png', 'Im_GeorgeClooney.png', 'Im_BenAffleck.png', 'Im_LeonardoDiCaprio.png', 'Im_BradPitt.png', 'Im_BenStiller.png', 'Im_RyanGosling.png', 'Im_JustinTimberlake.png', 'Im_MattDamon.png', 'Im_DanielCraig.png'],diff,1,0.42514070000015636,13,0,
PIFR3008,train,pos,120,pos120_id20_im3.bmp_pos120_id8_im21.bmp,['Im_HughJackman.png', 'Im_GeorgeClooney.png', 'Im_BenAffleck.png', 'Im_LeonardoDiCaprio.png', 'Im_BradPitt.png', 'Im_BenStiller.png', 'Im_RyanGosling.png', 'Im_JustinTimberlake.png', 'Im_MattDamon.png', 'Im_DanielCraig.png'],diff,1,0.4252121999998053,14,0,
PIFR3008,train,pos,60,pos60_id10_im1.bmp_pos60_id10_im18.bmp,['Im_HughJackman.png', 'Im_GeorgeClooney.png', 'Im_BenAffleck.png', 'Im_LeonardoDiCaprio.png', 'Im_BradPitt.png', 'Im_BenStiller.png', 'Im_RyanGosling.png', 'Im_JustinTimberlake.png', 'Im_MattDamon.png', 'Im_DanielCraig.png'],same,1,0.42505739999978687,15,0,
PIFR3008,train,pos,120,pos120_id13_im29.bmp_pos120_id13_im10.bmp,['Im_HughJackman.png', 'Im_GeorgeClooney.png', 'Im_BenAffleck.png', 'Im_LeonardoDiCaprio.png', 'Im_BradPitt.png', 'Im_BenStiller.png', 'Im_RyanGosling.png', 'Im_JustinTimberlake.png', 'Im_MattDamon.png', 'Im_DanielCraig.png'],same,1,0.4169009000006554,16,0,
PIFR3008,train,pos,fs,posfs_id13_im15.bmp_posfs_id1_im21.bmp,['Im_HughJackman.png', 'Im_GeorgeClooney.png', 'Im_BenAffleck.png', 'Im_LeonardoDiCaprio.png', 'Im_BradPitt.png', 'Im_BenStiller.png', 'Im_RyanGosling.png', 'Im_JustinTimberlake.png', 'Im_MattDamon.png', 'Im_DanielCraig.png'],diff,1,0.41682309999941936,17,0,
PIFR3008,train,pos,120,pos120_id2_im3.bmp_pos120_id10_im18.bmp,['Im_HughJackman.png', 'Im_GeorgeClooney.png', 'Im_BenAffleck.png', 'Im_LeonardoDiCaprio.png', 'Im_BradPitt.png', 'Im_BenStiller.png', 'Im_RyanGosling.png', 'Im_JustinTimberlake.png', 'Im_MattDamon.png', 'Im_DanielCraig.png'],diff,1,0.4084564999993745,18,0,
PIFR3008,train,pos,0,pos0_id13_im15.bmp_pos0_id13_im29.bmp,['Im_HughJackman.png', 'Im_GeorgeClooney.png', 'Im_BenAffleck.png', 'Im_LeonardoDiCaprio.png', 'Im_BradPitt.png', 'Im_BenStiller.png', 'Im_RyanGosling.png', 'Im_JustinTimberlake.png', 'Im_MattDamon.png', 'Im_DanielCraig.png'],diff,0,0.4250449999999546,18,0,
PIFR3008,train,pos,150,pos150_id10_im17.bmp_pos150_id1_im24.bmp,['Im_HughJackman.png', 'Im_GeorgeClooney.png', 'Im_BenAffleck.png', 'Im_LeonardoDiCaprio.png', 'Im_BradPitt.png', 'Im_BenStiller.png', 'Im_RyanGosling.png', 'Im_JustinTimberlake.png', 'Im_MattDamon.png', 'Im_DanielCraig.png'],diff,1,0.41675990000021557,19,0,
PIFR3008,train,pos,90,pos90_id10_im1.bmp_pos90_id7_im14.bmp,['Im_HughJackman.png', 'Im_GeorgeClooney.png', 'Im_BenAffleck.png', 'Im_LeonardoDiCaprio.png', 'Im_BradPitt.png', 'Im_BenStiller.png', 'Im_RyanGosling.png', 'Im_JustinTimberlake.png', 'Im_MattDamon.png', 'Im_DanielCraig.png'],diff,1,0.4251734999998007,20,0,
PIFR3008,train,pos,30,pos30_id13_im10.bmp_pos30_id13_im15.bmp,['Im_HughJackman.png', 'Im_GeorgeClooney.png', 'Im_BenAffleck.png', 'Im_LeonardoDiCaprio.png', 'Im_BradPitt.png', 'Im_BenStiller.png', 'Im_RyanGosling.png', 'Im_JustinTimberlake.png', 'Im_MattDamon.png', 'Im_DanielCraig.png'],same,1,0.41673569999966276,21,0,
PIFR3008,train,pos,90,pos90_id20_im12.bmp_pos90_id20_im30.bmp,['Im_HughJackman.png', 'Im_GeorgeClooney.png', 'Im_BenAffleck.png', 'Im_LeonardoDiCaprio.png', 'Im_BradPitt.png', 'Im_BenStiller.png', 'Im_RyanGosling.png', 'Im_JustinTimberlake.png', 'Im_MattDamon.png', 'Im_DanielCraig.png'],same,1,0.41683950000060577,22,0,
PIFR3008,train,pos,fs,posfs_id8_im21.bmp_posfs_id3_im8.bmp,['Im_HughJackman.png', 'Im_GeorgeClooney.png', 'Im_BenAffleck.png', 'Im_LeonardoDiCaprio.png', 'Im_BradPitt.png', 'Im_BenStiller.png', 'Im_RyanGosling.png', 'Im_JustinTimberlake.png', 'Im_MattDamon.png', 'Im_DanielCraig.png'],diff,1,0.4165469999998095,23,0,
PIFR3008,train,pos,60,pos60_id20_im3.bmp_pos60_id20_im12.bmp,['Im_HughJackman.png', 'Im_GeorgeClooney.png', 'Im_BenAffleck.png', 'Im_LeonardoDiCaprio.png', 'Im_BradPitt.png', 'Im_BenStiller.png', 'Im_RyanGosling.png', 'Im_JustinTimberlake.png', 'Im_MattDamon.png', 'Im_DanielCraig.png'],same,1,0.416672400000607,24,0,
PIFR3008,train,pos,150,pos150_id14_im16.bmp_pos150_id7_im26.bmp,['Im_HughJackman.png', 'Im_GeorgeClooney.png', 'Im_BenAffleck.png', 'Im_LeonardoDiCaprio.png', 'Im_BradPitt.png', 'Im_BenStiller.png', 'Im_RyanGosling.png', 'Im_JustinTimberlake.png', 'Im_MattDamon.png', 'Im_DanielCraig.png'],diff,1,0.4166937999998481,25,0,
PIFR3008,train,pos,0,pos0_id1_im24.bmp_pos0_id4_im7.bmp,['Im_HughJackman.png', 'Im_GeorgeClooney.png', 'Im_BenAffleck.png', 'Im_LeonardoDiCaprio.png', 'Im_BradPitt.png', 'Im_BenStiller.png', 'Im_RyanGosling.png', 'Im_JustinTimberlake.png', 'Im_MattDamon.png', 'Im_DanielCraig.png'],diff,1,0.4164178000000902,26,0,
PIFR3008,train,pos,30,pos30_id10_im18.bmp_pos30_id10_im17.bmp,['Im_HughJackman.png', 'Im_GeorgeClooney.png', 'Im_BenAffleck.png', 'Im_LeonardoDiCaprio.png', 'Im_BradPitt.png', 'Im_BenStiller.png', 'Im_RyanGosling.png', 'Im_JustinTimberlake.png', 'Im_MattDamon.png', 'Im_DanielCraig.png'],same,1,0.41640629999983503,27,0,
PIFR3008,train,inv,120,pos120_id20_im30.bmp_pos120_id14_im24.bmp,['Im_HughJackman.png', 'Im_GeorgeClooney.png', 'Im_BenAffleck.png', 'Im_LeonardoDiCaprio.png', 'Im_BradPitt.png', 'Im_BenStiller.png', 'Im_RyanGosling.png', 'Im_JustinTimberlake.png', 'Im_MattDamon.png', 'Im_DanielCraig.png'],diff,1,0.6420589000008476,28,0,
PIFR3008,train,inv,fs,posfs_id13_im29.bmp_posfs_id13_im15.bmp,['Im_HughJackman.png', 'Im_GeorgeClooney.png', 'Im_BenAffleck.png', 'Im_LeonardoDiCaprio.png', 'Im_BradPitt.png', 'Im_BenStiller.png', 'Im_RyanGosling.png', 'Im_JustinTimberlake.png', 'Im_MattDamon.png', 'Im_DanielCraig.png'],same,1,0.42491030000019236,29,0,
PIFR3008,train,inv,0,pos0_id3_im17.bmp_pos0_id3_im8.bmp,['Im_HughJackman.png', 'Im_GeorgeClooney.png', 'Im_BenAffleck.png', 'Im_LeonardoDiCaprio.png', 'Im_BradPitt.png', 'Im_BenStiller.png', 'Im_RyanGosling.png', 'Im_JustinTimberlake.png', 'Im_MattDamon.png', 'Im_DanielCraig.png'],same,1,0.41672539999945,30,0,
PIFR3008,train,inv,90,pos90_id2_im16.bmp_pos90_id2_im2.bmp,['Im_HughJackman.png', 'Im_GeorgeClooney.png', 'Im_BenAffleck.png', 'Im_LeonardoDiCaprio.png', 'Im_BradPitt.png', 'Im_BenStiller.png', 'Im_RyanGosling.png', 'Im_JustinTimberlake.png', 'Im_MattDamon.png', 'Im_DanielCraig.png'],same,1,0.4163800000005722,31,0,
PIFR3008,train,inv,30,pos30_id8_im13.bmp_pos30_id8_im21.bmp,['Im_HughJackman.png', 'Im_GeorgeClooney.png', 'Im_BenAffleck.png', 'Im_LeonardoDiCaprio.png', 'Im_BradPitt.png', 'Im_BenStiller.png', 'Im_RyanGosling.png', 'Im_JustinTimberlake.png', 'Im_MattDamon.png', 'Im_DanielCraig.png'],same,1,0.42497240000011516,32,0,
PIFR3008,train,inv,90,pos90_id13_im29.bmp_pos90_id13_im10.bmp,['Im_HughJackman.png', 'Im_GeorgeClooney.png', 'Im_BenAffleck.png', 'Im_LeonardoDiCaprio.png', 'Im_BradPitt.png', 'Im_BenStiller.png', 'Im_RyanGosling.png', 'Im_JustinTimberlake.png', 'Im_MattDamon.png', 'Im_DanielCraig.png'],diff,0,0.43359140000029583,32,0,
PIFR3008,train,inv,120,pos120_id20_im30.bmp_pos120_id13_im10.bmp,['Im_HughJackman.png', 'Im_GeorgeClooney.png', 'Im_BenAffleck.png', 'Im_LeonardoDiCaprio.png', 'Im_BradPitt.png', 'Im_BenStiller.png', 'Im_RyanGosling.png', 'Im_JustinTimberlake.png', 'Im_MattDamon.png', 'Im_DanielCraig.png'],same,0,0.425091699999939,32,0,
PIFR3008,train,inv,60,pos60_id1_im21.bmp_pos60_id13_im15.bmp,['Im_HughJackman.png', 'Im_GeorgeClooney.png', 'Im_BenAffleck.png', 'Im_LeonardoDiCaprio.png', 'Im_BradPitt.png', 'Im_BenStiller.png', 'Im_RyanGosling.png', 'Im_JustinTimberlake.png', 'Im_MattDamon.png', 'Im_DanielCraig.png'],diff,1,0.4166941000003135,33,0,
PIFR3008,train,inv,fs,posfs_id1_im24.bmp_posfs_id1_im21.bmp,['Im_HughJackman.png', 'Im_GeorgeClooney.png', 'Im_BenAffleck.png', 'Im_LeonardoDiCaprio.png', 'Im_BradPitt.png', 'Im_BenStiller.png', 'Im_RyanGosling.png', 'Im_JustinTimberlake.png', 'Im_MattDamon.png', 'Im_DanielCraig.png'],diff,0,0.416675700000269,33,0,
PIFR3008,train,inv,30,pos30_id14_im16.bmp_pos30_id14_im18.bmp,['Im_HughJackman.png', 'Im_GeorgeClooney.png', 'Im_BenAffleck.png', 'Im_LeonardoDiCaprio.png', 'Im_BradPitt.png', 'Im_BenStiller.png', 'Im_RyanGosling.png', 'Im_JustinTimberlake.png', 'Im_MattDamon.png', 'Im_DanielCraig.png'],same,1,0.4333857999999964,34,0,
PIFR3008,train,inv,0,pos0_id14_im24.bmp_pos0_id14_im16.bmp,['Im_HughJackman.png', 'Im_GeorgeClooney.png', 'Im_BenAffleck.png', 'Im_LeonardoDiCaprio.png', 'Im_BradPitt.png', 'Im_BenStiller.png', 'Im_RyanGosling.png', 'Im_JustinTimberlake.png', 'Im_MattDamon.png', 'Im_DanielCraig.png'],same,1,0.41664200000013807,35,0,
PIFR3008,train,inv,60,pos60_id13_im10.bmp_pos60_id14_im18.bmp,['Im_HughJackman.png', 'Im_GeorgeClooney.png', 'Im_BenAffleck.png', 'Im_LeonardoDiCaprio.png', 'Im_BradPitt.png', 'Im_BenStiller.png', 'Im_RyanGosling.png', 'Im_JustinTimberlake.png', 'Im_MattDamon.png', 'Im_DanielCraig.png'],same,0,0.4167879999995421,35,0,
PIFR3008,train,inv,150,pos150_id3_im6.bmp_pos150_id10_im17.bmp,['Im_HughJackman.png', 'Im_GeorgeClooney.png', 'Im_BenAffleck.png', 'Im_LeonardoDiCaprio.png', 'Im_BradPitt.png', 'Im_BenStiller.png', 'Im_RyanGosling.png', 'Im_JustinTimberlake.png', 'Im_MattDamon.png', 'Im_DanielCraig.png'],same,0,0.7168823000001794,35,0,
PIFR3008,train,inv,150,pos150_id2_im2.bmp_pos150_id2_im3.bmp,['Im_HughJackman.png', 'Im_GeorgeClooney.png', 'Im_BenAffleck.png', 'Im_LeonardoDiCaprio.png', 'Im_BradPitt.png', 'Im_BenStiller.png', 'Im_RyanGosling.png', 'Im_JustinTimberlake.png', 'Im_MattDamon.png', 'Im_DanielCraig.png'],diff,0,0.4250723000004655,35,0,
PIFR3008,train,neg,30,neg30_id3_im8.bmp_neg30_id1_im21.bmp,['Im_HughJackman.png', 'Im_GeorgeClooney.png', 'Im_BenAffleck.png', 'Im_LeonardoDiCaprio.png', 'Im_BradPitt.png', 'Im_BenStiller.png', 'Im_RyanGosling.png', 'Im_JustinTimberlake.png', 'Im_MattDamon.png', 'Im_DanielCraig.png'],diff,1,0.4502309999998033,1,83.33333333333333,
PIFR3008,train,neg,60,neg60_id10_im1.bmp_neg60_id3_im17.bmp,['Im_HughJackman.png', 'Im_GeorgeClooney.png', 'Im_BenAffleck.png', 'Im_LeonardoDiCaprio.png', 'Im_BradPitt.png', 'Im_BenStiller.png', 'Im_RyanGosling.png', 'Im_JustinTimberlake.png', 'Im_MattDamon.png', 'Im_DanielCraig.png'],diff,1,0.41674109999985376,2,83.33333333333333,
PIFR3008,train,neg,0,neg0_id10_im1.bmp_neg0_id10_im18.bmp,['Im_HughJackman.png', 'Im_GeorgeClooney.png', 'Im_BenAffleck.png', 'Im_LeonardoDiCaprio.png', 'Im_BradPitt.png', 'Im_BenStiller.png', 'Im_RyanGosling.png', 'Im_JustinTimberlake.png', 'Im_MattDamon.png', 'Im_DanielCraig.png'],same,1,0.4167078999998921,3,83.33333333333333,
PIFR3008,train,neg,fs,negfs_id1_im4.bmp_negfs_id4_im7.bmp,['Im_HughJackman.png', 'Im_GeorgeClooney.png', 'Im_BenAffleck.png', 'Im_LeonardoDiCaprio.png', 'Im_BradPitt.png', 'Im_BenStiller.png', 'Im_RyanGosling.png', 'Im_JustinTimberlake.png', 'Im_MattDamon.png', 'Im_DanielCraig.png'],diff,1,0.4083842000000004,4,83.33333333333333,
PIFR3008,train,neg,90,neg90_id20_im30.bmp_neg90_id14_im24.bmp,['Im_HughJackman.png', 'Im_GeorgeClooney.png', 'Im_BenAffleck.png', 'Im_LeonardoDiCaprio.png', 'Im_BradPitt.png', 'Im_BenStiller.png', 'Im_RyanGosling.png', 'Im_JustinTimberlake.png', 'Im_MattDamon.png', 'Im_DanielCraig.png'],same,0,0.42513980000057927,4,83.33333333333333,
PIFR3008,train,neg,150,neg150_id7_im15.bmp_neg150_id7_im14.bmp,['Im_HughJackman.png', 'Im_GeorgeClooney.png', 'Im_BenAffleck.png', 'Im_LeonardoDiCaprio.png', 'Im_BradPitt.png', 'Im_BenStiller.png', 'Im_RyanGosling.png', 'Im_JustinTimberlake.png', 'Im_MattDamon.png', 'Im_DanielCraig.png'],same,1,0.40832460000001447,5,83.33333333333333,
PIFR3008,train,neg,120,neg120_id20_im3.bmp_neg120_id20_im12.bmp,['Im_HughJackman.png', 'Im_GeorgeClooney.png', 'Im_BenAffleck.png', 'Im_LeonardoDiCaprio.png', 'Im_BradPitt.png', 'Im_BenStiller.png', 'Im_RyanGosling.png', 'Im_JustinTimberlake.png', 'Im_MattDamon.png', 'Im_DanielCraig.png'],same,1,0.41674739999962185,6,83.33333333333333,
PIFR3008,train,neg,60,neg60_id4_im7.bmp_neg60_id1_im24.bmp,['Im_HughJackman.png', 'Im_GeorgeClooney.png', 'Im_BenAffleck.png', 'Im_LeonardoDiCaprio.png', 'Im_BradPitt.png', 'Im_BenStiller.png', 'Im_RyanGosling.png', 'Im_JustinTimberlake.png', 'Im_MattDamon.png', 'Im_DanielCraig.png'],diff,1,0.4083891999998741,7,83.33333333333333,
PIFR3008,train,neg,90,neg90_id14_im16.bmp_neg90_id2_im16.bmp,['Im_HughJackman.png', 'Im_GeorgeClooney.png', 'Im_BenAffleck.png', 'Im_LeonardoDiCaprio.png', 'Im_BradPitt.png', 'Im_BenStiller.png', 'Im_RyanGosling.png', 'Im_JustinTimberlake.png', 'Im_MattDamon.png', 'Im_DanielCraig.png'],diff,1,0.4249331999999413,8,83.33333333333333,
PIFR3008,train,neg,150,neg150_id3_im6.bmp_neg150_id3_im17.bmp,['Im_HughJackman.png', 'Im_GeorgeClooney.png', 'Im_BenAffleck.png', 'Im_LeonardoDiCaprio.png', 'Im_BradPitt.png', 'Im_BenStiller.png', 'Im_RyanGosling.png', 'Im_JustinTimberlake.png', 'Im_MattDamon.png', 'Im_DanielCraig.png'],same,1,0.4247860000004948,9,83.33333333333333,
PIFR3008,train,neg,30,neg30_id7_im26.bmp_neg30_id14_im16.bmp,['Im_HughJackman.png', 'Im_GeorgeClooney.png', 'Im_BenAffleck.png', 'Im_LeonardoDiCaprio.png', 'Im_BradPitt.png', 'Im_BenStiller.png', 'Im_RyanGosling.png', 'Im_JustinTimberlake.png', 'Im_MattDamon.png', 'Im_DanielCraig.png'],diff,1,0.4084349000004295,10,83.33333333333333,
PIFR3008,train,neg,0,neg0_id2_im16.bmp_neg0_id8_im20.bmp,['Im_HughJackman.png', 'Im_GeorgeClooney.png', 'Im_BenAffleck.png', 'Im_LeonardoDiCaprio.png', 'Im_BradPitt.png', 'Im_BenStiller.png', 'Im_RyanGosling.png', 'Im_JustinTimberlake.png', 'Im_MattDamon.png', 'Im_DanielCraig.png'],diff,1,0.4082481999994343,11,83.33333333333333,
PIFR3008,train,neg,120,neg120_id2_im16.bmp_neg120_id14_im16.bmp,['Im_HughJackman.png', 'Im_GeorgeClooney.png', 'Im_BenAffleck.png', 'Im_LeonardoDiCaprio.png', 'Im_BradPitt.png', 'Im_BenStiller.png', 'Im_RyanGosling.png', 'Im_JustinTimberlake.png', 'Im_MattDamon.png', 'Im_DanielCraig.png'],diff,1,0.42477490000055695,12,83.33333333333333,
PIFR3008,train,neg,fs,negfs_id4_im20.bmp_negfs_id2_im3.bmp,['Im_HughJackman.png', 'Im_GeorgeClooney.png', 'Im_BenAffleck.png', 'Im_LeonardoDiCaprio.png', 'Im_BradPitt.png', 'Im_BenStiller.png', 'Im_RyanGosling.png', 'Im_JustinTimberlake.png', 'Im_MattDamon.png', 'Im_DanielCraig.png'],diff,1,0.4083909999999378,13,83.33333333333333,
PIFR3008,train,pos,30,pos30_id2_im2.bmp_pos30_id7_im26.bmp,['Im_HughJackman.png', 'Im_GeorgeClooney.png', 'Im_BenAffleck.png', 'Im_LeonardoDiCaprio.png', 'Im_BradPitt.png', 'Im_BenStiller.png', 'Im_RyanGosling.png', 'Im_JustinTimberlake.png', 'Im_MattDamon.png', 'Im_DanielCraig.png'],diff,1,0.4333979000002728,14,83.33333333333333,
PIFR3008,train,pos,90,pos90_id3_im8.bmp_pos90_id8_im21.bmp,['Im_HughJackman.png', 'Im_GeorgeClooney.png', 'Im_BenAffleck.png', 'Im_LeonardoDiCaprio.png', 'Im_BradPitt.png', 'Im_BenStiller.png', 'Im_RyanGosling.png', 'Im_JustinTimberlake.png', 'Im_MattDamon.png', 'Im_DanielCraig.png'],diff,1,0.41684450000047946,15,83.33333333333333,
PIFR3008,train,pos,150,pos150_id20_im12.bmp_pos150_id13_im15.bmp,['Im_HughJackman.png', 'Im_GeorgeClooney.png', 'Im_BenAffleck.png', 'Im_LeonardoDiCaprio.png', 'Im_BradPitt.png', 'Im_BenStiller.png', 'Im_RyanGosling.png', 'Im_JustinTimberlake.png', 'Im_MattDamon.png', 'Im_DanielCraig.png'],diff,1,0.40845700000045326,16,83.33333333333333,
PIFR3008,train,pos,30,pos30_id14_im24.bmp_pos30_id14_im16.bmp,['Im_HughJackman.png', 'Im_GeorgeClooney.png', 'Im_BenAffleck.png', 'Im_LeonardoDiCaprio.png', 'Im_BradPitt.png', 'Im_BenStiller.png', 'Im_RyanGosling.png', 'Im_JustinTimberlake.png', 'Im_MattDamon.png', 'Im_DanielCraig.png'],same,1,0.4250841000002765,17,83.33333333333333,
PIFR3008,train,pos,fs,posfs_id7_im15.bmp_posfs_id14_im18.bmp,['Im_HughJackman.png', 'Im_GeorgeClooney.png', 'Im_BenAffleck.png', 'Im_LeonardoDiCaprio.png', 'Im_BradPitt.png', 'Im_BenStiller.png', 'Im_RyanGosling.png', 'Im_JustinTimberlake.png', 'Im_MattDamon.png', 'Im_DanielCraig.png'],diff,1,0.40824419999989914,18,83.33333333333333,
PIFR3008,train,pos,0,pos0_id14_im16.bmp_pos0_id7_im26.bmp,['Im_HughJackman.png', 'Im_GeorgeClooney.png', 'Im_BenAffleck.png', 'Im_LeonardoDiCaprio.png', 'Im_BradPitt.png', 'Im_BenStiller.png', 'Im_RyanGosling.png', 'Im_JustinTimberlake.png', 'Im_MattDamon.png', 'Im_DanielCraig.png'],diff,1,1.6667246999995768,19,83.33333333333333,
PIFR3008,train,pos,90,pos90_id7_im26.bmp_pos90_id14_im16.bmp,['Im_HughJackman.png', 'Im_GeorgeClooney.png', 'Im_BenAffleck.png', 'Im_LeonardoDiCaprio.png', 'Im_BradPitt.png', 'Im_BenStiller.png', 'Im_RyanGosling.png', 'Im_JustinTimberlake.png', 'Im_MattDamon.png', 'Im_DanielCraig.png'],diff,1,0.4167669999997088,20,83.33333333333333,
PIFR3008,train,pos,fs,posfs_id8_im20.bmp_posfs_id8_im13.bmp,['Im_HughJackman.png', 'Im_GeorgeClooney.png', 'Im_BenAffleck.png', 'Im_LeonardoDiCaprio.png', 'Im_BradPitt.png', 'Im_BenStiller.png', 'Im_RyanGosling.png', 'Im_JustinTimberlake.png', 'Im_MattDamon.png', 'Im_DanielCraig.png'],same,1,1.0085450000005949,21,83.33333333333333,
PIFR3008,train,pos,60,pos60_id20_im30.bmp_pos60_id20_im3.bmp,['Im_HughJackman.png', 'Im_GeorgeClooney.png', 'Im_BenAffleck.png', 'Im_LeonardoDiCaprio.png', 'Im_BradPitt.png', 'Im_BenStiller.png', 'Im_RyanGosling.png', 'Im_JustinTimberlake.png', 'Im_MattDamon.png', 'Im_DanielCraig.png'],same,1,0.425053900000421,22,83.33333333333333,
PIFR3008,train,pos,120,pos120_id4_im7.bmp_pos120_id4_im15.bmp,['Im_HughJackman.png', 'Im_GeorgeClooney.png', 'Im_BenAffleck.png', 'Im_LeonardoDiCaprio.png', 'Im_BradPitt.png', 'Im_BenStiller.png', 'Im_RyanGosling.png', 'Im_JustinTimberlake.png', 'Im_MattDamon.png', 'Im_DanielCraig.png'],same,1,0.4168181999993976,23,83.33333333333333,
PIFR3008,train,pos,60,pos60_id14_im16.bmp_pos60_id14_im24.bmp,['Im_HughJackman.png', 'Im_GeorgeClooney.png', 'Im_BenAffleck.png', 'Im_LeonardoDiCaprio.png', 'Im_BradPitt.png', 'Im_BenStiller.png', 'Im_RyanGosling.png', 'Im_JustinTimberlake.png', 'Im_MattDamon.png', 'Im_DanielCraig.png'],same,1,0.42520129999957135,24,83.33333333333333,
PIFR3008,train,pos,150,pos150_id13_im15.bmp_pos150_id13_im29.bmp,['Im_HughJackman.png', 'Im_GeorgeClooney.png', 'Im_BenAffleck.png', 'Im_LeonardoDiCaprio.png', 'Im_BradPitt.png', 'Im_BenStiller.png', 'Im_RyanGosling.png', 'Im_JustinTimberlake.png', 'Im_MattDamon.png', 'Im_DanielCraig.png'],diff,0,0.42504359999929875,24,83.33333333333333,
PIFR3008,train,pos,120,pos120_id1_im21.bmp_pos120_id3_im8.bmp,['Im_HughJackman.png', 'Im_GeorgeClooney.png', 'Im_BenAffleck.png', 'Im_LeonardoDiCaprio.png', 'Im_BradPitt.png', 'Im_BenStiller.png', 'Im_RyanGosling.png', 'Im_JustinTimberlake.png', 'Im_MattDamon.png', 'Im_DanielCraig.png'],diff,1,0.42509719999998197,25,83.33333333333333,
PIFR3008,train,pos,0,pos0_id2_im16.bmp_pos0_id2_im2.bmp,['Im_HughJackman.png', 'Im_GeorgeClooney.png', 'Im_BenAffleck.png', 'Im_LeonardoDiCaprio.png', 'Im_BradPitt.png', 'Im_BenStiller.png', 'Im_RyanGosling.png', 'Im_JustinTimberlake.png', 'Im_MattDamon.png', 'Im_DanielCraig.png'],same,1,0.4167445000002772,26,83.33333333333333,
PIFR3008,train,inv,90,pos90_id3_im8.bmp_pos90_id1_im21.bmp,['Im_HughJackman.png', 'Im_GeorgeClooney.png', 'Im_BenAffleck.png', 'Im_LeonardoDiCaprio.png', 'Im_BradPitt.png', 'Im_BenStiller.png', 'Im_RyanGosling.png', 'Im_JustinTimberlake.png', 'Im_MattDamon.png', 'Im_DanielCraig.png'],same,0,0.4250254999997196,26,83.33333333333333,
PIFR3008,train,inv,fs,posfs_id4_im15.bmp_posfs_id4_im7.bmp,['Im_HughJackman.png', 'Im_GeorgeClooney.png', 'Im_BenAffleck.png', 'Im_LeonardoDiCaprio.png', 'Im_BradPitt.png', 'Im_BenStiller.png', 'Im_RyanGosling.png', 'Im_JustinTimberlake.png', 'Im_MattDamon.png', 'Im_DanielCraig.png'],same,1,0.4168931000003795,27,83.33333333333333,
PIFR3008,train,inv,150,pos150_id14_im16.bmp_pos150_id14_im24.bmp,['Im_HughJackman.png', 'Im_GeorgeClooney.png', 'Im_BenAffleck.png', 'Im_LeonardoDiCaprio.png', 'Im_BradPitt.png', 'Im_BenStiller.png', 'Im_RyanGosling.png', 'Im_JustinTimberlake.png', 'Im_MattDamon.png', 'Im_DanielCraig.png'],same,1,0.40842239999983576,28,83.33333333333333,
PIFR3008,train,inv,fs,posfs_id7_im15.bmp_posfs_id7_im14.bmp,['Im_HughJackman.png', 'Im_GeorgeClooney.png', 'Im_BenAffleck.png', 'Im_LeonardoDiCaprio.png', 'Im_BradPitt.png', 'Im_BenStiller.png', 'Im_RyanGosling.png', 'Im_JustinTimberlake.png', 'Im_MattDamon.png', 'Im_DanielCraig.png'],same,1,0.4083731999999145,29,83.33333333333333,
PIFR3008,train,inv,30,pos30_id20_im12.bmp_pos30_id20_im3.bmp,['Im_HughJackman.png', 'Im_GeorgeClooney.png', 'Im_BenAffleck.png', 'Im_LeonardoDiCaprio.png', 'Im_BradPitt.png', 'Im_BenStiller.png', 'Im_RyanGosling.png', 'Im_JustinTimberlake.png', 'Im_MattDamon.png', 'Im_DanielCraig.png'],same,1,0.4084117000002152,30,83.33333333333333,
PIFR3008,train,inv,60,pos60_id13_im29.bmp_pos60_id13_im10.bmp,['Im_HughJackman.png', 'Im_GeorgeClooney.png', 'Im_BenAffleck.png', 'Im_LeonardoDiCaprio.png', 'Im_BradPitt.png', 'Im_BenStiller.png', 'Im_RyanGosling.png', 'Im_JustinTimberlake.png', 'Im_MattDamon.png', 'Im_DanielCraig.png'],same,1,0.4080807000000277,31,83.33333333333333,
PIFR3008,train,inv,0,pos0_id7_im15.bmp_pos0_id2_im2.bmp,['Im_HughJackman.png', 'Im_GeorgeClooney.png', 'Im_BenAffleck.png', 'Im_LeonardoDiCaprio.png', 'Im_BradPitt.png', 'Im_BenStiller.png', 'Im_RyanGosling.png', 'Im_JustinTimberlake.png', 'Im_MattDamon.png', 'Im_DanielCraig.png'],diff,1,0.40840120000029856,32,83.33333333333333,
PIFR3008,train,inv,150,pos150_id2_im2.bmp_pos150_id7_im26.bmp,['Im_HughJackman.png', 'Im_GeorgeClooney.png', 'Im_BenAffleck.png', 'Im_LeonardoDiCaprio.png', 'Im_BradPitt.png', 'Im_BenStiller.png', 'Im_RyanGosling.png', 'Im_JustinTimberlake.png', 'Im_MattDamon.png', 'Im_DanielCraig.png'],diff,1,0.42507260000002134,33,83.33333333333333,
PIFR3008,train,inv,0,pos0_id4_im15.bmp_pos0_id4_im20.bmp,['Im_HughJackman.png', 'Im_GeorgeClooney.png', 'Im_BenAffleck.png', 'Im_LeonardoDiCaprio.png', 'Im_BradPitt.png', 'Im_BenStiller.png', 'Im_RyanGosling.png', 'Im_JustinTimberlake.png', 'Im_MattDamon.png', 'Im_DanielCraig.png'],same,1,0.4081943000001047,34,83.33333333333333,
PIFR3008,train,inv,90,pos90_id8_im13.bmp_pos90_id8_im20.bmp,['Im_HughJackman.png', 'Im_GeorgeClooney.png', 'Im_BenAffleck.png', 'Im_LeonardoDiCaprio.png', 'Im_BradPitt.png', 'Im_BenStiller.png', 'Im_RyanGosling.png', 'Im_JustinTimberlake.png', 'Im_MattDamon.png', 'Im_DanielCraig.png'],same,1,0.40823050000017247,35,83.33333333333333,
PIFR3008,train,inv,120,pos120_id7_im14.bmp_pos120_id7_im26.bmp,['Im_HughJackman.png', 'Im_GeorgeClooney.png', 'Im_BenAffleck.png', 'Im_LeonardoDiCaprio.png', 'Im_BradPitt.png', 'Im_BenStiller.png', 'Im_RyanGosling.png', 'Im_JustinTimberlake.png', 'Im_MattDamon.png', 'Im_DanielCraig.png'],same,1,0.40809580000041024,36,83.33333333333333,
PIFR3008,train,inv,60,pos60_id3_im6.bmp_pos60_id3_im8.bmp,['Im_HughJackman.png', 'Im_GeorgeClooney.png', 'Im_BenAffleck.png', 'Im_LeonardoDiCaprio.png', 'Im_BradPitt.png', 'Im_BenStiller.png', 'Im_RyanGosling.png', 'Im_JustinTimberlake.png', 'Im_MattDamon.png', 'Im_DanielCraig.png'],same,1,0.4083860000000641,37,83.33333333333333,
PIFR3008,train,inv,120,pos120_id2_im16.bmp_pos120_id2_im2.bmp,['Im_HughJackman.png', 'Im_GeorgeClooney.png', 'Im_BenAffleck.png', 'Im_LeonardoDiCaprio.png', 'Im_BradPitt.png', 'Im_BenStiller.png', 'Im_RyanGosling.png', 'Im_JustinTimberlake.png', 'Im_MattDamon.png', 'Im_DanielCraig.png'],same,1,0.41669110000020737,38,83.33333333333333,
PIFR3008,train,inv,30,pos30_id8_im20.bmp_pos30_id20_im3.bmp,['Im_HughJackman.png', 'Im_GeorgeClooney.png', 'Im_BenAffleck.png', 'Im_LeonardoDiCaprio.png', 'Im_BradPitt.png', 'Im_BenStiller.png', 'Im_RyanGosling.png', 'Im_JustinTimberlake.png', 'Im_MattDamon.png', 'Im_DanielCraig.png'],diff,1,0.4081192000003284,39,83.33333333333333,
PIFR3008,0,pos,150,pos150_id2_im16.bmp_pos150_id8_im20.bmp,['Im_HughJackman.png', 'Im_GeorgeClooney.png', 'Im_BenAffleck.png', 'Im_LeonardoDiCaprio.png', 'Im_BradPitt.png', 'Im_BenStiller.png', 'Im_RyanGosling.png', 'Im_JustinTimberlake.png', 'Im_MattDamon.png', 'Im_DanielCraig.png'],diff,1,0.41661799999928917,1,0,
PIFR3008,0,pos,0,pos0_id14_im24.bmp_pos0_id8_im13.bmp,['Im_HughJackman.png', 'Im_GeorgeClooney.png', 'Im_BenAffleck.png', 'Im_LeonardoDiCaprio.png', 'Im_BradPitt.png', 'Im_BenStiller.png', 'Im_RyanGosling.png', 'Im_JustinTimberlake.png', 'Im_MattDamon.png', 'Im_DanielCraig.png'],diff,1,0.4250411000002714,2,0,
PIFR3008,0,pos,60,pos60_id8_im20.bmp_pos60_id20_im3.bmp,['Im_HughJackman.png', 'Im_GeorgeClooney.png', 'Im_BenAffleck.png', 'Im_LeonardoDiCaprio.png', 'Im_BradPitt.png', 'Im_BenStiller.png', 'Im_RyanGosling.png', 'Im_JustinTimberlake.png', 'Im_MattDamon.png', 'Im_DanielCraig.png'],diff,1,1.0499823999998625,3,0,
PIFR3008,0,pos,120,pos120_id14_im18.bmp_pos120_id14_im24.bmp,['Im_HughJackman.png', 'Im_GeorgeClooney.png', 'Im_BenAffleck.png', 'Im_LeonardoDiCaprio.png', 'Im_BradPitt.png', 'Im_BenStiller.png', 'Im_RyanGosling.png', 'Im_JustinTimberlake.png', 'Im_MattDamon.png', 'Im_DanielCraig.png'],diff,0,0.4084572000001572,3,0,
PIFR3008,0,pos,fs,posfs_id2_im16.bmp_posfs_id8_im20.bmp,['Im_HughJackman.png', 'Im_GeorgeClooney.png', 'Im_BenAffleck.png', 'Im_LeonardoDiCaprio.png', 'Im_BradPitt.png', 'Im_BenStiller.png', 'Im_RyanGosling.png', 'Im_JustinTimberlake.png', 'Im_MattDamon.png', 'Im_DanielCraig.png'],diff,1,0.4250459000004412,4,0,
PIFR3008,0,pos,150,pos150_id1_im4.bmp_pos150_id3_im6.bmp,['Im_HughJackman.png', 'Im_GeorgeClooney.png', 'Im_BenAffleck.png', 'Im_LeonardoDiCaprio.png', 'Im_BradPitt.png', 'Im_BenStiller.png', 'Im_RyanGosling.png', 'Im_JustinTimberlake.png', 'Im_MattDamon.png', 'Im_DanielCraig.png'],same,0,0.424978199999714,4,0,
PIFR3008,0,pos,90,pos90_id2_im3.bmp_pos90_id4_im20.bmp,['Im_HughJackman.png', 'Im_GeorgeClooney.png', 'Im_BenAffleck.png', 'Im_LeonardoDiCaprio.png', 'Im_BradPitt.png', 'Im_BenStiller.png', 'Im_RyanGosling.png', 'Im_JustinTimberlake.png', 'Im_MattDamon.png', 'Im_DanielCraig.png'],diff,1,0.42506150000008347,5,0,
PIFR3008,0,pos,fs,posfs_id3_im6.bmp_posfs_id3_im8.bmp,['Im_HughJackman.png', 'Im_GeorgeClooney.png', 'Im_BenAffleck.png', 'Im_LeonardoDiCaprio.png', 'Im_BradPitt.png', 'Im_BenStiller.png', 'Im_RyanGosling.png', 'Im_JustinTimberlake.png', 'Im_MattDamon.png', 'Im_DanielCraig.png'],diff,0,0.416608599999563,5,0,
PIFR3008,0,pos,0,pos0_id10_im17.bmp_pos0_id3_im6.bmp,['Im_HughJackman.png', 'Im_GeorgeClooney.png', 'Im_BenAffleck.png', 'Im_LeonardoDiCaprio.png', 'Im_BradPitt.png', 'Im_BenStiller.png', 'Im_RyanGosling.png', 'Im_JustinTimberlake.png', 'Im_MattDamon.png', 'Im_DanielCraig.png'],diff,1,0.4167163000001892,6,0,
PIFR3008,0,pos,120,pos120_id14_im24.bmp_pos120_id20_im30.bmp,['Im_HughJackman.png', 'Im_GeorgeClooney.png', 'Im_BenAffleck.png', 'Im_LeonardoDiCaprio.png', 'Im_BradPitt.png', 'Im_BenStiller.png', 'Im_RyanGosling.png', 'Im_JustinTimberlake.png', 'Im_MattDamon.png', 'Im_DanielCraig.png'],diff,1,0.40852670000003855,7,0,
PIFR3008,0,pos,60,pos60_id1_im4.bmp_pos60_id3_im6.bmp,['Im_HughJackman.png', 'Im_GeorgeClooney.png', 'Im_BenAffleck.png', 'Im_LeonardoDiCaprio.png', 'Im_BradPitt.png', 'Im_BenStiller.png', 'Im_RyanGosling.png', 'Im_JustinTimberlake.png', 'Im_MattDamon.png', 'Im_DanielCraig.png'],diff,1,0.41680320000068605,8,0,
PIFR3008,0,pos,90,pos90_id1_im24.bmp_pos90_id10_im17.bmp,['Im_HughJackman.png', 'Im_GeorgeClooney.png', 'Im_BenAffleck.png', 'Im_LeonardoDiCaprio.png', 'Im_BradPitt.png', 'Im_BenStiller.png', 'Im_RyanGosling.png', 'Im_JustinTimberlake.png', 'Im_MattDamon.png', 'Im_DanielCraig.png'],diff,1,0.4167781999994986,9,0,
PIFR3008,0,pos,30,pos30_id4_im20.bmp_pos30_id8_im13.bmp,['Im_HughJackman.png', 'Im_GeorgeClooney.png', 'Im_BenAffleck.png', 'Im_LeonardoDiCaprio.png', 'Im_BradPitt.png', 'Im_BenStiller.png', 'Im_RyanGosling.png', 'Im_JustinTimberlake.png', 'Im_MattDamon.png', 'Im_DanielCraig.png'],diff,1,0.40837290000035864,10,0,
PIFR3008,0,pos,30,pos30_id8_im20.bmp_pos30_id8_im13.bmp,['Im_HughJackman.png', 'Im_GeorgeClooney.png', 'Im_BenAffleck.png', 'Im_LeonardoDiCaprio.png', 'Im_BradPitt.png', 'Im_BenStiller.png', 'Im_RyanGosling.png', 'Im_JustinTimberlake.png', 'Im_MattDamon.png', 'Im_DanielCraig.png'],diff,0,0.40842979999979434,10,0,
PIFR3008,1,inv,fs,posfs_id10_im17.bmp_posfs_id10_im1.bmp,['Im_HughJackman.png', 'Im_GeorgeClooney.png', 'Im_BenAffleck.png', 'Im_LeonardoDiCaprio.png', 'Im_BradPitt.png', 'Im_BenStiller.png', 'Im_RyanGosling.png', 'Im_JustinTimberlake.png', 'Im_MattDamon.png', 'Im_DanielCraig.png'],same,1,0.41672620000008465,11,0,
PIFR3008,1,inv,90,pos90_id10_im1.bmp_pos90_id10_im18.bmp,['Im_HughJackman.png', 'Im_GeorgeClooney.png', 'Im_BenAffleck.png', 'Im_LeonardoDiCaprio.png', 'Im_BradPitt.png', 'Im_BenStiller.png', 'Im_RyanGosling.png', 'Im_JustinTimberlake.png', 'Im_MattDamon.png', 'Im_DanielCraig.png'],same,1,0.4166688000004797,12,0,
PIFR3008,1,inv,150,pos150_id4_im7.bmp_pos150_id1_im24.bmp,['Im_HughJackman.png', 'Im_GeorgeClooney.png', 'Im_BenAffleck.png', 'Im_LeonardoDiCaprio.png', 'Im_BradPitt.png', 'Im_BenStiller.png', 'Im_RyanGosling.png', 'Im_JustinTimberlake.png', 'Im_MattDamon.png', 'Im_DanielCraig.png'],same,0,0.45008600000073784,12,0,
PIFR3008,1,inv,60,pos60_id1_im4.bmp_pos60_id1_im24.bmp,['Im_HughJackman.png', 'Im_GeorgeClooney.png', 'Im_BenAffleck.png', 'Im_LeonardoDiCaprio.png', 'Im_BradPitt.png', 'Im_BenStiller.png', 'Im_RyanGosling.png', 'Im_JustinTimberlake.png', 'Im_MattDamon.png', 'Im_DanielCraig.png'],same,1,0.41677830000026006,13,0,
PIFR3008,1,inv,30,pos30_id7_im26.bmp_pos30_id7_im15.bmp,['Im_HughJackman.png', 'Im_GeorgeClooney.png', 'Im_BenAffleck.png', 'Im_LeonardoDiCaprio.png', 'Im_BradPitt.png', 'Im_BenStiller.png', 'Im_RyanGosling.png', 'Im_JustinTimberlake.png', 'Im_MattDamon.png', 'Im_DanielCraig.png'],same,1,0.4252151999999114,14,0,
PIFR3008,1,inv,30,pos30_id20_im3.bmp_pos30_id8_im21.bmp,['Im_HughJackman.png', 'Im_GeorgeClooney.png', 'Im_BenAffleck.png', 'Im_LeonardoDiCaprio.png', 'Im_BradPitt.png', 'Im_BenStiller.png', 'Im_RyanGosling.png', 'Im_JustinTimberlake.png', 'Im_MattDamon.png', 'Im_DanielCraig.png'],diff,1,0.4250789999996414,15,0,
PIFR3008,1,inv,0,pos0_id3_im6.bmp_pos0_id3_im8.bmp,['Im_HughJackman.png', 'Im_GeorgeClooney.png', 'Im_BenAffleck.png', 'Im_LeonardoDiCaprio.png', 'Im_BradPitt.png', 'Im_BenStiller.png', 'Im_RyanGosling.png', 'Im_JustinTimberlake.png', 'Im_MattDamon.png', 'Im_DanielCraig.png'],same,1,0.4252078999998048,16,0,
PIFR3008,1,inv,60,pos60_id7_im15.bmp_pos60_id14_im18.bmp,['Im_HughJackman.png', 'Im_GeorgeClooney.png', 'Im_BenAffleck.png', 'Im_LeonardoDiCaprio.png', 'Im_BradPitt.png', 'Im_BenStiller.png', 'Im_RyanGosling.png', 'Im_JustinTimberlake.png', 'Im_MattDamon.png', 'Im_DanielCraig.png'],diff,1,0.4165872000003219,17,0,
PIFR3008,1,inv,120,pos120_id1_im4.bmp_pos120_id1_im24.bmp,['Im_HughJackman.png', 'Im_GeorgeClooney.png', 'Im_BenAffleck.png', 'Im_LeonardoDiCaprio.png', 'Im_BradPitt.png', 'Im_BenStiller.png', 'Im_RyanGosling.png', 'Im_JustinTimberlake.png', 'Im_MattDamon.png', 'Im_DanielCraig.png'],same,1,0.41667150000012043,18,0,
PIFR3008,1,inv,90,pos90_id13_im10.bmp_pos90_id13_im15.bmp,['Im_HughJackman.png', 'Im_GeorgeClooney.png', 'Im_BenAffleck.png', 'Im_LeonardoDiCaprio.png', 'Im_BradPitt.png', 'Im_BenStiller.png', 'Im_RyanGosling.png', 'Im_JustinTimberlake.png', 'Im_MattDamon.png', 'Im_DanielCraig.png'],same,1,0.4084551999994801,19,0,
PIFR3008,1,inv,120,pos120_id3_im8.bmp_pos120_id3_im17.bmp,['Im_HughJackman.png', 'Im_GeorgeClooney.png', 'Im_BenAffleck.png', 'Im_LeonardoDiCaprio.png', 'Im_BradPitt.png', 'Im_BenStiller.png', 'Im_RyanGosling.png', 'Im_JustinTimberlake.png', 'Im_MattDamon.png', 'Im_DanielCraig.png'],diff,0,0.4418498000004547,19,0,
PIFR3008,1,inv,fs,posfs_id2_im2.bmp_posfs_id2_im16.bmp,['Im_HughJackman.png', 'Im_GeorgeClooney.png', 'Im_BenAffleck.png', 'Im_LeonardoDiCaprio.png', 'Im_BradPitt.png', 'Im_BenStiller.png', 'Im_RyanGosling.png', 'Im_JustinTimberlake.png', 'Im_MattDamon.png', 'Im_DanielCraig.png'],same,1,0.42506890000004205,20,0,
PIFR3008,1,inv,150,pos150_id13_im15.bmp_pos150_id20_im12.bmp,['Im_HughJackman.png', 'Im_GeorgeClooney.png', 'Im_BenAffleck.png', 'Im_LeonardoDiCaprio.png', 'Im_BradPitt.png', 'Im_BenStiller.png', 'Im_RyanGosling.png', 'Im_JustinTimberlake.png', 'Im_MattDamon.png', 'Im_DanielCraig.png'],diff,1,0.4084049999992203,21,0,
PIFR3008,1,inv,0,pos0_id13_im10.bmp_pos0_id13_im15.bmp,['Im_HughJackman.png', 'Im_GeorgeClooney.png', 'Im_BenAffleck.png', 'Im_LeonardoDiCaprio.png', 'Im_BradPitt.png', 'Im_BenStiller.png', 'Im_RyanGosling.png', 'Im_JustinTimberlake.png', 'Im_MattDamon.png', 'Im_DanielCraig.png'],same,1,0.49194600000009814,22,0,
PIFR3008,2,pos,30,pos30_id1_im21.bmp_pos30_id3_im8.bmp,['Im_HughJackman.png', 'Im_GeorgeClooney.png', 'Im_BenAffleck.png', 'Im_LeonardoDiCaprio.png', 'Im_BradPitt.png', 'Im_BenStiller.png', 'Im_RyanGosling.png', 'Im_JustinTimberlake.png', 'Im_MattDamon.png', 'Im_DanielCraig.png'],diff,1,0.41672270000071876,23,0,
PIFR3008,2,pos,0,pos0_id10_im17.bmp_pos0_id1_im24.bmp,['Im_HughJackman.png', 'Im_GeorgeClooney.png', 'Im_BenAffleck.png', 'Im_LeonardoDiCaprio.png', 'Im_BradPitt.png', 'Im_BenStiller.png', 'Im_RyanGosling.png', 'Im_JustinTimberlake.png', 'Im_MattDamon.png', 'Im_DanielCraig.png'],same,0,0.5917345999996542,23,0,
PIFR3008,2,pos,120,pos120_id2_im2.bmp_pos120_id7_im15.bmp,['Im_HughJackman.png', 'Im_GeorgeClooney.png', 'Im_BenAffleck.png', 'Im_LeonardoDiCaprio.png', 'Im_BradPitt.png', 'Im_BenStiller.png', 'Im_RyanGosling.png', 'Im_JustinTimberlake.png', 'Im_MattDamon.png', 'Im_DanielCraig.png'],diff,1,0.42502609999974084,24,0,
PIFR3008,2,pos,90,pos90_id20_im30.bmp_pos90_id20_im3.bmp,['Im_HughJackman.png', 'Im_GeorgeClooney.png', 'Im_BenAffleck.png', 'Im_LeonardoDiCaprio.png', 'Im_BradPitt.png', 'Im_BenStiller.png', 'Im_RyanGosling.png', 'Im_JustinTimberlake.png', 'Im_MattDamon.png', 'Im_DanielCraig.png'],same,1,0.4165878000003431,25,0,
PIFR3008,2,pos,0,pos0_id3_im8.bmp_pos0_id3_im17.bmp,['Im_HughJackman.png', 'Im_GeorgeClooney.png', 'Im_BenAffleck.png', 'Im_LeonardoDiCaprio.png', 'Im_BradPitt.png', 'Im_BenStiller.png', 'Im_RyanGosling.png', 'Im_JustinTimberlake.png', 'Im_MattDamon.png', 'Im_DanielCraig.png'],same,1,0.41669369999999617,26,0,
PIFR3008,2,pos,60,pos60_id1_im4.bmp_pos60_id1_im24.bmp,['Im_HughJackman.png', 'Im_GeorgeClooney.png', 'Im_BenAffleck.png', 'Im_LeonardoDiCaprio.png', 'Im_BradPitt.png', 'Im_BenStiller.png', 'Im_RyanGosling.png', 'Im_JustinTimberlake.png', 'Im_MattDamon.png', 'Im_DanielCraig.png'],same,1,0.4250910999999178,27,0,
PIFR3008,2,pos,30,pos30_id8_im21.bmp_pos30_id8_im20.bmp,['Im_HughJackman.png', 'Im_GeorgeClooney.png', 'Im_BenAffleck.png', 'Im_LeonardoDiCaprio.png', 'Im_BradPitt.png', 'Im_BenStiller.png', 'Im_RyanGosling.png', 'Im_JustinTimberlake.png', 'Im_MattDamon.png', 'Im_DanielCraig.png'],same,1,0.4250713999999789,28,0,
PIFR3008,2,pos,90,pos90_id3_im6.bmp_pos90_id3_im17.bmp,['Im_HughJackman.png', 'Im_GeorgeClooney.png', 'Im_BenAffleck.png', 'Im_LeonardoDiCaprio.png', 'Im_BradPitt.png', 'Im_BenStiller.png', 'Im_RyanGosling.png', 'Im_JustinTimberlake.png', 'Im_MattDamon.png', 'Im_DanielCraig.png'],same,1,0.42493689999992057,29,0,
PIFR3008,2,pos,fs,posfs_id2_im2.bmp_posfs_id2_im16.bmp,['Im_HughJackman.png', 'Im_GeorgeClooney.png', 'Im_BenAffleck.png', 'Im_LeonardoDiCaprio.png', 'Im_BradPitt.png', 'Im_BenStiller.png', 'Im_RyanGosling.png', 'Im_JustinTimberlake.png', 'Im_MattDamon.png', 'Im_DanielCraig.png'],same,1,0.4167133000000831,30,0,
PIFR3008,2,pos,120,pos120_id20_im3.bmp_pos120_id20_im12.bmp,['Im_HughJackman.png', 'Im_GeorgeClooney.png', 'Im_BenAffleck.png', 'Im_LeonardoDiCaprio.png', 'Im_BradPitt.png', 'Im_BenStiller.png', 'Im_RyanGosling.png', 'Im_JustinTimberlake.png', 'Im_MattDamon.png', 'Im_DanielCraig.png'],same,1,0.4083424999998897,31,0,
PIFR3008,2,pos,fs,posfs_id7_im14.bmp_posfs_id10_im1.bmp,['Im_HughJackman.png', 'Im_GeorgeClooney.png', 'Im_BenAffleck.png', 'Im_LeonardoDiCaprio.png', 'Im_BradPitt.png', 'Im_BenStiller.png', 'Im_RyanGosling.png', 'Im_JustinTimberlake.png', 'Im_MattDamon.png', 'Im_DanielCraig.png'],diff,1,0.42508230000021285,32,0,
PIFR3008,2,pos,60,pos60_id4_im20.bmp_pos60_id4_im7.bmp,['Im_HughJackman.png', 'Im_GeorgeClooney.png', 'Im_BenAffleck.png', 'Im_LeonardoDiCaprio.png', 'Im_BradPitt.png', 'Im_BenStiller.png', 'Im_RyanGosling.png', 'Im_JustinTimberlake.png', 'Im_MattDamon.png', 'Im_DanielCraig.png'],same,1,0.42505310000069585,33,0,
PIFR3008,2,pos,150,pos150_id14_im16.bmp_pos150_id14_im24.bmp,['Im_HughJackman.png', 'Im_GeorgeClooney.png', 'Im_BenAffleck.png', 'Im_LeonardoDiCaprio.png', 'Im_BradPitt.png', 'Im_BenStiller.png', 'Im_RyanGosling.png', 'Im_JustinTimberlake.png', 'Im_MattDamon.png', 'Im_DanielCraig.png'],same,1,0.40842909999992116,34,0,
PIFR3008,2,pos,150,pos150_id3_im17.bmp_pos150_id3_im8.bmp,['Im_HughJackman.png', 'Im_GeorgeClooney.png', 'Im_BenAffleck.png', 'Im_LeonardoDiCaprio.png', 'Im_BradPitt.png', 'Im_BenStiller.png', 'Im_RyanGosling.png', 'Im_JustinTimberlake.png', 'Im_MattDamon.png', 'Im_DanielCraig.png'],same,1,0.4168849000006958,35,0,
PIFR3008,3,neg,fs,negfs_id13_im10.bmp_negfs_id13_im15.bmp,['Im_HughJackman.png', 'Im_GeorgeClooney.png', 'Im_BenAffleck.png', 'Im_LeonardoDiCaprio.png', 'Im_BradPitt.png', 'Im_BenStiller.png', 'Im_RyanGosling.png', 'Im_JustinTimberlake.png', 'Im_MattDamon.png', 'Im_DanielCraig.png'],same,1,0.4251105000003008,1,83.33333333333333,
PIFR3008,3,neg,150,neg150_id1_im21.bmp_neg150_id13_im15.bmp,['Im_HughJackman.png', 'Im_GeorgeClooney.png', 'Im_BenAffleck.png', 'Im_LeonardoDiCaprio.png', 'Im_BradPitt.png', 'Im_BenStiller.png', 'Im_RyanGosling.png', 'Im_JustinTimberlake.png', 'Im_MattDamon.png', 'Im_DanielCraig.png'],diff,1,0.4168835999998919,2,83.33333333333333,
PIFR3008,3,neg,90,neg90_id10_im18.bmp_neg90_id10_im1.bmp,['Im_HughJackman.png', 'Im_GeorgeClooney.png', 'Im_BenAffleck.png', 'Im_LeonardoDiCaprio.png', 'Im_BradPitt.png', 'Im_BenStiller.png', 'Im_RyanGosling.png', 'Im_JustinTimberlake.png', 'Im_MattDamon.png', 'Im_DanielCraig.png'],same,1,0.4836295000004611,3,83.33333333333333,
PIFR3008,3,neg,90,neg90_id1_im24.bmp_neg90_id1_im4.bmp,['Im_HughJackman.png', 'Im_GeorgeClooney.png', 'Im_BenAffleck.png', 'Im_LeonardoDiCaprio.png', 'Im_BradPitt.png', 'Im_BenStiller.png', 'Im_RyanGosling.png', 'Im_JustinTimberlake.png', 'Im_MattDamon.png', 'Im_DanielCraig.png'],same,1,0.4082674000001134,4,83.33333333333333,
PIFR3008,3,neg,30,neg30_id2_im2.bmp_neg30_id7_im15.bmp,['Im_HughJackman.png', 'Im_GeorgeClooney.png', 'Im_BenAffleck.png', 'Im_LeonardoDiCaprio.png', 'Im_BradPitt.png', 'Im_BenStiller.png', 'Im_RyanGosling.png', 'Im_JustinTimberlake.png', 'Im_MattDamon.png', 'Im_DanielCraig.png'],diff,1,0.4333511000004364,5,83.33333333333333,
PIFR3008,3,neg,150,neg150_id3_im8.bmp_neg150_id3_im6.bmp,['Im_HughJackman.png', 'Im_GeorgeClooney.png', 'Im_BenAffleck.png', 'Im_LeonardoDiCaprio.png', 'Im_BradPitt.png', 'Im_BenStiller.png', 'Im_RyanGosling.png', 'Im_JustinTimberlake.png', 'Im_MattDamon.png', 'Im_DanielCraig.png'],same,1,0.4250819999997475,6,83.33333333333333,
PIFR3008,3,neg,120,neg120_id13_im29.bmp_neg120_id13_im15.bmp,['Im_HughJackman.png', 'Im_GeorgeClooney.png', 'Im_BenAffleck.png', 'Im_LeonardoDiCaprio.png', 'Im_BradPitt.png', 'Im_BenStiller.png', 'Im_RyanGosling.png', 'Im_JustinTimberlake.png', 'Im_MattDamon.png', 'Im_DanielCraig.png'],same,1,0.4333710999999312,7,83.33333333333333,
PIFR3008,3,neg,60,neg60_id8_im13.bmp_neg60_id8_im20.bmp,['Im_HughJackman.png', 'Im_GeorgeClooney.png', 'Im_BenAffleck.png', 'Im_LeonardoDiCaprio.png', 'Im_BradPitt.png', 'Im_BenStiller.png', 'Im_RyanGosling.png', 'Im_JustinTimberlake.png', 'Im_MattDamon.png', 'Im_DanielCraig.png'],same,1,0.41675129999930505,8,83.33333333333333,
PIFR3008,3,neg,120,neg120_id1_im21.bmp_neg120_id1_im4.bmp,['Im_HughJackman.png', 'Im_GeorgeClooney.png', 'Im_BenAffleck.png', 'Im_LeonardoDiCaprio.png', 'Im_BradPitt.png', 'Im_BenStiller.png', 'Im_RyanGosling.png', 'Im_JustinTimberlake.png', 'Im_MattDamon.png', 'Im_DanielCraig.png'],same,1,0.4249106000006577,9,83.33333333333333,
PIFR3008,3,neg,60,neg60_id20_im3.bmp_neg60_id20_im12.bmp,['Im_HughJackman.png', 'Im_GeorgeClooney.png', 'Im_BenAffleck.png', 'Im_LeonardoDiCaprio.png', 'Im_BradPitt.png', 'Im_BenStiller.png', 'Im_RyanGosling.png', 'Im_JustinTimberlake.png', 'Im_MattDamon.png', 'Im_DanielCraig.png'],same,1,0.40846010000041133,10,83.33333333333333,
PIFR3008,3,neg,0,neg0_id2_im2.bmp_neg0_id2_im16.bmp,['Im_HughJackman.png', 'Im_GeorgeClooney.png', 'Im_BenAffleck.png', 'Im_LeonardoDiCaprio.png', 'Im_BradPitt.png', 'Im_BenStiller.png', 'Im_RyanGosling.png', 'Im_JustinTimberlake.png', 'Im_MattDamon.png', 'Im_DanielCraig.png'],diff,0,0.8503398000002562,10,83.33333333333333,
PIFR3008,3,neg,fs,negfs_id7_im15.bmp_negfs_id7_im26.bmp,['Im_HughJackman.png', 'Im_GeorgeClooney.png', 'Im_BenAffleck.png', 'Im_LeonardoDiCaprio.png', 'Im_BradPitt.png', 'Im_BenStiller.png', 'Im_RyanGosling.png', 'Im_JustinTimberlake.png', 'Im_MattDamon.png', 'Im_DanielCraig.png'],same,1,0.42510310000034224,11,83.33333333333333,
PIFR3008,3,neg,30,neg30_id2_im2.bmp_neg30_id7_im26.bmp,['Im_HughJackman.png', 'Im_GeorgeClooney.png', 'Im_BenAffleck.png', 'Im_LeonardoDiCaprio.png', 'Im_BradPitt.png', 'Im_BenStiller.png', 'Im_RyanGosling.png', 'Im_JustinTimberlake.png', 'Im_MattDamon.png', 'Im_DanielCraig.png'],diff,1,0.41673220000029687,12,83.33333333333333,
PIFR3008,3,neg,0,neg0_id3_im6.bmp_neg0_id10_im17.bmp,['Im_HughJackman.png', 'Im_GeorgeClooney.png', 'Im_BenAffleck.png', 'Im_LeonardoDiCaprio.png', 'Im_BradPitt.png', 'Im_BenStiller.png', 'Im_RyanGosling.png', 'Im_JustinTimberlake.png', 'Im_MattDamon.png', 'Im_DanielCraig.png'],diff,1,1.0750613000000158,13,83.33333333333333,
PIFR3008,4,inv,90,pos90_id4_im20.bmp_pos90_id4_im7.bmp,['Im_HughJackman.png', 'Im_GeorgeClooney.png', 'Im_BenAffleck.png', 'Im_LeonardoDiCaprio.png', 'Im_BradPitt.png', 'Im_BenStiller.png', 'Im_RyanGosling.png', 'Im_JustinTimberlake.png', 'Im_MattDamon.png', 'Im_DanielCraig.png'],same,1,0.4249006999998528,14,83.33333333333333,
PIFR3008,4,inv,120,pos120_id3_im8.bmp_pos120_id3_im6.bmp,['Im_HughJackman.png', 'Im_GeorgeClooney.png', 'Im_BenAffleck.png', 'Im_LeonardoDiCaprio.png', 'Im_BradPitt.png', 'Im_BenStiller.png', 'Im_RyanGosling.png', 'Im_JustinTimberlake.png', 'Im_MattDamon.png', 'Im_DanielCraig.png'],same,1,0.6335699000001114,15,83.33333333333333,
PIFR3008,4,inv,90,pos90_id1_im21.bmp_pos90_id1_im4.bmp,['Im_HughJackman.png', 'Im_GeorgeClooney.png', 'Im_BenAffleck.png', 'Im_LeonardoDiCaprio.png', 'Im_BradPitt.png', 'Im_BenStiller.png', 'Im_RyanGosling.png', 'Im_JustinTimberlake.png', 'Im_MattDamon.png', 'Im_DanielCraig.png'],same,1,0.4166018999994776,16,83.33333333333333,
PIFR3008,4,inv,30,pos30_id2_im3.bmp_pos30_id2_im16.bmp,['Im_HughJackman.png', 'Im_GeorgeClooney.png', 'Im_BenAffleck.png', 'Im_LeonardoDiCaprio.png', 'Im_BradPitt.png', 'Im_BenStiller.png', 'Im_RyanGosling.png', 'Im_JustinTimberlake.png', 'Im_MattDamon.png', 'Im_DanielCraig.png'],same,1,1.066522399999485,17,83.33333333333333,
PIFR3008,4,inv,30,pos30_id10_im1.bmp_pos30_id10_im17.bmp,['Im_HughJackman.png', 'Im_GeorgeClooney.png', 'Im_BenAffleck.png', 'Im_LeonardoDiCaprio.png', 'Im_BradPitt.png', 'Im_BenStiller.png', 'Im_RyanGosling.png', 'Im_JustinTimberlake.png', 'Im_MattDamon.png', 'Im_DanielCraig.png'],same,1,0.424955499999669,18,83.33333333333333,
PIFR3008,4,inv,150,pos150_id14_im18.bmp_pos150_id14_im24.bmp,['Im_HughJackman.png', 'Im_GeorgeClooney.png', 'Im_BenAffleck.png', 'Im_LeonardoDiCaprio.png', 'Im_BradPitt.png', 'Im_BenStiller.png', 'Im_RyanGosling.png', 'Im_JustinTimberlake.png', 'Im_MattDamon.png', 'Im_DanielCraig.png'],diff,0,0.42501439999978174,18,83.33333333333333,
PIFR3008,4,inv,150,pos150_id10_im18.bmp_pos150_id10_im1.bmp,['Im_HughJackman.png', 'Im_GeorgeClooney.png', 'Im_BenAffleck.png', 'Im_LeonardoDiCaprio.png', 'Im_BradPitt.png', 'Im_BenStiller.png', 'Im_RyanGosling.png', 'Im_JustinTimberlake.png', 'Im_MattDamon.png', 'Im_DanielCraig.png'],same,1,0.4167040000002089,19,83.33333333333333,
PIFR3008,4,inv,fs,posfs_id7_im26.bmp_posfs_id7_im14.bmp,['Im_HughJackman.png', 'Im_GeorgeClooney.png', 'Im_BenAffleck.png', 'Im_LeonardoDiCaprio.png', 'Im_BradPitt.png', 'Im_BenStiller.png', 'Im_RyanGosling.png', 'Im_JustinTimberlake.png', 'Im_MattDamon.png', 'Im_DanielCraig.png'],same,1,0.4334607999999207,20,83.33333333333333,
PIFR3008,4,inv,0,pos0_id8_im21.bmp_pos0_id3_im8.bmp,['Im_HughJackman.png', 'Im_GeorgeClooney.png', 'Im_BenAffleck.png', 'Im_LeonardoDiCaprio.png', 'Im_BradPitt.png', 'Im_BenStiller.png', 'Im_RyanGosling.png', 'Im_JustinTimberlake.png', 'Im_MattDamon.png', 'Im_DanielCraig.png'],same,0,0.42510760000004666,20,83.33333333333333,
PIFR3008,4,inv,fs,posfs_id13_im15.bmp_posfs_id20_im12.bmp,['Im_HughJackman.png', 'Im_GeorgeClooney.png', 'Im_BenAffleck.png', 'Im_LeonardoDiCaprio.png', 'Im_BradPitt.png', 'Im_BenStiller.png', 'Im_RyanGosling.png', 'Im_JustinTimberlake.png', 'Im_MattDamon.png', 'Im_DanielCraig.png'],diff,1,0.4083934999998746,21,83.33333333333333,
PIFR3008,4,inv,60,pos60_id8_im21.bmp_pos60_id20_im3.bmp,['Im_HughJackman.png', 'Im_GeorgeClooney.png', 'Im_BenAffleck.png', 'Im_LeonardoDiCaprio.png', 'Im_BradPitt.png', 'Im_BenStiller.png', 'Im_RyanGosling.png', 'Im_JustinTimberlake.png', 'Im_MattDamon.png', 'Im_DanielCraig.png'],same,0,0.42522439999993367,21,83.33333333333333,
PIFR3008,4,inv,120,pos120_id20_im3.bmp_pos120_id20_im30.bmp,['Im_HughJackman.png', 'Im_GeorgeClooney.png', 'Im_BenAffleck.png', 'Im_LeonardoDiCaprio.png', 'Im_BradPitt.png', 'Im_BenStiller.png', 'Im_RyanGosling.png', 'Im_JustinTimberlake.png', 'Im_MattDamon.png', 'Im_DanielCraig.png'],same,1,0.42510459999994055,22,83.33333333333333,
PIFR3008,4,inv,0,pos0_id1_im21.bmp_pos0_id1_im24.bmp,['Im_HughJackman.png', 'Im_GeorgeClooney.png', 'Im_BenAffleck.png', 'Im_LeonardoDiCaprio.png', 'Im_BradPitt.png', 'Im_BenStiller.png', 'Im_RyanGosling.png', 'Im_JustinTimberlake.png', 'Im_MattDamon.png', 'Im_DanielCraig.png'],same,1,0.43337659999997413,23,83.33333333333333,
PIFR3008,4,inv,60,pos60_id10_im18.bmp_pos60_id10_im1.bmp,['Im_HughJackman.png', 'Im_GeorgeClooney.png', 'Im_BenAffleck.png', 'Im_LeonardoDiCaprio.png', 'Im_BradPitt.png', 'Im_BenStiller.png', 'Im_RyanGosling.png', 'Im_JustinTimberlake.png', 'Im_MattDamon.png', 'Im_DanielCraig.png'],same,1,0.41691830000036134,24,83.33333333333333,
PIFR3008,5,pos,120,pos120_id20_im3.bmp_pos120_id20_im30.bmp,['Im_HughJackman.png', 'Im_GeorgeClooney.png', 'Im_BenAffleck.png', 'Im_LeonardoDiCaprio.png', 'Im_BradPitt.png', 'Im_BenStiller.png', 'Im_RyanGosling.png', 'Im_JustinTimberlake.png', 'Im_MattDamon.png', 'Im_DanielCraig.png'],same,1,0.4167526999999609,25,83.33333333333333,
PIFR3008,5,pos,150,pos150_id7_im15.bmp_pos150_id14_im18.bmp,['Im_HughJackman.png', 'Im_GeorgeClooney.png', 'Im_BenAffleck.png', 'Im_LeonardoDiCaprio.png', 'Im_BradPitt.png', 'Im_BenStiller.png', 'Im_RyanGosling.png', 'Im_JustinTimberlake.png', 'Im_MattDamon.png', 'Im_DanielCraig.png'],diff,1,0.40838150000035967,26,83.33333333333333,
PIFR3008,5,pos,30,pos30_id8_im21.bmp_pos30_id20_im3.bmp,['Im_HughJackman.png', 'Im_GeorgeClooney.png', 'Im_BenAffleck.png', 'Im_LeonardoDiCaprio.png', 'Im_BradPitt.png', 'Im_BenStiller.png', 'Im_RyanGosling.png', 'Im_JustinTimberlake.png', 'Im_MattDamon.png', 'Im_DanielCraig.png'],diff,1,0.41697730000032607,27,83.33333333333333,
PIFR3008,5,pos,90,pos90_id14_im16.bmp_pos90_id14_im24.bmp,['Im_HughJackman.png', 'Im_GeorgeClooney.png', 'Im_BenAffleck.png', 'Im_LeonardoDiCaprio.png', 'Im_BradPitt.png', 'Im_BenStiller.png', 'Im_RyanGosling.png', 'Im_JustinTimberlake.png', 'Im_MattDamon.png', 'Im_DanielCraig.png'],same,1,0.4167617999992217,28,83.33333333333333,
PIFR3008,5,pos,0,pos0_id14_im18.bmp_pos0_id14_im24.bmp,['Im_HughJackman.png', 'Im_GeorgeClooney.png', 'Im_BenAffleck.png', 'Im_LeonardoDiCaprio.png', 'Im_BradPitt.png', 'Im_BenStiller.png', 'Im_RyanGosling.png', 'Im_JustinTimberlake.png', 'Im_MattDamon.png', 'Im_DanielCraig.png'],same,1,0.4251494999998613,29,83.33333333333333,
PIFR3008,5,pos,60,pos60_id1_im24.bmp_pos60_id1_im21.bmp,['Im_HughJackman.png', 'Im_GeorgeClooney.png', 'Im_BenAffleck.png', 'Im_LeonardoDiCaprio.png', 'Im_BradPitt.png', 'Im_BenStiller.png', 'Im_RyanGosling.png', 'Im_JustinTimberlake.png', 'Im_MattDamon.png', 'Im_DanielCraig.png'],same,1,0.4083736000002318,30,83.33333333333333,
PIFR3008,5,pos,90,pos90_id8_im21.bmp_pos90_id20_im3.bmp,['Im_HughJackman.png', 'Im_GeorgeClooney.png', 'Im_BenAffleck.png', 'Im_LeonardoDiCaprio.png', 'Im_BradPitt.png', 'Im_BenStiller.png', 'Im_RyanGosling.png', 'Im_JustinTimberlake.png', 'Im_MattDamon.png', 'Im_DanielCraig.png'],diff,1,0.42499669999961043,31,83.33333333333333,
PIFR3008,5,pos,fs,posfs_id10_im17.bmp_posfs_id10_im1.bmp,['Im_HughJackman.png', 'Im_GeorgeClooney.png', 'Im_BenAffleck.png', 'Im_LeonardoDiCaprio.png', 'Im_BradPitt.png', 'Im_BenStiller.png', 'Im_RyanGosling.png', 'Im_JustinTimberlake.png', 'Im_MattDamon.png', 'Im_DanielCraig.png'],same,1,0.41669459999957326,32,83.33333333333333,
PIFR3008,5,pos,fs,posfs_id13_im15.bmp_posfs_id20_im12.bmp,['Im_HughJackman.png', 'Im_GeorgeClooney.png', 'Im_BenAffleck.png', 'Im_LeonardoDiCaprio.png', 'Im_BradPitt.png', 'Im_BenStiller.png', 'Im_RyanGosling.png', 'Im_JustinTimberlake.png', 'Im_MattDamon.png', 'Im_DanielCraig.png'],diff,1,0.40833089999978256,33,83.33333333333333,
PIFR3008,5,pos,150,pos150_id20_im30.bmp_pos150_id14_im24.bmp,['Im_HughJackman.png', 'Im_GeorgeClooney.png', 'Im_BenAffleck.png', 'Im_LeonardoDiCaprio.png', 'Im_BradPitt.png', 'Im_BenStiller.png', 'Im_RyanGosling.png', 'Im_JustinTimberlake.png', 'Im_MattDamon.png', 'Im_DanielCraig.png'],diff,1,0.4084050000001298,34,83.33333333333333,
PIFR3008,5,pos,30,pos30_id4_im20.bmp_pos30_id4_im15.bmp,['Im_HughJackman.png', 'Im_GeorgeClooney.png', 'Im_BenAffleck.png', 'Im_LeonardoDiCaprio.png', 'Im_BradPitt.png', 'Im_BenStiller.png', 'Im_RyanGosling.png', 'Im_JustinTimberlake.png', 'Im_MattDamon.png', 'Im_DanielCraig.png'],same,1,0.40836989999934303,35,83.33333333333333,
PIFR3008,5,pos,120,pos120_id2_im16.bmp_pos120_id2_im3.bmp,['Im_HughJackman.png', 'Im_GeorgeClooney.png', 'Im_BenAffleck.png', 'Im_LeonardoDiCaprio.png', 'Im_BradPitt.png', 'Im_BenStiller.png', 'Im_RyanGosling.png', 'Im_JustinTimberlake.png', 'Im_MattDamon.png', 'Im_DanielCraig.png'],same,1,0.41666319999967527,36,83.33333333333333,
PIFR3008,5,pos,0,pos0_id20_im3.bmp_pos0_id20_im30.bmp,['Im_HughJackman.png', 'Im_GeorgeClooney.png', 'Im_BenAffleck.png', 'Im_LeonardoDiCaprio.png', 'Im_BradPitt.png', 'Im_BenStiller.png', 'Im_RyanGosling.png', 'Im_JustinTimberlake.png', 'Im_MattDamon.png', 'Im_DanielCraig.png'],diff,0,0.416707000000315,36,83.33333333333333,
PIFR3008,5,pos,60,pos60_id14_im18.bmp_pos60_id14_im24.bmp,['Im_HughJackman.png', 'Im_GeorgeClooney.png', 'Im_BenAffleck.png', 'Im_LeonardoDiCaprio.png', 'Im_BradPitt.png', 'Im_BenStiller.png', 'Im_RyanGosling.png', 'Im_JustinTimberlake.png', 'Im_MattDamon.png', 'Im_DanielCraig.png'],same,1,0.41683780000039405,37,83.33333333333333,
PIFR3008,6,neg,30,neg30_id20_im12.bmp_neg30_id20_im3.bmp,['Im_HughJackman.png', 'Im_GeorgeClooney.png', 'Im_BenAffleck.png', 'Im_LeonardoDiCaprio.png', 'Im_BradPitt.png', 'Im_BenStiller.png', 'Im_RyanGosling.png', 'Im_JustinTimberlake.png', 'Im_MattDamon.png', 'Im_DanielCraig.png'],same,1,0.4167424999996001,1,88.0952380952381,
PIFR3008,6,neg,60,neg60_id1_im4.bmp_neg60_id1_im24.bmp,['Im_HughJackman.png', 'Im_GeorgeClooney.png', 'Im_BenAffleck.png', 'Im_LeonardoDiCaprio.png', 'Im_BradPitt.png', 'Im_BenStiller.png', 'Im_RyanGosling.png', 'Im_JustinTimberlake.png', 'Im_MattDamon.png', 'Im_DanielCraig.png'],same,1,0.42501420000007784,2,88.0952380952381,
PIFR3008,6,neg,30,neg30_id2_im3.bmp_neg30_id2_im2.bmp,['Im_HughJackman.png', 'Im_GeorgeClooney.png', 'Im_BenAffleck.png', 'Im_LeonardoDiCaprio.png', 'Im_BradPitt.png', 'Im_BenStiller.png', 'Im_RyanGosling.png', 'Im_JustinTimberlake.png', 'Im_MattDamon.png', 'Im_DanielCraig.png'],same,1,0.4168079000000944,3,88.0952380952381,
PIFR3008,6,neg,90,neg90_id8_im21.bmp_neg90_id8_im20.bmp,['Im_HughJackman.png', 'Im_GeorgeClooney.png', 'Im_BenAffleck.png', 'Im_LeonardoDiCaprio.png', 'Im_BradPitt.png', 'Im_BenStiller.png', 'Im_RyanGosling.png', 'Im_JustinTimberlake.png', 'Im_MattDamon.png', 'Im_DanielCraig.png'],same,1,0.4167899000003672,4,88.0952380952381,
PIFR3008,6,neg,120,neg120_id3_im6.bmp_neg120_id3_im17.bmp,['Im_HughJackman.png', 'Im_GeorgeClooney.png', 'Im_BenAffleck.png', 'Im_LeonardoDiCaprio.png', 'Im_BradPitt.png', 'Im_BenStiller.png', 'Im_RyanGosling.png', 'Im_JustinTimberlake.png', 'Im_MattDamon.png', 'Im_DanielCraig.png'],same,1,0.41672529999959806,5,88.0952380952381,
PIFR3008,6,neg,0,neg0_id20_im30.bmp_neg0_id20_im3.bmp,['Im_HughJackman.png', 'Im_GeorgeClooney.png', 'Im_BenAffleck.png', 'Im_LeonardoDiCaprio.png', 'Im_BradPitt.png', 'Im_BenStiller.png', 'Im_RyanGosling.png', 'Im_JustinTimberlake.png', 'Im_MattDamon.png', 'Im_DanielCraig.png'],same,1,0.4250910999999178,6,88.0952380952381,
PIFR3008,6,neg,fs,negfs_id1_im21.bmp_negfs_id1_im4.bmp,['Im_HughJackman.png', 'Im_GeorgeClooney.png', 'Im_BenAffleck.png', 'Im_LeonardoDiCaprio.png', 'Im_BradPitt.png', 'Im_BenStiller.png', 'Im_RyanGosling.png', 'Im_JustinTimberlake.png', 'Im_MattDamon.png', 'Im_DanielCraig.png'],same,1,0.41683219999958965,7,88.0952380952381,
PIFR3008,6,neg,150,neg150_id7_im15.bmp_neg150_id7_im26.bmp,['Im_HughJackman.png', 'Im_GeorgeClooney.png', 'Im_BenAffleck.png', 'Im_LeonardoDiCaprio.png', 'Im_BradPitt.png', 'Im_BenStiller.png', 'Im_RyanGosling.png', 'Im_JustinTimberlake.png', 'Im_MattDamon.png', 'Im_DanielCraig.png'],same,1,0.4250883000004251,8,88.0952380952381,
PIFR3008,6,neg,60,neg60_id7_im15.bmp_neg60_id14_im18.bmp,['Im_HughJackman.png', 'Im_GeorgeClooney.png', 'Im_BenAffleck.png', 'Im_LeonardoDiCaprio.png', 'Im_BradPitt.png', 'Im_BenStiller.png', 'Im_RyanGosling.png', 'Im_JustinTimberlake.png', 'Im_MattDamon.png', 'Im_DanielCraig.png'],diff,1,0.42507500000010623,9,88.0952380952381,
PIFR3008,6,neg,150,neg150_id3_im17.bmp_neg150_id3_im8.bmp,['Im_HughJackman.png', 'Im_GeorgeClooney.png', 'Im_BenAffleck.png', 'Im_LeonardoDiCaprio.png', 'Im_BradPitt.png', 'Im_BenStiller.png', 'Im_RyanGosling.png', 'Im_JustinTimberlake.png', 'Im_MattDamon.png', 'Im_DanielCraig.png'],same,1,0.4166917000002286,10,88.0952380952381,
PIFR3008,6,neg,fs,negfs_id7_im15.bmp_negfs_id7_im14.bmp,['Im_HughJackman.png', 'Im_GeorgeClooney.png', 'Im_BenAffleck.png', 'Im_LeonardoDiCaprio.png', 'Im_BradPitt.png', 'Im_BenStiller.png', 'Im_RyanGosling.png', 'Im_JustinTimberlake.png', 'Im_MattDamon.png', 'Im_DanielCraig.png'],same,1,0.41675059999943187,11,88.0952380952381,
PIFR3008,6,neg,90,neg90_id20_im30.bmp_neg90_id20_im12.bmp,['Im_HughJackman.png', 'Im_GeorgeClooney.png', 'Im_BenAffleck.png', 'Im_LeonardoDiCaprio.png', 'Im_BradPitt.png', 'Im_BenStiller.png', 'Im_RyanGosling.png', 'Im_JustinTimberlake.png', 'Im_MattDamon.png', 'Im_DanielCraig.png'],same,1,0.42511889999968844,12,88.0952380952381,
PIFR3008,6,neg,120,neg120_id10_im1.bmp_neg120_id10_im18.bmp,['Im_HughJackman.png', 'Im_GeorgeClooney.png', 'Im_BenAffleck.png', 'Im_LeonardoDiCaprio.png', 'Im_BradPitt.png', 'Im_BenStiller.png', 'Im_RyanGosling.png', 'Im_JustinTimberlake.png', 'Im_MattDamon.png', 'Im_DanielCraig.png'],same,1,0.4167434000000867,13,88.0952380952381,
PIFR3008,6,neg,0,neg0_id3_im6.bmp_neg0_id1_im4.bmp,['Im_HughJackman.png', 'Im_GeorgeClooney.png', 'Im_BenAffleck.png', 'Im_LeonardoDiCaprio.png', 'Im_BradPitt.png', 'Im_BenStiller.png', 'Im_RyanGosling.png', 'Im_JustinTimberlake.png', 'Im_MattDamon.png', 'Im_DanielCraig.png'],diff,1,0.4167520999999397,14,88.0952380952381,
PIFR3008,7,inv,150,pos150_id2_im2.bmp_pos150_id7_im15.bmp,['Im_HughJackman.png', 'Im_GeorgeClooney.png', 'Im_BenAffleck.png', 'Im_LeonardoDiCaprio.png', 'Im_BradPitt.png', 'Im_BenStiller.png', 'Im_RyanGosling.png', 'Im_JustinTimberlake.png', 'Im_MattDamon.png', 'Im_DanielCraig.png'],diff,1,0.4166704999997819,15,88.0952380952381,
PIFR3008,7,inv,0,pos0_id1_im4.bmp_pos0_id3_im6.bmp,['Im_HughJackman.png', 'Im_GeorgeClooney.png', 'Im_BenAffleck.png', 'Im_LeonardoDiCaprio.png', 'Im_BradPitt.png', 'Im_BenStiller.png', 'Im_RyanGosling.png', 'Im_JustinTimberlake.png', 'Im_MattDamon.png', 'Im_DanielCraig.png'],diff,1,0.4084069000000454,16,88.0952380952381,
PIFR3008,7,inv,120,pos120_id2_im2.bmp_pos120_id2_im3.bmp,['Im_HughJackman.png', 'Im_GeorgeClooney.png', 'Im_BenAffleck.png', 'Im_LeonardoDiCaprio.png', 'Im_BradPitt.png', 'Im_BenStiller.png', 'Im_RyanGosling.png', 'Im_JustinTimberlake.png', 'Im_MattDamon.png', 'Im_DanielCraig.png'],same,1,0.40843799999947805,17,88.0952380952381,
PIFR3008,7,inv,30,pos30_id8_im13.bmp_pos30_id14_im24.bmp,['Im_HughJackman.png', 'Im_GeorgeClooney.png', 'Im_BenAffleck.png', 'Im_LeonardoDiCaprio.png', 'Im_BradPitt.png', 'Im_BenStiller.png', 'Im_RyanGosling.png', 'Im_JustinTimberlake.png', 'Im_MattDamon.png', 'Im_DanielCraig.png'],same,0,0.4167574000002787,17,88.0952380952381,
PIFR3008,7,inv,90,pos90_id1_im4.bmp_pos90_id4_im7.bmp,['Im_HughJackman.png', 'Im_GeorgeClooney.png', 'Im_BenAffleck.png', 'Im_LeonardoDiCaprio.png', 'Im_BradPitt.png', 'Im_BenStiller.png', 'Im_RyanGosling.png', 'Im_JustinTimberlake.png', 'Im_MattDamon.png', 'Im_DanielCraig.png'],same,0,0.41673249999985273,17,88.0952380952381,
PIFR3008,7,inv,60,pos60_id10_im17.bmp_pos60_id10_im18.bmp,['Im_HughJackman.png', 'Im_GeorgeClooney.png', 'Im_BenAffleck.png', 'Im_LeonardoDiCaprio.png', 'Im_BradPitt.png', 'Im_BenStiller.png', 'Im_RyanGosling.png', 'Im_JustinTimberlake.png', 'Im_MattDamon.png', 'Im_DanielCraig.png'],same,1,0.6334478999997373,18,88.0952380952381,
PIFR3008,7,inv,90,pos90_id14_im18.bmp_pos90_id13_im10.bmp,['Im_HughJackman.png', 'Im_GeorgeClooney.png', 'Im_BenAffleck.png', 'Im_LeonardoDiCaprio.png', 'Im_BradPitt.png', 'Im_BenStiller.png', 'Im_RyanGosling.png', 'Im_JustinTimberlake.png', 'Im_MattDamon.png', 'Im_DanielCraig.png'],same,0,0.42506370000046445,18,88.0952380952381,
PIFR3008,7,inv,fs,posfs_id1_im21.bmp_posfs_id1_im4.bmp,['Im_HughJackman.png', 'Im_GeorgeClooney.png', 'Im_BenAffleck.png', 'Im_LeonardoDiCaprio.png', 'Im_BradPitt.png', 'Im_BenStiller.png', 'Im_RyanGosling.png', 'Im_JustinTimberlake.png', 'Im_MattDamon.png', 'Im_DanielCraig.png'],same,1,0.4166459999996732,19,88.0952380952381,
PIFR3008,7,inv,150,pos150_id4_im15.bmp_pos150_id4_im20.bmp,['Im_HughJackman.png', 'Im_GeorgeClooney.png', 'Im_BenAffleck.png', 'Im_LeonardoDiCaprio.png', 'Im_BradPitt.png', 'Im_BenStiller.png', 'Im_RyanGosling.png', 'Im_JustinTimberlake.png', 'Im_MattDamon.png', 'Im_DanielCraig.png'],same,1,0.41677419999996346,20,88.0952380952381,
PIFR3008,7,inv,0,pos0_id3_im6.bmp_pos0_id3_im17.bmp,['Im_HughJackman.png', 'Im_GeorgeClooney.png', 'Im_BenAffleck.png', 'Im_LeonardoDiCaprio.png', 'Im_BradPitt.png', 'Im_BenStiller.png', 'Im_RyanGosling.png', 'Im_JustinTimberlake.png', 'Im_MattDamon.png', 'Im_DanielCraig.png'],same,1,0.416789200000494,21,88.0952380952381,
PIFR3008,7,inv,30,pos30_id14_im16.bmp_pos30_id7_im26.bmp,['Im_HughJackman.png', 'Im_GeorgeClooney.png', 'Im_BenAffleck.png', 'Im_LeonardoDiCaprio.png', 'Im_BradPitt.png', 'Im_BenStiller.png', 'Im_RyanGosling.png', 'Im_JustinTimberlake.png', 'Im_MattDamon.png', 'Im_DanielCraig.png'],diff,1,0.4082416999999623,22,88.0952380952381,
PIFR3008,7,inv,60,pos60_id2_im16.bmp_pos60_id14_im16.bmp,['Im_HughJackman.png', 'Im_GeorgeClooney.png', 'Im_BenAffleck.png', 'Im_LeonardoDiCaprio.png', 'Im_BradPitt.png', 'Im_BenStiller.png', 'Im_RyanGosling.png', 'Im_JustinTimberlake.png', 'Im_MattDamon.png', 'Im_DanielCraig.png'],same,0,0.41674390000025596,22,88.0952380952381,
PIFR3008,7,inv,120,pos120_id2_im2.bmp_pos120_id7_im15.bmp,['Im_HughJackman.png', 'Im_GeorgeClooney.png', 'Im_BenAffleck.png', 'Im_LeonardoDiCaprio.png', 'Im_BradPitt.png', 'Im_BenStiller.png', 'Im_RyanGosling.png', 'Im_JustinTimberlake.png', 'Im_MattDamon.png', 'Im_DanielCraig.png'],diff,1,0.41674259999945207,23,88.0952380952381,
PIFR3008,7,inv,fs,posfs_id2_im3.bmp_posfs_id2_im2.bmp,['Im_HughJackman.png', 'Im_GeorgeClooney.png', 'Im_BenAffleck.png', 'Im_LeonardoDiCaprio.png', 'Im_BradPitt.png', 'Im_BenStiller.png', 'Im_RyanGosling.png', 'Im_JustinTimberlake.png', 'Im_MattDamon.png', 'Im_DanielCraig.png'],same,1,0.40834329999961483,24,88.0952380952381,
PIFR3008,8,neg,60,neg60_id2_im16.bmp_neg60_id2_im3.bmp,['Im_HughJackman.png', 'Im_GeorgeClooney.png', 'Im_BenAffleck.png', 'Im_LeonardoDiCaprio.png', 'Im_BradPitt.png', 'Im_BenStiller.png', 'Im_RyanGosling.png', 'Im_JustinTimberlake.png', 'Im_MattDamon.png', 'Im_DanielCraig.png'],same,1,0.43330690000038885,25,88.0952380952381,
PIFR3008,8,neg,fs,negfs_id10_im17.bmp_negfs_id10_im18.bmp,['Im_HughJackman.png', 'Im_GeorgeClooney.png', 'Im_BenAffleck.png', 'Im_LeonardoDiCaprio.png', 'Im_BradPitt.png', 'Im_BenStiller.png', 'Im_RyanGosling.png', 'Im_JustinTimberlake.png', 'Im_MattDamon.png', 'Im_DanielCraig.png'],same,1,0.4166849999992337,26,88.0952380952381,
PIFR3008,8,neg,120,neg120_id3_im8.bmp_neg120_id3_im6.bmp,['Im_HughJackman.png', 'Im_GeorgeClooney.png', 'Im_BenAffleck.png', 'Im_LeonardoDiCaprio.png', 'Im_BradPitt.png', 'Im_BenStiller.png', 'Im_RyanGosling.png', 'Im_JustinTimberlake.png', 'Im_MattDamon.png', 'Im_DanielCraig.png'],same,1,0.40858829999979207,27,88.0952380952381,
PIFR3008,8,neg,0,neg0_id3_im17.bmp_neg0_id3_im8.bmp,['Im_HughJackman.png', 'Im_GeorgeClooney.png', 'Im_BenAffleck.png', 'Im_LeonardoDiCaprio.png', 'Im_BradPitt.png', 'Im_BenStiller.png', 'Im_RyanGosling.png', 'Im_JustinTimberlake.png', 'Im_MattDamon.png', 'Im_DanielCraig.png'],diff,0,0.42508189999989554,27,88.0952380952381,
PIFR3008,8,neg,150,neg150_id14_im18.bmp_neg150_id14_im16.bmp,['Im_HughJackman.png', 'Im_GeorgeClooney.png', 'Im_BenAffleck.png', 'Im_LeonardoDiCaprio.png', 'Im_BradPitt.png', 'Im_BenStiller.png', 'Im_RyanGosling.png', 'Im_JustinTimberlake.png', 'Im_MattDamon.png', 'Im_DanielCraig.png'],same,1,0.43349550000039017,28,88.0952380952381,
PIFR3008,8,neg,30,neg30_id10_im18.bmp_neg30_id10_im17.bmp,['Im_HughJackman.png', 'Im_GeorgeClooney.png', 'Im_BenAffleck.png', 'Im_LeonardoDiCaprio.png', 'Im_BradPitt.png', 'Im_BenStiller.png', 'Im_RyanGosling.png', 'Im_JustinTimberlake.png', 'Im_MattDamon.png', 'Im_DanielCraig.png'],same,1,0.42515670000011596,29,88.0952380952381,
PIFR3008,8,neg,90,neg90_id8_im21.bmp_neg90_id8_im13.bmp,['Im_HughJackman.png', 'Im_GeorgeClooney.png', 'Im_BenAffleck.png', 'Im_LeonardoDiCaprio.png', 'Im_BradPitt.png', 'Im_BenStiller.png', 'Im_RyanGosling.png', 'Im_JustinTimberlake.png', 'Im_MattDamon.png', 'Im_DanielCraig.png'],same,1,1.1250761999999668,30,88.0952380952381,
PIFR3008,8,neg,fs,negfs_id1_im21.bmp_negfs_id3_im8.bmp,['Im_HughJackman.png', 'Im_GeorgeClooney.png', 'Im_BenAffleck.png', 'Im_LeonardoDiCaprio.png', 'Im_BradPitt.png', 'Im_BenStiller.png', 'Im_RyanGosling.png', 'Im_JustinTimberlake.png', 'Im_MattDamon.png', 'Im_DanielCraig.png'],same,0,0.41675320000013016,30,88.0952380952381,
PIFR3008,8,neg,120,neg120_id4_im7.bmp_neg120_id4_im20.bmp,['Im_HughJackman.png', 'Im_GeorgeClooney.png', 'Im_BenAffleck.png', 'Im_LeonardoDiCaprio.png', 'Im_BradPitt.png', 'Im_BenStiller.png', 'Im_RyanGosling.png', 'Im_JustinTimberlake.png', 'Im_MattDamon.png', 'Im_DanielCraig.png'],same,1,0.4166871000006722,31,88.0952380952381,
PIFR3008,8,neg,30,neg30_id13_im10.bmp_neg30_id13_im15.bmp,['Im_HughJackman.png', 'Im_GeorgeClooney.png', 'Im_BenAffleck.png', 'Im_LeonardoDiCaprio.png', 'Im_BradPitt.png', 'Im_BenStiller.png', 'Im_RyanGosling.png', 'Im_JustinTimberlake.png', 'Im_MattDamon.png', 'Im_DanielCraig.png'],same,1,0.42508060000000114,32,88.0952380952381,
PIFR3008,8,neg,90,neg90_id1_im24.bmp_neg90_id4_im7.bmp,['Im_HughJackman.png', 'Im_GeorgeClooney.png', 'Im_BenAffleck.png', 'Im_LeonardoDiCaprio.png', 'Im_BradPitt.png', 'Im_BenStiller.png', 'Im_RyanGosling.png', 'Im_JustinTimberlake.png', 'Im_MattDamon.png', 'Im_DanielCraig.png'],diff,1,0.433494800000517,33,88.0952380952381,
PIFR3008,8,neg,0,neg0_id8_im13.bmp_neg0_id8_im21.bmp,['Im_HughJackman.png', 'Im_GeorgeClooney.png', 'Im_BenAffleck.png', 'Im_LeonardoDiCaprio.png', 'Im_BradPitt.png', 'Im_BenStiller.png', 'Im_RyanGosling.png', 'Im_JustinTimberlake.png', 'Im_MattDamon.png', 'Im_DanielCraig.png'],same,1,0.42496200000005047,34,88.0952380952381,
PIFR3008,8,neg,60,neg60_id3_im8.bmp_neg60_id3_im17.bmp,['Im_HughJackman.png', 'Im_GeorgeClooney.png', 'Im_BenAffleck.png', 'Im_LeonardoDiCaprio.png', 'Im_BradPitt.png', 'Im_BenStiller.png', 'Im_RyanGosling.png', 'Im_JustinTimberlake.png', 'Im_MattDamon.png', 'Im_DanielCraig.png'],same,1,0.42508039999938774,35,88.0952380952381,
PIFR3008,8,neg,150,neg150_id20_im3.bmp_neg150_id8_im21.bmp,['Im_HughJackman.png', 'Im_GeorgeClooney.png', 'Im_BenAffleck.png', 'Im_LeonardoDiCaprio.png', 'Im_BradPitt.png', 'Im_BenStiller.png', 'Im_RyanGosling.png', 'Im_JustinTimberlake.png', 'Im_MattDamon.png', 'Im_DanielCraig.png'],diff,1,0.41660400000000664,36,88.0952380952381,
PIFR3008,9,pos,60,pos60_id13_im15.bmp_pos60_id13_im29.bmp,['Im_HughJackman.png', 'Im_GeorgeClooney.png', 'Im_BenAffleck.png', 'Im_LeonardoDiCaprio.png', 'Im_BradPitt.png', 'Im_BenStiller.png', 'Im_RyanGosling.png', 'Im_JustinTimberlake.png', 'Im_MattDamon.png', 'Im_DanielCraig.png'],same,1,0.5001695999999356,1,85.71428571428571,
PIFR3008,9,pos,90,pos90_id14_im24.bmp_pos90_id20_im30.bmp,['Im_HughJackman.png', 'Im_GeorgeClooney.png', 'Im_BenAffleck.png', 'Im_LeonardoDiCaprio.png', 'Im_BradPitt.png', 'Im_BenStiller.png', 'Im_RyanGosling.png', 'Im_JustinTimberlake.png', 'Im_MattDamon.png', 'Im_DanielCraig.png'],diff,1,0.42547149999973044,2,85.71428571428571,
PIFR3008,9,pos,120,pos120_id14_im18.bmp_pos120_id7_im15.bmp,['Im_HughJackman.png', 'Im_GeorgeClooney.png', 'Im_BenAffleck.png', 'Im_LeonardoDiCaprio.png', 'Im_BradPitt.png', 'Im_BenStiller.png', 'Im_RyanGosling.png', 'Im_JustinTimberlake.png', 'Im_MattDamon.png', 'Im_DanielCraig.png'],diff,1,0.4249884999999267,3,85.71428571428571,
PIFR3008,9,pos,90,pos90_id4_im15.bmp_pos90_id4_im7.bmp,['Im_HughJackman.png', 'Im_GeorgeClooney.png', 'Im_BenAffleck.png', 'Im_LeonardoDiCaprio.png', 'Im_BradPitt.png', 'Im_BenStiller.png', 'Im_RyanGosling.png', 'Im_JustinTimberlake.png', 'Im_MattDamon.png', 'Im_DanielCraig.png'],same,1,0.4164393999999447,4,85.71428571428571,
PIFR3008,9,pos,30,pos30_id2_im16.bmp_pos30_id2_im3.bmp,['Im_HughJackman.png', 'Im_GeorgeClooney.png', 'Im_BenAffleck.png', 'Im_LeonardoDiCaprio.png', 'Im_BradPitt.png', 'Im_BenStiller.png', 'Im_RyanGosling.png', 'Im_JustinTimberlake.png', 'Im_MattDamon.png', 'Im_DanielCraig.png'],same,1,0.41675299999951676,5,85.71428571428571,
PIFR3008,9,pos,0,pos0_id14_im16.bmp_pos0_id2_im16.bmp,['Im_HughJackman.png', 'Im_GeorgeClooney.png', 'Im_BenAffleck.png', 'Im_LeonardoDiCaprio.png', 'Im_BradPitt.png', 'Im_BenStiller.png', 'Im_RyanGosling.png', 'Im_JustinTimberlake.png', 'Im_MattDamon.png', 'Im_DanielCraig.png'],diff,1,0.4252779999997074,6,85.71428571428571,
PIFR3008,9,pos,fs,posfs_id14_im24.bmp_posfs_id14_im18.bmp,['Im_HughJackman.png', 'Im_GeorgeClooney.png', 'Im_BenAffleck.png', 'Im_LeonardoDiCaprio.png', 'Im_BradPitt.png', 'Im_BenStiller.png', 'Im_RyanGosling.png', 'Im_JustinTimberlake.png', 'Im_MattDamon.png', 'Im_DanielCraig.png'],same,1,0.4250947999998971,7,85.71428571428571,
PIFR3008,9,pos,fs,posfs_id20_im30.bmp_posfs_id14_im24.bmp,['Im_HughJackman.png', 'Im_GeorgeClooney.png', 'Im_BenAffleck.png', 'Im_LeonardoDiCaprio.png', 'Im_BradPitt.png', 'Im_BenStiller.png', 'Im_RyanGosling.png', 'Im_JustinTimberlake.png', 'Im_MattDamon.png', 'Im_DanielCraig.png'],diff,1,0.41675000000032014,8,85.71428571428571,
PIFR3008,9,pos,150,pos150_id7_im15.bmp_pos150_id2_im2.bmp,['Im_HughJackman.png', 'Im_GeorgeClooney.png', 'Im_BenAffleck.png', 'Im_LeonardoDiCaprio.png', 'Im_BradPitt.png', 'Im_BenStiller.png', 'Im_RyanGosling.png', 'Im_JustinTimberlake.png', 'Im_MattDamon.png', 'Im_DanielCraig.png'],diff,1,0.4833656000000701,9,85.71428571428571,
PIFR3008,9,pos,150,pos150_id2_im2.bmp_pos150_id2_im3.bmp,['Im_HughJackman.png', 'Im_GeorgeClooney.png', 'Im_BenAffleck.png', 'Im_LeonardoDiCaprio.png', 'Im_BradPitt.png', 'Im_BenStiller.png', 'Im_RyanGosling.png', 'Im_JustinTimberlake.png', 'Im_MattDamon.png', 'Im_DanielCraig.png'],same,1,0.5250208999996175,10,85.71428571428571,
PIFR3008,9,pos,60,pos60_id7_im15.bmp_pos60_id7_im26.bmp,['Im_HughJackman.png', 'Im_GeorgeClooney.png', 'Im_BenAffleck.png', 'Im_LeonardoDiCaprio.png', 'Im_BradPitt.png', 'Im_BenStiller.png', 'Im_RyanGosling.png', 'Im_JustinTimberlake.png', 'Im_MattDamon.png', 'Im_DanielCraig.png'],same,1,0.4250745999997889,11,85.71428571428571,
PIFR3008,9,pos,120,pos120_id1_im4.bmp_pos120_id1_im24.bmp,['Im_HughJackman.png', 'Im_GeorgeClooney.png', 'Im_BenAffleck.png', 'Im_LeonardoDiCaprio.png', 'Im_BradPitt.png', 'Im_BenStiller.png', 'Im_RyanGosling.png', 'Im_JustinTimberlake.png', 'Im_MattDamon.png', 'Im_DanielCraig.png'],same,1,0.4083160999998654,12,85.71428571428571,
PIFR3008,9,pos,30,pos30_id1_im24.bmp_pos30_id10_im17.bmp,['Im_HughJackman.png', 'Im_GeorgeClooney.png', 'Im_BenAffleck.png', 'Im_LeonardoDiCaprio.png', 'Im_BradPitt.png', 'Im_BenStiller.png', 'Im_RyanGosling.png', 'Im_JustinTimberlake.png', 'Im_MattDamon.png', 'Im_DanielCraig.png'],diff,1,0.4168190999998842,13,85.71428571428571,
PIFR3008,9,pos,0,pos0_id3_im6.bmp_pos0_id3_im8.bmp,['Im_HughJackman.png', 'Im_GeorgeClooney.png', 'Im_BenAffleck.png', 'Im_LeonardoDiCaprio.png', 'Im_BradPitt.png', 'Im_BenStiller.png', 'Im_RyanGosling.png', 'Im_JustinTimberlake.png', 'Im_MattDamon.png', 'Im_DanielCraig.png'],same,1,0.42510009999932663,14,85.71428571428571,
PIFR3008,10,pos,fs,posfs_id1_im4.bmp_posfs_id1_im24.bmp,['Im_HughJackman.png', 'Im_GeorgeClooney.png', 'Im_BenAffleck.png', 'Im_LeonardoDiCaprio.png', 'Im_BradPitt.png', 'Im_BenStiller.png', 'Im_RyanGosling.png', 'Im_JustinTimberlake.png', 'Im_MattDamon.png', 'Im_DanielCraig.png'],same,1,0.43340269999953307,15,85.71428571428571,
PIFR3008,10,pos,120,pos120_id13_im10.bmp_pos120_id20_im30.bmp,['Im_HughJackman.png', 'Im_GeorgeClooney.png', 'Im_BenAffleck.png', 'Im_LeonardoDiCaprio.png', 'Im_BradPitt.png', 'Im_BenStiller.png', 'Im_RyanGosling.png', 'Im_JustinTimberlake.png', 'Im_MattDamon.png', 'Im_DanielCraig.png'],diff,1,0.4084101999997074,16,85.71428571428571,
PIFR3008,10,pos,60,pos60_id4_im15.bmp_pos60_id4_im7.bmp,['Im_HughJackman.png', 'Im_GeorgeClooney.png', 'Im_BenAffleck.png', 'Im_LeonardoDiCaprio.png', 'Im_BradPitt.png', 'Im_BenStiller.png', 'Im_RyanGosling.png', 'Im_JustinTimberlake.png', 'Im_MattDamon.png', 'Im_DanielCraig.png'],same,1,0.4167419000004884,17,85.71428571428571,
PIFR3008,10,pos,30,pos30_id8_im21.bmp_pos30_id3_im8.bmp,['Im_HughJackman.png', 'Im_GeorgeClooney.png', 'Im_BenAffleck.png', 'Im_LeonardoDiCaprio.png', 'Im_BradPitt.png', 'Im_BenStiller.png', 'Im_RyanGosling.png', 'Im_JustinTimberlake.png', 'Im_MattDamon.png', 'Im_DanielCraig.png'],diff,1,0.41667690000031143,18,85.71428571428571,
PIFR3008,10,pos,60,pos60_id1_im24.bmp_pos60_id4_im7.bmp,['Im_HughJackman.png', 'Im_GeorgeClooney.png', 'Im_BenAffleck.png', 'Im_LeonardoDiCaprio.png', 'Im_BradPitt.png', 'Im_BenStiller.png', 'Im_RyanGosling.png', 'Im_JustinTimberlake.png', 'Im_MattDamon.png', 'Im_DanielCraig.png'],diff,1,0.41671690000021044,19,85.71428571428571,
PIFR3008,10,pos,0,pos0_id13_im10.bmp_pos0_id13_im29.bmp,['Im_HughJackman.png', 'Im_GeorgeClooney.png', 'Im_BenAffleck.png', 'Im_LeonardoDiCaprio.png', 'Im_BradPitt.png', 'Im_BenStiller.png', 'Im_RyanGosling.png', 'Im_JustinTimberlake.png', 'Im_MattDamon.png', 'Im_DanielCraig.png'],diff,0,1.724952000000485,19,85.71428571428571,
PIFR3008,10,pos,90,pos90_id3_im17.bmp_pos90_id13_im29.bmp,['Im_HughJackman.png', 'Im_GeorgeClooney.png', 'Im_BenAffleck.png', 'Im_LeonardoDiCaprio.png', 'Im_BradPitt.png', 'Im_BenStiller.png', 'Im_RyanGosling.png', 'Im_JustinTimberlake.png', 'Im_MattDamon.png', 'Im_DanielCraig.png'],diff,1,0.40833440000005794,20,85.71428571428571,
PIFR3008,10,pos,150,pos150_id4_im15.bmp_pos150_id20_im12.bmp,['Im_HughJackman.png', 'Im_GeorgeClooney.png', 'Im_BenAffleck.png', 'Im_LeonardoDiCaprio.png', 'Im_BradPitt.png', 'Im_BenStiller.png', 'Im_RyanGosling.png', 'Im_JustinTimberlake.png', 'Im_MattDamon.png', 'Im_DanielCraig.png'],same,0,0.4167387999996208,20,85.71428571428571,
PIFR3008,10,pos,150,pos150_id4_im20.bmp_pos150_id2_im3.bmp,['Im_HughJackman.png', 'Im_GeorgeClooney.png', 'Im_BenAffleck.png', 'Im_LeonardoDiCaprio.png', 'Im_BradPitt.png', 'Im_BenStiller.png', 'Im_RyanGosling.png', 'Im_JustinTimberlake.png', 'Im_MattDamon.png', 'Im_DanielCraig.png'],diff,1,0.9666708999993716,21,85.71428571428571,
PIFR3008,10,pos,90,pos90_id4_im7.bmp_pos90_id1_im24.bmp,['Im_HughJackman.png', 'Im_GeorgeClooney.png', 'Im_BenAffleck.png', 'Im_LeonardoDiCaprio.png', 'Im_BradPitt.png', 'Im_BenStiller.png', 'Im_RyanGosling.png', 'Im_JustinTimberlake.png', 'Im_MattDamon.png', 'Im_DanielCraig.png'],diff,1,0.4168840000002092,22,85.71428571428571,
PIFR3008,10,pos,30,pos30_id8_im21.bmp_pos30_id8_im13.bmp,['Im_HughJackman.png', 'Im_GeorgeClooney.png', 'Im_BenAffleck.png', 'Im_LeonardoDiCaprio.png', 'Im_BradPitt.png', 'Im_BenStiller.png', 'Im_RyanGosling.png', 'Im_JustinTimberlake.png', 'Im_MattDamon.png', 'Im_DanielCraig.png'],same,1,0.41676619999998366,23,85.71428571428571,
PIFR3008,10,pos,120,pos120_id4_im7.bmp_pos120_id1_im24.bmp,['Im_HughJackman.png', 'Im_GeorgeClooney.png', 'Im_BenAffleck.png', 'Im_LeonardoDiCaprio.png', 'Im_BradPitt.png', 'Im_BenStiller.png', 'Im_RyanGosling.png', 'Im_JustinTimberlake.png', 'Im_MattDamon.png', 'Im_DanielCraig.png'],diff,1,0.4084170999994967,24,85.71428571428571,
PIFR3008,10,pos,0,pos0_id4_im15.bmp_pos0_id20_im12.bmp,['Im_HughJackman.png', 'Im_GeorgeClooney.png', 'Im_BenAffleck.png', 'Im_LeonardoDiCaprio.png', 'Im_BradPitt.png', 'Im_BenStiller.png', 'Im_RyanGosling.png', 'Im_JustinTimberlake.png', 'Im_MattDamon.png', 'Im_DanielCraig.png'],diff,1,0.9416972000008172,25,85.71428571428571,
PIFR3008,10,pos,fs,posfs_id2_im2.bmp_posfs_id7_im15.bmp,['Im_HughJackman.png', 'Im_GeorgeClooney.png', 'Im_BenAffleck.png', 'Im_LeonardoDiCaprio.png', 'Im_BradPitt.png', 'Im_BenStiller.png', 'Im_RyanGosling.png', 'Im_JustinTimberlake.png', 'Im_MattDamon.png', 'Im_DanielCraig.png'],diff,1,0.41677570000047126,26,85.71428571428571,
PIFR3008,11,neg,150,neg150_id1_im4.bmp_neg150_id4_im7.bmp,['Im_HughJackman.png', 'Im_GeorgeClooney.png', 'Im_BenAffleck.png', 'Im_LeonardoDiCaprio.png', 'Im_BradPitt.png', 'Im_BenStiller.png', 'Im_RyanGosling.png', 'Im_JustinTimberlake.png', 'Im_MattDamon.png', 'Im_DanielCraig.png'],diff,1,0.5085003999993205,27,85.71428571428571,
PIFR3008,11,neg,0,neg0_id4_im15.bmp_neg0_id4_im7.bmp,['Im_HughJackman.png', 'Im_GeorgeClooney.png', 'Im_BenAffleck.png', 'Im_LeonardoDiCaprio.png', 'Im_BradPitt.png', 'Im_BenStiller.png', 'Im_RyanGosling.png', 'Im_JustinTimberlake.png', 'Im_MattDamon.png', 'Im_DanielCraig.png'],same,1,0.4167341000002125,28,85.71428571428571,
PIFR3008,11,neg,0,neg0_id3_im6.bmp_neg0_id3_im17.bmp,['Im_HughJackman.png', 'Im_GeorgeClooney.png', 'Im_BenAffleck.png', 'Im_LeonardoDiCaprio.png', 'Im_BradPitt.png', 'Im_BenStiller.png', 'Im_RyanGosling.png', 'Im_JustinTimberlake.png', 'Im_MattDamon.png', 'Im_DanielCraig.png'],same,1,0.4166235000002416,29,85.71428571428571,
PIFR3008,11,neg,90,neg90_id2_im16.bmp_neg90_id2_im3.bmp,['Im_HughJackman.png', 'Im_GeorgeClooney.png', 'Im_BenAffleck.png', 'Im_LeonardoDiCaprio.png', 'Im_BradPitt.png', 'Im_BenStiller.png', 'Im_RyanGosling.png', 'Im_JustinTimberlake.png', 'Im_MattDamon.png', 'Im_DanielCraig.png'],same,1,0.41655560000072,30,85.71428571428571,
PIFR3008,11,neg,fs,negfs_id3_im8.bmp_negfs_id8_im21.bmp,['Im_HughJackman.png', 'Im_GeorgeClooney.png', 'Im_BenAffleck.png', 'Im_LeonardoDiCaprio.png', 'Im_BradPitt.png', 'Im_BenStiller.png', 'Im_RyanGosling.png', 'Im_JustinTimberlake.png', 'Im_MattDamon.png', 'Im_DanielCraig.png'],diff,1,0.4167449000005945,31,85.71428571428571,
PIFR3008,11,neg,30,neg30_id1_im4.bmp_neg30_id1_im21.bmp,['Im_HughJackman.png', 'Im_GeorgeClooney.png', 'Im_BenAffleck.png', 'Im_LeonardoDiCaprio.png', 'Im_BradPitt.png', 'Im_BenStiller.png', 'Im_RyanGosling.png', 'Im_JustinTimberlake.png', 'Im_MattDamon.png', 'Im_DanielCraig.png'],diff,0,0.4249100000006365,31,85.71428571428571,
PIFR3008,11,neg,30,neg30_id3_im17.bmp_neg30_id10_im1.bmp,['Im_HughJackman.png', 'Im_GeorgeClooney.png', 'Im_BenAffleck.png', 'Im_LeonardoDiCaprio.png', 'Im_BradPitt.png', 'Im_BenStiller.png', 'Im_RyanGosling.png', 'Im_JustinTimberlake.png', 'Im_MattDamon.png', 'Im_DanielCraig.png'],diff,1,0.4250726999998733,32,85.71428571428571,
PIFR3008,11,neg,120,neg120_id7_im14.bmp_neg120_id4_im15.bmp,['Im_HughJackman.png', 'Im_GeorgeClooney.png', 'Im_BenAffleck.png', 'Im_LeonardoDiCaprio.png', 'Im_BradPitt.png', 'Im_BenStiller.png', 'Im_RyanGosling.png', 'Im_JustinTimberlake.png', 'Im_MattDamon.png', 'Im_DanielCraig.png'],diff,1,0.4167127000000619,33,85.71428571428571,
PIFR3008,11,neg,120,neg120_id13_im29.bmp_neg120_id3_im17.bmp,['Im_HughJackman.png', 'Im_GeorgeClooney.png', 'Im_BenAffleck.png', 'Im_LeonardoDiCaprio.png', 'Im_BradPitt.png', 'Im_BenStiller.png', 'Im_RyanGosling.png', 'Im_JustinTimberlake.png', 'Im_MattDamon.png', 'Im_DanielCraig.png'],diff,1,0.4084452999995847,34,85.71428571428571,
PIFR3008,11,neg,150,neg150_id8_im13.bmp_neg150_id14_im24.bmp,['Im_HughJackman.png', 'Im_GeorgeClooney.png', 'Im_BenAffleck.png', 'Im_LeonardoDiCaprio.png', 'Im_BradPitt.png', 'Im_BenStiller.png', 'Im_RyanGosling.png', 'Im_JustinTimberlake.png', 'Im_MattDamon.png', 'Im_DanielCraig.png'],diff,1,0.4083768999998938,35,85.71428571428571,
PIFR3008,11,neg,fs,negfs_id10_im1.bmp_negfs_id3_im17.bmp,['Im_HughJackman.png', 'Im_GeorgeClooney.png', 'Im_BenAffleck.png', 'Im_LeonardoDiCaprio.png', 'Im_BradPitt.png', 'Im_BenStiller.png', 'Im_RyanGosling.png', 'Im_JustinTimberlake.png', 'Im_MattDamon.png', 'Im_DanielCraig.png'],diff,1,0.41674849999981234,36,85.71428571428571,
PIFR3008,11,neg,90,neg90_id20_im3.bmp_neg90_id8_im20.bmp,['Im_HughJackman.png', 'Im_GeorgeClooney.png', 'Im_BenAffleck.png', 'Im_LeonardoDiCaprio.png', 'Im_BradPitt.png', 'Im_BenStiller.png', 'Im_RyanGosling.png', 'Im_JustinTimberlake.png', 'Im_MattDamon.png', 'Im_DanielCraig.png'],diff,1,0.4168399000000136,37,85.71428571428571,
PIFR3008,11,neg,60,neg60_id10_im1.bmp_neg60_id10_im17.bmp,['Im_HughJackman.png', 'Im_GeorgeClooney.png', 'Im_BenAffleck.png', 'Im_LeonardoDiCaprio.png', 'Im_BradPitt.png', 'Im_BenStiller.png', 'Im_RyanGosling.png', 'Im_JustinTimberlake.png', 'Im_MattDamon.png', 'Im_DanielCraig.png'],same,1,0.5586714000000939,38,85.71428571428571,
PIFR3008,11,neg,60,neg60_id1_im21.bmp_neg60_id1_im4.bmp,['Im_HughJackman.png', 'Im_GeorgeClooney.png', 'Im_BenAffleck.png', 'Im_LeonardoDiCaprio.png', 'Im_BradPitt.png', 'Im_BenStiller.png', 'Im_RyanGosling.png', 'Im_JustinTimberlake.png', 'Im_MattDamon.png', 'Im_DanielCraig.png'],same,1,0.41658949999964534,39,85.71428571428571,
PIFR3008,12,inv,120,pos120_id10_im17.bmp_pos120_id10_im1.bmp,['Im_HughJackman.png', 'Im_GeorgeClooney.png', 'Im_BenAffleck.png', 'Im_LeonardoDiCaprio.png', 'Im_BradPitt.png', 'Im_BenStiller.png', 'Im_RyanGosling.png', 'Im_JustinTimberlake.png', 'Im_MattDamon.png', 'Im_DanielCraig.png'],same,1,0.5002720000002228,1,92.85714285714286,
PIFR3008,12,inv,fs,posfs_id7_im26.bmp_posfs_id7_im15.bmp,['Im_HughJackman.png', 'Im_GeorgeClooney.png', 'Im_BenAffleck.png', 'Im_LeonardoDiCaprio.png', 'Im_BradPitt.png', 'Im_BenStiller.png', 'Im_RyanGosling.png', 'Im_JustinTimberlake.png', 'Im_MattDamon.png', 'Im_DanielCraig.png'],same,1,0.4084277000001748,2,92.85714285714286,
PIFR3008,12,inv,60,pos60_id1_im21.bmp_pos60_id1_im4.bmp,['Im_HughJackman.png', 'Im_GeorgeClooney.png', 'Im_BenAffleck.png', 'Im_LeonardoDiCaprio.png', 'Im_BradPitt.png', 'Im_BenStiller.png', 'Im_RyanGosling.png', 'Im_JustinTimberlake.png', 'Im_MattDamon.png', 'Im_DanielCraig.png'],same,1,0.6004872000003161,3,92.85714285714286,
PIFR3008,12,inv,fs,posfs_id20_im30.bmp_posfs_id20_im3.bmp,['Im_HughJackman.png', 'Im_GeorgeClooney.png', 'Im_BenAffleck.png', 'Im_LeonardoDiCaprio.png', 'Im_BradPitt.png', 'Im_BenStiller.png', 'Im_RyanGosling.png', 'Im_JustinTimberlake.png', 'Im_MattDamon.png', 'Im_DanielCraig.png'],same,1,0.4249851000004128,4,92.85714285714286,
PIFR3008,12,inv,90,pos90_id20_im30.bmp_pos90_id20_im12.bmp,['Im_HughJackman.png', 'Im_GeorgeClooney.png', 'Im_BenAffleck.png', 'Im_LeonardoDiCaprio.png', 'Im_BradPitt.png', 'Im_BenStiller.png', 'Im_RyanGosling.png', 'Im_JustinTimberlake.png', 'Im_MattDamon.png', 'Im_DanielCraig.png'],same,1,0.4336186999998972,5,92.85714285714286,
PIFR3008,12,inv,150,pos150_id4_im7.bmp_pos150_id4_im15.bmp,['Im_HughJackman.png', 'Im_GeorgeClooney.png', 'Im_BenAffleck.png', 'Im_LeonardoDiCaprio.png', 'Im_BradPitt.png', 'Im_BenStiller.png', 'Im_RyanGosling.png', 'Im_JustinTimberlake.png', 'Im_MattDamon.png', 'Im_DanielCraig.png'],same,1,0.42507470000055037,6,92.85714285714286,
PIFR3008,12,inv,60,pos60_id20_im30.bmp_pos60_id20_im3.bmp,['Im_HughJackman.png', 'Im_GeorgeClooney.png', 'Im_BenAffleck.png', 'Im_LeonardoDiCaprio.png', 'Im_BradPitt.png', 'Im_BenStiller.png', 'Im_RyanGosling.png', 'Im_JustinTimberlake.png', 'Im_MattDamon.png', 'Im_DanielCraig.png'],same,1,0.4336110000003828,7,92.85714285714286,
PIFR3008,12,inv,30,pos30_id1_im4.bmp_pos30_id1_im21.bmp,['Im_HughJackman.png', 'Im_GeorgeClooney.png', 'Im_BenAffleck.png', 'Im_LeonardoDiCaprio.png', 'Im_BradPitt.png', 'Im_BenStiller.png', 'Im_RyanGosling.png', 'Im_JustinTimberlake.png', 'Im_MattDamon.png', 'Im_DanielCraig.png'],same,1,0.4249210999996649,8,92.85714285714286,
PIFR3008,12,inv,150,pos150_id4_im7.bmp_pos150_id4_im20.bmp,['Im_HughJackman.png', 'Im_GeorgeClooney.png', 'Im_BenAffleck.png', 'Im_LeonardoDiCaprio.png', 'Im_BradPitt.png', 'Im_BenStiller.png', 'Im_RyanGosling.png', 'Im_JustinTimberlake.png', 'Im_MattDamon.png', 'Im_DanielCraig.png'],same,1,0.41699249999965105,9,92.85714285714286,
PIFR3008,12,inv,120,pos120_id1_im24.bmp_pos120_id10_im17.bmp,['Im_HughJackman.png', 'Im_GeorgeClooney.png', 'Im_BenAffleck.png', 'Im_LeonardoDiCaprio.png', 'Im_BradPitt.png', 'Im_BenStiller.png', 'Im_RyanGosling.png', 'Im_JustinTimberlake.png', 'Im_MattDamon.png', 'Im_DanielCraig.png'],diff,1,0.41706820000035805,10,92.85714285714286,
PIFR3008,12,inv,0,pos0_id8_im21.bmp_pos0_id20_im3.bmp,['Im_HughJackman.png', 'Im_GeorgeClooney.png', 'Im_BenAffleck.png', 'Im_LeonardoDiCaprio.png', 'Im_BradPitt.png', 'Im_BenStiller.png', 'Im_RyanGosling.png', 'Im_JustinTimberlake.png', 'Im_MattDamon.png', 'Im_DanielCraig.png'],diff,1,0.49174260000017966,11,92.85714285714286,
PIFR3008,12,inv,0,pos0_id14_im24.bmp_pos0_id14_im18.bmp,['Im_HughJackman.png', 'Im_GeorgeClooney.png', 'Im_BenAffleck.png', 'Im_LeonardoDiCaprio.png', 'Im_BradPitt.png', 'Im_BenStiller.png', 'Im_RyanGosling.png', 'Im_JustinTimberlake.png', 'Im_MattDamon.png', 'Im_DanielCraig.png'],same,1,1.075258899999426,12,92.85714285714286,
PIFR3008,12,inv,30,pos30_id7_im15.bmp_pos30_id7_im14.bmp,['Im_HughJackman.png', 'Im_GeorgeClooney.png', 'Im_BenAffleck.png', 'Im_LeonardoDiCaprio.png', 'Im_BradPitt.png', 'Im_BenStiller.png', 'Im_RyanGosling.png', 'Im_JustinTimberlake.png', 'Im_MattDamon.png', 'Im_DanielCraig.png'],same,1,0.4917583000005834,13,92.85714285714286,
PIFR3008,12,inv,90,pos90_id10_im17.bmp_pos90_id3_im6.bmp,['Im_HughJackman.png', 'Im_GeorgeClooney.png', 'Im_BenAffleck.png', 'Im_LeonardoDiCaprio.png', 'Im_BradPitt.png', 'Im_BenStiller.png', 'Im_RyanGosling.png', 'Im_JustinTimberlake.png', 'Im_MattDamon.png', 'Im_DanielCraig.png'],same,0,0.7339019000000917,13,92.85714285714286,
PIFR3008,13,inv,150,pos150_id7_im15.bmp_pos150_id14_im18.bmp,['Im_HughJackman.png', 'Im_GeorgeClooney.png', 'Im_BenAffleck.png', 'Im_LeonardoDiCaprio.png', 'Im_BradPitt.png', 'Im_BenStiller.png', 'Im_RyanGosling.png', 'Im_JustinTimberlake.png', 'Im_MattDamon.png', 'Im_DanielCraig.png'],diff,1,0.45839150000028894,14,92.85714285714286,
PIFR3008,13,inv,fs,posfs_id3_im8.bmp_posfs_id3_im6.bmp,['Im_HughJackman.png', 'Im_GeorgeClooney.png', 'Im_BenAffleck.png', 'Im_LeonardoDiCaprio.png', 'Im_BradPitt.png', 'Im_BenStiller.png', 'Im_RyanGosling.png', 'Im_JustinTimberlake.png', 'Im_MattDamon.png', 'Im_DanielCraig.png'],same,1,0.6084045000006881,15,92.85714285714286,
PIFR3008,13,inv,0,pos0_id13_im29.bmp_pos0_id13_im10.bmp,['Im_HughJackman.png', 'Im_GeorgeClooney.png', 'Im_BenAffleck.png', 'Im_LeonardoDiCaprio.png', 'Im_BradPitt.png', 'Im_BenStiller.png', 'Im_RyanGosling.png', 'Im_JustinTimberlake.png', 'Im_MattDamon.png', 'Im_DanielCraig.png'],diff,0,0.41671430000042164,15,92.85714285714286,
PIFR3008,13,inv,90,pos90_id2_im2.bmp_pos90_id7_im26.bmp,['Im_HughJackman.png', 'Im_GeorgeClooney.png', 'Im_BenAffleck.png', 'Im_LeonardoDiCaprio.png', 'Im_BradPitt.png', 'Im_BenStiller.png', 'Im_RyanGosling.png', 'Im_JustinTimberlake.png', 'Im_MattDamon.png', 'Im_DanielCraig.png'],diff,1,0.41662710000036896,16,92.85714285714286,
PIFR3008,13,inv,60,pos60_id4_im20.bmp_pos60_id4_im15.bmp,['Im_HughJackman.png', 'Im_GeorgeClooney.png', 'Im_BenAffleck.png', 'Im_LeonardoDiCaprio.png', 'Im_BradPitt.png', 'Im_BenStiller.png', 'Im_RyanGosling.png', 'Im_JustinTimberlake.png', 'Im_MattDamon.png', 'Im_DanielCraig.png'],same,1,0.4167185000005702,17,92.85714285714286,
PIFR3008,13,inv,120,pos120_id2_im2.bmp_pos120_id7_im26.bmp,['Im_HughJackman.png', 'Im_GeorgeClooney.png', 'Im_BenAffleck.png', 'Im_LeonardoDiCaprio.png', 'Im_BradPitt.png', 'Im_BenStiller.png', 'Im_RyanGosling.png', 'Im_JustinTimberlake.png', 'Im_MattDamon.png', 'Im_DanielCraig.png'],diff,1,0.41667320000033214,18,92.85714285714286,
PIFR3008,13,inv,150,pos150_id20_im3.bmp_pos150_id20_im12.bmp,['Im_HughJackman.png', 'Im_GeorgeClooney.png', 'Im_BenAffleck.png', 'Im_LeonardoDiCaprio.png', 'Im_BradPitt.png', 'Im_BenStiller.png', 'Im_RyanGosling.png', 'Im_JustinTimberlake.png', 'Im_MattDamon.png', 'Im_DanielCraig.png'],same,1,0.4166309000002002,19,92.85714285714286,
PIFR3008,13,inv,90,pos90_id13_im29.bmp_pos90_id13_im15.bmp,['Im_HughJackman.png', 'Im_GeorgeClooney.png', 'Im_BenAffleck.png', 'Im_LeonardoDiCaprio.png', 'Im_BradPitt.png', 'Im_BenStiller.png', 'Im_RyanGosling.png', 'Im_JustinTimberlake.png', 'Im_MattDamon.png', 'Im_DanielCraig.png'],same,1,0.4333311999998841,20,92.85714285714286,
PIFR3008,13,inv,30,pos30_id7_im26.bmp_pos30_id2_im2.bmp,['Im_HughJackman.png', 'Im_GeorgeClooney.png', 'Im_BenAffleck.png', 'Im_LeonardoDiCaprio.png', 'Im_BradPitt.png', 'Im_BenStiller.png', 'Im_RyanGosling.png', 'Im_JustinTimberlake.png', 'Im_MattDamon.png', 'Im_DanielCraig.png'],diff,1,0.44177399999989575,21,92.85714285714286,
PIFR3008,13,inv,120,pos120_id20_im12.bmp_pos120_id20_im3.bmp,['Im_HughJackman.png', 'Im_GeorgeClooney.png', 'Im_BenAffleck.png', 'Im_LeonardoDiCaprio.png', 'Im_BradPitt.png', 'Im_BenStiller.png', 'Im_RyanGosling.png', 'Im_JustinTimberlake.png', 'Im_MattDamon.png', 'Im_DanielCraig.png'],same,1,0.4084028000006583,22,92.85714285714286,
PIFR3008,13,inv,fs,posfs_id8_im13.bmp_posfs_id8_im21.bmp,['Im_HughJackman.png', 'Im_GeorgeClooney.png', 'Im_BenAffleck.png', 'Im_LeonardoDiCaprio.png', 'Im_BradPitt.png', 'Im_BenStiller.png', 'Im_RyanGosling.png', 'Im_JustinTimberlake.png', 'Im_MattDamon.png', 'Im_DanielCraig.png'],same,1,0.42511480000030133,23,92.85714285714286,
PIFR3008,13,inv,30,pos30_id3_im8.bmp_pos30_id3_im6.bmp,['Im_HughJackman.png', 'Im_GeorgeClooney.png', 'Im_BenAffleck.png', 'Im_LeonardoDiCaprio.png', 'Im_BradPitt.png', 'Im_BenStiller.png', 'Im_RyanGosling.png', 'Im_JustinTimberlake.png', 'Im_MattDamon.png', 'Im_DanielCraig.png'],same,1,0.4083751000007396,24,92.85714285714286,
PIFR3008,13,inv,0,pos0_id20_im12.bmp_pos0_id4_im15.bmp,['Im_HughJackman.png', 'Im_GeorgeClooney.png', 'Im_BenAffleck.png', 'Im_LeonardoDiCaprio.png', 'Im_BradPitt.png', 'Im_BenStiller.png', 'Im_RyanGosling.png', 'Im_JustinTimberlake.png', 'Im_MattDamon.png', 'Im_DanielCraig.png'],diff,1,0.4583977000002051,25,92.85714285714286,
PIFR3008,13,inv,60,pos60_id8_im20.bmp_pos60_id8_im13.bmp,['Im_HughJackman.png', 'Im_GeorgeClooney.png', 'Im_BenAffleck.png', 'Im_LeonardoDiCaprio.png', 'Im_BradPitt.png', 'Im_BenStiller.png', 'Im_RyanGosling.png', 'Im_JustinTimberlake.png', 'Im_MattDamon.png', 'Im_DanielCraig.png'],same,1,0.41661409999960597,26,92.85714285714286,
PIFR3008,14,pos,fs,posfs_id4_im7.bmp_posfs_id1_im24.bmp,['Im_HughJackman.png', 'Im_GeorgeClooney.png', 'Im_BenAffleck.png', 'Im_LeonardoDiCaprio.png', 'Im_BradPitt.png', 'Im_BenStiller.png', 'Im_RyanGosling.png', 'Im_JustinTimberlake.png', 'Im_MattDamon.png', 'Im_DanielCraig.png'],diff,1,0.4167545999998765,27,92.85714285714286,
PIFR3008,14,pos,120,pos120_id13_im29.bmp_pos120_id10_im18.bmp,['Im_HughJackman.png', 'Im_GeorgeClooney.png', 'Im_BenAffleck.png', 'Im_LeonardoDiCaprio.png', 'Im_BradPitt.png', 'Im_BenStiller.png', 'Im_RyanGosling.png', 'Im_JustinTimberlake.png', 'Im_MattDamon.png', 'Im_DanielCraig.png'],diff,1,0.4251881999998659,28,92.85714285714286,
PIFR3008,14,pos,90,pos90_id2_im2.bmp_pos90_id7_im15.bmp,['Im_HughJackman.png', 'Im_GeorgeClooney.png', 'Im_BenAffleck.png', 'Im_LeonardoDiCaprio.png', 'Im_BradPitt.png', 'Im_BenStiller.png', 'Im_RyanGosling.png', 'Im_JustinTimberlake.png', 'Im_MattDamon.png', 'Im_DanielCraig.png'],diff,1,0.4167077000001882,29,92.85714285714286,
PIFR3008,14,pos,0,pos0_id20_im12.bmp_pos0_id20_im30.bmp,['Im_HughJackman.png', 'Im_GeorgeClooney.png', 'Im_BenAffleck.png', 'Im_LeonardoDiCaprio.png', 'Im_BradPitt.png', 'Im_BenStiller.png', 'Im_RyanGosling.png', 'Im_JustinTimberlake.png', 'Im_MattDamon.png', 'Im_DanielCraig.png'],same,1,0.44183780000003026,30,92.85714285714286,
PIFR3008,14,pos,60,pos60_id14_im18.bmp_pos60_id14_im16.bmp,['Im_HughJackman.png', 'Im_GeorgeClooney.png', 'Im_BenAffleck.png', 'Im_LeonardoDiCaprio.png', 'Im_BradPitt.png', 'Im_BenStiller.png', 'Im_RyanGosling.png', 'Im_JustinTimberlake.png', 'Im_MattDamon.png', 'Im_DanielCraig.png'],same,1,0.5176333999997951,31,92.85714285714286,
PIFR3008,14,pos,150,pos150_id7_im14.bmp_pos150_id4_im15.bmp,['Im_HughJackman.png', 'Im_GeorgeClooney.png', 'Im_BenAffleck.png', 'Im_LeonardoDiCaprio.png', 'Im_BradPitt.png', 'Im_BenStiller.png', 'Im_RyanGosling.png', 'Im_JustinTimberlake.png', 'Im_MattDamon.png', 'Im_DanielCraig.png'],diff,1,0.40853580000020884,32,92.85714285714286,
PIFR3008,14,pos,60,pos60_id2_im3.bmp_pos60_id10_im18.bmp,['Im_HughJackman.png', 'Im_GeorgeClooney.png', 'Im_BenAffleck.png', 'Im_LeonardoDiCaprio.png', 'Im_BradPitt.png', 'Im_BenStiller.png', 'Im_RyanGosling.png', 'Im_JustinTimberlake.png', 'Im_MattDamon.png', 'Im_DanielCraig.png'],diff,1,0.41654539999944973,33,92.85714285714286,
PIFR3008,14,pos,30,pos30_id7_im15.bmp_pos30_id2_im2.bmp,['Im_HughJackman.png', 'Im_GeorgeClooney.png', 'Im_BenAffleck.png', 'Im_LeonardoDiCaprio.png', 'Im_BradPitt.png', 'Im_BenStiller.png', 'Im_RyanGosling.png', 'Im_JustinTimberlake.png', 'Im_MattDamon.png', 'Im_DanielCraig.png'],diff,1,0.4084163000006811,34,92.85714285714286,
PIFR3008,14,pos,150,pos150_id1_im24.bmp_pos150_id1_im21.bmp,['Im_HughJackman.png', 'Im_GeorgeClooney.png', 'Im_BenAffleck.png', 'Im_LeonardoDiCaprio.png', 'Im_BradPitt.png', 'Im_BenStiller.png', 'Im_RyanGosling.png', 'Im_JustinTimberlake.png', 'Im_MattDamon.png', 'Im_DanielCraig.png'],same,1,0.4167565999996441,35,92.85714285714286,
PIFR3008,14,pos,30,pos30_id10_im17.bmp_pos30_id10_im1.bmp,['Im_HughJackman.png', 'Im_GeorgeClooney.png', 'Im_BenAffleck.png', 'Im_LeonardoDiCaprio.png', 'Im_BradPitt.png', 'Im_BenStiller.png', 'Im_RyanGosling.png', 'Im_JustinTimberlake.png', 'Im_MattDamon.png', 'Im_DanielCraig.png'],same,1,0.42510459999994055,36,92.85714285714286,
PIFR3008,14,pos,0,pos0_id20_im12.bmp_pos0_id20_im3.bmp,['Im_HughJackman.png', 'Im_GeorgeClooney.png', 'Im_BenAffleck.png', 'Im_LeonardoDiCaprio.png', 'Im_BradPitt.png', 'Im_BenStiller.png', 'Im_RyanGosling.png', 'Im_JustinTimberlake.png', 'Im_MattDamon.png', 'Im_DanielCraig.png'],same,1,1.2669514999997773,37,92.85714285714286,
PIFR3008,14,pos,90,pos90_id2_im2.bmp_pos90_id2_im3.bmp,['Im_HughJackman.png', 'Im_GeorgeClooney.png', 'Im_BenAffleck.png', 'Im_LeonardoDiCaprio.png', 'Im_BradPitt.png', 'Im_BenStiller.png', 'Im_RyanGosling.png', 'Im_JustinTimberlake.png', 'Im_MattDamon.png', 'Im_DanielCraig.png'],same,1,0.41681299999982,38,92.85714285714286,
PIFR3008,14,pos,fs,posfs_id1_im24.bmp_posfs_id10_im17.bmp,['Im_HughJackman.png', 'Im_GeorgeClooney.png', 'Im_BenAffleck.png', 'Im_LeonardoDiCaprio.png', 'Im_BradPitt.png', 'Im_BenStiller.png', 'Im_RyanGosling.png', 'Im_JustinTimberlake.png', 'Im_MattDamon.png', 'Im_DanielCraig.png'],diff,1,0.41673249999985273,39,92.85714285714286,
PIFR3008,14,pos,120,pos120_id8_im20.bmp_pos120_id8_im13.bmp,['Im_HughJackman.png', 'Im_GeorgeClooney.png', 'Im_BenAffleck.png', 'Im_LeonardoDiCaprio.png', 'Im_BradPitt.png', 'Im_BenStiller.png', 'Im_RyanGosling.png', 'Im_JustinTimberlake.png', 'Im_MattDamon.png', 'Im_DanielCraig.png'],same,1,0.42500939999990806,40,92.85714285714286,
PIFR3008,15,neg,30,neg30_id7_im14.bmp_neg30_id4_im15.bmp,['Im_HughJackman.png', 'Im_GeorgeClooney.png', 'Im_BenAffleck.png', 'Im_LeonardoDiCaprio.png', 'Im_BradPitt.png', 'Im_BenStiller.png', 'Im_RyanGosling.png', 'Im_JustinTimberlake.png', 'Im_MattDamon.png', 'Im_DanielCraig.png'],diff,1,0.4253110999998171,1,95.23809523809524,
PIFR3008,15,neg,0,neg0_id8_im20.bmp_neg0_id8_im13.bmp,['Im_HughJackman.png', 'Im_GeorgeClooney.png', 'Im_BenAffleck.png', 'Im_LeonardoDiCaprio.png', 'Im_BradPitt.png', 'Im_BenStiller.png', 'Im_RyanGosling.png', 'Im_JustinTimberlake.png', 'Im_MattDamon.png', 'Im_DanielCraig.png'],same,1,0.4168995999998515,2,95.23809523809524,
PIFR3008,15,neg,60,neg60_id8_im20.bmp_neg60_id8_im21.bmp,['Im_HughJackman.png', 'Im_GeorgeClooney.png', 'Im_BenAffleck.png', 'Im_LeonardoDiCaprio.png', 'Im_BradPitt.png', 'Im_BenStiller.png', 'Im_RyanGosling.png', 'Im_JustinTimberlake.png', 'Im_MattDamon.png', 'Im_DanielCraig.png'],same,1,0.40841249999994034,3,95.23809523809524,
PIFR3008,15,neg,120,neg120_id2_im3.bmp_neg120_id2_im2.bmp,['Im_HughJackman.png', 'Im_GeorgeClooney.png', 'Im_BenAffleck.png', 'Im_LeonardoDiCaprio.png', 'Im_BradPitt.png', 'Im_BenStiller.png', 'Im_RyanGosling.png', 'Im_JustinTimberlake.png', 'Im_MattDamon.png', 'Im_DanielCraig.png'],same,1,0.41664610000043467,4,95.23809523809524,
PIFR3008,15,neg,90,neg90_id20_im3.bmp_neg90_id20_im30.bmp,['Im_HughJackman.png', 'Im_GeorgeClooney.png', 'Im_BenAffleck.png', 'Im_LeonardoDiCaprio.png', 'Im_BradPitt.png', 'Im_BenStiller.png', 'Im_RyanGosling.png', 'Im_JustinTimberlake.png', 'Im_MattDamon.png', 'Im_DanielCraig.png'],same,1,0.41674259999945207,5,95.23809523809524,
PIFR3008,15,neg,0,neg0_id8_im21.bmp_neg0_id20_im3.bmp,['Im_HughJackman.png', 'Im_GeorgeClooney.png', 'Im_BenAffleck.png', 'Im_LeonardoDiCaprio.png', 'Im_BradPitt.png', 'Im_BenStiller.png', 'Im_RyanGosling.png', 'Im_JustinTimberlake.png', 'Im_MattDamon.png', 'Im_DanielCraig.png'],diff,1,0.4084237999995821,6,95.23809523809524,
PIFR3008,15,neg,120,neg120_id10_im17.bmp_neg120_id1_im24.bmp,['Im_HughJackman.png', 'Im_GeorgeClooney.png', 'Im_BenAffleck.png', 'Im_LeonardoDiCaprio.png', 'Im_BradPitt.png', 'Im_BenStiller.png', 'Im_RyanGosling.png', 'Im_JustinTimberlake.png', 'Im_MattDamon.png', 'Im_DanielCraig.png'],diff,1,0.4252710000000661,7,95.23809523809524,
PIFR3008,15,neg,90,neg90_id20_im12.bmp_neg90_id20_im3.bmp,['Im_HughJackman.png', 'Im_GeorgeClooney.png', 'Im_BenAffleck.png', 'Im_LeonardoDiCaprio.png', 'Im_BradPitt.png', 'Im_BenStiller.png', 'Im_RyanGosling.png', 'Im_JustinTimberlake.png', 'Im_MattDamon.png', 'Im_DanielCraig.png'],same,1,0.40842440000051283,8,95.23809523809524,
PIFR3008,15,neg,fs,negfs_id1_im24.bmp_negfs_id1_im4.bmp,['Im_HughJackman.png', 'Im_GeorgeClooney.png', 'Im_BenAffleck.png', 'Im_LeonardoDiCaprio.png', 'Im_BradPitt.png', 'Im_BenStiller.png', 'Im_RyanGosling.png', 'Im_JustinTimberlake.png', 'Im_MattDamon.png', 'Im_DanielCraig.png'],same,1,0.4333221000006233,9,95.23809523809524,
PIFR3008,15,neg,150,neg150_id20_im30.bmp_neg150_id14_im24.bmp,['Im_HughJackman.png', 'Im_GeorgeClooney.png', 'Im_BenAffleck.png', 'Im_LeonardoDiCaprio.png', 'Im_BradPitt.png', 'Im_BenStiller.png', 'Im_RyanGosling.png', 'Im_JustinTimberlake.png', 'Im_MattDamon.png', 'Im_DanielCraig.png'],diff,1,1.650287900000876,10,95.23809523809524,
