Sujet,Trial,Condition,Filter,Imname,Actor0,Actor1,Actor2,Actor3,Actor4,Actor5,Actor6,Actor7,Actor8,Actor9,Answer,Accu,RT,Score,Scoreperc, 
PIPE1804,_,posfs_DanielCraig_im8.bmp,DanielCraig,RobertPattinson,RobertPattinson,BenAffleck,BenStiller,LeonardoDiCaprio,,,,,posfs_DanielCraig_im8.bmp,8.85605940000005,
PIPE1804,_,posfs_RobertDowneyJr_im19.bmp,RobertDowneyJr,DanielRadcliffe,DanielRadcliffe,DanielCraig,PatrickDempsey,BenStiller,,,,,4,5.5478861999999936,
PIPE1804,_,posfs_MattDamon_im16.bmp,MattDamon,LeonardoDiCaprio,LeonardoDiCaprio,RyanGosling,KeanuReeves,BenStiller,,,,,posfs_MattDamon_im16.bmp,3.9307002000000466,
PIPE1804,_,posfs_HughJackman_im13.bmp,HughJackman,BradPitt,BradPitt,PatrickDempsey,MattDamon,RobertPattinson,,,,,posfs_HughJackman_im13.bmp,6.562042900000051,
PIPE1804,_,posfs_HughJackman_im21.bmp,HughJackman,OrlandoBloom,OrlandoBloom,GeorgeClooney,RyanGosling,BradPitt,,,,,4,1.2332148999998935,
PIPE1804,_,posfs_RobertPattinson_im8.bmp,RobertPattinson,DanielRadcliffe,DanielRadcliffe,OrlandoBloom,MattDamon,RyanGosling,,,,,posfs_RobertPattinson_im8.bmp,2.044258000000127,
PIPE1804,_,posfs_DanielRadcliffe_im1.bmp,DanielRadcliffe,BradPitt,BradPitt,LeonardoDiCaprio,BenStiller,RobertPattinson,,,,,posfs_DanielRadcliffe_im1.bmp,5.06442549999997,
PIPE1804,_,posfs_MattDamon_im18.bmp,MattDamon,DanielCraig,DanielCraig,PatrickDempsey,DanielRadcliffe,ElijahWood,,,,,posfs_MattDamon_im18.bmp,1.459302100000059,
PIPE1804,_,posfs_RyanGosling_im25.bmp,RyanGosling,DanielCraig,DanielCraig,KeanuReeves,BradPitt,MattDamon,,,,,posfs_RyanGosling_im25.bmp,3.198564499999975,
PIPE1804,_,posfs_RyanGosling_im12.bmp,RyanGosling,PatrickDempsey,PatrickDempsey,RyanReynolds,BradPitt,DanielCraig,,,,,1,2.1791319000001295,
PIPE1804,_,posfs_OrlandoBloom_im2.bmp,OrlandoBloom,BenAffleck,BenAffleck,RyanGosling,MattDamon,RobertDowneyJr,,,,,posfs_OrlandoBloom_im2.bmp,7.154454299999998,
PIPE1804,_,posfs_BradPitt_im6.bmp,BradPitt,RyanGosling,RyanGosling,RobertDowneyJr,OrlandoBloom,HughJackman,,,,,posfs_BradPitt_im6.bmp,3.624727799999846,
PIPE1804,_,posfs_RobertDowneyJr_im18.bmp,RobertDowneyJr,MattDamon,MattDamon,BradPitt,GeorgeClooney,JustinTimberlake,,,,,posfs_RobertDowneyJr_im18.bmp,12.182935799999996,
PIPE1804,_,posfs_OrlandoBloom_im3.bmp,OrlandoBloom,RobertPattinson,RobertPattinson,RyanReynolds,RyanGosling,RobertDowneyJr,,,,,posfs_OrlandoBloom_im3.bmp,5.987127700000201,
PIPE1804,_,posfs_KeanuReeves_im1.bmp,KeanuReeves,LeonardoDiCaprio,LeonardoDiCaprio,BradPitt,JustinTimberlake,RobertPattinson,,,,,4,0.9450118000002021,
PIPE1804,_,posfs_HughJackman_im18.bmp,HughJackman,LeonardoDiCaprio,LeonardoDiCaprio,BradPitt,RyanGosling,DanielRadcliffe,,,,,4,0.5938610999999128,
PIPE1804,_,posfs_GeorgeClooney_im26.bmp,GeorgeClooney,LeonardoDiCaprio,LeonardoDiCaprio,RobertPattinson,BenAffleck,ElijahWood,,,,,posfs_GeorgeClooney_im26.bmp,3.063357799999949,
PIPE1804,_,posfs_RobertPattinson_im27.bmp,RobertPattinson,RyanReynolds,RyanReynolds,OrlandoBloom,MattDamon,KeanuReeves,,,,,posfs_RobertPattinson_im27.bmp,1.4742800999999872,
PIPE1804,_,posfs_RobertDowneyJr_im11.bmp,RobertDowneyJr,HughJackman,HughJackman,RyanGosling,JustinTimberlake,BenStiller,,,,,posfs_RobertDowneyJr_im11.bmp,5.021079099999952,
PIPE1804,_,posfs_BradPitt_im14.bmp,BradPitt,MattDamon,MattDamon,DanielCraig,OrlandoBloom,LeonardoDiCaprio,,,,,posfs_BradPitt_im14.bmp,2.7051100000001043,
PIPE1804,_,posfs_RobertDowneyJr_im4.bmp,RobertDowneyJr,RyanGosling,RyanGosling,BradPitt,HughJackman,ElijahWood,,,,,posfs_RobertDowneyJr_im4.bmp,2.5711095999999998,
PIPE1804,_,posfs_LeonardoDiCaprio_im24.bmp,LeonardoDiCaprio,DanielCraig,DanielCraig,BradPitt,PatrickDempsey,RyanGosling,,,,,posfs_LeonardoDiCaprio_im24.bmp,1.1220534000001408,
PIPE1804,_,posfs_MattDamon_im24.bmp,MattDamon,RobertDowneyJr,RobertDowneyJr,BradPitt,HughJackman,RobertPattinson,,,,,posfs_MattDamon_im24.bmp,2.1472208000000137,
PIPE1804,_,posfs_RyanGosling_im3.bmp,RyanGosling,RobertPattinson,RobertPattinson,PatrickDempsey,DanielCraig,JustinTimberlake,,,,,posfs_RyanGosling_im3.bmp,1.5547581000000719,
PIPE1804,_,posfs_ElijahWood_im23.bmp,ElijahWood,BenAffleck,BenAffleck,RyanGosling,BenStiller,RobertDowneyJr,,,,,4,0.922695300000214,
PIPE1804,_,posfs_JustinTimberlake_im4.bmp,JustinTimberlake,BenStiller,BenStiller,RobertDowneyJr,OrlandoBloom,PatrickDempsey,,,,,posfs_JustinTimberlake_im4.bmp,2.395144500000015,
PIPE1804,_,posfs_ElijahWood_im18.bmp,ElijahWood,PatrickDempsey,PatrickDempsey,JustinTimberlake,RobertPattinson,RobertDowneyJr,,,,,4,0.7210347999998703,
PIPE1804,_,posfs_GeorgeClooney_im15.bmp,GeorgeClooney,JustinTimberlake,JustinTimberlake,DanielRadcliffe,DanielCraig,BenAffleck,,,,,posfs_GeorgeClooney_im15.bmp,1.921995700000025,
PIPE1804,_,posfs_PatrickDempsey_im8.bmp,PatrickDempsey,BenStiller,BenStiller,MattDamon,BradPitt,RyanGosling,,,,,posfs_PatrickDempsey_im8.bmp,9.659400700000106,
PIPE1804,_,posfs_JustinTimberlake_im1.bmp,JustinTimberlake,BenAffleck,BenAffleck,ElijahWood,PatrickDempsey,HughJackman,,,,,posfs_JustinTimberlake_im1.bmp,2.495164500000101,
PIPE1804,_,posfs_DanielCraig_im7.bmp,DanielCraig,BenAffleck,BenAffleck,KeanuReeves,PatrickDempsey,DanielRadcliffe,,,,,0,7.097040099999958,
PIPE1804,_,posfs_JustinTimberlake_im17.bmp,JustinTimberlake,MattDamon,MattDamon,LeonardoDiCaprio,ElijahWood,GeorgeClooney,,,,,posfs_JustinTimberlake_im17.bmp,2.6830053000001044,
PIPE1804,_,posfs_BradPitt_im8.bmp,BradPitt,BenStiller,BenStiller,BenAffleck,OrlandoBloom,RobertPattinson,,,,,posfs_BradPitt_im8.bmp,1.4530911000001652,
PIPE1804,_,posfs_RyanReynolds_im16.bmp,RyanReynolds,OrlandoBloom,OrlandoBloom,RobertPattinson,RyanGosling,LeonardoDiCaprio,,,,,posfs_RyanReynolds_im16.bmp,22.232901899999888,
PIPE1804,_,posfs_ElijahWood_im12.bmp,ElijahWood,DanielRadcliffe,DanielRadcliffe,RobertDowneyJr,GeorgeClooney,BenStiller,,,,,4,0.7009172999999009,
PIPE1804,_,posfs_BenAffleck_im4.bmp,BenAffleck,BenStiller,BenStiller,KeanuReeves,ElijahWood,PatrickDempsey,,,,,4,4.383087899999964,
PIPE1804,_,posfs_BenStiller_im16.bmp,BenStiller,KeanuReeves,KeanuReeves,MattDamon,JustinTimberlake,BenAffleck,,,,,4,14.185731400000122,
PIPE1804,_,posfs_DanielRadcliffe_im10.bmp,DanielRadcliffe,LeonardoDiCaprio,LeonardoDiCaprio,KeanuReeves,ElijahWood,MattDamon,,,,,posfs_DanielRadcliffe_im10.bmp,1.6900213999999778,
PIPE1804,_,posfs_BenStiller_im3.bmp,BenStiller,ElijahWood,ElijahWood,JustinTimberlake,BradPitt,RobertDowneyJr,,,,,0,5.060547300000053,
PIPE1804,_,posfs_GeorgeClooney_im23.bmp,GeorgeClooney,BenAffleck,BenAffleck,MattDamon,OrlandoBloom,KeanuReeves,,,,,posfs_GeorgeClooney_im23.bmp,1.7199405999999726,
PIPE1804,_,posfs_JustinTimberlake_im18.bmp,JustinTimberlake,ElijahWood,ElijahWood,RyanGosling,DanielRadcliffe,LeonardoDiCaprio,,,,,posfs_JustinTimberlake_im18.bmp,1.1932746999998471,
PIPE1804,_,posfs_RobertPattinson_im4.bmp,RobertPattinson,DanielRadcliffe,DanielRadcliffe,RyanGosling,MattDamon,ElijahWood,,,,,posfs_RobertPattinson_im4.bmp,1.3670922000001156,
PIPE1804,_,posfs_KeanuReeves_im2.bmp,KeanuReeves,HughJackman,HughJackman,GeorgeClooney,RobertPattinson,BenStiller,,,,,4,1.1817682000000787,
PIPE1804,_,posfs_BenStiller_im7.bmp,BenStiller,LeonardoDiCaprio,LeonardoDiCaprio,RyanGosling,DanielCraig,PatrickDempsey,,,,,posfs_BenStiller_im7.bmp,11.03015470000014,
PIPE1804,_,posfs_RyanGosling_im30.bmp,RyanGosling,RyanReynolds,RyanReynolds,DanielCraig,PatrickDempsey,RobertPattinson,,,,,posfs_RyanGosling_im30.bmp,1.3382395999999517,
PIPE1804,_,posfs_BradPitt_im17.bmp,BradPitt,PatrickDempsey,PatrickDempsey,LeonardoDiCaprio,JustinTimberlake,HughJackman,,,,,posfs_BradPitt_im17.bmp,3.585427000000209,
PIPE1804,_,posfs_BenAffleck_im24.bmp,BenAffleck,OrlandoBloom,OrlandoBloom,DanielRadcliffe,MattDamon,GeorgeClooney,,,,,4,0.944722800000136,
PIPE1804,_,posfs_PatrickDempsey_im9.bmp,PatrickDempsey,HughJackman,HughJackman,RobertDowneyJr,KeanuReeves,BenAffleck,,,,,posfs_PatrickDempsey_im9.bmp,11.976720899999918,
PIPE1804,_,posfs_PatrickDempsey_im16.bmp,PatrickDempsey,BradPitt,BradPitt,DanielCraig,DanielRadcliffe,LeonardoDiCaprio,,,,,posfs_PatrickDempsey_im16.bmp,1.6550116000000799,
PIPE1804,_,posfs_RyanReynolds_im22.bmp,RyanReynolds,JustinTimberlake,JustinTimberlake,BradPitt,KeanuReeves,LeonardoDiCaprio,,,,,posfs_RyanReynolds_im22.bmp,2.378043299999945,
PIPE1804,_,posfs_KeanuReeves_im8.bmp,KeanuReeves,BenAffleck,BenAffleck,LeonardoDiCaprio,RyanGosling,GeorgeClooney,,,,,4,1.3289514999999028,
PIPE1804,_,posfs_LeonardoDiCaprio_im10.bmp,LeonardoDiCaprio,BenStiller,BenStiller,RyanGosling,PatrickDempsey,RobertPattinson,,,,,posfs_LeonardoDiCaprio_im10.bmp,1.2981002999999873,
PIPE1804,_,posfs_RyanReynolds_im3.bmp,RyanReynolds,BenAffleck,BenAffleck,DanielCraig,MattDamon,OrlandoBloom,,,,,posfs_RyanReynolds_im3.bmp,2.4998794999999063,
PIPE1804,_,posfs_PatrickDempsey_im14.bmp,PatrickDempsey,KeanuReeves,KeanuReeves,RobertDowneyJr,HughJackman,RyanReynolds,,,,,posfs_PatrickDempsey_im14.bmp,1.420665000000099,
PIPE1804,_,posfs_DanielRadcliffe_im8.bmp,DanielRadcliffe,MattDamon,MattDamon,PatrickDempsey,RyanReynolds,RobertDowneyJr,,,,,posfs_DanielRadcliffe_im8.bmp,1.617851200000132,
PIPE1804,_,posfs_DanielCraig_im20.bmp,DanielCraig,BenStiller,BenStiller,BradPitt,LeonardoDiCaprio,OrlandoBloom,,,,,posfs_DanielCraig_im20.bmp,13.28694889999997,
PIPE1804,_,posfs_ElijahWood_im19.bmp,ElijahWood,PatrickDempsey,PatrickDempsey,RyanReynolds,BenAffleck,OrlandoBloom,,,,,4,0.8489862999999787,
PIPE1804,_,posfs_GeorgeClooney_im14.bmp,GeorgeClooney,KeanuReeves,KeanuReeves,LeonardoDiCaprio,PatrickDempsey,RobertPattinson,,,,,posfs_GeorgeClooney_im14.bmp,2.172157200000129,
PIPE1804,_,posfs_LeonardoDiCaprio_im29.bmp,LeonardoDiCaprio,RobertDowneyJr,RobertDowneyJr,PatrickDempsey,OrlandoBloom,DanielCraig,,,,,posfs_LeonardoDiCaprio_im29.bmp,1.627166299999999,
PIPE1804,_,posfs_OrlandoBloom_im30.bmp,OrlandoBloom,JustinTimberlake,JustinTimberlake,BradPitt,KeanuReeves,RyanGosling,,,,,posfs_OrlandoBloom_im30.bmp,2.7836489999999685,
PIPE1804,_,posfs_RobertPattinson_im30.bmp,RobertPattinson,DanielRadcliffe,DanielRadcliffe,DanielCraig,BenAffleck,JustinTimberlake,,,,,posfs_RobertPattinson_im30.bmp,1.8306578000001537,
PIPE1804,_,posfs_KeanuReeves_im10.bmp,KeanuReeves,MattDamon,MattDamon,OrlandoBloom,PatrickDempsey,LeonardoDiCaprio,,,,,4,1.7235892999999578,
PIPE1804,_,posfs_MattDamon_im9.bmp,MattDamon,BradPitt,BradPitt,HughJackman,DanielCraig,LeonardoDiCaprio,,,,,3,2.946692200000143,
PIPE1804,_,posfs_BenAffleck_im21.bmp,BenAffleck,RyanGosling,RyanGosling,GeorgeClooney,ElijahWood,BradPitt,,,,,2,2.930307399999947,
PIPE1804,_,posfs_LeonardoDiCaprio_im15.bmp,LeonardoDiCaprio,RobertPattinson,RobertPattinson,DanielCraig,BradPitt,DanielRadcliffe,,,,,posfs_LeonardoDiCaprio_im15.bmp,1.0829499999999825,
PIPE1804,_,posfs_BenStiller_im2.bmp,BenStiller,RobertDowneyJr,RobertDowneyJr,GeorgeClooney,DanielCraig,RyanReynolds,,,,,posfs_BenStiller_im2.bmp,2.3254108999999517,
PIPE1804,_,posfs_DanielCraig_im15.bmp,DanielCraig,BenAffleck,BenAffleck,MattDamon,BenStiller,HughJackman,,,,,posfs_DanielCraig_im15.bmp,2.813600499999893,
PIPE1804,_,posfs_DanielRadcliffe_im20.bmp,DanielRadcliffe,GeorgeClooney,GeorgeClooney,ElijahWood,RobertPattinson,KeanuReeves,,,,,posfs_DanielRadcliffe_im20.bmp,1.291560200000049,
PIPE1804,_,posfs_HughJackman_im20.bmp,HughJackman,JustinTimberlake,JustinTimberlake,RyanReynolds,DanielCraig,OrlandoBloom,,,,,4,0.8202682000001005,
PIPE1804,_,posfs_OrlandoBloom_im19.bmp,OrlandoBloom,ElijahWood,ElijahWood,DanielCraig,PatrickDempsey,LeonardoDiCaprio,,,,,posfs_OrlandoBloom_im19.bmp,1.7614893999998458,
PIPE1804,_,posfs_RyanReynolds_im17.bmp,RyanReynolds,PatrickDempsey,PatrickDempsey,ElijahWood,BenStiller,BradPitt,,,,,posfs_RyanReynolds_im17.bmp,3.1364915999999994,
PIPE1804,_,posfs_BenAffleck_im8.bmp,BenAffleck,OrlandoBloom,OrlandoBloom,RobertPattinson,RyanReynolds,MattDamon,,,,,posfs_BenAffleck_im8.bmp,6.329143999999815,
PIPE1804,train,pos,fs,posfs_id7_im15.bmp_posfs_id7_im14.bmp,['Im_BradPitt.png', 'Im_LeonardoDiCaprio.png', 'Im_GeorgeClooney.png', 'Im_DanielCraig.png', 'Im_DanielRadcliffe.png', 'Im_OrlandoBloom.png', 'Im_PatrickDempsey.png', 'Im_RobertPattinson.png', 'Im_RyanReynolds.png', 'Im_JustinTimberlake.png'],same,1,0.750172799999973,1,0,
PIPE1804,train,pos,fs,posfs_id10_im18.bmp_posfs_id10_im1.bmp,['Im_BradPitt.png', 'Im_LeonardoDiCaprio.png', 'Im_GeorgeClooney.png', 'Im_DanielCraig.png', 'Im_DanielRadcliffe.png', 'Im_OrlandoBloom.png', 'Im_PatrickDempsey.png', 'Im_RobertPattinson.png', 'Im_RyanReynolds.png', 'Im_JustinTimberlake.png'],same,1,0.8335501999999906,2,0,
PIPE1804,train,pos,fs,posfs_id4_im15.bmp_posfs_id19_im27.bmp,['Im_BradPitt.png', 'Im_LeonardoDiCaprio.png', 'Im_GeorgeClooney.png', 'Im_DanielCraig.png', 'Im_DanielRadcliffe.png', 'Im_OrlandoBloom.png', 'Im_PatrickDempsey.png', 'Im_RobertPattinson.png', 'Im_RyanReynolds.png', 'Im_JustinTimberlake.png'],diff,1,0.7168507999999747,3,0,
PIPE1804,train,pos,fs,posfs_id3_im8.bmp_posfs_id17_im14.bmp,['Im_BradPitt.png', 'Im_LeonardoDiCaprio.png', 'Im_GeorgeClooney.png', 'Im_DanielCraig.png', 'Im_DanielRadcliffe.png', 'Im_OrlandoBloom.png', 'Im_PatrickDempsey.png', 'Im_RobertPattinson.png', 'Im_RyanReynolds.png', 'Im_JustinTimberlake.png'],diff,1,0.7084683999999015,4,0,
PIPE1804,train,pos,fs,posfs_id5_im20.bmp_posfs_id5_im10.bmp,['Im_BradPitt.png', 'Im_LeonardoDiCaprio.png', 'Im_GeorgeClooney.png', 'Im_DanielCraig.png', 'Im_DanielRadcliffe.png', 'Im_OrlandoBloom.png', 'Im_PatrickDempsey.png', 'Im_RobertPattinson.png', 'Im_RyanReynolds.png', 'Im_JustinTimberlake.png'],same,1,0.5167057999999543,5,0,
PIPE1804,train,pos,fs,posfs_id21_im22.bmp_posfs_id21_im16.bmp,['Im_BradPitt.png', 'Im_LeonardoDiCaprio.png', 'Im_GeorgeClooney.png', 'Im_DanielCraig.png', 'Im_DanielRadcliffe.png', 'Im_OrlandoBloom.png', 'Im_PatrickDempsey.png', 'Im_RobertPattinson.png', 'Im_RyanReynolds.png', 'Im_JustinTimberlake.png'],diff,0,0.6582069999999476,5,0,
PIPE1804,train,pos,fs,posfs_id13_im10.bmp_posfs_id19_im8.bmp,['Im_BradPitt.png', 'Im_LeonardoDiCaprio.png', 'Im_GeorgeClooney.png', 'Im_DanielCraig.png', 'Im_DanielRadcliffe.png', 'Im_OrlandoBloom.png', 'Im_PatrickDempsey.png', 'Im_RobertPattinson.png', 'Im_RyanReynolds.png', 'Im_JustinTimberlake.png'],diff,1,0.6581751000001077,6,0,
PIPE1804,train,pos,fs,posfs_id5_im10.bmp_posfs_id16_im2.bmp,['Im_BradPitt.png', 'Im_LeonardoDiCaprio.png', 'Im_GeorgeClooney.png', 'Im_DanielCraig.png', 'Im_DanielRadcliffe.png', 'Im_OrlandoBloom.png', 'Im_PatrickDempsey.png', 'Im_RobertPattinson.png', 'Im_RyanReynolds.png', 'Im_JustinTimberlake.png'],diff,1,0.766646400000127,7,0,
PIPE1804,train,pos,fs,posfs_id7_im26.bmp_posfs_id19_im4.bmp,['Im_BradPitt.png', 'Im_LeonardoDiCaprio.png', 'Im_GeorgeClooney.png', 'Im_DanielCraig.png', 'Im_DanielRadcliffe.png', 'Im_OrlandoBloom.png', 'Im_PatrickDempsey.png', 'Im_RobertPattinson.png', 'Im_RyanReynolds.png', 'Im_JustinTimberlake.png'],diff,1,0.58330890000002,8,0,
PIPE1804,train,pos,fs,posfs_id7_im14.bmp_posfs_id7_im26.bmp,['Im_BradPitt.png', 'Im_LeonardoDiCaprio.png', 'Im_GeorgeClooney.png', 'Im_DanielCraig.png', 'Im_DanielRadcliffe.png', 'Im_OrlandoBloom.png', 'Im_PatrickDempsey.png', 'Im_RobertPattinson.png', 'Im_RyanReynolds.png', 'Im_JustinTimberlake.png'],same,1,0.7834177999998246,9,0,
PIPE1804,train,pos,fs,posfs_id10_im17.bmp_posfs_id10_im1.bmp,['Im_BradPitt.png', 'Im_LeonardoDiCaprio.png', 'Im_GeorgeClooney.png', 'Im_DanielCraig.png', 'Im_DanielRadcliffe.png', 'Im_OrlandoBloom.png', 'Im_PatrickDempsey.png', 'Im_RobertPattinson.png', 'Im_RyanReynolds.png', 'Im_JustinTimberlake.png'],same,1,0.6499916999998732,10,0,
PIPE1804,train,pos,fs,posfs_id19_im4.bmp_posfs_id19_im27.bmp,['Im_BradPitt.png', 'Im_LeonardoDiCaprio.png', 'Im_GeorgeClooney.png', 'Im_DanielCraig.png', 'Im_DanielRadcliffe.png', 'Im_OrlandoBloom.png', 'Im_PatrickDempsey.png', 'Im_RobertPattinson.png', 'Im_RyanReynolds.png', 'Im_JustinTimberlake.png'],same,1,0.6332360000001245,11,0,
PIPE1804,train,pos,fs,posfs_id7_im14.bmp_posfs_id4_im20.bmp,['Im_BradPitt.png', 'Im_LeonardoDiCaprio.png', 'Im_GeorgeClooney.png', 'Im_DanielCraig.png', 'Im_DanielRadcliffe.png', 'Im_OrlandoBloom.png', 'Im_PatrickDempsey.png', 'Im_RobertPattinson.png', 'Im_RyanReynolds.png', 'Im_JustinTimberlake.png'],diff,1,0.5916827000000922,12,0,
PIPE1804,train,pos,fs,posfs_id17_im14.bmp_posfs_id17_im8.bmp,['Im_BradPitt.png', 'Im_LeonardoDiCaprio.png', 'Im_GeorgeClooney.png', 'Im_DanielCraig.png', 'Im_DanielRadcliffe.png', 'Im_OrlandoBloom.png', 'Im_PatrickDempsey.png', 'Im_RobertPattinson.png', 'Im_RyanReynolds.png', 'Im_JustinTimberlake.png'],same,1,0.8164875999998458,13,0,
PIPE1804,train,pos,fs,posfs_id13_im15.bmp_posfs_id19_im27.bmp,['Im_BradPitt.png', 'Im_LeonardoDiCaprio.png', 'Im_GeorgeClooney.png', 'Im_DanielCraig.png', 'Im_DanielRadcliffe.png', 'Im_OrlandoBloom.png', 'Im_PatrickDempsey.png', 'Im_RobertPattinson.png', 'Im_RyanReynolds.png', 'Im_JustinTimberlake.png'],diff,1,0.7166145999999571,14,0,
PIPE1804,train,pos,fs,posfs_id13_im10.bmp_posfs_id13_im29.bmp,['Im_BradPitt.png', 'Im_LeonardoDiCaprio.png', 'Im_GeorgeClooney.png', 'Im_DanielCraig.png', 'Im_DanielRadcliffe.png', 'Im_OrlandoBloom.png', 'Im_PatrickDempsey.png', 'Im_RobertPattinson.png', 'Im_RyanReynolds.png', 'Im_JustinTimberlake.png'],same,1,0.7580818999999792,15,0,
PIPE1804,train,pos,fs,posfs_id3_im17.bmp_posfs_id10_im1.bmp,['Im_BradPitt.png', 'Im_LeonardoDiCaprio.png', 'Im_GeorgeClooney.png', 'Im_DanielCraig.png', 'Im_DanielRadcliffe.png', 'Im_OrlandoBloom.png', 'Im_PatrickDempsey.png', 'Im_RobertPattinson.png', 'Im_RyanReynolds.png', 'Im_JustinTimberlake.png'],diff,1,0.7164520999999695,16,0,
PIPE1804,train,pos,fs,posfs_id21_im16.bmp_posfs_id7_im15.bmp,['Im_BradPitt.png', 'Im_LeonardoDiCaprio.png', 'Im_GeorgeClooney.png', 'Im_DanielCraig.png', 'Im_DanielRadcliffe.png', 'Im_OrlandoBloom.png', 'Im_PatrickDempsey.png', 'Im_RobertPattinson.png', 'Im_RyanReynolds.png', 'Im_JustinTimberlake.png'],diff,1,0.7416356000001088,17,0,
PIPE1804,train,pos,fs,posfs_id5_im1.bmp_posfs_id5_im20.bmp,['Im_BradPitt.png', 'Im_LeonardoDiCaprio.png', 'Im_GeorgeClooney.png', 'Im_DanielCraig.png', 'Im_DanielRadcliffe.png', 'Im_OrlandoBloom.png', 'Im_PatrickDempsey.png', 'Im_RobertPattinson.png', 'Im_RyanReynolds.png', 'Im_JustinTimberlake.png'],same,1,0.6335449000000608,18,0,
PIPE1804,train,pos,fs,posfs_id13_im10.bmp_posfs_id16_im2.bmp,['Im_BradPitt.png', 'Im_LeonardoDiCaprio.png', 'Im_GeorgeClooney.png', 'Im_DanielCraig.png', 'Im_DanielRadcliffe.png', 'Im_OrlandoBloom.png', 'Im_PatrickDempsey.png', 'Im_RobertPattinson.png', 'Im_RyanReynolds.png', 'Im_JustinTimberlake.png'],diff,1,0.6167222999999922,19,0,
PIPE1804,train,neg,fs,negfs_id19_im27.bmp_negfs_id4_im15.bmp,['Im_BradPitt.png', 'Im_LeonardoDiCaprio.png', 'Im_GeorgeClooney.png', 'Im_DanielCraig.png', 'Im_DanielRadcliffe.png', 'Im_OrlandoBloom.png', 'Im_PatrickDempsey.png', 'Im_RobertPattinson.png', 'Im_RyanReynolds.png', 'Im_JustinTimberlake.png'],diff,1,0.4085480000001098,1,0,
PIPE1804,train,inv,fs,posfs_id3_im6.bmp_posfs_id3_im8.bmp,['Im_BradPitt.png', 'Im_LeonardoDiCaprio.png', 'Im_GeorgeClooney.png', 'Im_DanielCraig.png', 'Im_DanielRadcliffe.png', 'Im_OrlandoBloom.png', 'Im_PatrickDempsey.png', 'Im_RobertPattinson.png', 'Im_RyanReynolds.png', 'Im_JustinTimberlake.png'],same,1,0.8501125000000229,2,0,
PIPE1804,train,neg,fs,negfs_id10_im18.bmp_negfs_id13_im29.bmp,['Im_BradPitt.png', 'Im_LeonardoDiCaprio.png', 'Im_GeorgeClooney.png', 'Im_DanielCraig.png', 'Im_DanielRadcliffe.png', 'Im_OrlandoBloom.png', 'Im_PatrickDempsey.png', 'Im_RobertPattinson.png', 'Im_RyanReynolds.png', 'Im_JustinTimberlake.png'],diff,1,0.8253597999998874,3,0,
PIPE1804,train,pos,fs,posfs_id10_im18.bmp_posfs_id21_im22.bmp,['Im_BradPitt.png', 'Im_LeonardoDiCaprio.png', 'Im_GeorgeClooney.png', 'Im_DanielCraig.png', 'Im_DanielRadcliffe.png', 'Im_OrlandoBloom.png', 'Im_PatrickDempsey.png', 'Im_RobertPattinson.png', 'Im_RyanReynolds.png', 'Im_JustinTimberlake.png'],diff,1,0.4084214999998039,4,0,
PIPE1804,train,pos,fs,posfs_id19_im27.bmp_posfs_id4_im15.bmp,['Im_BradPitt.png', 'Im_LeonardoDiCaprio.png', 'Im_GeorgeClooney.png', 'Im_DanielCraig.png', 'Im_DanielRadcliffe.png', 'Im_OrlandoBloom.png', 'Im_PatrickDempsey.png', 'Im_RobertPattinson.png', 'Im_RyanReynolds.png', 'Im_JustinTimberlake.png'],diff,1,0.40844749999996566,5,0,
PIPE1804,train,inv,fs,posfs_id4_im7.bmp_posfs_id17_im9.bmp,['Im_BradPitt.png', 'Im_LeonardoDiCaprio.png', 'Im_GeorgeClooney.png', 'Im_DanielCraig.png', 'Im_DanielRadcliffe.png', 'Im_OrlandoBloom.png', 'Im_PatrickDempsey.png', 'Im_RobertPattinson.png', 'Im_RyanReynolds.png', 'Im_JustinTimberlake.png'],diff,1,0.5000373000000309,6,0,
PIPE1804,train,neg,fs,negfs_id19_im8.bmp_negfs_id13_im10.bmp,['Im_BradPitt.png', 'Im_LeonardoDiCaprio.png', 'Im_GeorgeClooney.png', 'Im_DanielCraig.png', 'Im_DanielRadcliffe.png', 'Im_OrlandoBloom.png', 'Im_PatrickDempsey.png', 'Im_RobertPattinson.png', 'Im_RyanReynolds.png', 'Im_JustinTimberlake.png'],diff,1,0.40864990000000034,7,0,
PIPE1804,train,neg,fs,negfs_id7_im15.bmp_negfs_id7_im14.bmp,['Im_BradPitt.png', 'Im_LeonardoDiCaprio.png', 'Im_GeorgeClooney.png', 'Im_DanielCraig.png', 'Im_DanielRadcliffe.png', 'Im_OrlandoBloom.png', 'Im_PatrickDempsey.png', 'Im_RobertPattinson.png', 'Im_RyanReynolds.png', 'Im_JustinTimberlake.png'],same,1,0.49172520000001896,8,0,
PIPE1804,train,inv,fs,posfs_id16_im19.bmp_posfs_id16_im3.bmp,['Im_BradPitt.png', 'Im_LeonardoDiCaprio.png', 'Im_GeorgeClooney.png', 'Im_DanielCraig.png', 'Im_DanielRadcliffe.png', 'Im_OrlandoBloom.png', 'Im_PatrickDempsey.png', 'Im_RobertPattinson.png', 'Im_RyanReynolds.png', 'Im_JustinTimberlake.png'],diff,0,0.7419801999999436,8,0,
PIPE1804,train,inv,fs,posfs_id17_im14.bmp_posfs_id17_im8.bmp,['Im_BradPitt.png', 'Im_LeonardoDiCaprio.png', 'Im_GeorgeClooney.png', 'Im_DanielCraig.png', 'Im_DanielRadcliffe.png', 'Im_OrlandoBloom.png', 'Im_PatrickDempsey.png', 'Im_RobertPattinson.png', 'Im_RyanReynolds.png', 'Im_JustinTimberlake.png'],diff,0,0.4085728999998537,8,0,
PIPE1804,train,inv,fs,posfs_id4_im20.bmp_posfs_id4_im7.bmp,['Im_BradPitt.png', 'Im_LeonardoDiCaprio.png', 'Im_GeorgeClooney.png', 'Im_DanielCraig.png', 'Im_DanielRadcliffe.png', 'Im_OrlandoBloom.png', 'Im_PatrickDempsey.png', 'Im_RobertPattinson.png', 'Im_RyanReynolds.png', 'Im_JustinTimberlake.png'],same,1,0.4084213000001,9,0,
PIPE1804,train,pos,fs,posfs_id17_im14.bmp_posfs_id3_im8.bmp,['Im_BradPitt.png', 'Im_LeonardoDiCaprio.png', 'Im_GeorgeClooney.png', 'Im_DanielCraig.png', 'Im_DanielRadcliffe.png', 'Im_OrlandoBloom.png', 'Im_PatrickDempsey.png', 'Im_RobertPattinson.png', 'Im_RyanReynolds.png', 'Im_JustinTimberlake.png'],diff,1,0.40007260000015776,10,0,
PIPE1804,train,neg,fs,negfs_id16_im3.bmp_negfs_id16_im2.bmp,['Im_BradPitt.png', 'Im_LeonardoDiCaprio.png', 'Im_GeorgeClooney.png', 'Im_DanielCraig.png', 'Im_DanielRadcliffe.png', 'Im_OrlandoBloom.png', 'Im_PatrickDempsey.png', 'Im_RobertPattinson.png', 'Im_RyanReynolds.png', 'Im_JustinTimberlake.png'],same,1,0.608399400000053,11,0,
PIPE1804,train,neg,fs,negfs_id3_im17.bmp_negfs_id3_im6.bmp,['Im_BradPitt.png', 'Im_LeonardoDiCaprio.png', 'Im_GeorgeClooney.png', 'Im_DanielCraig.png', 'Im_DanielRadcliffe.png', 'Im_OrlandoBloom.png', 'Im_PatrickDempsey.png', 'Im_RobertPattinson.png', 'Im_RyanReynolds.png', 'Im_JustinTimberlake.png'],same,1,0.45836949999988974,12,0,
PIPE1804,train,neg,fs,negfs_id5_im10.bmp_negfs_id5_im1.bmp,['Im_BradPitt.png', 'Im_LeonardoDiCaprio.png', 'Im_GeorgeClooney.png', 'Im_DanielCraig.png', 'Im_DanielRadcliffe.png', 'Im_OrlandoBloom.png', 'Im_PatrickDempsey.png', 'Im_RobertPattinson.png', 'Im_RyanReynolds.png', 'Im_JustinTimberlake.png'],same,1,1.88362189999998,13,0,
PIPE1804,train,inv,fs,posfs_id10_im17.bmp_posfs_id17_im8.bmp,['Im_BradPitt.png', 'Im_LeonardoDiCaprio.png', 'Im_GeorgeClooney.png', 'Im_DanielCraig.png', 'Im_DanielRadcliffe.png', 'Im_OrlandoBloom.png', 'Im_PatrickDempsey.png', 'Im_RobertPattinson.png', 'Im_RyanReynolds.png', 'Im_JustinTimberlake.png'],diff,1,0.40842750000001615,14,0,
PIPE1804,train,inv,fs,posfs_id7_im15.bmp_posfs_id19_im4.bmp,['Im_BradPitt.png', 'Im_LeonardoDiCaprio.png', 'Im_GeorgeClooney.png', 'Im_DanielCraig.png', 'Im_DanielRadcliffe.png', 'Im_OrlandoBloom.png', 'Im_PatrickDempsey.png', 'Im_RobertPattinson.png', 'Im_RyanReynolds.png', 'Im_JustinTimberlake.png'],diff,1,0.4166125000001557,15,0,
PIPE1804,train,pos,fs,posfs_id4_im15.bmp_posfs_id5_im1.bmp,['Im_BradPitt.png', 'Im_LeonardoDiCaprio.png', 'Im_GeorgeClooney.png', 'Im_DanielCraig.png', 'Im_DanielRadcliffe.png', 'Im_OrlandoBloom.png', 'Im_PatrickDempsey.png', 'Im_RobertPattinson.png', 'Im_RyanReynolds.png', 'Im_JustinTimberlake.png'],diff,1,0.3999062000000322,16,0,
PIPE1804,train,neg,fs,negfs_id4_im15.bmp_negfs_id4_im20.bmp,['Im_BradPitt.png', 'Im_LeonardoDiCaprio.png', 'Im_GeorgeClooney.png', 'Im_DanielCraig.png', 'Im_DanielRadcliffe.png', 'Im_OrlandoBloom.png', 'Im_PatrickDempsey.png', 'Im_RobertPattinson.png', 'Im_RyanReynolds.png', 'Im_JustinTimberlake.png'],same,1,0.5419019000000844,17,0,
PIPE1804,train,neg,fs,negfs_id5_im20.bmp_negfs_id21_im17.bmp,['Im_BradPitt.png', 'Im_LeonardoDiCaprio.png', 'Im_GeorgeClooney.png', 'Im_DanielCraig.png', 'Im_DanielRadcliffe.png', 'Im_OrlandoBloom.png', 'Im_PatrickDempsey.png', 'Im_RobertPattinson.png', 'Im_RyanReynolds.png', 'Im_JustinTimberlake.png'],diff,1,0.399877399999923,18,0,
PIPE1804,train,pos,60,pos60_id13_im10.bmp_pos60_id13_im29.bmp,['Im_BradPitt.png', 'Im_LeonardoDiCaprio.png', 'Im_GeorgeClooney.png', 'Im_DanielCraig.png', 'Im_DanielRadcliffe.png', 'Im_OrlandoBloom.png', 'Im_PatrickDempsey.png', 'Im_RobertPattinson.png', 'Im_RyanReynolds.png', 'Im_JustinTimberlake.png'],same,1,0.4082513000000745,1,0,
PIPE1804,train,pos,120,pos120_id17_im14.bmp_pos120_id3_im8.bmp,['Im_BradPitt.png', 'Im_LeonardoDiCaprio.png', 'Im_GeorgeClooney.png', 'Im_DanielCraig.png', 'Im_DanielRadcliffe.png', 'Im_OrlandoBloom.png', 'Im_PatrickDempsey.png', 'Im_RobertPattinson.png', 'Im_RyanReynolds.png', 'Im_JustinTimberlake.png'],diff,1,0.41663729999982024,2,0,
PIPE1804,train,pos,150,pos150_id4_im20.bmp_pos150_id4_im15.bmp,['Im_BradPitt.png', 'Im_LeonardoDiCaprio.png', 'Im_GeorgeClooney.png', 'Im_DanielCraig.png', 'Im_DanielRadcliffe.png', 'Im_OrlandoBloom.png', 'Im_PatrickDempsey.png', 'Im_RobertPattinson.png', 'Im_RyanReynolds.png', 'Im_JustinTimberlake.png'],same,1,0.4167133000000831,3,0,
PIPE1804,train,pos,30,pos30_id16_im2.bmp_pos30_id16_im19.bmp,['Im_BradPitt.png', 'Im_LeonardoDiCaprio.png', 'Im_GeorgeClooney.png', 'Im_DanielCraig.png', 'Im_DanielRadcliffe.png', 'Im_OrlandoBloom.png', 'Im_PatrickDempsey.png', 'Im_RobertPattinson.png', 'Im_RyanReynolds.png', 'Im_JustinTimberlake.png'],same,1,0.4084835999999541,4,0,
PIPE1804,train,pos,fs,posfs_id10_im1.bmp_posfs_id3_im17.bmp,['Im_BradPitt.png', 'Im_LeonardoDiCaprio.png', 'Im_GeorgeClooney.png', 'Im_DanielCraig.png', 'Im_DanielRadcliffe.png', 'Im_OrlandoBloom.png', 'Im_PatrickDempsey.png', 'Im_RobertPattinson.png', 'Im_RyanReynolds.png', 'Im_JustinTimberlake.png'],diff,1,0.41671069999983956,5,0,
PIPE1804,train,pos,30,pos30_id13_im29.bmp_pos30_id10_im18.bmp,['Im_BradPitt.png', 'Im_LeonardoDiCaprio.png', 'Im_GeorgeClooney.png', 'Im_DanielCraig.png', 'Im_DanielRadcliffe.png', 'Im_OrlandoBloom.png', 'Im_PatrickDempsey.png', 'Im_RobertPattinson.png', 'Im_RyanReynolds.png', 'Im_JustinTimberlake.png'],diff,1,0.41689880000012636,6,0,
PIPE1804,train,pos,150,pos150_id3_im6.bmp_pos150_id3_im17.bmp,['Im_BradPitt.png', 'Im_LeonardoDiCaprio.png', 'Im_GeorgeClooney.png', 'Im_DanielCraig.png', 'Im_DanielRadcliffe.png', 'Im_OrlandoBloom.png', 'Im_PatrickDempsey.png', 'Im_RobertPattinson.png', 'Im_RyanReynolds.png', 'Im_JustinTimberlake.png'],same,1,0.6329419000001053,7,0,
PIPE1804,train,pos,120,pos120_id13_im10.bmp_pos120_id13_im15.bmp,['Im_BradPitt.png', 'Im_LeonardoDiCaprio.png', 'Im_GeorgeClooney.png', 'Im_DanielCraig.png', 'Im_DanielRadcliffe.png', 'Im_OrlandoBloom.png', 'Im_PatrickDempsey.png', 'Im_RobertPattinson.png', 'Im_RyanReynolds.png', 'Im_JustinTimberlake.png'],same,1,0.4165824000001521,8,0,
PIPE1804,train,pos,0,pos0_id4_im7.bmp_pos0_id4_im15.bmp,['Im_BradPitt.png', 'Im_LeonardoDiCaprio.png', 'Im_GeorgeClooney.png', 'Im_DanielCraig.png', 'Im_DanielRadcliffe.png', 'Im_OrlandoBloom.png', 'Im_PatrickDempsey.png', 'Im_RobertPattinson.png', 'Im_RyanReynolds.png', 'Im_JustinTimberlake.png'],same,1,0.4165745000000243,9,0,
PIPE1804,train,pos,60,pos60_id7_im15.bmp_pos60_id21_im16.bmp,['Im_BradPitt.png', 'Im_LeonardoDiCaprio.png', 'Im_GeorgeClooney.png', 'Im_DanielCraig.png', 'Im_DanielRadcliffe.png', 'Im_OrlandoBloom.png', 'Im_PatrickDempsey.png', 'Im_RobertPattinson.png', 'Im_RyanReynolds.png', 'Im_JustinTimberlake.png'],diff,1,0.41665149999994355,10,0,
PIPE1804,train,pos,90,pos90_id16_im3.bmp_pos90_id7_im14.bmp,['Im_BradPitt.png', 'Im_LeonardoDiCaprio.png', 'Im_GeorgeClooney.png', 'Im_DanielCraig.png', 'Im_DanielRadcliffe.png', 'Im_OrlandoBloom.png', 'Im_PatrickDempsey.png', 'Im_RobertPattinson.png', 'Im_RyanReynolds.png', 'Im_JustinTimberlake.png'],diff,1,0.4082508000001326,11,0,
PIPE1804,train,pos,90,pos90_id5_im1.bmp_pos90_id4_im15.bmp,['Im_BradPitt.png', 'Im_LeonardoDiCaprio.png', 'Im_GeorgeClooney.png', 'Im_DanielCraig.png', 'Im_DanielRadcliffe.png', 'Im_OrlandoBloom.png', 'Im_PatrickDempsey.png', 'Im_RobertPattinson.png', 'Im_RyanReynolds.png', 'Im_JustinTimberlake.png'],diff,1,0.4167204000000311,12,0,
PIPE1804,train,pos,fs,posfs_id21_im16.bmp_posfs_id7_im15.bmp,['Im_BradPitt.png', 'Im_LeonardoDiCaprio.png', 'Im_GeorgeClooney.png', 'Im_DanielCraig.png', 'Im_DanielRadcliffe.png', 'Im_OrlandoBloom.png', 'Im_PatrickDempsey.png', 'Im_RobertPattinson.png', 'Im_RyanReynolds.png', 'Im_JustinTimberlake.png'],diff,1,0.4083557000001292,13,0,
PIPE1804,train,pos,0,pos0_id3_im8.bmp_pos0_id17_im14.bmp,['Im_BradPitt.png', 'Im_LeonardoDiCaprio.png', 'Im_GeorgeClooney.png', 'Im_DanielCraig.png', 'Im_DanielRadcliffe.png', 'Im_OrlandoBloom.png', 'Im_PatrickDempsey.png', 'Im_RobertPattinson.png', 'Im_RyanReynolds.png', 'Im_JustinTimberlake.png'],same,0,1.3667715999999928,13,0,
PIPE1804,train,inv,fs,posfs_id10_im1.bmp_posfs_id3_im17.bmp,['Im_BradPitt.png', 'Im_LeonardoDiCaprio.png', 'Im_GeorgeClooney.png', 'Im_DanielCraig.png', 'Im_DanielRadcliffe.png', 'Im_OrlandoBloom.png', 'Im_PatrickDempsey.png', 'Im_RobertPattinson.png', 'Im_RyanReynolds.png', 'Im_JustinTimberlake.png'],diff,1,0.4083816999998362,14,0,
PIPE1804,train,inv,120,pos120_id7_im15.bmp_pos120_id21_im16.bmp,['Im_BradPitt.png', 'Im_LeonardoDiCaprio.png', 'Im_GeorgeClooney.png', 'Im_DanielCraig.png', 'Im_DanielRadcliffe.png', 'Im_OrlandoBloom.png', 'Im_PatrickDempsey.png', 'Im_RobertPattinson.png', 'Im_RyanReynolds.png', 'Im_JustinTimberlake.png'],same,0,0.4167116999999507,14,0,
PIPE1804,train,inv,90,pos90_id10_im1.bmp_pos90_id3_im17.bmp,['Im_BradPitt.png', 'Im_LeonardoDiCaprio.png', 'Im_GeorgeClooney.png', 'Im_DanielCraig.png', 'Im_DanielRadcliffe.png', 'Im_OrlandoBloom.png', 'Im_PatrickDempsey.png', 'Im_RobertPattinson.png', 'Im_RyanReynolds.png', 'Im_JustinTimberlake.png'],diff,1,0.9585816000001159,15,0,
PIPE1804,train,inv,30,pos30_id7_im26.bmp_pos30_id7_im14.bmp,['Im_BradPitt.png', 'Im_LeonardoDiCaprio.png', 'Im_GeorgeClooney.png', 'Im_DanielCraig.png', 'Im_DanielRadcliffe.png', 'Im_OrlandoBloom.png', 'Im_PatrickDempsey.png', 'Im_RobertPattinson.png', 'Im_RyanReynolds.png', 'Im_JustinTimberlake.png'],same,1,0.4919313999998849,16,0,
PIPE1804,train,inv,90,pos90_id13_im10.bmp_pos90_id13_im29.bmp,['Im_BradPitt.png', 'Im_LeonardoDiCaprio.png', 'Im_GeorgeClooney.png', 'Im_DanielCraig.png', 'Im_DanielRadcliffe.png', 'Im_OrlandoBloom.png', 'Im_PatrickDempsey.png', 'Im_RobertPattinson.png', 'Im_RyanReynolds.png', 'Im_JustinTimberlake.png'],diff,0,0.6337649999998121,16,0,
PIPE1804,train,inv,60,pos60_id17_im8.bmp_pos60_id10_im17.bmp,['Im_BradPitt.png', 'Im_LeonardoDiCaprio.png', 'Im_GeorgeClooney.png', 'Im_DanielCraig.png', 'Im_DanielRadcliffe.png', 'Im_OrlandoBloom.png', 'Im_PatrickDempsey.png', 'Im_RobertPattinson.png', 'Im_RyanReynolds.png', 'Im_JustinTimberlake.png'],diff,1,0.6836786999999731,17,0,
PIPE1804,train,inv,150,pos150_id3_im6.bmp_pos150_id10_im17.bmp,['Im_BradPitt.png', 'Im_LeonardoDiCaprio.png', 'Im_GeorgeClooney.png', 'Im_DanielCraig.png', 'Im_DanielRadcliffe.png', 'Im_OrlandoBloom.png', 'Im_PatrickDempsey.png', 'Im_RobertPattinson.png', 'Im_RyanReynolds.png', 'Im_JustinTimberlake.png'],diff,1,0.41656779999993887,18,0,
PIPE1804,train,inv,120,pos120_id10_im17.bmp_pos120_id10_im1.bmp,['Im_BradPitt.png', 'Im_LeonardoDiCaprio.png', 'Im_GeorgeClooney.png', 'Im_DanielCraig.png', 'Im_DanielRadcliffe.png', 'Im_OrlandoBloom.png', 'Im_PatrickDempsey.png', 'Im_RobertPattinson.png', 'Im_RyanReynolds.png', 'Im_JustinTimberlake.png'],same,1,0.5833759999998165,19,0,
PIPE1804,train,inv,60,pos60_id10_im18.bmp_pos60_id13_im29.bmp,['Im_BradPitt.png', 'Im_LeonardoDiCaprio.png', 'Im_GeorgeClooney.png', 'Im_DanielCraig.png', 'Im_DanielRadcliffe.png', 'Im_OrlandoBloom.png', 'Im_PatrickDempsey.png', 'Im_RobertPattinson.png', 'Im_RyanReynolds.png', 'Im_JustinTimberlake.png'],same,0,1.1667927000000873,19,0,
PIPE1804,train,inv,0,pos0_id16_im3.bmp_pos0_id19_im8.bmp,['Im_BradPitt.png', 'Im_LeonardoDiCaprio.png', 'Im_GeorgeClooney.png', 'Im_DanielCraig.png', 'Im_DanielRadcliffe.png', 'Im_OrlandoBloom.png', 'Im_PatrickDempsey.png', 'Im_RobertPattinson.png', 'Im_RyanReynolds.png', 'Im_JustinTimberlake.png'],same,0,0.8418990000000122,19,0,
PIPE1804,train,inv,fs,posfs_id21_im22.bmp_posfs_id4_im20.bmp,['Im_BradPitt.png', 'Im_LeonardoDiCaprio.png', 'Im_GeorgeClooney.png', 'Im_DanielCraig.png', 'Im_DanielRadcliffe.png', 'Im_OrlandoBloom.png', 'Im_PatrickDempsey.png', 'Im_RobertPattinson.png', 'Im_RyanReynolds.png', 'Im_JustinTimberlake.png'],diff,1,0.41666399999985515,20,0,
PIPE1804,train,inv,30,pos30_id5_im1.bmp_pos30_id5_im20.bmp,['Im_BradPitt.png', 'Im_LeonardoDiCaprio.png', 'Im_GeorgeClooney.png', 'Im_DanielCraig.png', 'Im_DanielRadcliffe.png', 'Im_OrlandoBloom.png', 'Im_PatrickDempsey.png', 'Im_RobertPattinson.png', 'Im_RyanReynolds.png', 'Im_JustinTimberlake.png'],diff,0,0.41668939999999566,20,0,
PIPE1804,train,inv,150,pos150_id16_im3.bmp_pos150_id7_im14.bmp,['Im_BradPitt.png', 'Im_LeonardoDiCaprio.png', 'Im_GeorgeClooney.png', 'Im_DanielCraig.png', 'Im_DanielRadcliffe.png', 'Im_OrlandoBloom.png', 'Im_PatrickDempsey.png', 'Im_RobertPattinson.png', 'Im_RyanReynolds.png', 'Im_JustinTimberlake.png'],diff,1,0.408559200000127,21,0,
PIPE1804,train,inv,0,pos0_id17_im8.bmp_pos0_id10_im17.bmp,['Im_BradPitt.png', 'Im_LeonardoDiCaprio.png', 'Im_GeorgeClooney.png', 'Im_DanielCraig.png', 'Im_DanielRadcliffe.png', 'Im_OrlandoBloom.png', 'Im_PatrickDempsey.png', 'Im_RobertPattinson.png', 'Im_RyanReynolds.png', 'Im_JustinTimberlake.png'],same,0,0.5168110000001889,21,0,
PIPE1804,train,neg,120,neg120_id16_im19.bmp_neg120_id16_im3.bmp,['Im_BradPitt.png', 'Im_LeonardoDiCaprio.png', 'Im_GeorgeClooney.png', 'Im_DanielCraig.png', 'Im_DanielRadcliffe.png', 'Im_OrlandoBloom.png', 'Im_PatrickDempsey.png', 'Im_RobertPattinson.png', 'Im_RyanReynolds.png', 'Im_JustinTimberlake.png'],same,1,0.4167549000001145,22,0,
PIPE1804,train,neg,60,neg60_id17_im9.bmp_neg60_id4_im7.bmp,['Im_BradPitt.png', 'Im_LeonardoDiCaprio.png', 'Im_GeorgeClooney.png', 'Im_DanielCraig.png', 'Im_DanielRadcliffe.png', 'Im_OrlandoBloom.png', 'Im_PatrickDempsey.png', 'Im_RobertPattinson.png', 'Im_RyanReynolds.png', 'Im_JustinTimberlake.png'],diff,1,0.7670838999999887,23,0,
PIPE1804,train,neg,150,neg150_id3_im17.bmp_neg150_id3_im8.bmp,['Im_BradPitt.png', 'Im_LeonardoDiCaprio.png', 'Im_GeorgeClooney.png', 'Im_DanielCraig.png', 'Im_DanielRadcliffe.png', 'Im_OrlandoBloom.png', 'Im_PatrickDempsey.png', 'Im_RobertPattinson.png', 'Im_RyanReynolds.png', 'Im_JustinTimberlake.png'],same,1,0.5167944999998326,24,0,
PIPE1804,train,neg,30,neg30_id17_im8.bmp_neg30_id4_im7.bmp,['Im_BradPitt.png', 'Im_LeonardoDiCaprio.png', 'Im_GeorgeClooney.png', 'Im_DanielCraig.png', 'Im_DanielRadcliffe.png', 'Im_OrlandoBloom.png', 'Im_PatrickDempsey.png', 'Im_RobertPattinson.png', 'Im_RyanReynolds.png', 'Im_JustinTimberlake.png'],same,0,0.48331340000004275,24,0,
PIPE1804,train,neg,fs,negfs_id5_im1.bmp_negfs_id5_im20.bmp,['Im_BradPitt.png', 'Im_LeonardoDiCaprio.png', 'Im_GeorgeClooney.png', 'Im_DanielCraig.png', 'Im_DanielRadcliffe.png', 'Im_OrlandoBloom.png', 'Im_PatrickDempsey.png', 'Im_RobertPattinson.png', 'Im_RyanReynolds.png', 'Im_JustinTimberlake.png'],same,1,0.7082021000001077,25,0,
PIPE1804,train,neg,90,neg90_id17_im9.bmp_neg90_id17_im8.bmp,['Im_BradPitt.png', 'Im_LeonardoDiCaprio.png', 'Im_GeorgeClooney.png', 'Im_DanielCraig.png', 'Im_DanielRadcliffe.png', 'Im_OrlandoBloom.png', 'Im_PatrickDempsey.png', 'Im_RobertPattinson.png', 'Im_RyanReynolds.png', 'Im_JustinTimberlake.png'],same,1,0.7917583999999351,26,0,
PIPE1804,train,neg,0,neg0_id5_im20.bmp_neg0_id5_im10.bmp,['Im_BradPitt.png', 'Im_LeonardoDiCaprio.png', 'Im_GeorgeClooney.png', 'Im_DanielCraig.png', 'Im_DanielRadcliffe.png', 'Im_OrlandoBloom.png', 'Im_PatrickDempsey.png', 'Im_RobertPattinson.png', 'Im_RyanReynolds.png', 'Im_JustinTimberlake.png'],same,1,1.800009700000146,27,0,
PIPE1804,train,neg,90,neg90_id5_im10.bmp_neg90_id21_im17.bmp,['Im_BradPitt.png', 'Im_LeonardoDiCaprio.png', 'Im_GeorgeClooney.png', 'Im_DanielCraig.png', 'Im_DanielRadcliffe.png', 'Im_OrlandoBloom.png', 'Im_PatrickDempsey.png', 'Im_RobertPattinson.png', 'Im_RyanReynolds.png', 'Im_JustinTimberlake.png'],diff,1,0.4500278000000435,28,0,
PIPE1804,train,neg,60,neg60_id4_im15.bmp_neg60_id5_im1.bmp,['Im_BradPitt.png', 'Im_LeonardoDiCaprio.png', 'Im_GeorgeClooney.png', 'Im_DanielCraig.png', 'Im_DanielRadcliffe.png', 'Im_OrlandoBloom.png', 'Im_PatrickDempsey.png', 'Im_RobertPattinson.png', 'Im_RyanReynolds.png', 'Im_JustinTimberlake.png'],diff,1,0.4167178000000149,29,0,
PIPE1804,train,neg,0,neg0_id3_im8.bmp_neg0_id3_im6.bmp,['Im_BradPitt.png', 'Im_LeonardoDiCaprio.png', 'Im_GeorgeClooney.png', 'Im_DanielCraig.png', 'Im_DanielRadcliffe.png', 'Im_OrlandoBloom.png', 'Im_PatrickDempsey.png', 'Im_RobertPattinson.png', 'Im_RyanReynolds.png', 'Im_JustinTimberlake.png'],same,1,0.416680499999984,30,0,
PIPE1804,train,neg,fs,negfs_id13_im10.bmp_negfs_id19_im8.bmp,['Im_BradPitt.png', 'Im_LeonardoDiCaprio.png', 'Im_GeorgeClooney.png', 'Im_DanielCraig.png', 'Im_DanielRadcliffe.png', 'Im_OrlandoBloom.png', 'Im_PatrickDempsey.png', 'Im_RobertPattinson.png', 'Im_RyanReynolds.png', 'Im_JustinTimberlake.png'],diff,1,0.9420038999999178,31,0,
PIPE1804,train,neg,120,neg120_id19_im4.bmp_neg120_id19_im8.bmp,['Im_BradPitt.png', 'Im_LeonardoDiCaprio.png', 'Im_GeorgeClooney.png', 'Im_DanielCraig.png', 'Im_DanielRadcliffe.png', 'Im_OrlandoBloom.png', 'Im_PatrickDempsey.png', 'Im_RobertPattinson.png', 'Im_RyanReynolds.png', 'Im_JustinTimberlake.png'],same,1,1.6500479999999698,32,0,
PIPE1804,train,neg,30,neg30_id7_im15.bmp_neg30_id21_im16.bmp,['Im_BradPitt.png', 'Im_LeonardoDiCaprio.png', 'Im_GeorgeClooney.png', 'Im_DanielCraig.png', 'Im_DanielRadcliffe.png', 'Im_OrlandoBloom.png', 'Im_PatrickDempsey.png', 'Im_RobertPattinson.png', 'Im_RyanReynolds.png', 'Im_JustinTimberlake.png'],same,0,0.5000546999999642,32,0,
PIPE1804,train,neg,150,neg150_id13_im29.bmp_neg150_id10_im18.bmp,['Im_BradPitt.png', 'Im_LeonardoDiCaprio.png', 'Im_GeorgeClooney.png', 'Im_DanielCraig.png', 'Im_DanielRadcliffe.png', 'Im_OrlandoBloom.png', 'Im_PatrickDempsey.png', 'Im_RobertPattinson.png', 'Im_RyanReynolds.png', 'Im_JustinTimberlake.png'],diff,1,0.43318829999998343,33,0,
PIPE1804,train,inv,0,pos0_id17_im14.bmp_pos0_id13_im15.bmp,['Im_BradPitt.png', 'Im_LeonardoDiCaprio.png', 'Im_GeorgeClooney.png', 'Im_DanielCraig.png', 'Im_DanielRadcliffe.png', 'Im_OrlandoBloom.png', 'Im_PatrickDempsey.png', 'Im_RobertPattinson.png', 'Im_RyanReynolds.png', 'Im_JustinTimberlake.png'],same,0,1.033373900000015,0,78.57142857142857,
PIPE1804,train,inv,fs,posfs_id21_im22.bmp_posfs_id21_im17.bmp,['Im_BradPitt.png', 'Im_LeonardoDiCaprio.png', 'Im_GeorgeClooney.png', 'Im_DanielCraig.png', 'Im_DanielRadcliffe.png', 'Im_OrlandoBloom.png', 'Im_PatrickDempsey.png', 'Im_RobertPattinson.png', 'Im_RyanReynolds.png', 'Im_JustinTimberlake.png'],diff,0,0.4167162000001099,0,78.57142857142857,
PIPE1804,train,inv,150,pos150_id7_im26.bmp_pos150_id7_im14.bmp,['Im_BradPitt.png', 'Im_LeonardoDiCaprio.png', 'Im_GeorgeClooney.png', 'Im_DanielCraig.png', 'Im_DanielRadcliffe.png', 'Im_OrlandoBloom.png', 'Im_PatrickDempsey.png', 'Im_RobertPattinson.png', 'Im_RyanReynolds.png', 'Im_JustinTimberlake.png'],same,1,0.41659580000009555,1,78.57142857142857,
PIPE1804,train,inv,120,pos120_id3_im8.bmp_pos120_id17_im14.bmp,['Im_BradPitt.png', 'Im_LeonardoDiCaprio.png', 'Im_GeorgeClooney.png', 'Im_DanielCraig.png', 'Im_DanielRadcliffe.png', 'Im_OrlandoBloom.png', 'Im_PatrickDempsey.png', 'Im_RobertPattinson.png', 'Im_RyanReynolds.png', 'Im_JustinTimberlake.png'],diff,1,0.4082381999999143,2,78.57142857142857,
PIPE1804,train,inv,30,pos30_id19_im4.bmp_pos30_id19_im27.bmp,['Im_BradPitt.png', 'Im_LeonardoDiCaprio.png', 'Im_GeorgeClooney.png', 'Im_DanielCraig.png', 'Im_DanielRadcliffe.png', 'Im_OrlandoBloom.png', 'Im_PatrickDempsey.png', 'Im_RobertPattinson.png', 'Im_RyanReynolds.png', 'Im_JustinTimberlake.png'],diff,0,1.941913599999907,2,78.57142857142857,
PIPE1804,train,inv,0,pos0_id16_im19.bmp_pos0_id5_im20.bmp,['Im_BradPitt.png', 'Im_LeonardoDiCaprio.png', 'Im_GeorgeClooney.png', 'Im_DanielCraig.png', 'Im_DanielRadcliffe.png', 'Im_OrlandoBloom.png', 'Im_PatrickDempsey.png', 'Im_RobertPattinson.png', 'Im_RyanReynolds.png', 'Im_JustinTimberlake.png'],diff,1,0.45003859999997076,3,78.57142857142857,
PIPE1804,train,inv,90,pos90_id4_im7.bmp_pos90_id4_im15.bmp,['Im_BradPitt.png', 'Im_LeonardoDiCaprio.png', 'Im_GeorgeClooney.png', 'Im_DanielCraig.png', 'Im_DanielRadcliffe.png', 'Im_OrlandoBloom.png', 'Im_PatrickDempsey.png', 'Im_RobertPattinson.png', 'Im_RyanReynolds.png', 'Im_JustinTimberlake.png'],same,1,0.4000286000000415,4,78.57142857142857,
PIPE1804,train,inv,150,pos150_id21_im17.bmp_pos150_id5_im20.bmp,['Im_BradPitt.png', 'Im_LeonardoDiCaprio.png', 'Im_GeorgeClooney.png', 'Im_DanielCraig.png', 'Im_DanielRadcliffe.png', 'Im_OrlandoBloom.png', 'Im_PatrickDempsey.png', 'Im_RobertPattinson.png', 'Im_RyanReynolds.png', 'Im_JustinTimberlake.png'],diff,1,0.6333804999999302,5,78.57142857142857,
PIPE1804,train,inv,60,pos60_id17_im14.bmp_pos60_id17_im9.bmp,['Im_BradPitt.png', 'Im_LeonardoDiCaprio.png', 'Im_GeorgeClooney.png', 'Im_DanielCraig.png', 'Im_DanielRadcliffe.png', 'Im_OrlandoBloom.png', 'Im_PatrickDempsey.png', 'Im_RobertPattinson.png', 'Im_RyanReynolds.png', 'Im_JustinTimberlake.png'],diff,0,0.5833388000000923,5,78.57142857142857,
PIPE1804,train,inv,120,pos120_id3_im17.bmp_pos120_id13_im29.bmp,['Im_BradPitt.png', 'Im_LeonardoDiCaprio.png', 'Im_GeorgeClooney.png', 'Im_DanielCraig.png', 'Im_DanielRadcliffe.png', 'Im_OrlandoBloom.png', 'Im_PatrickDempsey.png', 'Im_RobertPattinson.png', 'Im_RyanReynolds.png', 'Im_JustinTimberlake.png'],diff,1,0.4167654999998831,6,78.57142857142857,
PIPE1804,train,inv,fs,posfs_id10_im1.bmp_posfs_id10_im17.bmp,['Im_BradPitt.png', 'Im_LeonardoDiCaprio.png', 'Im_GeorgeClooney.png', 'Im_DanielCraig.png', 'Im_DanielRadcliffe.png', 'Im_OrlandoBloom.png', 'Im_PatrickDempsey.png', 'Im_RobertPattinson.png', 'Im_RyanReynolds.png', 'Im_JustinTimberlake.png'],diff,0,0.41678969999998117,6,78.57142857142857,
PIPE1804,train,inv,90,pos90_id17_im9.bmp_pos90_id3_im6.bmp,['Im_BradPitt.png', 'Im_LeonardoDiCaprio.png', 'Im_GeorgeClooney.png', 'Im_DanielCraig.png', 'Im_DanielRadcliffe.png', 'Im_OrlandoBloom.png', 'Im_PatrickDempsey.png', 'Im_RobertPattinson.png', 'Im_RyanReynolds.png', 'Im_JustinTimberlake.png'],diff,1,0.6917347999999492,7,78.57142857142857,
PIPE1804,train,inv,60,pos60_id16_im3.bmp_pos60_id16_im19.bmp,['Im_BradPitt.png', 'Im_LeonardoDiCaprio.png', 'Im_GeorgeClooney.png', 'Im_DanielCraig.png', 'Im_DanielRadcliffe.png', 'Im_OrlandoBloom.png', 'Im_PatrickDempsey.png', 'Im_RobertPattinson.png', 'Im_RyanReynolds.png', 'Im_JustinTimberlake.png'],diff,0,1.333684200000107,7,78.57142857142857,
PIPE1804,train,inv,30,pos30_id7_im26.bmp_pos30_id7_im15.bmp,['Im_BradPitt.png', 'Im_LeonardoDiCaprio.png', 'Im_GeorgeClooney.png', 'Im_DanielCraig.png', 'Im_DanielRadcliffe.png', 'Im_OrlandoBloom.png', 'Im_PatrickDempsey.png', 'Im_RobertPattinson.png', 'Im_RyanReynolds.png', 'Im_JustinTimberlake.png'],same,1,0.4834976999998162,8,78.57142857142857,
PIPE1804,train,pos,90,pos90_id17_im9.bmp_pos90_id17_im8.bmp,['Im_BradPitt.png', 'Im_LeonardoDiCaprio.png', 'Im_GeorgeClooney.png', 'Im_DanielCraig.png', 'Im_DanielRadcliffe.png', 'Im_OrlandoBloom.png', 'Im_PatrickDempsey.png', 'Im_RobertPattinson.png', 'Im_RyanReynolds.png', 'Im_JustinTimberlake.png'],same,1,0.3996687000001202,9,78.57142857142857,
PIPE1804,train,pos,30,pos30_id5_im10.bmp_pos30_id5_im1.bmp,['Im_BradPitt.png', 'Im_LeonardoDiCaprio.png', 'Im_GeorgeClooney.png', 'Im_DanielCraig.png', 'Im_DanielRadcliffe.png', 'Im_OrlandoBloom.png', 'Im_PatrickDempsey.png', 'Im_RobertPattinson.png', 'Im_RyanReynolds.png', 'Im_JustinTimberlake.png'],same,1,0.41672769999991033,10,78.57142857142857,
PIPE1804,train,pos,0,pos0_id5_im10.bmp_pos0_id5_im1.bmp,['Im_BradPitt.png', 'Im_LeonardoDiCaprio.png', 'Im_GeorgeClooney.png', 'Im_DanielCraig.png', 'Im_DanielRadcliffe.png', 'Im_OrlandoBloom.png', 'Im_PatrickDempsey.png', 'Im_RobertPattinson.png', 'Im_RyanReynolds.png', 'Im_JustinTimberlake.png'],same,1,0.4083856999998261,11,78.57142857142857,
PIPE1804,train,pos,30,pos30_id7_im26.bmp_pos30_id3_im8.bmp,['Im_BradPitt.png', 'Im_LeonardoDiCaprio.png', 'Im_GeorgeClooney.png', 'Im_DanielCraig.png', 'Im_DanielRadcliffe.png', 'Im_OrlandoBloom.png', 'Im_PatrickDempsey.png', 'Im_RobertPattinson.png', 'Im_RyanReynolds.png', 'Im_JustinTimberlake.png'],diff,1,0.4000304999999571,12,78.57142857142857,
PIPE1804,train,pos,60,pos60_id17_im14.bmp_pos60_id3_im8.bmp,['Im_BradPitt.png', 'Im_LeonardoDiCaprio.png', 'Im_GeorgeClooney.png', 'Im_DanielCraig.png', 'Im_DanielRadcliffe.png', 'Im_OrlandoBloom.png', 'Im_PatrickDempsey.png', 'Im_RobertPattinson.png', 'Im_RyanReynolds.png', 'Im_JustinTimberlake.png'],diff,1,0.6501857000000655,13,78.57142857142857,
PIPE1804,train,pos,60,pos60_id10_im1.bmp_pos60_id10_im17.bmp,['Im_BradPitt.png', 'Im_LeonardoDiCaprio.png', 'Im_GeorgeClooney.png', 'Im_DanielCraig.png', 'Im_DanielRadcliffe.png', 'Im_OrlandoBloom.png', 'Im_PatrickDempsey.png', 'Im_RobertPattinson.png', 'Im_RyanReynolds.png', 'Im_JustinTimberlake.png'],same,1,0.3997515000000931,14,78.57142857142857,
PIPE1804,train,pos,150,pos150_id3_im17.bmp_pos150_id13_im29.bmp,['Im_BradPitt.png', 'Im_LeonardoDiCaprio.png', 'Im_GeorgeClooney.png', 'Im_DanielCraig.png', 'Im_DanielRadcliffe.png', 'Im_OrlandoBloom.png', 'Im_PatrickDempsey.png', 'Im_RobertPattinson.png', 'Im_RyanReynolds.png', 'Im_JustinTimberlake.png'],diff,1,0.600023199999896,15,78.57142857142857,
PIPE1804,train,pos,150,pos150_id5_im10.bmp_pos150_id21_im17.bmp,['Im_BradPitt.png', 'Im_LeonardoDiCaprio.png', 'Im_GeorgeClooney.png', 'Im_DanielCraig.png', 'Im_DanielRadcliffe.png', 'Im_OrlandoBloom.png', 'Im_PatrickDempsey.png', 'Im_RobertPattinson.png', 'Im_RyanReynolds.png', 'Im_JustinTimberlake.png'],diff,1,0.4168680999998742,16,78.57142857142857,
PIPE1804,train,pos,90,pos90_id17_im8.bmp_pos90_id17_im14.bmp,['Im_BradPitt.png', 'Im_LeonardoDiCaprio.png', 'Im_GeorgeClooney.png', 'Im_DanielCraig.png', 'Im_DanielRadcliffe.png', 'Im_OrlandoBloom.png', 'Im_PatrickDempsey.png', 'Im_RobertPattinson.png', 'Im_RyanReynolds.png', 'Im_JustinTimberlake.png'],same,1,0.4167099999999664,17,78.57142857142857,
PIPE1804,train,pos,0,pos0_id3_im6.bmp_pos0_id3_im8.bmp,['Im_BradPitt.png', 'Im_LeonardoDiCaprio.png', 'Im_GeorgeClooney.png', 'Im_DanielCraig.png', 'Im_DanielRadcliffe.png', 'Im_OrlandoBloom.png', 'Im_PatrickDempsey.png', 'Im_RobertPattinson.png', 'Im_RyanReynolds.png', 'Im_JustinTimberlake.png'],same,1,0.41672940000012204,18,78.57142857142857,
PIPE1804,train,pos,fs,posfs_id5_im1.bmp_posfs_id5_im20.bmp,['Im_BradPitt.png', 'Im_LeonardoDiCaprio.png', 'Im_GeorgeClooney.png', 'Im_DanielCraig.png', 'Im_DanielRadcliffe.png', 'Im_OrlandoBloom.png', 'Im_PatrickDempsey.png', 'Im_RobertPattinson.png', 'Im_RyanReynolds.png', 'Im_JustinTimberlake.png'],same,1,0.4166947999999593,19,78.57142857142857,
PIPE1804,train,pos,120,pos120_id7_im15.bmp_pos120_id7_im14.bmp,['Im_BradPitt.png', 'Im_LeonardoDiCaprio.png', 'Im_GeorgeClooney.png', 'Im_DanielCraig.png', 'Im_DanielRadcliffe.png', 'Im_OrlandoBloom.png', 'Im_PatrickDempsey.png', 'Im_RobertPattinson.png', 'Im_RyanReynolds.png', 'Im_JustinTimberlake.png'],same,1,0.4168153999999049,20,78.57142857142857,
PIPE1804,train,pos,120,pos120_id7_im26.bmp_pos120_id3_im8.bmp,['Im_BradPitt.png', 'Im_LeonardoDiCaprio.png', 'Im_GeorgeClooney.png', 'Im_DanielCraig.png', 'Im_DanielRadcliffe.png', 'Im_OrlandoBloom.png', 'Im_PatrickDempsey.png', 'Im_RobertPattinson.png', 'Im_RyanReynolds.png', 'Im_JustinTimberlake.png'],diff,1,0.41654479999988325,21,78.57142857142857,
PIPE1804,train,pos,fs,posfs_id16_im2.bmp_posfs_id13_im10.bmp,['Im_BradPitt.png', 'Im_LeonardoDiCaprio.png', 'Im_GeorgeClooney.png', 'Im_DanielCraig.png', 'Im_DanielRadcliffe.png', 'Im_OrlandoBloom.png', 'Im_PatrickDempsey.png', 'Im_RobertPattinson.png', 'Im_RyanReynolds.png', 'Im_JustinTimberlake.png'],diff,1,0.41651779999983773,22,78.57142857142857,
PIPE1804,train,neg,90,neg90_id16_im3.bmp_neg90_id19_im8.bmp,['Im_BradPitt.png', 'Im_LeonardoDiCaprio.png', 'Im_GeorgeClooney.png', 'Im_DanielCraig.png', 'Im_DanielRadcliffe.png', 'Im_OrlandoBloom.png', 'Im_PatrickDempsey.png', 'Im_RobertPattinson.png', 'Im_RyanReynolds.png', 'Im_JustinTimberlake.png'],same,0,0.4083570999998756,22,78.57142857142857,
PIPE1804,train,neg,30,neg30_id19_im4.bmp_neg30_id19_im8.bmp,['Im_BradPitt.png', 'Im_LeonardoDiCaprio.png', 'Im_GeorgeClooney.png', 'Im_DanielCraig.png', 'Im_DanielRadcliffe.png', 'Im_OrlandoBloom.png', 'Im_PatrickDempsey.png', 'Im_RobertPattinson.png', 'Im_RyanReynolds.png', 'Im_JustinTimberlake.png'],same,1,1.7166707999999744,23,78.57142857142857,
PIPE1804,train,neg,0,neg0_id7_im15.bmp_neg0_id21_im16.bmp,['Im_BradPitt.png', 'Im_LeonardoDiCaprio.png', 'Im_GeorgeClooney.png', 'Im_DanielCraig.png', 'Im_DanielRadcliffe.png', 'Im_OrlandoBloom.png', 'Im_PatrickDempsey.png', 'Im_RobertPattinson.png', 'Im_RyanReynolds.png', 'Im_JustinTimberlake.png'],diff,1,0.5333847000001697,24,78.57142857142857,
PIPE1804,train,neg,60,neg60_id10_im1.bmp_neg60_id5_im1.bmp,['Im_BradPitt.png', 'Im_LeonardoDiCaprio.png', 'Im_GeorgeClooney.png', 'Im_DanielCraig.png', 'Im_DanielRadcliffe.png', 'Im_OrlandoBloom.png', 'Im_PatrickDempsey.png', 'Im_RobertPattinson.png', 'Im_RyanReynolds.png', 'Im_JustinTimberlake.png'],same,0,0.7500218999998651,24,78.57142857142857,
PIPE1804,train,neg,150,neg150_id4_im7.bmp_neg150_id17_im9.bmp,['Im_BradPitt.png', 'Im_LeonardoDiCaprio.png', 'Im_GeorgeClooney.png', 'Im_DanielCraig.png', 'Im_DanielRadcliffe.png', 'Im_OrlandoBloom.png', 'Im_PatrickDempsey.png', 'Im_RobertPattinson.png', 'Im_RyanReynolds.png', 'Im_JustinTimberlake.png'],diff,1,0.5755576000001383,25,78.57142857142857,
PIPE1804,train,neg,60,neg60_id5_im20.bmp_neg60_id5_im10.bmp,['Im_BradPitt.png', 'Im_LeonardoDiCaprio.png', 'Im_GeorgeClooney.png', 'Im_DanielCraig.png', 'Im_DanielRadcliffe.png', 'Im_OrlandoBloom.png', 'Im_PatrickDempsey.png', 'Im_RobertPattinson.png', 'Im_RyanReynolds.png', 'Im_JustinTimberlake.png'],diff,0,0.4000636000000668,25,78.57142857142857,
PIPE1804,train,neg,120,neg120_id3_im17.bmp_neg120_id3_im8.bmp,['Im_BradPitt.png', 'Im_LeonardoDiCaprio.png', 'Im_GeorgeClooney.png', 'Im_DanielCraig.png', 'Im_DanielRadcliffe.png', 'Im_OrlandoBloom.png', 'Im_PatrickDempsey.png', 'Im_RobertPattinson.png', 'Im_RyanReynolds.png', 'Im_JustinTimberlake.png'],same,1,0.39976720000004207,26,78.57142857142857,
PIPE1804,train,neg,150,neg150_id19_im8.bmp_neg150_id19_im4.bmp,['Im_BradPitt.png', 'Im_LeonardoDiCaprio.png', 'Im_GeorgeClooney.png', 'Im_DanielCraig.png', 'Im_DanielRadcliffe.png', 'Im_OrlandoBloom.png', 'Im_PatrickDempsey.png', 'Im_RobertPattinson.png', 'Im_RyanReynolds.png', 'Im_JustinTimberlake.png'],same,1,0.4167237000001478,27,78.57142857142857,
PIPE1804,train,neg,90,neg90_id7_im14.bmp_neg90_id16_im3.bmp,['Im_BradPitt.png', 'Im_LeonardoDiCaprio.png', 'Im_GeorgeClooney.png', 'Im_DanielCraig.png', 'Im_DanielRadcliffe.png', 'Im_OrlandoBloom.png', 'Im_PatrickDempsey.png', 'Im_RobertPattinson.png', 'Im_RyanReynolds.png', 'Im_JustinTimberlake.png'],diff,1,0.4165597000001071,28,78.57142857142857,
PIPE1804,train,neg,fs,negfs_id21_im16.bmp_negfs_id21_im17.bmp,['Im_BradPitt.png', 'Im_LeonardoDiCaprio.png', 'Im_GeorgeClooney.png', 'Im_DanielCraig.png', 'Im_DanielRadcliffe.png', 'Im_OrlandoBloom.png', 'Im_PatrickDempsey.png', 'Im_RobertPattinson.png', 'Im_RyanReynolds.png', 'Im_JustinTimberlake.png'],same,1,0.6335482000004049,29,78.57142857142857,
PIPE1804,train,neg,30,neg30_id13_im15.bmp_neg30_id19_im27.bmp,['Im_BradPitt.png', 'Im_LeonardoDiCaprio.png', 'Im_GeorgeClooney.png', 'Im_DanielCraig.png', 'Im_DanielRadcliffe.png', 'Im_OrlandoBloom.png', 'Im_PatrickDempsey.png', 'Im_RobertPattinson.png', 'Im_RyanReynolds.png', 'Im_JustinTimberlake.png'],same,0,0.4581647999998495,29,78.57142857142857,
PIPE1804,train,neg,fs,negfs_id16_im2.bmp_negfs_id16_im19.bmp,['Im_BradPitt.png', 'Im_LeonardoDiCaprio.png', 'Im_GeorgeClooney.png', 'Im_DanielCraig.png', 'Im_DanielRadcliffe.png', 'Im_OrlandoBloom.png', 'Im_PatrickDempsey.png', 'Im_RobertPattinson.png', 'Im_RyanReynolds.png', 'Im_JustinTimberlake.png'],same,1,0.4167507000001933,30,78.57142857142857,
PIPE1804,train,neg,120,neg120_id7_im15.bmp_neg120_id7_im14.bmp,['Im_BradPitt.png', 'Im_LeonardoDiCaprio.png', 'Im_GeorgeClooney.png', 'Im_DanielCraig.png', 'Im_DanielRadcliffe.png', 'Im_OrlandoBloom.png', 'Im_PatrickDempsey.png', 'Im_RobertPattinson.png', 'Im_RyanReynolds.png', 'Im_JustinTimberlake.png'],same,1,0.4168864000002941,31,78.57142857142857,
PIPE1804,train,neg,0,neg0_id3_im8.bmp_neg0_id17_im14.bmp,['Im_BradPitt.png', 'Im_LeonardoDiCaprio.png', 'Im_GeorgeClooney.png', 'Im_DanielCraig.png', 'Im_DanielRadcliffe.png', 'Im_OrlandoBloom.png', 'Im_PatrickDempsey.png', 'Im_RobertPattinson.png', 'Im_RyanReynolds.png', 'Im_JustinTimberlake.png'],diff,1,0.4499658999998246,32,78.57142857142857,
PIPE1804,0,inv,120,pos120_id7_im15.bmp_pos120_id7_im14.bmp,['Im_BradPitt.png', 'Im_LeonardoDiCaprio.png', 'Im_GeorgeClooney.png', 'Im_DanielCraig.png', 'Im_DanielRadcliffe.png', 'Im_OrlandoBloom.png', 'Im_PatrickDempsey.png', 'Im_RobertPattinson.png', 'Im_RyanReynolds.png', 'Im_JustinTimberlake.png'],same,1,0.5751350999998976,1,0,
PIPE1804,0,inv,90,pos90_id4_im7.bmp_pos90_id4_im20.bmp,['Im_BradPitt.png', 'Im_LeonardoDiCaprio.png', 'Im_GeorgeClooney.png', 'Im_DanielCraig.png', 'Im_DanielRadcliffe.png', 'Im_OrlandoBloom.png', 'Im_PatrickDempsey.png', 'Im_RobertPattinson.png', 'Im_RyanReynolds.png', 'Im_JustinTimberlake.png'],same,1,0.42531099999996513,2,0,
PIPE1804,0,inv,30,pos30_id13_im15.bmp_pos30_id13_im10.bmp,['Im_BradPitt.png', 'Im_LeonardoDiCaprio.png', 'Im_GeorgeClooney.png', 'Im_DanielCraig.png', 'Im_DanielRadcliffe.png', 'Im_OrlandoBloom.png', 'Im_PatrickDempsey.png', 'Im_RobertPattinson.png', 'Im_RyanReynolds.png', 'Im_JustinTimberlake.png'],same,1,0.4084020000000237,3,0,
PIPE1804,0,inv,fs,posfs_id19_im8.bmp_posfs_id16_im3.bmp,['Im_BradPitt.png', 'Im_LeonardoDiCaprio.png', 'Im_GeorgeClooney.png', 'Im_DanielCraig.png', 'Im_DanielRadcliffe.png', 'Im_OrlandoBloom.png', 'Im_PatrickDempsey.png', 'Im_RobertPattinson.png', 'Im_RyanReynolds.png', 'Im_JustinTimberlake.png'],diff,1,0.40835189999961585,4,0,
PIPE1804,0,inv,fs,posfs_id4_im7.bmp_posfs_id17_im9.bmp,['Im_BradPitt.png', 'Im_LeonardoDiCaprio.png', 'Im_GeorgeClooney.png', 'Im_DanielCraig.png', 'Im_DanielRadcliffe.png', 'Im_OrlandoBloom.png', 'Im_PatrickDempsey.png', 'Im_RobertPattinson.png', 'Im_RyanReynolds.png', 'Im_JustinTimberlake.png'],diff,1,0.4084890999997697,5,0,
PIPE1804,0,inv,150,pos150_id10_im18.bmp_pos150_id10_im17.bmp,['Im_BradPitt.png', 'Im_LeonardoDiCaprio.png', 'Im_GeorgeClooney.png', 'Im_DanielCraig.png', 'Im_DanielRadcliffe.png', 'Im_OrlandoBloom.png', 'Im_PatrickDempsey.png', 'Im_RobertPattinson.png', 'Im_RyanReynolds.png', 'Im_JustinTimberlake.png'],same,1,0.408209899999747,6,0,
PIPE1804,0,inv,150,pos150_id21_im17.bmp_pos150_id21_im16.bmp,['Im_BradPitt.png', 'Im_LeonardoDiCaprio.png', 'Im_GeorgeClooney.png', 'Im_DanielCraig.png', 'Im_DanielRadcliffe.png', 'Im_OrlandoBloom.png', 'Im_PatrickDempsey.png', 'Im_RobertPattinson.png', 'Im_RyanReynolds.png', 'Im_JustinTimberlake.png'],same,1,0.40837069999997766,7,0,
PIPE1804,0,inv,0,pos0_id10_im1.bmp_pos0_id10_im18.bmp,['Im_BradPitt.png', 'Im_LeonardoDiCaprio.png', 'Im_GeorgeClooney.png', 'Im_DanielCraig.png', 'Im_DanielRadcliffe.png', 'Im_OrlandoBloom.png', 'Im_PatrickDempsey.png', 'Im_RobertPattinson.png', 'Im_RyanReynolds.png', 'Im_JustinTimberlake.png'],same,1,0.4000463000002128,8,0,
PIPE1804,0,inv,90,pos90_id7_im26.bmp_pos90_id19_im4.bmp,['Im_BradPitt.png', 'Im_LeonardoDiCaprio.png', 'Im_GeorgeClooney.png', 'Im_DanielCraig.png', 'Im_DanielRadcliffe.png', 'Im_OrlandoBloom.png', 'Im_PatrickDempsey.png', 'Im_RobertPattinson.png', 'Im_RyanReynolds.png', 'Im_JustinTimberlake.png'],same,0,0.4082488999997622,8,0,
PIPE1804,0,inv,0,pos0_id4_im7.bmp_pos0_id17_im8.bmp,['Im_BradPitt.png', 'Im_LeonardoDiCaprio.png', 'Im_GeorgeClooney.png', 'Im_DanielCraig.png', 'Im_DanielRadcliffe.png', 'Im_OrlandoBloom.png', 'Im_PatrickDempsey.png', 'Im_RobertPattinson.png', 'Im_RyanReynolds.png', 'Im_JustinTimberlake.png'],diff,1,0.40840860000025714,9,0,
PIPE1804,0,inv,120,pos120_id5_im1.bmp_pos120_id10_im1.bmp,['Im_BradPitt.png', 'Im_LeonardoDiCaprio.png', 'Im_GeorgeClooney.png', 'Im_DanielCraig.png', 'Im_DanielRadcliffe.png', 'Im_OrlandoBloom.png', 'Im_PatrickDempsey.png', 'Im_RobertPattinson.png', 'Im_RyanReynolds.png', 'Im_JustinTimberlake.png'],diff,1,0.4668255000001409,10,0,
PIPE1804,0,inv,60,pos60_id17_im8.bmp_pos60_id17_im9.bmp,['Im_BradPitt.png', 'Im_LeonardoDiCaprio.png', 'Im_GeorgeClooney.png', 'Im_DanielCraig.png', 'Im_DanielRadcliffe.png', 'Im_OrlandoBloom.png', 'Im_PatrickDempsey.png', 'Im_RobertPattinson.png', 'Im_RyanReynolds.png', 'Im_JustinTimberlake.png'],same,1,0.4002356000000873,11,0,
PIPE1804,0,inv,60,pos60_id3_im6.bmp_pos60_id3_im8.bmp,['Im_BradPitt.png', 'Im_LeonardoDiCaprio.png', 'Im_GeorgeClooney.png', 'Im_DanielCraig.png', 'Im_DanielRadcliffe.png', 'Im_OrlandoBloom.png', 'Im_PatrickDempsey.png', 'Im_RobertPattinson.png', 'Im_RyanReynolds.png', 'Im_JustinTimberlake.png'],same,1,0.40855499999997846,12,0,
PIPE1804,0,inv,30,pos30_id19_im8.bmp_pos30_id13_im10.bmp,['Im_BradPitt.png', 'Im_LeonardoDiCaprio.png', 'Im_GeorgeClooney.png', 'Im_DanielCraig.png', 'Im_DanielRadcliffe.png', 'Im_OrlandoBloom.png', 'Im_PatrickDempsey.png', 'Im_RobertPattinson.png', 'Im_RyanReynolds.png', 'Im_JustinTimberlake.png'],diff,1,0.400097299999743,13,0,
PIPE1804,1,neg,0,neg0_id5_im1.bmp_neg0_id5_im20.bmp,['Im_BradPitt.png', 'Im_LeonardoDiCaprio.png', 'Im_GeorgeClooney.png', 'Im_DanielCraig.png', 'Im_DanielRadcliffe.png', 'Im_OrlandoBloom.png', 'Im_PatrickDempsey.png', 'Im_RobertPattinson.png', 'Im_RyanReynolds.png', 'Im_JustinTimberlake.png'],diff,0,1.2919722999999976,13,0,
PIPE1804,1,neg,fs,negfs_id17_im9.bmp_negfs_id4_im7.bmp,['Im_BradPitt.png', 'Im_LeonardoDiCaprio.png', 'Im_GeorgeClooney.png', 'Im_DanielCraig.png', 'Im_DanielRadcliffe.png', 'Im_OrlandoBloom.png', 'Im_PatrickDempsey.png', 'Im_RobertPattinson.png', 'Im_RyanReynolds.png', 'Im_JustinTimberlake.png'],diff,1,0.42516280000018014,14,0,
PIPE1804,1,neg,150,neg150_id17_im8.bmp_neg150_id10_im17.bmp,['Im_BradPitt.png', 'Im_LeonardoDiCaprio.png', 'Im_GeorgeClooney.png', 'Im_DanielCraig.png', 'Im_DanielRadcliffe.png', 'Im_OrlandoBloom.png', 'Im_PatrickDempsey.png', 'Im_RobertPattinson.png', 'Im_RyanReynolds.png', 'Im_JustinTimberlake.png'],same,0,0.41674369999964256,14,0,
PIPE1804,1,neg,fs,negfs_id5_im10.bmp_negfs_id5_im1.bmp,['Im_BradPitt.png', 'Im_LeonardoDiCaprio.png', 'Im_GeorgeClooney.png', 'Im_DanielCraig.png', 'Im_DanielRadcliffe.png', 'Im_OrlandoBloom.png', 'Im_PatrickDempsey.png', 'Im_RobertPattinson.png', 'Im_RyanReynolds.png', 'Im_JustinTimberlake.png'],same,1,0.42510930000025837,15,0,
PIPE1804,1,neg,60,neg60_id5_im1.bmp_neg60_id5_im10.bmp,['Im_BradPitt.png', 'Im_LeonardoDiCaprio.png', 'Im_GeorgeClooney.png', 'Im_DanielCraig.png', 'Im_DanielRadcliffe.png', 'Im_OrlandoBloom.png', 'Im_PatrickDempsey.png', 'Im_RobertPattinson.png', 'Im_RyanReynolds.png', 'Im_JustinTimberlake.png'],diff,0,0.41647299999976894,15,0,
PIPE1804,1,neg,30,neg30_id10_im17.bmp_neg30_id3_im6.bmp,['Im_BradPitt.png', 'Im_LeonardoDiCaprio.png', 'Im_GeorgeClooney.png', 'Im_DanielCraig.png', 'Im_DanielRadcliffe.png', 'Im_OrlandoBloom.png', 'Im_PatrickDempsey.png', 'Im_RobertPattinson.png', 'Im_RyanReynolds.png', 'Im_JustinTimberlake.png'],same,0,0.5502455000000737,15,0,
PIPE1804,1,neg,30,neg30_id21_im17.bmp_neg30_id21_im16.bmp,['Im_BradPitt.png', 'Im_LeonardoDiCaprio.png', 'Im_GeorgeClooney.png', 'Im_DanielCraig.png', 'Im_DanielRadcliffe.png', 'Im_OrlandoBloom.png', 'Im_PatrickDempsey.png', 'Im_RobertPattinson.png', 'Im_RyanReynolds.png', 'Im_JustinTimberlake.png'],same,1,0.42509679999966465,16,0,
PIPE1804,1,neg,120,neg120_id5_im20.bmp_neg120_id5_im1.bmp,['Im_BradPitt.png', 'Im_LeonardoDiCaprio.png', 'Im_GeorgeClooney.png', 'Im_DanielCraig.png', 'Im_DanielRadcliffe.png', 'Im_OrlandoBloom.png', 'Im_PatrickDempsey.png', 'Im_RobertPattinson.png', 'Im_RyanReynolds.png', 'Im_JustinTimberlake.png'],same,1,0.42511309999963487,17,0,
PIPE1804,1,neg,150,neg150_id13_im10.bmp_neg150_id13_im29.bmp,['Im_BradPitt.png', 'Im_LeonardoDiCaprio.png', 'Im_GeorgeClooney.png', 'Im_DanielCraig.png', 'Im_DanielRadcliffe.png', 'Im_OrlandoBloom.png', 'Im_PatrickDempsey.png', 'Im_RobertPattinson.png', 'Im_RyanReynolds.png', 'Im_JustinTimberlake.png'],diff,0,0.4167642000002161,17,0,
PIPE1804,1,neg,90,neg90_id4_im7.bmp_neg90_id17_im8.bmp,['Im_BradPitt.png', 'Im_LeonardoDiCaprio.png', 'Im_GeorgeClooney.png', 'Im_DanielCraig.png', 'Im_DanielRadcliffe.png', 'Im_OrlandoBloom.png', 'Im_PatrickDempsey.png', 'Im_RobertPattinson.png', 'Im_RyanReynolds.png', 'Im_JustinTimberlake.png'],diff,1,0.42510330000004615,18,0,
PIPE1804,1,neg,0,neg0_id13_im29.bmp_neg0_id13_im10.bmp,['Im_BradPitt.png', 'Im_LeonardoDiCaprio.png', 'Im_GeorgeClooney.png', 'Im_DanielCraig.png', 'Im_DanielRadcliffe.png', 'Im_OrlandoBloom.png', 'Im_PatrickDempsey.png', 'Im_RobertPattinson.png', 'Im_RyanReynolds.png', 'Im_JustinTimberlake.png'],diff,0,0.41662280000036844,18,0,
PIPE1804,1,neg,90,neg90_id7_im26.bmp_neg90_id7_im14.bmp,['Im_BradPitt.png', 'Im_LeonardoDiCaprio.png', 'Im_GeorgeClooney.png', 'Im_DanielCraig.png', 'Im_DanielRadcliffe.png', 'Im_OrlandoBloom.png', 'Im_PatrickDempsey.png', 'Im_RobertPattinson.png', 'Im_RyanReynolds.png', 'Im_JustinTimberlake.png'],same,1,0.48340009999992617,19,0,
PIPE1804,1,neg,120,neg120_id13_im15.bmp_neg120_id19_im27.bmp,['Im_BradPitt.png', 'Im_LeonardoDiCaprio.png', 'Im_GeorgeClooney.png', 'Im_DanielCraig.png', 'Im_DanielRadcliffe.png', 'Im_OrlandoBloom.png', 'Im_PatrickDempsey.png', 'Im_RobertPattinson.png', 'Im_RyanReynolds.png', 'Im_JustinTimberlake.png'],diff,1,0.41665310000007594,20,0,
PIPE1804,1,neg,60,neg60_id3_im6.bmp_neg60_id3_im17.bmp,['Im_BradPitt.png', 'Im_LeonardoDiCaprio.png', 'Im_GeorgeClooney.png', 'Im_DanielCraig.png', 'Im_DanielRadcliffe.png', 'Im_OrlandoBloom.png', 'Im_PatrickDempsey.png', 'Im_RobertPattinson.png', 'Im_RyanReynolds.png', 'Im_JustinTimberlake.png'],diff,0,0.41670739999972284,20,0,
PIPE1804,2,pos,150,pos150_id10_im1.bmp_pos150_id5_im1.bmp,['Im_BradPitt.png', 'Im_LeonardoDiCaprio.png', 'Im_GeorgeClooney.png', 'Im_DanielCraig.png', 'Im_DanielRadcliffe.png', 'Im_OrlandoBloom.png', 'Im_PatrickDempsey.png', 'Im_RobertPattinson.png', 'Im_RyanReynolds.png', 'Im_JustinTimberlake.png'],diff,1,0.41674560000001293,21,0,
PIPE1804,2,pos,fs,posfs_id7_im14.bmp_posfs_id7_im15.bmp,['Im_BradPitt.png', 'Im_LeonardoDiCaprio.png', 'Im_GeorgeClooney.png', 'Im_DanielCraig.png', 'Im_DanielRadcliffe.png', 'Im_OrlandoBloom.png', 'Im_PatrickDempsey.png', 'Im_RobertPattinson.png', 'Im_RyanReynolds.png', 'Im_JustinTimberlake.png'],same,1,0.42503649999980553,22,0,
PIPE1804,2,pos,fs,posfs_id10_im18.bmp_posfs_id10_im1.bmp,['Im_BradPitt.png', 'Im_LeonardoDiCaprio.png', 'Im_GeorgeClooney.png', 'Im_DanielCraig.png', 'Im_DanielRadcliffe.png', 'Im_OrlandoBloom.png', 'Im_PatrickDempsey.png', 'Im_RobertPattinson.png', 'Im_RyanReynolds.png', 'Im_JustinTimberlake.png'],same,1,0.41663199999993594,23,0,
PIPE1804,2,pos,60,pos60_id17_im8.bmp_pos60_id4_im7.bmp,['Im_BradPitt.png', 'Im_LeonardoDiCaprio.png', 'Im_GeorgeClooney.png', 'Im_DanielCraig.png', 'Im_DanielRadcliffe.png', 'Im_OrlandoBloom.png', 'Im_PatrickDempsey.png', 'Im_RobertPattinson.png', 'Im_RyanReynolds.png', 'Im_JustinTimberlake.png'],diff,1,0.4167003000002296,24,0,
PIPE1804,2,pos,30,pos30_id5_im20.bmp_pos30_id5_im10.bmp,['Im_BradPitt.png', 'Im_LeonardoDiCaprio.png', 'Im_GeorgeClooney.png', 'Im_DanielCraig.png', 'Im_DanielRadcliffe.png', 'Im_OrlandoBloom.png', 'Im_PatrickDempsey.png', 'Im_RobertPattinson.png', 'Im_RyanReynolds.png', 'Im_JustinTimberlake.png'],same,1,0.4251096999996662,25,0,
PIPE1804,2,pos,150,pos150_id4_im20.bmp_pos150_id4_im7.bmp,['Im_BradPitt.png', 'Im_LeonardoDiCaprio.png', 'Im_GeorgeClooney.png', 'Im_DanielCraig.png', 'Im_DanielRadcliffe.png', 'Im_OrlandoBloom.png', 'Im_PatrickDempsey.png', 'Im_RobertPattinson.png', 'Im_RyanReynolds.png', 'Im_JustinTimberlake.png'],same,1,0.42506009999988237,26,0,
PIPE1804,2,pos,120,pos120_id3_im6.bmp_pos120_id10_im17.bmp,['Im_BradPitt.png', 'Im_LeonardoDiCaprio.png', 'Im_GeorgeClooney.png', 'Im_DanielCraig.png', 'Im_DanielRadcliffe.png', 'Im_OrlandoBloom.png', 'Im_PatrickDempsey.png', 'Im_RobertPattinson.png', 'Im_RyanReynolds.png', 'Im_JustinTimberlake.png'],diff,1,0.416747100000066,27,0,
PIPE1804,2,pos,90,pos90_id13_im10.bmp_pos90_id13_im15.bmp,['Im_BradPitt.png', 'Im_LeonardoDiCaprio.png', 'Im_GeorgeClooney.png', 'Im_DanielCraig.png', 'Im_DanielRadcliffe.png', 'Im_OrlandoBloom.png', 'Im_PatrickDempsey.png', 'Im_RobertPattinson.png', 'Im_RyanReynolds.png', 'Im_JustinTimberlake.png'],same,1,0.4167526999999609,28,0,
PIPE1804,2,pos,30,pos30_id7_im15.bmp_pos30_id21_im16.bmp,['Im_BradPitt.png', 'Im_LeonardoDiCaprio.png', 'Im_GeorgeClooney.png', 'Im_DanielCraig.png', 'Im_DanielRadcliffe.png', 'Im_OrlandoBloom.png', 'Im_PatrickDempsey.png', 'Im_RobertPattinson.png', 'Im_RyanReynolds.png', 'Im_JustinTimberlake.png'],diff,1,0.4167395999998007,29,0,
PIPE1804,2,pos,90,pos90_id19_im4.bmp_pos90_id7_im15.bmp,['Im_BradPitt.png', 'Im_LeonardoDiCaprio.png', 'Im_GeorgeClooney.png', 'Im_DanielCraig.png', 'Im_DanielRadcliffe.png', 'Im_OrlandoBloom.png', 'Im_PatrickDempsey.png', 'Im_RobertPattinson.png', 'Im_RyanReynolds.png', 'Im_JustinTimberlake.png'],diff,1,0.41678379999984827,30,0,
PIPE1804,2,pos,120,pos120_id19_im8.bmp_pos120_id16_im3.bmp,['Im_BradPitt.png', 'Im_LeonardoDiCaprio.png', 'Im_GeorgeClooney.png', 'Im_DanielCraig.png', 'Im_DanielRadcliffe.png', 'Im_OrlandoBloom.png', 'Im_PatrickDempsey.png', 'Im_RobertPattinson.png', 'Im_RyanReynolds.png', 'Im_JustinTimberlake.png'],diff,1,0.42508360000010725,31,0,
PIPE1804,2,pos,0,pos0_id10_im1.bmp_pos0_id5_im1.bmp,['Im_BradPitt.png', 'Im_LeonardoDiCaprio.png', 'Im_GeorgeClooney.png', 'Im_DanielCraig.png', 'Im_DanielRadcliffe.png', 'Im_OrlandoBloom.png', 'Im_PatrickDempsey.png', 'Im_RobertPattinson.png', 'Im_RyanReynolds.png', 'Im_JustinTimberlake.png'],diff,1,0.41678609999962646,32,0,
PIPE1804,2,pos,0,pos0_id3_im17.bmp_pos0_id10_im1.bmp,['Im_BradPitt.png', 'Im_LeonardoDiCaprio.png', 'Im_GeorgeClooney.png', 'Im_DanielCraig.png', 'Im_DanielRadcliffe.png', 'Im_OrlandoBloom.png', 'Im_PatrickDempsey.png', 'Im_RobertPattinson.png', 'Im_RyanReynolds.png', 'Im_JustinTimberlake.png'],diff,1,0.41678120000005947,33,0,
PIPE1804,2,pos,60,pos60_id13_im15.bmp_pos60_id17_im14.bmp,['Im_BradPitt.png', 'Im_LeonardoDiCaprio.png', 'Im_GeorgeClooney.png', 'Im_DanielCraig.png', 'Im_DanielRadcliffe.png', 'Im_OrlandoBloom.png', 'Im_PatrickDempsey.png', 'Im_RobertPattinson.png', 'Im_RyanReynolds.png', 'Im_JustinTimberlake.png'],diff,1,0.41670410000006086,34,0,
PIPE1804,3,pos,fs,posfs_id17_im14.bmp_posfs_id3_im8.bmp,['Im_BradPitt.png', 'Im_LeonardoDiCaprio.png', 'Im_GeorgeClooney.png', 'Im_DanielCraig.png', 'Im_DanielRadcliffe.png', 'Im_OrlandoBloom.png', 'Im_PatrickDempsey.png', 'Im_RobertPattinson.png', 'Im_RyanReynolds.png', 'Im_JustinTimberlake.png'],diff,1,0.41674250000005486,1,80.95238095238095,
PIPE1804,3,pos,90,pos90_id19_im27.bmp_pos90_id4_im15.bmp,['Im_BradPitt.png', 'Im_LeonardoDiCaprio.png', 'Im_GeorgeClooney.png', 'Im_DanielCraig.png', 'Im_DanielRadcliffe.png', 'Im_OrlandoBloom.png', 'Im_PatrickDempsey.png', 'Im_RobertPattinson.png', 'Im_RyanReynolds.png', 'Im_JustinTimberlake.png'],diff,1,0.4250563000000511,2,80.95238095238095,
PIPE1804,3,pos,90,pos90_id16_im19.bmp_pos90_id5_im20.bmp,['Im_BradPitt.png', 'Im_LeonardoDiCaprio.png', 'Im_GeorgeClooney.png', 'Im_DanielCraig.png', 'Im_DanielRadcliffe.png', 'Im_OrlandoBloom.png', 'Im_PatrickDempsey.png', 'Im_RobertPattinson.png', 'Im_RyanReynolds.png', 'Im_JustinTimberlake.png'],diff,1,0.4249974999997903,3,80.95238095238095,
PIPE1804,3,pos,150,pos150_id10_im18.bmp_pos150_id13_im29.bmp,['Im_BradPitt.png', 'Im_LeonardoDiCaprio.png', 'Im_GeorgeClooney.png', 'Im_DanielCraig.png', 'Im_DanielRadcliffe.png', 'Im_OrlandoBloom.png', 'Im_PatrickDempsey.png', 'Im_RobertPattinson.png', 'Im_RyanReynolds.png', 'Im_JustinTimberlake.png'],diff,1,0.4249520000003031,4,80.95238095238095,
PIPE1804,3,pos,60,pos60_id4_im7.bmp_pos60_id17_im9.bmp,['Im_BradPitt.png', 'Im_LeonardoDiCaprio.png', 'Im_GeorgeClooney.png', 'Im_DanielCraig.png', 'Im_DanielRadcliffe.png', 'Im_OrlandoBloom.png', 'Im_PatrickDempsey.png', 'Im_RobertPattinson.png', 'Im_RyanReynolds.png', 'Im_JustinTimberlake.png'],diff,1,0.42506120000007286,5,80.95238095238095,
PIPE1804,3,pos,0,pos0_id5_im20.bmp_pos0_id21_im17.bmp,['Im_BradPitt.png', 'Im_LeonardoDiCaprio.png', 'Im_GeorgeClooney.png', 'Im_DanielCraig.png', 'Im_DanielRadcliffe.png', 'Im_OrlandoBloom.png', 'Im_PatrickDempsey.png', 'Im_RobertPattinson.png', 'Im_RyanReynolds.png', 'Im_JustinTimberlake.png'],diff,1,0.41661370000019815,6,80.95238095238095,
PIPE1804,3,pos,0,pos0_id16_im19.bmp_pos0_id21_im16.bmp,['Im_BradPitt.png', 'Im_LeonardoDiCaprio.png', 'Im_GeorgeClooney.png', 'Im_DanielCraig.png', 'Im_DanielRadcliffe.png', 'Im_OrlandoBloom.png', 'Im_PatrickDempsey.png', 'Im_RobertPattinson.png', 'Im_RyanReynolds.png', 'Im_JustinTimberlake.png'],diff,1,0.42495259999986956,7,80.95238095238095,
PIPE1804,3,pos,fs,posfs_id19_im27.bmp_posfs_id4_im15.bmp,['Im_BradPitt.png', 'Im_LeonardoDiCaprio.png', 'Im_GeorgeClooney.png', 'Im_DanielCraig.png', 'Im_DanielRadcliffe.png', 'Im_OrlandoBloom.png', 'Im_PatrickDempsey.png', 'Im_RobertPattinson.png', 'Im_RyanReynolds.png', 'Im_JustinTimberlake.png'],diff,1,0.41665299999976924,8,80.95238095238095,
PIPE1804,3,pos,120,pos120_id21_im16.bmp_pos120_id21_im22.bmp,['Im_BradPitt.png', 'Im_LeonardoDiCaprio.png', 'Im_GeorgeClooney.png', 'Im_DanielCraig.png', 'Im_DanielRadcliffe.png', 'Im_OrlandoBloom.png', 'Im_PatrickDempsey.png', 'Im_RobertPattinson.png', 'Im_RyanReynolds.png', 'Im_JustinTimberlake.png'],same,1,0.4167308999999477,9,80.95238095238095,
PIPE1804,3,pos,60,pos60_id19_im4.bmp_pos60_id7_im26.bmp,['Im_BradPitt.png', 'Im_LeonardoDiCaprio.png', 'Im_GeorgeClooney.png', 'Im_DanielCraig.png', 'Im_DanielRadcliffe.png', 'Im_OrlandoBloom.png', 'Im_PatrickDempsey.png', 'Im_RobertPattinson.png', 'Im_RyanReynolds.png', 'Im_JustinTimberlake.png'],diff,1,0.42509100000006583,10,80.95238095238095,
PIPE1804,3,pos,150,pos150_id5_im1.bmp_pos150_id5_im10.bmp,['Im_BradPitt.png', 'Im_LeonardoDiCaprio.png', 'Im_GeorgeClooney.png', 'Im_DanielCraig.png', 'Im_DanielRadcliffe.png', 'Im_OrlandoBloom.png', 'Im_PatrickDempsey.png', 'Im_RobertPattinson.png', 'Im_RyanReynolds.png', 'Im_JustinTimberlake.png'],same,1,0.4167360000001281,11,80.95238095238095,
PIPE1804,3,pos,120,pos120_id10_im1.bmp_pos120_id10_im18.bmp,['Im_BradPitt.png', 'Im_LeonardoDiCaprio.png', 'Im_GeorgeClooney.png', 'Im_DanielCraig.png', 'Im_DanielRadcliffe.png', 'Im_OrlandoBloom.png', 'Im_PatrickDempsey.png', 'Im_RobertPattinson.png', 'Im_RyanReynolds.png', 'Im_JustinTimberlake.png'],same,1,0.4334099000002425,12,80.95238095238095,
PIPE1804,3,pos,30,pos30_id3_im8.bmp_pos30_id17_im14.bmp,['Im_BradPitt.png', 'Im_LeonardoDiCaprio.png', 'Im_GeorgeClooney.png', 'Im_DanielCraig.png', 'Im_DanielRadcliffe.png', 'Im_OrlandoBloom.png', 'Im_PatrickDempsey.png', 'Im_RobertPattinson.png', 'Im_RyanReynolds.png', 'Im_JustinTimberlake.png'],diff,1,0.41674960000000283,13,80.95238095238095,
PIPE1804,3,pos,30,pos30_id10_im1.bmp_pos30_id5_im1.bmp,['Im_BradPitt.png', 'Im_LeonardoDiCaprio.png', 'Im_GeorgeClooney.png', 'Im_DanielCraig.png', 'Im_DanielRadcliffe.png', 'Im_OrlandoBloom.png', 'Im_PatrickDempsey.png', 'Im_RobertPattinson.png', 'Im_RyanReynolds.png', 'Im_JustinTimberlake.png'],diff,1,0.4250538000001143,14,80.95238095238095,
PIPE1804,4,inv,90,pos90_id19_im8.bmp_pos90_id13_im10.bmp,['Im_BradPitt.png', 'Im_LeonardoDiCaprio.png', 'Im_GeorgeClooney.png', 'Im_DanielCraig.png', 'Im_DanielRadcliffe.png', 'Im_OrlandoBloom.png', 'Im_PatrickDempsey.png', 'Im_RobertPattinson.png', 'Im_RyanReynolds.png', 'Im_JustinTimberlake.png'],diff,1,0.424901299999874,15,80.95238095238095,
PIPE1804,4,inv,fs,posfs_id13_im29.bmp_posfs_id10_im18.bmp,['Im_BradPitt.png', 'Im_LeonardoDiCaprio.png', 'Im_GeorgeClooney.png', 'Im_DanielCraig.png', 'Im_DanielRadcliffe.png', 'Im_OrlandoBloom.png', 'Im_PatrickDempsey.png', 'Im_RobertPattinson.png', 'Im_RyanReynolds.png', 'Im_JustinTimberlake.png'],diff,1,0.41670780000004015,16,80.95238095238095,
PIPE1804,4,inv,30,pos30_id4_im7.bmp_pos30_id4_im15.bmp,['Im_BradPitt.png', 'Im_LeonardoDiCaprio.png', 'Im_GeorgeClooney.png', 'Im_DanielCraig.png', 'Im_DanielRadcliffe.png', 'Im_OrlandoBloom.png', 'Im_PatrickDempsey.png', 'Im_RobertPattinson.png', 'Im_RyanReynolds.png', 'Im_JustinTimberlake.png'],same,1,0.4168632000000798,17,80.95238095238095,
PIPE1804,4,inv,120,pos120_id10_im17.bmp_pos120_id3_im6.bmp,['Im_BradPitt.png', 'Im_LeonardoDiCaprio.png', 'Im_GeorgeClooney.png', 'Im_DanielCraig.png', 'Im_DanielRadcliffe.png', 'Im_OrlandoBloom.png', 'Im_PatrickDempsey.png', 'Im_RobertPattinson.png', 'Im_RyanReynolds.png', 'Im_JustinTimberlake.png'],diff,1,0.41673739999987447,18,80.95238095238095,
PIPE1804,4,inv,150,pos150_id10_im18.bmp_pos150_id13_im29.bmp,['Im_BradPitt.png', 'Im_LeonardoDiCaprio.png', 'Im_GeorgeClooney.png', 'Im_DanielCraig.png', 'Im_DanielRadcliffe.png', 'Im_OrlandoBloom.png', 'Im_PatrickDempsey.png', 'Im_RobertPattinson.png', 'Im_RyanReynolds.png', 'Im_JustinTimberlake.png'],same,0,1.1167098999999325,18,80.95238095238095,
PIPE1804,4,inv,60,pos60_id21_im22.bmp_pos60_id10_im18.bmp,['Im_BradPitt.png', 'Im_LeonardoDiCaprio.png', 'Im_GeorgeClooney.png', 'Im_DanielCraig.png', 'Im_DanielRadcliffe.png', 'Im_OrlandoBloom.png', 'Im_PatrickDempsey.png', 'Im_RobertPattinson.png', 'Im_RyanReynolds.png', 'Im_JustinTimberlake.png'],diff,1,0.4250554000000193,19,80.95238095238095,
PIPE1804,4,inv,150,pos150_id3_im8.bmp_pos150_id7_im26.bmp,['Im_BradPitt.png', 'Im_LeonardoDiCaprio.png', 'Im_GeorgeClooney.png', 'Im_DanielCraig.png', 'Im_DanielRadcliffe.png', 'Im_OrlandoBloom.png', 'Im_PatrickDempsey.png', 'Im_RobertPattinson.png', 'Im_RyanReynolds.png', 'Im_JustinTimberlake.png'],diff,1,0.43341860000009547,20,80.95238095238095,
PIPE1804,4,inv,120,pos120_id7_im15.bmp_pos120_id7_im26.bmp,['Im_BradPitt.png', 'Im_LeonardoDiCaprio.png', 'Im_GeorgeClooney.png', 'Im_DanielCraig.png', 'Im_DanielRadcliffe.png', 'Im_OrlandoBloom.png', 'Im_PatrickDempsey.png', 'Im_RobertPattinson.png', 'Im_RyanReynolds.png', 'Im_JustinTimberlake.png'],same,1,0.42513289999988046,21,80.95238095238095,
PIPE1804,4,inv,fs,posfs_id21_im22.bmp_posfs_id21_im16.bmp,['Im_BradPitt.png', 'Im_LeonardoDiCaprio.png', 'Im_GeorgeClooney.png', 'Im_DanielCraig.png', 'Im_DanielRadcliffe.png', 'Im_OrlandoBloom.png', 'Im_PatrickDempsey.png', 'Im_RobertPattinson.png', 'Im_RyanReynolds.png', 'Im_JustinTimberlake.png'],same,1,0.4250974000001406,22,80.95238095238095,
PIPE1804,4,inv,90,pos90_id4_im7.bmp_pos90_id17_im9.bmp,['Im_BradPitt.png', 'Im_LeonardoDiCaprio.png', 'Im_GeorgeClooney.png', 'Im_DanielCraig.png', 'Im_DanielRadcliffe.png', 'Im_OrlandoBloom.png', 'Im_PatrickDempsey.png', 'Im_RobertPattinson.png', 'Im_RyanReynolds.png', 'Im_JustinTimberlake.png'],diff,1,0.433408199999576,23,80.95238095238095,
PIPE1804,4,inv,60,pos60_id10_im17.bmp_pos60_id10_im18.bmp,['Im_BradPitt.png', 'Im_LeonardoDiCaprio.png', 'Im_GeorgeClooney.png', 'Im_DanielCraig.png', 'Im_DanielRadcliffe.png', 'Im_OrlandoBloom.png', 'Im_PatrickDempsey.png', 'Im_RobertPattinson.png', 'Im_RyanReynolds.png', 'Im_JustinTimberlake.png'],same,1,0.4501058999999259,24,80.95238095238095,
PIPE1804,4,inv,30,pos30_id21_im22.bmp_pos30_id21_im17.bmp,['Im_BradPitt.png', 'Im_LeonardoDiCaprio.png', 'Im_GeorgeClooney.png', 'Im_DanielCraig.png', 'Im_DanielRadcliffe.png', 'Im_OrlandoBloom.png', 'Im_PatrickDempsey.png', 'Im_RobertPattinson.png', 'Im_RyanReynolds.png', 'Im_JustinTimberlake.png'],same,1,0.43338260000018636,25,80.95238095238095,
PIPE1804,4,inv,0,pos0_id3_im6.bmp_pos0_id3_im17.bmp,['Im_BradPitt.png', 'Im_LeonardoDiCaprio.png', 'Im_GeorgeClooney.png', 'Im_DanielCraig.png', 'Im_DanielRadcliffe.png', 'Im_OrlandoBloom.png', 'Im_PatrickDempsey.png', 'Im_RobertPattinson.png', 'Im_RyanReynolds.png', 'Im_JustinTimberlake.png'],diff,0,0.5917589000000589,25,80.95238095238095,
PIPE1804,4,inv,0,pos0_id16_im3.bmp_pos0_id16_im19.bmp,['Im_BradPitt.png', 'Im_LeonardoDiCaprio.png', 'Im_GeorgeClooney.png', 'Im_DanielCraig.png', 'Im_DanielRadcliffe.png', 'Im_OrlandoBloom.png', 'Im_PatrickDempsey.png', 'Im_RobertPattinson.png', 'Im_RyanReynolds.png', 'Im_JustinTimberlake.png'],same,1,0.4167625999998563,26,80.95238095238095,
PIPE1804,5,neg,150,neg150_id7_im14.bmp_neg150_id7_im26.bmp,['Im_BradPitt.png', 'Im_LeonardoDiCaprio.png', 'Im_GeorgeClooney.png', 'Im_DanielCraig.png', 'Im_DanielRadcliffe.png', 'Im_OrlandoBloom.png', 'Im_PatrickDempsey.png', 'Im_RobertPattinson.png', 'Im_RyanReynolds.png', 'Im_JustinTimberlake.png'],diff,0,0.4249630999997862,26,80.95238095238095,
PIPE1804,5,neg,0,neg0_id4_im7.bmp_neg0_id4_im15.bmp,['Im_BradPitt.png', 'Im_LeonardoDiCaprio.png', 'Im_GeorgeClooney.png', 'Im_DanielCraig.png', 'Im_DanielRadcliffe.png', 'Im_OrlandoBloom.png', 'Im_PatrickDempsey.png', 'Im_RobertPattinson.png', 'Im_RyanReynolds.png', 'Im_JustinTimberlake.png'],same,1,0.4167585999998664,27,80.95238095238095,
PIPE1804,5,neg,120,neg120_id17_im8.bmp_neg120_id17_im14.bmp,['Im_BradPitt.png', 'Im_LeonardoDiCaprio.png', 'Im_GeorgeClooney.png', 'Im_DanielCraig.png', 'Im_DanielRadcliffe.png', 'Im_OrlandoBloom.png', 'Im_PatrickDempsey.png', 'Im_RobertPattinson.png', 'Im_RyanReynolds.png', 'Im_JustinTimberlake.png'],diff,0,0.4168240999997579,27,80.95238095238095,
PIPE1804,5,neg,0,neg0_id17_im14.bmp_neg0_id17_im8.bmp,['Im_BradPitt.png', 'Im_LeonardoDiCaprio.png', 'Im_GeorgeClooney.png', 'Im_DanielCraig.png', 'Im_DanielRadcliffe.png', 'Im_OrlandoBloom.png', 'Im_PatrickDempsey.png', 'Im_RobertPattinson.png', 'Im_RyanReynolds.png', 'Im_JustinTimberlake.png'],same,1,0.41661260000000766,28,80.95238095238095,
PIPE1804,5,neg,150,neg150_id10_im17.bmp_neg150_id10_im1.bmp,['Im_BradPitt.png', 'Im_LeonardoDiCaprio.png', 'Im_GeorgeClooney.png', 'Im_DanielCraig.png', 'Im_DanielRadcliffe.png', 'Im_OrlandoBloom.png', 'Im_PatrickDempsey.png', 'Im_RobertPattinson.png', 'Im_RyanReynolds.png', 'Im_JustinTimberlake.png'],same,1,0.5502813000002789,29,80.95238095238095,
PIPE1804,5,neg,90,neg90_id13_im15.bmp_neg90_id19_im27.bmp,['Im_BradPitt.png', 'Im_LeonardoDiCaprio.png', 'Im_GeorgeClooney.png', 'Im_DanielCraig.png', 'Im_DanielRadcliffe.png', 'Im_OrlandoBloom.png', 'Im_PatrickDempsey.png', 'Im_RobertPattinson.png', 'Im_RyanReynolds.png', 'Im_JustinTimberlake.png'],diff,1,0.41676830000005793,30,80.95238095238095,
PIPE1804,5,neg,fs,negfs_id3_im6.bmp_negfs_id10_im17.bmp,['Im_BradPitt.png', 'Im_LeonardoDiCaprio.png', 'Im_GeorgeClooney.png', 'Im_DanielCraig.png', 'Im_DanielRadcliffe.png', 'Im_OrlandoBloom.png', 'Im_PatrickDempsey.png', 'Im_RobertPattinson.png', 'Im_RyanReynolds.png', 'Im_JustinTimberlake.png'],diff,1,0.41671249999990323,31,80.95238095238095,
PIPE1804,5,neg,30,neg30_id3_im17.bmp_neg30_id13_im29.bmp,['Im_BradPitt.png', 'Im_LeonardoDiCaprio.png', 'Im_GeorgeClooney.png', 'Im_DanielCraig.png', 'Im_DanielRadcliffe.png', 'Im_OrlandoBloom.png', 'Im_PatrickDempsey.png', 'Im_RobertPattinson.png', 'Im_RyanReynolds.png', 'Im_JustinTimberlake.png'],diff,1,0.4166746000000785,32,80.95238095238095,
PIPE1804,5,neg,30,neg30_id16_im2.bmp_neg30_id5_im10.bmp,['Im_BradPitt.png', 'Im_LeonardoDiCaprio.png', 'Im_GeorgeClooney.png', 'Im_DanielCraig.png', 'Im_DanielRadcliffe.png', 'Im_OrlandoBloom.png', 'Im_PatrickDempsey.png', 'Im_RobertPattinson.png', 'Im_RyanReynolds.png', 'Im_JustinTimberlake.png'],diff,1,0.42504650000000765,33,80.95238095238095,
PIPE1804,5,neg,120,neg120_id7_im15.bmp_neg120_id21_im16.bmp,['Im_BradPitt.png', 'Im_LeonardoDiCaprio.png', 'Im_GeorgeClooney.png', 'Im_DanielCraig.png', 'Im_DanielRadcliffe.png', 'Im_OrlandoBloom.png', 'Im_PatrickDempsey.png', 'Im_RobertPattinson.png', 'Im_RyanReynolds.png', 'Im_JustinTimberlake.png'],same,0,0.6415931999999884,33,80.95238095238095,
PIPE1804,5,neg,60,neg60_id5_im20.bmp_neg60_id16_im19.bmp,['Im_BradPitt.png', 'Im_LeonardoDiCaprio.png', 'Im_GeorgeClooney.png', 'Im_DanielCraig.png', 'Im_DanielRadcliffe.png', 'Im_OrlandoBloom.png', 'Im_PatrickDempsey.png', 'Im_RobertPattinson.png', 'Im_RyanReynolds.png', 'Im_JustinTimberlake.png'],diff,1,0.40844860000015615,34,80.95238095238095,
PIPE1804,5,neg,fs,negfs_id19_im4.bmp_negfs_id7_im15.bmp,['Im_BradPitt.png', 'Im_LeonardoDiCaprio.png', 'Im_GeorgeClooney.png', 'Im_DanielCraig.png', 'Im_DanielRadcliffe.png', 'Im_OrlandoBloom.png', 'Im_PatrickDempsey.png', 'Im_RobertPattinson.png', 'Im_RyanReynolds.png', 'Im_JustinTimberlake.png'],diff,1,0.4166792999999416,35,80.95238095238095,
PIPE1804,5,neg,60,neg60_id13_im15.bmp_neg60_id13_im29.bmp,['Im_BradPitt.png', 'Im_LeonardoDiCaprio.png', 'Im_GeorgeClooney.png', 'Im_DanielCraig.png', 'Im_DanielRadcliffe.png', 'Im_OrlandoBloom.png', 'Im_PatrickDempsey.png', 'Im_RobertPattinson.png', 'Im_RyanReynolds.png', 'Im_JustinTimberlake.png'],diff,0,0.4250833999999486,35,80.95238095238095,
PIPE1804,5,neg,90,neg90_id19_im4.bmp_neg90_id7_im26.bmp,['Im_BradPitt.png', 'Im_LeonardoDiCaprio.png', 'Im_GeorgeClooney.png', 'Im_DanielCraig.png', 'Im_DanielRadcliffe.png', 'Im_OrlandoBloom.png', 'Im_PatrickDempsey.png', 'Im_RobertPattinson.png', 'Im_RyanReynolds.png', 'Im_JustinTimberlake.png'],diff,1,0.4167347000002337,36,80.95238095238095,
PIPE1804,6,neg,150,neg150_id7_im15.bmp_neg150_id7_im26.bmp,['Im_BradPitt.png', 'Im_LeonardoDiCaprio.png', 'Im_GeorgeClooney.png', 'Im_DanielCraig.png', 'Im_DanielRadcliffe.png', 'Im_OrlandoBloom.png', 'Im_PatrickDempsey.png', 'Im_RobertPattinson.png', 'Im_RyanReynolds.png', 'Im_JustinTimberlake.png'],same,1,0.4251901999996335,1,85.71428571428571,
PIPE1804,6,neg,fs,negfs_id3_im6.bmp_negfs_id3_im8.bmp,['Im_BradPitt.png', 'Im_LeonardoDiCaprio.png', 'Im_GeorgeClooney.png', 'Im_DanielCraig.png', 'Im_DanielRadcliffe.png', 'Im_OrlandoBloom.png', 'Im_PatrickDempsey.png', 'Im_RobertPattinson.png', 'Im_RyanReynolds.png', 'Im_JustinTimberlake.png'],same,1,0.41678219999994326,2,85.71428571428571,
PIPE1804,6,neg,30,neg30_id5_im10.bmp_neg30_id5_im20.bmp,['Im_BradPitt.png', 'Im_LeonardoDiCaprio.png', 'Im_GeorgeClooney.png', 'Im_DanielCraig.png', 'Im_DanielRadcliffe.png', 'Im_OrlandoBloom.png', 'Im_PatrickDempsey.png', 'Im_RobertPattinson.png', 'Im_RyanReynolds.png', 'Im_JustinTimberlake.png'],diff,0,0.41678449999972145,2,85.71428571428571,
PIPE1804,6,neg,120,neg120_id13_im15.bmp_neg120_id17_im14.bmp,['Im_BradPitt.png', 'Im_LeonardoDiCaprio.png', 'Im_GeorgeClooney.png', 'Im_DanielCraig.png', 'Im_DanielRadcliffe.png', 'Im_OrlandoBloom.png', 'Im_PatrickDempsey.png', 'Im_RobertPattinson.png', 'Im_RyanReynolds.png', 'Im_JustinTimberlake.png'],diff,1,0.4167235999998411,3,85.71428571428571,
PIPE1804,6,neg,90,neg90_id19_im27.bmp_neg90_id4_im15.bmp,['Im_BradPitt.png', 'Im_LeonardoDiCaprio.png', 'Im_GeorgeClooney.png', 'Im_DanielCraig.png', 'Im_DanielRadcliffe.png', 'Im_OrlandoBloom.png', 'Im_PatrickDempsey.png', 'Im_RobertPattinson.png', 'Im_RyanReynolds.png', 'Im_JustinTimberlake.png'],diff,1,0.416736299999684,4,85.71428571428571,
PIPE1804,6,neg,90,neg90_id4_im7.bmp_neg90_id17_im9.bmp,['Im_BradPitt.png', 'Im_LeonardoDiCaprio.png', 'Im_GeorgeClooney.png', 'Im_DanielCraig.png', 'Im_DanielRadcliffe.png', 'Im_OrlandoBloom.png', 'Im_PatrickDempsey.png', 'Im_RobertPattinson.png', 'Im_RyanReynolds.png', 'Im_JustinTimberlake.png'],diff,1,0.4249593000004097,5,85.71428571428571,
PIPE1804,6,neg,150,neg150_id4_im15.bmp_neg150_id4_im7.bmp,['Im_BradPitt.png', 'Im_LeonardoDiCaprio.png', 'Im_GeorgeClooney.png', 'Im_DanielCraig.png', 'Im_DanielRadcliffe.png', 'Im_OrlandoBloom.png', 'Im_PatrickDempsey.png', 'Im_RobertPattinson.png', 'Im_RyanReynolds.png', 'Im_JustinTimberlake.png'],same,1,0.4250403000000915,6,85.71428571428571,
PIPE1804,6,neg,fs,negfs_id17_im14.bmp_negfs_id17_im9.bmp,['Im_BradPitt.png', 'Im_LeonardoDiCaprio.png', 'Im_GeorgeClooney.png', 'Im_DanielCraig.png', 'Im_DanielRadcliffe.png', 'Im_OrlandoBloom.png', 'Im_PatrickDempsey.png', 'Im_RobertPattinson.png', 'Im_RyanReynolds.png', 'Im_JustinTimberlake.png'],diff,0,0.43335320000005595,6,85.71428571428571,
PIPE1804,6,neg,0,neg0_id10_im17.bmp_neg0_id3_im6.bmp,['Im_BradPitt.png', 'Im_LeonardoDiCaprio.png', 'Im_GeorgeClooney.png', 'Im_DanielCraig.png', 'Im_DanielRadcliffe.png', 'Im_OrlandoBloom.png', 'Im_PatrickDempsey.png', 'Im_RobertPattinson.png', 'Im_RyanReynolds.png', 'Im_JustinTimberlake.png'],diff,1,0.4250802000001386,7,85.71428571428571,
PIPE1804,6,neg,60,neg60_id4_im20.bmp_neg60_id21_im22.bmp,['Im_BradPitt.png', 'Im_LeonardoDiCaprio.png', 'Im_GeorgeClooney.png', 'Im_DanielCraig.png', 'Im_DanielRadcliffe.png', 'Im_OrlandoBloom.png', 'Im_PatrickDempsey.png', 'Im_RobertPattinson.png', 'Im_RyanReynolds.png', 'Im_JustinTimberlake.png'],diff,1,0.42514089999986027,8,85.71428571428571,
PIPE1804,6,neg,60,neg60_id21_im22.bmp_neg60_id21_im16.bmp,['Im_BradPitt.png', 'Im_LeonardoDiCaprio.png', 'Im_GeorgeClooney.png', 'Im_DanielCraig.png', 'Im_DanielRadcliffe.png', 'Im_OrlandoBloom.png', 'Im_PatrickDempsey.png', 'Im_RobertPattinson.png', 'Im_RyanReynolds.png', 'Im_JustinTimberlake.png'],same,1,0.41675390000000334,9,85.71428571428571,
PIPE1804,6,neg,0,neg0_id21_im16.bmp_neg0_id21_im22.bmp,['Im_BradPitt.png', 'Im_LeonardoDiCaprio.png', 'Im_GeorgeClooney.png', 'Im_DanielCraig.png', 'Im_DanielRadcliffe.png', 'Im_OrlandoBloom.png', 'Im_PatrickDempsey.png', 'Im_RobertPattinson.png', 'Im_RyanReynolds.png', 'Im_JustinTimberlake.png'],same,1,0.42507679999971515,10,85.71428571428571,
PIPE1804,6,neg,120,neg120_id10_im17.bmp_neg120_id17_im8.bmp,['Im_BradPitt.png', 'Im_LeonardoDiCaprio.png', 'Im_GeorgeClooney.png', 'Im_DanielCraig.png', 'Im_DanielRadcliffe.png', 'Im_OrlandoBloom.png', 'Im_PatrickDempsey.png', 'Im_RobertPattinson.png', 'Im_RyanReynolds.png', 'Im_JustinTimberlake.png'],diff,1,0.44175989999985177,11,85.71428571428571,
PIPE1804,6,neg,30,neg30_id19_im4.bmp_neg30_id7_im26.bmp,['Im_BradPitt.png', 'Im_LeonardoDiCaprio.png', 'Im_GeorgeClooney.png', 'Im_DanielCraig.png', 'Im_DanielRadcliffe.png', 'Im_OrlandoBloom.png', 'Im_PatrickDempsey.png', 'Im_RobertPattinson.png', 'Im_RyanReynolds.png', 'Im_JustinTimberlake.png'],diff,1,0.4167867999999544,12,85.71428571428571,
PIPE1804,7,inv,60,pos60_id10_im1.bmp_pos60_id3_im17.bmp,['Im_BradPitt.png', 'Im_LeonardoDiCaprio.png', 'Im_GeorgeClooney.png', 'Im_DanielCraig.png', 'Im_DanielRadcliffe.png', 'Im_OrlandoBloom.png', 'Im_PatrickDempsey.png', 'Im_RobertPattinson.png', 'Im_RyanReynolds.png', 'Im_JustinTimberlake.png'],diff,1,0.41676760000018476,13,85.71428571428571,
PIPE1804,7,inv,fs,posfs_id3_im6.bmp_posfs_id3_im17.bmp,['Im_BradPitt.png', 'Im_LeonardoDiCaprio.png', 'Im_GeorgeClooney.png', 'Im_DanielCraig.png', 'Im_DanielRadcliffe.png', 'Im_OrlandoBloom.png', 'Im_PatrickDempsey.png', 'Im_RobertPattinson.png', 'Im_RyanReynolds.png', 'Im_JustinTimberlake.png'],diff,0,0.4165789999997287,13,85.71428571428571,
PIPE1804,7,inv,150,pos150_id7_im14.bmp_pos150_id4_im20.bmp,['Im_BradPitt.png', 'Im_LeonardoDiCaprio.png', 'Im_GeorgeClooney.png', 'Im_DanielCraig.png', 'Im_DanielRadcliffe.png', 'Im_OrlandoBloom.png', 'Im_PatrickDempsey.png', 'Im_RobertPattinson.png', 'Im_RyanReynolds.png', 'Im_JustinTimberlake.png'],diff,1,0.4250554000000193,14,85.71428571428571,
PIPE1804,7,inv,fs,posfs_id21_im22.bmp_posfs_id10_im18.bmp,['Im_BradPitt.png', 'Im_LeonardoDiCaprio.png', 'Im_GeorgeClooney.png', 'Im_DanielCraig.png', 'Im_DanielRadcliffe.png', 'Im_OrlandoBloom.png', 'Im_PatrickDempsey.png', 'Im_RobertPattinson.png', 'Im_RyanReynolds.png', 'Im_JustinTimberlake.png'],diff,1,0.4250308999999106,15,85.71428571428571,
PIPE1804,7,inv,30,pos30_id5_im10.bmp_pos30_id5_im20.bmp,['Im_BradPitt.png', 'Im_LeonardoDiCaprio.png', 'Im_GeorgeClooney.png', 'Im_DanielCraig.png', 'Im_DanielRadcliffe.png', 'Im_OrlandoBloom.png', 'Im_PatrickDempsey.png', 'Im_RobertPattinson.png', 'Im_RyanReynolds.png', 'Im_JustinTimberlake.png'],diff,0,0.42508260000022347,15,85.71428571428571,
PIPE1804,7,inv,0,pos0_id3_im8.bmp_pos0_id3_im17.bmp,['Im_BradPitt.png', 'Im_LeonardoDiCaprio.png', 'Im_GeorgeClooney.png', 'Im_DanielCraig.png', 'Im_DanielRadcliffe.png', 'Im_OrlandoBloom.png', 'Im_PatrickDempsey.png', 'Im_RobertPattinson.png', 'Im_RyanReynolds.png', 'Im_JustinTimberlake.png'],diff,0,0.4167958000002727,15,85.71428571428571,
PIPE1804,7,inv,30,pos30_id10_im1.bmp_pos30_id10_im17.bmp,['Im_BradPitt.png', 'Im_LeonardoDiCaprio.png', 'Im_GeorgeClooney.png', 'Im_DanielCraig.png', 'Im_DanielRadcliffe.png', 'Im_OrlandoBloom.png', 'Im_PatrickDempsey.png', 'Im_RobertPattinson.png', 'Im_RyanReynolds.png', 'Im_JustinTimberlake.png'],same,1,0.4168939000001046,16,85.71428571428571,
PIPE1804,7,inv,120,pos120_id3_im8.bmp_pos120_id7_im26.bmp,['Im_BradPitt.png', 'Im_LeonardoDiCaprio.png', 'Im_GeorgeClooney.png', 'Im_DanielCraig.png', 'Im_DanielRadcliffe.png', 'Im_OrlandoBloom.png', 'Im_PatrickDempsey.png', 'Im_RobertPattinson.png', 'Im_RyanReynolds.png', 'Im_JustinTimberlake.png'],diff,1,0.4167765000001964,17,85.71428571428571,
PIPE1804,7,inv,0,pos0_id4_im20.bmp_pos0_id4_im15.bmp,['Im_BradPitt.png', 'Im_LeonardoDiCaprio.png', 'Im_GeorgeClooney.png', 'Im_DanielCraig.png', 'Im_DanielRadcliffe.png', 'Im_OrlandoBloom.png', 'Im_PatrickDempsey.png', 'Im_RobertPattinson.png', 'Im_RyanReynolds.png', 'Im_JustinTimberlake.png'],same,1,0.4250285000002805,18,85.71428571428571,
PIPE1804,7,inv,120,pos120_id16_im19.bmp_pos120_id16_im3.bmp,['Im_BradPitt.png', 'Im_LeonardoDiCaprio.png', 'Im_GeorgeClooney.png', 'Im_DanielCraig.png', 'Im_DanielRadcliffe.png', 'Im_OrlandoBloom.png', 'Im_PatrickDempsey.png', 'Im_RobertPattinson.png', 'Im_RyanReynolds.png', 'Im_JustinTimberlake.png'],same,1,0.41680389999964973,19,85.71428571428571,
PIPE1804,7,inv,150,pos150_id19_im4.bmp_pos150_id7_im15.bmp,['Im_BradPitt.png', 'Im_LeonardoDiCaprio.png', 'Im_GeorgeClooney.png', 'Im_DanielCraig.png', 'Im_DanielRadcliffe.png', 'Im_OrlandoBloom.png', 'Im_PatrickDempsey.png', 'Im_RobertPattinson.png', 'Im_RyanReynolds.png', 'Im_JustinTimberlake.png'],diff,1,0.6336218000001281,20,85.71428571428571,
PIPE1804,7,inv,90,pos90_id19_im4.bmp_pos90_id7_im15.bmp,['Im_BradPitt.png', 'Im_LeonardoDiCaprio.png', 'Im_GeorgeClooney.png', 'Im_DanielCraig.png', 'Im_DanielRadcliffe.png', 'Im_OrlandoBloom.png', 'Im_PatrickDempsey.png', 'Im_RobertPattinson.png', 'Im_RyanReynolds.png', 'Im_JustinTimberlake.png'],diff,1,0.533744200000001,21,85.71428571428571,
PIPE1804,7,inv,90,pos90_id7_im15.bmp_pos90_id7_im26.bmp,['Im_BradPitt.png', 'Im_LeonardoDiCaprio.png', 'Im_GeorgeClooney.png', 'Im_DanielCraig.png', 'Im_DanielRadcliffe.png', 'Im_OrlandoBloom.png', 'Im_PatrickDempsey.png', 'Im_RobertPattinson.png', 'Im_RyanReynolds.png', 'Im_JustinTimberlake.png'],same,1,0.42503820000001724,22,85.71428571428571,
PIPE1804,7,inv,60,pos60_id3_im17.bmp_pos60_id3_im6.bmp,['Im_BradPitt.png', 'Im_LeonardoDiCaprio.png', 'Im_GeorgeClooney.png', 'Im_DanielCraig.png', 'Im_DanielRadcliffe.png', 'Im_OrlandoBloom.png', 'Im_PatrickDempsey.png', 'Im_RobertPattinson.png', 'Im_RyanReynolds.png', 'Im_JustinTimberlake.png'],diff,0,0.42504650000000765,22,85.71428571428571,
PIPE1804,8,pos,150,pos150_id7_im14.bmp_pos150_id7_im15.bmp,['Im_BradPitt.png', 'Im_LeonardoDiCaprio.png', 'Im_GeorgeClooney.png', 'Im_DanielCraig.png', 'Im_DanielRadcliffe.png', 'Im_OrlandoBloom.png', 'Im_PatrickDempsey.png', 'Im_RobertPattinson.png', 'Im_RyanReynolds.png', 'Im_JustinTimberlake.png'],same,1,0.40834389999963605,23,85.71428571428571,
PIPE1804,8,pos,0,pos0_id16_im2.bmp_pos0_id16_im3.bmp,['Im_BradPitt.png', 'Im_LeonardoDiCaprio.png', 'Im_GeorgeClooney.png', 'Im_DanielCraig.png', 'Im_DanielRadcliffe.png', 'Im_OrlandoBloom.png', 'Im_PatrickDempsey.png', 'Im_RobertPattinson.png', 'Im_RyanReynolds.png', 'Im_JustinTimberlake.png'],same,1,0.40820140000005267,24,85.71428571428571,
PIPE1804,8,pos,0,pos0_id3_im8.bmp_pos0_id7_im26.bmp,['Im_BradPitt.png', 'Im_LeonardoDiCaprio.png', 'Im_GeorgeClooney.png', 'Im_DanielCraig.png', 'Im_DanielRadcliffe.png', 'Im_OrlandoBloom.png', 'Im_PatrickDempsey.png', 'Im_RobertPattinson.png', 'Im_RyanReynolds.png', 'Im_JustinTimberlake.png'],diff,1,0.42505560000017795,25,85.71428571428571,
PIPE1804,8,pos,90,pos90_id7_im14.bmp_pos90_id7_im15.bmp,['Im_BradPitt.png', 'Im_LeonardoDiCaprio.png', 'Im_GeorgeClooney.png', 'Im_DanielCraig.png', 'Im_DanielRadcliffe.png', 'Im_OrlandoBloom.png', 'Im_PatrickDempsey.png', 'Im_RobertPattinson.png', 'Im_RyanReynolds.png', 'Im_JustinTimberlake.png'],same,1,0.41672220000009474,26,85.71428571428571,
PIPE1804,8,pos,120,pos120_id4_im15.bmp_pos120_id4_im7.bmp,['Im_BradPitt.png', 'Im_LeonardoDiCaprio.png', 'Im_GeorgeClooney.png', 'Im_DanielCraig.png', 'Im_DanielRadcliffe.png', 'Im_OrlandoBloom.png', 'Im_PatrickDempsey.png', 'Im_RobertPattinson.png', 'Im_RyanReynolds.png', 'Im_JustinTimberlake.png'],same,1,0.41670780000004015,27,85.71428571428571,
PIPE1804,8,pos,30,pos30_id13_im10.bmp_pos30_id16_im2.bmp,['Im_BradPitt.png', 'Im_LeonardoDiCaprio.png', 'Im_GeorgeClooney.png', 'Im_DanielCraig.png', 'Im_DanielRadcliffe.png', 'Im_OrlandoBloom.png', 'Im_PatrickDempsey.png', 'Im_RobertPattinson.png', 'Im_RyanReynolds.png', 'Im_JustinTimberlake.png'],diff,1,0.4333958000001985,28,85.71428571428571,
PIPE1804,8,pos,120,pos120_id17_im8.bmp_pos120_id4_im7.bmp,['Im_BradPitt.png', 'Im_LeonardoDiCaprio.png', 'Im_GeorgeClooney.png', 'Im_DanielCraig.png', 'Im_DanielRadcliffe.png', 'Im_OrlandoBloom.png', 'Im_PatrickDempsey.png', 'Im_RobertPattinson.png', 'Im_RyanReynolds.png', 'Im_JustinTimberlake.png'],diff,1,0.42532440000013594,29,85.71428571428571,
PIPE1804,8,pos,fs,posfs_id5_im10.bmp_posfs_id5_im20.bmp,['Im_BradPitt.png', 'Im_LeonardoDiCaprio.png', 'Im_GeorgeClooney.png', 'Im_DanielCraig.png', 'Im_DanielRadcliffe.png', 'Im_OrlandoBloom.png', 'Im_PatrickDempsey.png', 'Im_RobertPattinson.png', 'Im_RyanReynolds.png', 'Im_JustinTimberlake.png'],same,1,0.4169099000000642,30,85.71428571428571,
PIPE1804,8,pos,fs,posfs_id21_im16.bmp_posfs_id21_im22.bmp,['Im_BradPitt.png', 'Im_LeonardoDiCaprio.png', 'Im_GeorgeClooney.png', 'Im_DanielCraig.png', 'Im_DanielRadcliffe.png', 'Im_OrlandoBloom.png', 'Im_PatrickDempsey.png', 'Im_RobertPattinson.png', 'Im_RyanReynolds.png', 'Im_JustinTimberlake.png'],same,1,0.4250993999999082,31,85.71428571428571,
PIPE1804,8,pos,30,pos30_id3_im6.bmp_pos30_id10_im17.bmp,['Im_BradPitt.png', 'Im_LeonardoDiCaprio.png', 'Im_GeorgeClooney.png', 'Im_DanielCraig.png', 'Im_DanielRadcliffe.png', 'Im_OrlandoBloom.png', 'Im_PatrickDempsey.png', 'Im_RobertPattinson.png', 'Im_RyanReynolds.png', 'Im_JustinTimberlake.png'],diff,1,0.42502799999965646,32,85.71428571428571,
PIPE1804,8,pos,60,pos60_id5_im10.bmp_pos60_id21_im17.bmp,['Im_BradPitt.png', 'Im_LeonardoDiCaprio.png', 'Im_GeorgeClooney.png', 'Im_DanielCraig.png', 'Im_DanielRadcliffe.png', 'Im_OrlandoBloom.png', 'Im_PatrickDempsey.png', 'Im_RobertPattinson.png', 'Im_RyanReynolds.png', 'Im_JustinTimberlake.png'],diff,1,0.4168503000000783,33,85.71428571428571,
PIPE1804,8,pos,150,pos150_id10_im17.bmp_pos150_id10_im18.bmp,['Im_BradPitt.png', 'Im_LeonardoDiCaprio.png', 'Im_GeorgeClooney.png', 'Im_DanielCraig.png', 'Im_DanielRadcliffe.png', 'Im_OrlandoBloom.png', 'Im_PatrickDempsey.png', 'Im_RobertPattinson.png', 'Im_RyanReynolds.png', 'Im_JustinTimberlake.png'],same,1,0.42508449999968434,34,85.71428571428571,
PIPE1804,8,pos,90,pos90_id4_im7.bmp_pos90_id17_im8.bmp,['Im_BradPitt.png', 'Im_LeonardoDiCaprio.png', 'Im_GeorgeClooney.png', 'Im_DanielCraig.png', 'Im_DanielRadcliffe.png', 'Im_OrlandoBloom.png', 'Im_PatrickDempsey.png', 'Im_RobertPattinson.png', 'Im_RyanReynolds.png', 'Im_JustinTimberlake.png'],same,0,0.4333943999999974,34,85.71428571428571,
PIPE1804,8,pos,60,pos60_id4_im7.bmp_pos60_id4_im15.bmp,['Im_BradPitt.png', 'Im_LeonardoDiCaprio.png', 'Im_GeorgeClooney.png', 'Im_DanielCraig.png', 'Im_DanielRadcliffe.png', 'Im_OrlandoBloom.png', 'Im_PatrickDempsey.png', 'Im_RobertPattinson.png', 'Im_RyanReynolds.png', 'Im_JustinTimberlake.png'],same,1,0.4167231000001266,35,85.71428571428571,
PIPE1804,9,neg,120,neg120_id4_im20.bmp_neg120_id7_im14.bmp,['Im_BradPitt.png', 'Im_LeonardoDiCaprio.png', 'Im_GeorgeClooney.png', 'Im_DanielCraig.png', 'Im_DanielRadcliffe.png', 'Im_OrlandoBloom.png', 'Im_PatrickDempsey.png', 'Im_RobertPattinson.png', 'Im_RyanReynolds.png', 'Im_JustinTimberlake.png'],diff,1,0.42523369999980787,1,83.33333333333333,
PIPE1804,9,neg,150,neg150_id10_im1.bmp_neg150_id5_im1.bmp,['Im_BradPitt.png', 'Im_LeonardoDiCaprio.png', 'Im_GeorgeClooney.png', 'Im_DanielCraig.png', 'Im_DanielRadcliffe.png', 'Im_OrlandoBloom.png', 'Im_PatrickDempsey.png', 'Im_RobertPattinson.png', 'Im_RyanReynolds.png', 'Im_JustinTimberlake.png'],same,0,0.4167231000001266,1,83.33333333333333,
PIPE1804,9,neg,120,neg120_id3_im17.bmp_neg120_id10_im1.bmp,['Im_BradPitt.png', 'Im_LeonardoDiCaprio.png', 'Im_GeorgeClooney.png', 'Im_DanielCraig.png', 'Im_DanielRadcliffe.png', 'Im_OrlandoBloom.png', 'Im_PatrickDempsey.png', 'Im_RobertPattinson.png', 'Im_RyanReynolds.png', 'Im_JustinTimberlake.png'],same,0,0.4166986000000179,1,83.33333333333333,
PIPE1804,9,neg,60,neg60_id3_im6.bmp_neg60_id17_im9.bmp,['Im_BradPitt.png', 'Im_LeonardoDiCaprio.png', 'Im_GeorgeClooney.png', 'Im_DanielCraig.png', 'Im_DanielRadcliffe.png', 'Im_OrlandoBloom.png', 'Im_PatrickDempsey.png', 'Im_RobertPattinson.png', 'Im_RyanReynolds.png', 'Im_JustinTimberlake.png'],same,0,0.4167267999996511,1,83.33333333333333,
PIPE1804,9,neg,fs,negfs_id3_im8.bmp_negfs_id7_im26.bmp,['Im_BradPitt.png', 'Im_LeonardoDiCaprio.png', 'Im_GeorgeClooney.png', 'Im_DanielCraig.png', 'Im_DanielRadcliffe.png', 'Im_OrlandoBloom.png', 'Im_PatrickDempsey.png', 'Im_RobertPattinson.png', 'Im_RyanReynolds.png', 'Im_JustinTimberlake.png'],diff,1,0.41672650000009526,2,83.33333333333333,
PIPE1804,9,neg,0,neg0_id19_im27.bmp_neg0_id13_im15.bmp,['Im_BradPitt.png', 'Im_LeonardoDiCaprio.png', 'Im_GeorgeClooney.png', 'Im_DanielCraig.png', 'Im_DanielRadcliffe.png', 'Im_OrlandoBloom.png', 'Im_PatrickDempsey.png', 'Im_RobertPattinson.png', 'Im_RyanReynolds.png', 'Im_JustinTimberlake.png'],diff,1,0.4167649999999412,3,83.33333333333333,
PIPE1804,9,neg,90,neg90_id5_im20.bmp_neg90_id5_im1.bmp,['Im_BradPitt.png', 'Im_LeonardoDiCaprio.png', 'Im_GeorgeClooney.png', 'Im_DanielCraig.png', 'Im_DanielRadcliffe.png', 'Im_OrlandoBloom.png', 'Im_PatrickDempsey.png', 'Im_RobertPattinson.png', 'Im_RyanReynolds.png', 'Im_JustinTimberlake.png'],diff,0,0.46673650000002453,3,83.33333333333333,
