Sujet,Trial,Condition,Filter,Imname,Actor0,Actor1,Actor2,Actor3,Actor4,Actor5,Actor6,Actor7,Actor8,Actor9,Answer,Accu,RT,Score,Scoreperc, 
PIPE1804,train,pos,90,pos90_id21_im17.bmp_pos90_id5_im20.bmp,['Im_DanielCraig.png', 'Im_RyanReynolds.png', 'Im_PatrickDempsey.png', 'Im_OrlandoBloom.png', 'Im_LeonardoDiCaprio.png', 'Im_GeorgeClooney.png', 'Im_JustinTimberlake.png', 'Im_BradPitt.png', 'Im_DanielRadcliffe.png', 'Im_RobertPattinson.png'],diff,1,0.40839620000042487,1,0,
PIPE1804,train,pos,0,pos0_id5_im10.bmp_pos0_id21_im17.bmp,['Im_DanielCraig.png', 'Im_RyanReynolds.png', 'Im_PatrickDempsey.png', 'Im_OrlandoBloom.png', 'Im_LeonardoDiCaprio.png', 'Im_GeorgeClooney.png', 'Im_JustinTimberlake.png', 'Im_BradPitt.png', 'Im_DanielRadcliffe.png', 'Im_RobertPattinson.png'],diff,1,0.4084400000001551,2,0,
PIPE1804,train,pos,30,pos30_id13_im15.bmp_pos30_id19_im27.bmp,['Im_DanielCraig.png', 'Im_RyanReynolds.png', 'Im_PatrickDempsey.png', 'Im_OrlandoBloom.png', 'Im_LeonardoDiCaprio.png', 'Im_GeorgeClooney.png', 'Im_JustinTimberlake.png', 'Im_BradPitt.png', 'Im_DanielRadcliffe.png', 'Im_RobertPattinson.png'],diff,1,0.4167745000004288,3,0,
PIPE1804,train,pos,150,pos150_id16_im2.bmp_pos150_id16_im19.bmp,['Im_DanielCraig.png', 'Im_RyanReynolds.png', 'Im_PatrickDempsey.png', 'Im_OrlandoBloom.png', 'Im_LeonardoDiCaprio.png', 'Im_GeorgeClooney.png', 'Im_JustinTimberlake.png', 'Im_BradPitt.png', 'Im_DanielRadcliffe.png', 'Im_RobertPattinson.png'],same,1,0.40847219999977824,4,0,
PIPE1804,train,pos,fs,posfs_id4_im20.bmp_posfs_id4_im7.bmp,['Im_DanielCraig.png', 'Im_RyanReynolds.png', 'Im_PatrickDempsey.png', 'Im_OrlandoBloom.png', 'Im_LeonardoDiCaprio.png', 'Im_GeorgeClooney.png', 'Im_JustinTimberlake.png', 'Im_BradPitt.png', 'Im_DanielRadcliffe.png', 'Im_RobertPattinson.png'],same,1,0.4083952999999383,5,0,
PIPE1804,train,pos,120,pos120_id17_im14.bmp_pos120_id13_im15.bmp,['Im_DanielCraig.png', 'Im_RyanReynolds.png', 'Im_PatrickDempsey.png', 'Im_OrlandoBloom.png', 'Im_LeonardoDiCaprio.png', 'Im_GeorgeClooney.png', 'Im_JustinTimberlake.png', 'Im_BradPitt.png', 'Im_DanielRadcliffe.png', 'Im_RobertPattinson.png'],diff,1,0.40862809999998717,6,0,
PIPE1804,train,pos,60,pos60_id7_im14.bmp_pos60_id7_im15.bmp,['Im_DanielCraig.png', 'Im_RyanReynolds.png', 'Im_PatrickDempsey.png', 'Im_OrlandoBloom.png', 'Im_LeonardoDiCaprio.png', 'Im_GeorgeClooney.png', 'Im_JustinTimberlake.png', 'Im_BradPitt.png', 'Im_DanielRadcliffe.png', 'Im_RobertPattinson.png'],same,1,0.44177529999979015,7,0,
PIPE1804,train,pos,30,pos30_id21_im16.bmp_pos30_id21_im22.bmp,['Im_DanielCraig.png', 'Im_RyanReynolds.png', 'Im_PatrickDempsey.png', 'Im_OrlandoBloom.png', 'Im_LeonardoDiCaprio.png', 'Im_GeorgeClooney.png', 'Im_JustinTimberlake.png', 'Im_BradPitt.png', 'Im_DanielRadcliffe.png', 'Im_RobertPattinson.png'],same,1,0.42498909999994794,8,0,
PIPE1804,train,pos,90,pos90_id21_im22.bmp_pos90_id21_im16.bmp,['Im_DanielCraig.png', 'Im_RyanReynolds.png', 'Im_PatrickDempsey.png', 'Im_OrlandoBloom.png', 'Im_LeonardoDiCaprio.png', 'Im_GeorgeClooney.png', 'Im_JustinTimberlake.png', 'Im_BradPitt.png', 'Im_DanielRadcliffe.png', 'Im_RobertPattinson.png'],same,1,0.4082791000000725,9,0,
PIPE1804,train,pos,60,pos60_id13_im15.bmp_pos60_id13_im29.bmp,['Im_DanielCraig.png', 'Im_RyanReynolds.png', 'Im_PatrickDempsey.png', 'Im_OrlandoBloom.png', 'Im_LeonardoDiCaprio.png', 'Im_GeorgeClooney.png', 'Im_JustinTimberlake.png', 'Im_BradPitt.png', 'Im_DanielRadcliffe.png', 'Im_RobertPattinson.png'],diff,0,0.416465799999969,9,0,
PIPE1804,train,pos,120,pos120_id3_im8.bmp_pos120_id3_im17.bmp,['Im_DanielCraig.png', 'Im_RyanReynolds.png', 'Im_PatrickDempsey.png', 'Im_OrlandoBloom.png', 'Im_LeonardoDiCaprio.png', 'Im_GeorgeClooney.png', 'Im_JustinTimberlake.png', 'Im_BradPitt.png', 'Im_DanielRadcliffe.png', 'Im_RobertPattinson.png'],same,1,0.42497569999977713,10,0,
PIPE1804,train,pos,fs,posfs_id7_im26.bmp_posfs_id3_im8.bmp,['Im_DanielCraig.png', 'Im_RyanReynolds.png', 'Im_PatrickDempsey.png', 'Im_OrlandoBloom.png', 'Im_LeonardoDiCaprio.png', 'Im_GeorgeClooney.png', 'Im_JustinTimberlake.png', 'Im_BradPitt.png', 'Im_DanielRadcliffe.png', 'Im_RobertPattinson.png'],diff,1,0.41688060000069527,11,0,
PIPE1804,train,pos,0,pos0_id7_im14.bmp_pos0_id4_im20.bmp,['Im_DanielCraig.png', 'Im_RyanReynolds.png', 'Im_PatrickDempsey.png', 'Im_OrlandoBloom.png', 'Im_LeonardoDiCaprio.png', 'Im_GeorgeClooney.png', 'Im_JustinTimberlake.png', 'Im_BradPitt.png', 'Im_DanielRadcliffe.png', 'Im_RobertPattinson.png'],diff,1,0.4167323000001488,12,0,
PIPE1804,train,pos,150,pos150_id7_im14.bmp_pos150_id7_im26.bmp,['Im_DanielCraig.png', 'Im_RyanReynolds.png', 'Im_PatrickDempsey.png', 'Im_OrlandoBloom.png', 'Im_LeonardoDiCaprio.png', 'Im_GeorgeClooney.png', 'Im_JustinTimberlake.png', 'Im_BradPitt.png', 'Im_DanielRadcliffe.png', 'Im_RobertPattinson.png'],same,1,0.4083786000001055,13,0,
PIPE1804,train,neg,0,neg0_id16_im19.bmp_neg0_id16_im3.bmp,['Im_DanielCraig.png', 'Im_RyanReynolds.png', 'Im_PatrickDempsey.png', 'Im_OrlandoBloom.png', 'Im_LeonardoDiCaprio.png', 'Im_GeorgeClooney.png', 'Im_JustinTimberlake.png', 'Im_BradPitt.png', 'Im_DanielRadcliffe.png', 'Im_RobertPattinson.png'],same,1,0.42510719999972935,14,0,
PIPE1804,train,neg,60,neg60_id17_im8.bmp_neg60_id10_im17.bmp,['Im_DanielCraig.png', 'Im_RyanReynolds.png', 'Im_PatrickDempsey.png', 'Im_OrlandoBloom.png', 'Im_LeonardoDiCaprio.png', 'Im_GeorgeClooney.png', 'Im_JustinTimberlake.png', 'Im_BradPitt.png', 'Im_DanielRadcliffe.png', 'Im_RobertPattinson.png'],same,0,0.4083725999998933,14,0,
PIPE1804,train,neg,120,neg120_id13_im29.bmp_neg120_id10_im18.bmp,['Im_DanielCraig.png', 'Im_RyanReynolds.png', 'Im_PatrickDempsey.png', 'Im_OrlandoBloom.png', 'Im_LeonardoDiCaprio.png', 'Im_GeorgeClooney.png', 'Im_JustinTimberlake.png', 'Im_BradPitt.png', 'Im_DanielRadcliffe.png', 'Im_RobertPattinson.png'],same,0,0.5586131000000023,14,0,
PIPE1804,train,neg,60,neg60_id13_im10.bmp_neg60_id16_im2.bmp,['Im_DanielCraig.png', 'Im_RyanReynolds.png', 'Im_PatrickDempsey.png', 'Im_OrlandoBloom.png', 'Im_LeonardoDiCaprio.png', 'Im_GeorgeClooney.png', 'Im_JustinTimberlake.png', 'Im_BradPitt.png', 'Im_DanielRadcliffe.png', 'Im_RobertPattinson.png'],diff,1,0.42528850000053353,15,0,
PIPE1804,train,neg,fs,negfs_id3_im6.bmp_negfs_id17_im9.bmp,['Im_DanielCraig.png', 'Im_RyanReynolds.png', 'Im_PatrickDempsey.png', 'Im_OrlandoBloom.png', 'Im_LeonardoDiCaprio.png', 'Im_GeorgeClooney.png', 'Im_JustinTimberlake.png', 'Im_BradPitt.png', 'Im_DanielRadcliffe.png', 'Im_RobertPattinson.png'],diff,1,0.40855240000018966,16,0,
PIPE1804,train,neg,150,neg150_id16_im3.bmp_neg150_id16_im2.bmp,['Im_DanielCraig.png', 'Im_RyanReynolds.png', 'Im_PatrickDempsey.png', 'Im_OrlandoBloom.png', 'Im_LeonardoDiCaprio.png', 'Im_GeorgeClooney.png', 'Im_JustinTimberlake.png', 'Im_BradPitt.png', 'Im_DanielRadcliffe.png', 'Im_RobertPattinson.png'],same,1,0.4335148999998637,17,0,
PIPE1804,train,neg,30,neg30_id16_im19.bmp_neg30_id21_im16.bmp,['Im_DanielCraig.png', 'Im_RyanReynolds.png', 'Im_PatrickDempsey.png', 'Im_OrlandoBloom.png', 'Im_LeonardoDiCaprio.png', 'Im_GeorgeClooney.png', 'Im_JustinTimberlake.png', 'Im_BradPitt.png', 'Im_DanielRadcliffe.png', 'Im_RobertPattinson.png'],diff,1,0.4083100999996532,18,0,
PIPE1804,train,neg,30,neg30_id5_im1.bmp_neg30_id5_im20.bmp,['Im_DanielCraig.png', 'Im_RyanReynolds.png', 'Im_PatrickDempsey.png', 'Im_OrlandoBloom.png', 'Im_LeonardoDiCaprio.png', 'Im_GeorgeClooney.png', 'Im_JustinTimberlake.png', 'Im_BradPitt.png', 'Im_DanielRadcliffe.png', 'Im_RobertPattinson.png'],same,1,0.8834031999995204,19,0,
PIPE1804,train,neg,0,neg0_id21_im16.bmp_neg0_id16_im19.bmp,['Im_DanielCraig.png', 'Im_RyanReynolds.png', 'Im_PatrickDempsey.png', 'Im_OrlandoBloom.png', 'Im_LeonardoDiCaprio.png', 'Im_GeorgeClooney.png', 'Im_JustinTimberlake.png', 'Im_BradPitt.png', 'Im_DanielRadcliffe.png', 'Im_RobertPattinson.png'],diff,1,0.42476600000009057,20,0,
PIPE1804,train,neg,150,neg150_id21_im17.bmp_neg150_id5_im10.bmp,['Im_DanielCraig.png', 'Im_RyanReynolds.png', 'Im_PatrickDempsey.png', 'Im_OrlandoBloom.png', 'Im_LeonardoDiCaprio.png', 'Im_GeorgeClooney.png', 'Im_JustinTimberlake.png', 'Im_BradPitt.png', 'Im_DanielRadcliffe.png', 'Im_RobertPattinson.png'],diff,1,0.4083424999998897,21,0,
PIPE1804,train,neg,90,neg90_id13_im10.bmp_neg90_id13_im29.bmp,['Im_DanielCraig.png', 'Im_RyanReynolds.png', 'Im_PatrickDempsey.png', 'Im_OrlandoBloom.png', 'Im_LeonardoDiCaprio.png', 'Im_GeorgeClooney.png', 'Im_JustinTimberlake.png', 'Im_BradPitt.png', 'Im_DanielRadcliffe.png', 'Im_RobertPattinson.png'],same,1,0.4166547000004357,22,0,
PIPE1804,train,neg,fs,negfs_id19_im8.bmp_negfs_id19_im27.bmp,['Im_DanielCraig.png', 'Im_RyanReynolds.png', 'Im_PatrickDempsey.png', 'Im_OrlandoBloom.png', 'Im_LeonardoDiCaprio.png', 'Im_GeorgeClooney.png', 'Im_JustinTimberlake.png', 'Im_BradPitt.png', 'Im_DanielRadcliffe.png', 'Im_RobertPattinson.png'],same,1,0.40844320000087464,23,0,
PIPE1804,train,neg,120,neg120_id10_im17.bmp_neg120_id10_im18.bmp,['Im_DanielCraig.png', 'Im_RyanReynolds.png', 'Im_PatrickDempsey.png', 'Im_OrlandoBloom.png', 'Im_LeonardoDiCaprio.png', 'Im_GeorgeClooney.png', 'Im_JustinTimberlake.png', 'Im_BradPitt.png', 'Im_DanielRadcliffe.png', 'Im_RobertPattinson.png'],same,1,0.41677049999998417,24,0,
PIPE1804,train,neg,90,neg90_id5_im1.bmp_neg90_id4_im15.bmp,['Im_DanielCraig.png', 'Im_RyanReynolds.png', 'Im_PatrickDempsey.png', 'Im_OrlandoBloom.png', 'Im_LeonardoDiCaprio.png', 'Im_GeorgeClooney.png', 'Im_JustinTimberlake.png', 'Im_BradPitt.png', 'Im_DanielRadcliffe.png', 'Im_RobertPattinson.png'],same,0,0.4166326999993544,24,0,
PIPE1804,train,pos,30,pos30_id17_im9.bmp_pos30_id17_im8.bmp,['Im_DanielCraig.png', 'Im_RyanReynolds.png', 'Im_PatrickDempsey.png', 'Im_OrlandoBloom.png', 'Im_LeonardoDiCaprio.png', 'Im_GeorgeClooney.png', 'Im_JustinTimberlake.png', 'Im_BradPitt.png', 'Im_DanielRadcliffe.png', 'Im_RobertPattinson.png'],same,1,0.4001909999997224,25,0,
PIPE1804,train,pos,90,pos90_id21_im16.bmp_pos90_id16_im19.bmp,['Im_DanielCraig.png', 'Im_RyanReynolds.png', 'Im_PatrickDempsey.png', 'Im_OrlandoBloom.png', 'Im_LeonardoDiCaprio.png', 'Im_GeorgeClooney.png', 'Im_JustinTimberlake.png', 'Im_BradPitt.png', 'Im_DanielRadcliffe.png', 'Im_RobertPattinson.png'],diff,1,0.43352080000022397,26,0,
PIPE1804,train,pos,fs,posfs_id19_im27.bmp_posfs_id19_im8.bmp,['Im_DanielCraig.png', 'Im_RyanReynolds.png', 'Im_PatrickDempsey.png', 'Im_OrlandoBloom.png', 'Im_LeonardoDiCaprio.png', 'Im_GeorgeClooney.png', 'Im_JustinTimberlake.png', 'Im_BradPitt.png', 'Im_DanielRadcliffe.png', 'Im_RobertPattinson.png'],same,1,0.41667099999995116,27,0,
PIPE1804,train,pos,fs,posfs_id3_im17.bmp_posfs_id3_im8.bmp,['Im_DanielCraig.png', 'Im_RyanReynolds.png', 'Im_PatrickDempsey.png', 'Im_OrlandoBloom.png', 'Im_LeonardoDiCaprio.png', 'Im_GeorgeClooney.png', 'Im_JustinTimberlake.png', 'Im_BradPitt.png', 'Im_DanielRadcliffe.png', 'Im_RobertPattinson.png'],diff,0,0.4167446999999811,27,0,
PIPE1804,train,pos,60,pos60_id19_im27.bmp_pos60_id13_im15.bmp,['Im_DanielCraig.png', 'Im_RyanReynolds.png', 'Im_PatrickDempsey.png', 'Im_OrlandoBloom.png', 'Im_LeonardoDiCaprio.png', 'Im_GeorgeClooney.png', 'Im_JustinTimberlake.png', 'Im_BradPitt.png', 'Im_DanielRadcliffe.png', 'Im_RobertPattinson.png'],diff,1,0.4168687999999747,28,0,
PIPE1804,train,pos,30,pos30_id21_im22.bmp_pos30_id10_im18.bmp,['Im_DanielCraig.png', 'Im_RyanReynolds.png', 'Im_PatrickDempsey.png', 'Im_OrlandoBloom.png', 'Im_LeonardoDiCaprio.png', 'Im_GeorgeClooney.png', 'Im_JustinTimberlake.png', 'Im_BradPitt.png', 'Im_DanielRadcliffe.png', 'Im_RobertPattinson.png'],diff,1,0.4082114000002548,29,0,
PIPE1804,train,pos,150,pos150_id19_im8.bmp_pos150_id16_im3.bmp,['Im_DanielCraig.png', 'Im_RyanReynolds.png', 'Im_PatrickDempsey.png', 'Im_OrlandoBloom.png', 'Im_LeonardoDiCaprio.png', 'Im_GeorgeClooney.png', 'Im_JustinTimberlake.png', 'Im_BradPitt.png', 'Im_DanielRadcliffe.png', 'Im_RobertPattinson.png'],diff,1,0.40831969999999274,30,0,
PIPE1804,train,pos,150,pos150_id21_im22.bmp_pos150_id21_im17.bmp,['Im_DanielCraig.png', 'Im_RyanReynolds.png', 'Im_PatrickDempsey.png', 'Im_OrlandoBloom.png', 'Im_LeonardoDiCaprio.png', 'Im_GeorgeClooney.png', 'Im_JustinTimberlake.png', 'Im_BradPitt.png', 'Im_DanielRadcliffe.png', 'Im_RobertPattinson.png'],same,1,0.4167390000002342,31,0,
PIPE1804,train,pos,60,pos60_id3_im8.bmp_pos60_id3_im17.bmp,['Im_DanielCraig.png', 'Im_RyanReynolds.png', 'Im_PatrickDempsey.png', 'Im_OrlandoBloom.png', 'Im_LeonardoDiCaprio.png', 'Im_GeorgeClooney.png', 'Im_JustinTimberlake.png', 'Im_BradPitt.png', 'Im_DanielRadcliffe.png', 'Im_RobertPattinson.png'],same,1,0.4167137000004004,32,0,
PIPE1804,train,pos,90,pos90_id7_im15.bmp_pos90_id21_im16.bmp,['Im_DanielCraig.png', 'Im_RyanReynolds.png', 'Im_PatrickDempsey.png', 'Im_OrlandoBloom.png', 'Im_LeonardoDiCaprio.png', 'Im_GeorgeClooney.png', 'Im_JustinTimberlake.png', 'Im_BradPitt.png', 'Im_DanielRadcliffe.png', 'Im_RobertPattinson.png'],diff,1,0.4333234000005177,33,0,
PIPE1804,train,pos,120,pos120_id5_im10.bmp_pos120_id5_im1.bmp,['Im_DanielCraig.png', 'Im_RyanReynolds.png', 'Im_PatrickDempsey.png', 'Im_OrlandoBloom.png', 'Im_LeonardoDiCaprio.png', 'Im_GeorgeClooney.png', 'Im_JustinTimberlake.png', 'Im_BradPitt.png', 'Im_DanielRadcliffe.png', 'Im_RobertPattinson.png'],same,1,0.4167324000000008,34,0,
PIPE1804,train,pos,0,pos0_id21_im16.bmp_pos0_id21_im22.bmp,['Im_DanielCraig.png', 'Im_RyanReynolds.png', 'Im_PatrickDempsey.png', 'Im_OrlandoBloom.png', 'Im_LeonardoDiCaprio.png', 'Im_GeorgeClooney.png', 'Im_JustinTimberlake.png', 'Im_BradPitt.png', 'Im_DanielRadcliffe.png', 'Im_RobertPattinson.png'],same,1,0.41635370000039984,35,0,
PIPE1804,train,pos,120,pos120_id7_im14.bmp_pos120_id7_im26.bmp,['Im_DanielCraig.png', 'Im_RyanReynolds.png', 'Im_PatrickDempsey.png', 'Im_OrlandoBloom.png', 'Im_LeonardoDiCaprio.png', 'Im_GeorgeClooney.png', 'Im_JustinTimberlake.png', 'Im_BradPitt.png', 'Im_DanielRadcliffe.png', 'Im_RobertPattinson.png'],same,1,0.40843600000061997,36,0,
PIPE1804,train,pos,0,pos0_id5_im20.bmp_pos0_id5_im1.bmp,['Im_DanielCraig.png', 'Im_RyanReynolds.png', 'Im_PatrickDempsey.png', 'Im_OrlandoBloom.png', 'Im_LeonardoDiCaprio.png', 'Im_GeorgeClooney.png', 'Im_JustinTimberlake.png', 'Im_BradPitt.png', 'Im_DanielRadcliffe.png', 'Im_RobertPattinson.png'],diff,0,0.4168154000008144,36,0,
PIPE1804,train,inv,30,pos30_id16_im2.bmp_pos30_id13_im10.bmp,['Im_DanielCraig.png', 'Im_RyanReynolds.png', 'Im_PatrickDempsey.png', 'Im_OrlandoBloom.png', 'Im_LeonardoDiCaprio.png', 'Im_GeorgeClooney.png', 'Im_JustinTimberlake.png', 'Im_BradPitt.png', 'Im_DanielRadcliffe.png', 'Im_RobertPattinson.png'],diff,1,0.4166806000002907,1,85.71428571428571,
PIPE1804,train,inv,120,pos120_id19_im27.bmp_pos120_id19_im8.bmp,['Im_DanielCraig.png', 'Im_RyanReynolds.png', 'Im_PatrickDempsey.png', 'Im_OrlandoBloom.png', 'Im_LeonardoDiCaprio.png', 'Im_GeorgeClooney.png', 'Im_JustinTimberlake.png', 'Im_BradPitt.png', 'Im_DanielRadcliffe.png', 'Im_RobertPattinson.png'],same,1,0.4161812000002101,2,85.71428571428571,
PIPE1804,train,inv,90,pos90_id21_im16.bmp_pos90_id21_im17.bmp,['Im_DanielCraig.png', 'Im_RyanReynolds.png', 'Im_PatrickDempsey.png', 'Im_OrlandoBloom.png', 'Im_LeonardoDiCaprio.png', 'Im_GeorgeClooney.png', 'Im_JustinTimberlake.png', 'Im_BradPitt.png', 'Im_DanielRadcliffe.png', 'Im_RobertPattinson.png'],diff,0,0.9667094000005818,2,85.71428571428571,
PIPE1804,train,inv,60,pos60_id13_im29.bmp_pos60_id3_im17.bmp,['Im_DanielCraig.png', 'Im_RyanReynolds.png', 'Im_PatrickDempsey.png', 'Im_OrlandoBloom.png', 'Im_LeonardoDiCaprio.png', 'Im_GeorgeClooney.png', 'Im_JustinTimberlake.png', 'Im_BradPitt.png', 'Im_DanielRadcliffe.png', 'Im_RobertPattinson.png'],same,0,0.4167547999995804,2,85.71428571428571,
PIPE1804,train,inv,fs,posfs_id17_im8.bmp_posfs_id10_im17.bmp,['Im_DanielCraig.png', 'Im_RyanReynolds.png', 'Im_PatrickDempsey.png', 'Im_OrlandoBloom.png', 'Im_LeonardoDiCaprio.png', 'Im_GeorgeClooney.png', 'Im_JustinTimberlake.png', 'Im_BradPitt.png', 'Im_DanielRadcliffe.png', 'Im_RobertPattinson.png'],diff,1,0.4083964000001288,3,85.71428571428571,
PIPE1804,train,inv,60,pos60_id4_im15.bmp_pos60_id5_im1.bmp,['Im_DanielCraig.png', 'Im_RyanReynolds.png', 'Im_PatrickDempsey.png', 'Im_OrlandoBloom.png', 'Im_LeonardoDiCaprio.png', 'Im_GeorgeClooney.png', 'Im_JustinTimberlake.png', 'Im_BradPitt.png', 'Im_DanielRadcliffe.png', 'Im_RobertPattinson.png'],diff,1,0.4163839000002554,4,85.71428571428571,
PIPE1804,train,inv,120,pos120_id13_im29.bmp_pos120_id13_im10.bmp,['Im_DanielCraig.png', 'Im_RyanReynolds.png', 'Im_PatrickDempsey.png', 'Im_OrlandoBloom.png', 'Im_LeonardoDiCaprio.png', 'Im_GeorgeClooney.png', 'Im_JustinTimberlake.png', 'Im_BradPitt.png', 'Im_DanielRadcliffe.png', 'Im_RobertPattinson.png'],diff,0,0.4249790000003486,4,85.71428571428571,
PIPE1804,train,inv,0,pos0_id7_im15.bmp_pos0_id19_im4.bmp,['Im_DanielCraig.png', 'Im_RyanReynolds.png', 'Im_PatrickDempsey.png', 'Im_OrlandoBloom.png', 'Im_LeonardoDiCaprio.png', 'Im_GeorgeClooney.png', 'Im_JustinTimberlake.png', 'Im_BradPitt.png', 'Im_DanielRadcliffe.png', 'Im_RobertPattinson.png'],diff,1,0.4079455000000962,5,85.71428571428571,
PIPE1804,train,inv,0,pos0_id16_im2.bmp_pos0_id16_im19.bmp,['Im_DanielCraig.png', 'Im_RyanReynolds.png', 'Im_PatrickDempsey.png', 'Im_OrlandoBloom.png', 'Im_LeonardoDiCaprio.png', 'Im_GeorgeClooney.png', 'Im_JustinTimberlake.png', 'Im_BradPitt.png', 'Im_DanielRadcliffe.png', 'Im_RobertPattinson.png'],same,1,0.4166711999996551,6,85.71428571428571,
PIPE1804,train,inv,150,pos150_id17_im8.bmp_pos150_id10_im17.bmp,['Im_DanielCraig.png', 'Im_RyanReynolds.png', 'Im_PatrickDempsey.png', 'Im_OrlandoBloom.png', 'Im_LeonardoDiCaprio.png', 'Im_GeorgeClooney.png', 'Im_JustinTimberlake.png', 'Im_BradPitt.png', 'Im_DanielRadcliffe.png', 'Im_RobertPattinson.png'],same,0,0.43351129999973637,6,85.71428571428571,
PIPE1804,train,inv,150,pos150_id19_im8.bmp_pos150_id16_im3.bmp,['Im_DanielCraig.png', 'Im_RyanReynolds.png', 'Im_PatrickDempsey.png', 'Im_OrlandoBloom.png', 'Im_LeonardoDiCaprio.png', 'Im_GeorgeClooney.png', 'Im_JustinTimberlake.png', 'Im_BradPitt.png', 'Im_DanielRadcliffe.png', 'Im_RobertPattinson.png'],same,0,0.4166434999997364,6,85.71428571428571,
PIPE1804,train,inv,30,pos30_id16_im3.bmp_pos30_id16_im19.bmp,['Im_DanielCraig.png', 'Im_RyanReynolds.png', 'Im_PatrickDempsey.png', 'Im_OrlandoBloom.png', 'Im_LeonardoDiCaprio.png', 'Im_GeorgeClooney.png', 'Im_JustinTimberlake.png', 'Im_BradPitt.png', 'Im_DanielRadcliffe.png', 'Im_RobertPattinson.png'],diff,0,0.40839169999981095,6,85.71428571428571,
PIPE1804,train,inv,fs,posfs_id17_im14.bmp_posfs_id3_im8.bmp,['Im_DanielCraig.png', 'Im_RyanReynolds.png', 'Im_PatrickDempsey.png', 'Im_OrlandoBloom.png', 'Im_LeonardoDiCaprio.png', 'Im_GeorgeClooney.png', 'Im_JustinTimberlake.png', 'Im_BradPitt.png', 'Im_DanielRadcliffe.png', 'Im_RobertPattinson.png'],same,0,1.2508804999997665,6,85.71428571428571,
PIPE1804,train,inv,90,pos90_id10_im17.bmp_pos90_id10_im18.bmp,['Im_DanielCraig.png', 'Im_RyanReynolds.png', 'Im_PatrickDempsey.png', 'Im_OrlandoBloom.png', 'Im_LeonardoDiCaprio.png', 'Im_GeorgeClooney.png', 'Im_JustinTimberlake.png', 'Im_BradPitt.png', 'Im_DanielRadcliffe.png', 'Im_RobertPattinson.png'],diff,0,1.0084130999994159,6,85.71428571428571,
PIPE1804,train,neg,120,neg120_id4_im15.bmp_neg120_id19_im27.bmp,['Im_DanielCraig.png', 'Im_RyanReynolds.png', 'Im_PatrickDempsey.png', 'Im_OrlandoBloom.png', 'Im_LeonardoDiCaprio.png', 'Im_GeorgeClooney.png', 'Im_JustinTimberlake.png', 'Im_BradPitt.png', 'Im_DanielRadcliffe.png', 'Im_RobertPattinson.png'],diff,1,0.4250224999996135,7,85.71428571428571,
PIPE1804,train,neg,150,neg150_id21_im22.bmp_neg150_id10_im18.bmp,['Im_DanielCraig.png', 'Im_RyanReynolds.png', 'Im_PatrickDempsey.png', 'Im_OrlandoBloom.png', 'Im_LeonardoDiCaprio.png', 'Im_GeorgeClooney.png', 'Im_JustinTimberlake.png', 'Im_BradPitt.png', 'Im_DanielRadcliffe.png', 'Im_RobertPattinson.png'],diff,1,0.533579799999643,8,85.71428571428571,
PIPE1804,train,neg,0,neg0_id7_im14.bmp_neg0_id16_im3.bmp,['Im_DanielCraig.png', 'Im_RyanReynolds.png', 'Im_PatrickDempsey.png', 'Im_OrlandoBloom.png', 'Im_LeonardoDiCaprio.png', 'Im_GeorgeClooney.png', 'Im_JustinTimberlake.png', 'Im_BradPitt.png', 'Im_DanielRadcliffe.png', 'Im_RobertPattinson.png'],diff,1,0.4249642999993739,9,85.71428571428571,
PIPE1804,train,neg,fs,negfs_id10_im17.bmp_negfs_id10_im1.bmp,['Im_DanielCraig.png', 'Im_RyanReynolds.png', 'Im_PatrickDempsey.png', 'Im_OrlandoBloom.png', 'Im_LeonardoDiCaprio.png', 'Im_GeorgeClooney.png', 'Im_JustinTimberlake.png', 'Im_BradPitt.png', 'Im_DanielRadcliffe.png', 'Im_RobertPattinson.png'],same,1,0.4084241000000475,10,85.71428571428571,
PIPE1804,train,neg,150,neg150_id17_im14.bmp_neg150_id3_im8.bmp,['Im_DanielCraig.png', 'Im_RyanReynolds.png', 'Im_PatrickDempsey.png', 'Im_OrlandoBloom.png', 'Im_LeonardoDiCaprio.png', 'Im_GeorgeClooney.png', 'Im_JustinTimberlake.png', 'Im_BradPitt.png', 'Im_DanielRadcliffe.png', 'Im_RobertPattinson.png'],diff,1,0.41695960000015475,11,85.71428571428571,
PIPE1804,train,neg,30,neg30_id21_im16.bmp_neg30_id21_im22.bmp,['Im_DanielCraig.png', 'Im_RyanReynolds.png', 'Im_PatrickDempsey.png', 'Im_OrlandoBloom.png', 'Im_LeonardoDiCaprio.png', 'Im_GeorgeClooney.png', 'Im_JustinTimberlake.png', 'Im_BradPitt.png', 'Im_DanielRadcliffe.png', 'Im_RobertPattinson.png'],diff,0,0.4167885999995633,11,85.71428571428571,
PIPE1804,train,neg,90,neg90_id10_im17.bmp_neg90_id10_im1.bmp,['Im_DanielCraig.png', 'Im_RyanReynolds.png', 'Im_PatrickDempsey.png', 'Im_OrlandoBloom.png', 'Im_LeonardoDiCaprio.png', 'Im_GeorgeClooney.png', 'Im_JustinTimberlake.png', 'Im_BradPitt.png', 'Im_DanielRadcliffe.png', 'Im_RobertPattinson.png'],same,1,0.4167061999996804,12,85.71428571428571,
PIPE1804,train,neg,60,neg60_id4_im20.bmp_neg60_id4_im7.bmp,['Im_DanielCraig.png', 'Im_RyanReynolds.png', 'Im_PatrickDempsey.png', 'Im_OrlandoBloom.png', 'Im_LeonardoDiCaprio.png', 'Im_GeorgeClooney.png', 'Im_JustinTimberlake.png', 'Im_BradPitt.png', 'Im_DanielRadcliffe.png', 'Im_RobertPattinson.png'],same,1,0.41668919999938225,13,85.71428571428571,
PIPE1804,train,neg,60,neg60_id17_im8.bmp_neg60_id17_im9.bmp,['Im_DanielCraig.png', 'Im_RyanReynolds.png', 'Im_PatrickDempsey.png', 'Im_OrlandoBloom.png', 'Im_LeonardoDiCaprio.png', 'Im_GeorgeClooney.png', 'Im_JustinTimberlake.png', 'Im_BradPitt.png', 'Im_DanielRadcliffe.png', 'Im_RobertPattinson.png'],same,1,0.4167804000007891,14,85.71428571428571,
PIPE1804,train,neg,30,neg30_id3_im17.bmp_neg30_id3_im6.bmp,['Im_DanielCraig.png', 'Im_RyanReynolds.png', 'Im_PatrickDempsey.png', 'Im_OrlandoBloom.png', 'Im_LeonardoDiCaprio.png', 'Im_GeorgeClooney.png', 'Im_JustinTimberlake.png', 'Im_BradPitt.png', 'Im_DanielRadcliffe.png', 'Im_RobertPattinson.png'],same,1,0.41670019999946817,15,85.71428571428571,
PIPE1804,train,neg,90,neg90_id21_im17.bmp_neg90_id21_im16.bmp,['Im_DanielCraig.png', 'Im_RyanReynolds.png', 'Im_PatrickDempsey.png', 'Im_OrlandoBloom.png', 'Im_LeonardoDiCaprio.png', 'Im_GeorgeClooney.png', 'Im_JustinTimberlake.png', 'Im_BradPitt.png', 'Im_DanielRadcliffe.png', 'Im_RobertPattinson.png'],same,1,0.4168648000004396,16,85.71428571428571,
PIPE1804,train,neg,fs,negfs_id13_im10.bmp_negfs_id13_im15.bmp,['Im_DanielCraig.png', 'Im_RyanReynolds.png', 'Im_PatrickDempsey.png', 'Im_OrlandoBloom.png', 'Im_LeonardoDiCaprio.png', 'Im_GeorgeClooney.png', 'Im_JustinTimberlake.png', 'Im_BradPitt.png', 'Im_DanielRadcliffe.png', 'Im_RobertPattinson.png'],same,1,0.4082843000005596,17,85.71428571428571,
PIPE1804,train,neg,120,neg120_id10_im18.bmp_neg120_id21_im22.bmp,['Im_DanielCraig.png', 'Im_RyanReynolds.png', 'Im_PatrickDempsey.png', 'Im_OrlandoBloom.png', 'Im_LeonardoDiCaprio.png', 'Im_GeorgeClooney.png', 'Im_JustinTimberlake.png', 'Im_BradPitt.png', 'Im_DanielRadcliffe.png', 'Im_RobertPattinson.png'],same,0,0.4084365999997317,17,85.71428571428571,
PIPE1804,train,neg,0,neg0_id5_im1.bmp_neg0_id10_im1.bmp,['Im_DanielCraig.png', 'Im_RyanReynolds.png', 'Im_PatrickDempsey.png', 'Im_OrlandoBloom.png', 'Im_LeonardoDiCaprio.png', 'Im_GeorgeClooney.png', 'Im_JustinTimberlake.png', 'Im_BradPitt.png', 'Im_DanielRadcliffe.png', 'Im_RobertPattinson.png'],same,0,0.4165829000003214,17,85.71428571428571,
PIPE1804,train,inv,150,pos150_id17_im8.bmp_pos150_id17_im9.bmp,['Im_DanielCraig.png', 'Im_RyanReynolds.png', 'Im_PatrickDempsey.png', 'Im_OrlandoBloom.png', 'Im_LeonardoDiCaprio.png', 'Im_GeorgeClooney.png', 'Im_JustinTimberlake.png', 'Im_BradPitt.png', 'Im_DanielRadcliffe.png', 'Im_RobertPattinson.png'],diff,0,0.41665980000016134,17,85.71428571428571,
PIPE1804,train,inv,30,pos30_id19_im4.bmp_pos30_id7_im26.bmp,['Im_DanielCraig.png', 'Im_RyanReynolds.png', 'Im_PatrickDempsey.png', 'Im_OrlandoBloom.png', 'Im_LeonardoDiCaprio.png', 'Im_GeorgeClooney.png', 'Im_JustinTimberlake.png', 'Im_BradPitt.png', 'Im_DanielRadcliffe.png', 'Im_RobertPattinson.png'],diff,1,0.5251544000002468,18,85.71428571428571,
PIPE1804,train,inv,120,pos120_id17_im8.bmp_pos120_id4_im7.bmp,['Im_DanielCraig.png', 'Im_RyanReynolds.png', 'Im_PatrickDempsey.png', 'Im_OrlandoBloom.png', 'Im_LeonardoDiCaprio.png', 'Im_GeorgeClooney.png', 'Im_JustinTimberlake.png', 'Im_BradPitt.png', 'Im_DanielRadcliffe.png', 'Im_RobertPattinson.png'],diff,1,0.4334583999998358,19,85.71428571428571,
PIPE1804,train,inv,60,pos60_id4_im7.bmp_pos60_id17_im9.bmp,['Im_DanielCraig.png', 'Im_RyanReynolds.png', 'Im_PatrickDempsey.png', 'Im_OrlandoBloom.png', 'Im_LeonardoDiCaprio.png', 'Im_GeorgeClooney.png', 'Im_JustinTimberlake.png', 'Im_BradPitt.png', 'Im_DanielRadcliffe.png', 'Im_RobertPattinson.png'],diff,1,0.43342719999964174,20,85.71428571428571,
PIPE1804,train,inv,90,pos90_id3_im17.bmp_pos90_id3_im8.bmp,['Im_DanielCraig.png', 'Im_RyanReynolds.png', 'Im_PatrickDempsey.png', 'Im_OrlandoBloom.png', 'Im_LeonardoDiCaprio.png', 'Im_GeorgeClooney.png', 'Im_JustinTimberlake.png', 'Im_BradPitt.png', 'Im_DanielRadcliffe.png', 'Im_RobertPattinson.png'],diff,0,1.7667379000004075,20,85.71428571428571,
PIPE1804,train,inv,90,pos90_id19_im27.bmp_pos90_id19_im4.bmp,['Im_DanielCraig.png', 'Im_RyanReynolds.png', 'Im_PatrickDempsey.png', 'Im_OrlandoBloom.png', 'Im_LeonardoDiCaprio.png', 'Im_GeorgeClooney.png', 'Im_JustinTimberlake.png', 'Im_BradPitt.png', 'Im_DanielRadcliffe.png', 'Im_RobertPattinson.png'],same,1,0.40838569999959873,21,85.71428571428571,
PIPE1804,train,inv,120,pos120_id16_im19.bmp_pos120_id16_im2.bmp,['Im_DanielCraig.png', 'Im_RyanReynolds.png', 'Im_PatrickDempsey.png', 'Im_OrlandoBloom.png', 'Im_LeonardoDiCaprio.png', 'Im_GeorgeClooney.png', 'Im_JustinTimberlake.png', 'Im_BradPitt.png', 'Im_DanielRadcliffe.png', 'Im_RobertPattinson.png'],same,1,0.5836781999996674,22,85.71428571428571,
PIPE1804,train,inv,0,pos0_id3_im8.bmp_pos0_id17_im14.bmp,['Im_DanielCraig.png', 'Im_RyanReynolds.png', 'Im_PatrickDempsey.png', 'Im_OrlandoBloom.png', 'Im_LeonardoDiCaprio.png', 'Im_GeorgeClooney.png', 'Im_JustinTimberlake.png', 'Im_BradPitt.png', 'Im_DanielRadcliffe.png', 'Im_RobertPattinson.png'],diff,1,0.4168271000007735,23,85.71428571428571,
PIPE1804,train,inv,30,pos30_id21_im17.bmp_pos30_id5_im10.bmp,['Im_DanielCraig.png', 'Im_RyanReynolds.png', 'Im_PatrickDempsey.png', 'Im_OrlandoBloom.png', 'Im_LeonardoDiCaprio.png', 'Im_GeorgeClooney.png', 'Im_JustinTimberlake.png', 'Im_BradPitt.png', 'Im_DanielRadcliffe.png', 'Im_RobertPattinson.png'],diff,1,0.44158820000029664,24,85.71428571428571,
PIPE1804,train,inv,60,pos60_id16_im19.bmp_pos60_id16_im2.bmp,['Im_DanielCraig.png', 'Im_RyanReynolds.png', 'Im_PatrickDempsey.png', 'Im_OrlandoBloom.png', 'Im_LeonardoDiCaprio.png', 'Im_GeorgeClooney.png', 'Im_JustinTimberlake.png', 'Im_BradPitt.png', 'Im_DanielRadcliffe.png', 'Im_RobertPattinson.png'],same,1,0.4164167999997517,25,85.71428571428571,
PIPE1804,train,inv,150,pos150_id5_im1.bmp_pos150_id4_im15.bmp,['Im_DanielCraig.png', 'Im_RyanReynolds.png', 'Im_PatrickDempsey.png', 'Im_OrlandoBloom.png', 'Im_LeonardoDiCaprio.png', 'Im_GeorgeClooney.png', 'Im_JustinTimberlake.png', 'Im_BradPitt.png', 'Im_DanielRadcliffe.png', 'Im_RobertPattinson.png'],diff,1,0.40812999999980093,26,85.71428571428571,
PIPE1804,train,inv,fs,posfs_id16_im3.bmp_posfs_id7_im14.bmp,['Im_DanielCraig.png', 'Im_RyanReynolds.png', 'Im_PatrickDempsey.png', 'Im_OrlandoBloom.png', 'Im_LeonardoDiCaprio.png', 'Im_GeorgeClooney.png', 'Im_JustinTimberlake.png', 'Im_BradPitt.png', 'Im_DanielRadcliffe.png', 'Im_RobertPattinson.png'],diff,1,0.42502710000007937,27,85.71428571428571,
PIPE1804,train,inv,fs,posfs_id19_im4.bmp_posfs_id19_im27.bmp,['Im_DanielCraig.png', 'Im_RyanReynolds.png', 'Im_PatrickDempsey.png', 'Im_OrlandoBloom.png', 'Im_LeonardoDiCaprio.png', 'Im_GeorgeClooney.png', 'Im_JustinTimberlake.png', 'Im_BradPitt.png', 'Im_DanielRadcliffe.png', 'Im_RobertPattinson.png'],diff,0,0.7916132000000289,27,85.71428571428571,
PIPE1804,train,inv,0,pos0_id4_im20.bmp_pos0_id21_im22.bmp,['Im_DanielCraig.png', 'Im_RyanReynolds.png', 'Im_PatrickDempsey.png', 'Im_OrlandoBloom.png', 'Im_LeonardoDiCaprio.png', 'Im_GeorgeClooney.png', 'Im_JustinTimberlake.png', 'Im_BradPitt.png', 'Im_DanielRadcliffe.png', 'Im_RobertPattinson.png'],diff,1,0.4246683999999732,28,85.71428571428571,
PIPE1804,train,pos,60,pos60_id17_im8.bmp_pos60_id17_im9.bmp,['Im_DanielCraig.png', 'Im_RyanReynolds.png', 'Im_PatrickDempsey.png', 'Im_OrlandoBloom.png', 'Im_LeonardoDiCaprio.png', 'Im_GeorgeClooney.png', 'Im_JustinTimberlake.png', 'Im_BradPitt.png', 'Im_DanielRadcliffe.png', 'Im_RobertPattinson.png'],same,1,0.4164282000001549,1,66.66666666666667,
PIPE1804,train,pos,60,pos60_id7_im26.bmp_pos60_id3_im8.bmp,['Im_DanielCraig.png', 'Im_RyanReynolds.png', 'Im_PatrickDempsey.png', 'Im_OrlandoBloom.png', 'Im_LeonardoDiCaprio.png', 'Im_GeorgeClooney.png', 'Im_JustinTimberlake.png', 'Im_BradPitt.png', 'Im_DanielRadcliffe.png', 'Im_RobertPattinson.png'],diff,1,0.40805579999960173,2,66.66666666666667,
PIPE1804,train,pos,90,pos90_id19_im8.bmp_pos90_id19_im4.bmp,['Im_DanielCraig.png', 'Im_RyanReynolds.png', 'Im_PatrickDempsey.png', 'Im_OrlandoBloom.png', 'Im_LeonardoDiCaprio.png', 'Im_GeorgeClooney.png', 'Im_JustinTimberlake.png', 'Im_BradPitt.png', 'Im_DanielRadcliffe.png', 'Im_RobertPattinson.png'],same,1,0.4168327000006684,3,66.66666666666667,
PIPE1804,train,pos,30,pos30_id4_im20.bmp_pos30_id4_im15.bmp,['Im_DanielCraig.png', 'Im_RyanReynolds.png', 'Im_PatrickDempsey.png', 'Im_OrlandoBloom.png', 'Im_LeonardoDiCaprio.png', 'Im_GeorgeClooney.png', 'Im_JustinTimberlake.png', 'Im_BradPitt.png', 'Im_DanielRadcliffe.png', 'Im_RobertPattinson.png'],same,1,0.41672250000010536,4,66.66666666666667,
PIPE1804,train,pos,0,pos0_id21_im16.bmp_pos0_id21_im17.bmp,['Im_DanielCraig.png', 'Im_RyanReynolds.png', 'Im_PatrickDempsey.png', 'Im_OrlandoBloom.png', 'Im_LeonardoDiCaprio.png', 'Im_GeorgeClooney.png', 'Im_JustinTimberlake.png', 'Im_BradPitt.png', 'Im_DanielRadcliffe.png', 'Im_RobertPattinson.png'],same,1,0.42474940000010974,5,66.66666666666667,
PIPE1804,train,pos,0,pos0_id10_im1.bmp_pos0_id10_im18.bmp,['Im_DanielCraig.png', 'Im_RyanReynolds.png', 'Im_PatrickDempsey.png', 'Im_OrlandoBloom.png', 'Im_LeonardoDiCaprio.png', 'Im_GeorgeClooney.png', 'Im_JustinTimberlake.png', 'Im_BradPitt.png', 'Im_DanielRadcliffe.png', 'Im_RobertPattinson.png'],same,1,0.4333641000002899,6,66.66666666666667,
PIPE1804,train,pos,150,pos150_id16_im2.bmp_pos150_id16_im3.bmp,['Im_DanielCraig.png', 'Im_RyanReynolds.png', 'Im_PatrickDempsey.png', 'Im_OrlandoBloom.png', 'Im_LeonardoDiCaprio.png', 'Im_GeorgeClooney.png', 'Im_JustinTimberlake.png', 'Im_BradPitt.png', 'Im_DanielRadcliffe.png', 'Im_RobertPattinson.png'],same,1,0.416733000000022,7,66.66666666666667,
PIPE1804,train,pos,30,pos30_id13_im15.bmp_pos30_id13_im10.bmp,['Im_DanielCraig.png', 'Im_RyanReynolds.png', 'Im_PatrickDempsey.png', 'Im_OrlandoBloom.png', 'Im_LeonardoDiCaprio.png', 'Im_GeorgeClooney.png', 'Im_JustinTimberlake.png', 'Im_BradPitt.png', 'Im_DanielRadcliffe.png', 'Im_RobertPattinson.png'],same,1,0.42503970000052504,8,66.66666666666667,
PIPE1804,train,pos,120,pos120_id10_im18.bmp_pos120_id13_im29.bmp,['Im_DanielCraig.png', 'Im_RyanReynolds.png', 'Im_PatrickDempsey.png', 'Im_OrlandoBloom.png', 'Im_LeonardoDiCaprio.png', 'Im_GeorgeClooney.png', 'Im_JustinTimberlake.png', 'Im_BradPitt.png', 'Im_DanielRadcliffe.png', 'Im_RobertPattinson.png'],diff,1,0.40830889999961073,9,66.66666666666667,
PIPE1804,train,pos,120,pos120_id4_im7.bmp_pos120_id17_im9.bmp,['Im_DanielCraig.png', 'Im_RyanReynolds.png', 'Im_PatrickDempsey.png', 'Im_OrlandoBloom.png', 'Im_LeonardoDiCaprio.png', 'Im_GeorgeClooney.png', 'Im_JustinTimberlake.png', 'Im_BradPitt.png', 'Im_DanielRadcliffe.png', 'Im_RobertPattinson.png'],diff,1,0.4168453000002046,10,66.66666666666667,
PIPE1804,train,pos,90,pos90_id17_im9.bmp_pos90_id17_im14.bmp,['Im_DanielCraig.png', 'Im_RyanReynolds.png', 'Im_PatrickDempsey.png', 'Im_OrlandoBloom.png', 'Im_LeonardoDiCaprio.png', 'Im_GeorgeClooney.png', 'Im_JustinTimberlake.png', 'Im_BradPitt.png', 'Im_DanielRadcliffe.png', 'Im_RobertPattinson.png'],same,1,0.4250014999997802,11,66.66666666666667,
PIPE1804,train,pos,fs,posfs_id19_im4.bmp_posfs_id19_im8.bmp,['Im_DanielCraig.png', 'Im_RyanReynolds.png', 'Im_PatrickDempsey.png', 'Im_OrlandoBloom.png', 'Im_LeonardoDiCaprio.png', 'Im_GeorgeClooney.png', 'Im_JustinTimberlake.png', 'Im_BradPitt.png', 'Im_DanielRadcliffe.png', 'Im_RobertPattinson.png'],same,1,0.42511190000004717,12,66.66666666666667,
PIPE1804,train,pos,150,pos150_id13_im10.bmp_pos150_id19_im8.bmp,['Im_DanielCraig.png', 'Im_RyanReynolds.png', 'Im_PatrickDempsey.png', 'Im_OrlandoBloom.png', 'Im_LeonardoDiCaprio.png', 'Im_GeorgeClooney.png', 'Im_JustinTimberlake.png', 'Im_BradPitt.png', 'Im_DanielRadcliffe.png', 'Im_RobertPattinson.png'],diff,1,0.4166733000001841,13,66.66666666666667,
PIPE1804,train,pos,fs,posfs_id5_im1.bmp_posfs_id10_im1.bmp,['Im_DanielCraig.png', 'Im_RyanReynolds.png', 'Im_PatrickDempsey.png', 'Im_OrlandoBloom.png', 'Im_LeonardoDiCaprio.png', 'Im_GeorgeClooney.png', 'Im_JustinTimberlake.png', 'Im_BradPitt.png', 'Im_DanielRadcliffe.png', 'Im_RobertPattinson.png'],diff,1,0.4166263999995863,14,66.66666666666667,
PIPE1804,train,pos,90,pos90_id5_im10.bmp_pos90_id5_im1.bmp,['Im_DanielCraig.png', 'Im_RyanReynolds.png', 'Im_PatrickDempsey.png', 'Im_OrlandoBloom.png', 'Im_LeonardoDiCaprio.png', 'Im_GeorgeClooney.png', 'Im_JustinTimberlake.png', 'Im_BradPitt.png', 'Im_DanielRadcliffe.png', 'Im_RobertPattinson.png'],same,1,0.41683019999982207,15,66.66666666666667,
PIPE1804,train,pos,30,pos30_id7_im15.bmp_pos30_id19_im4.bmp,['Im_DanielCraig.png', 'Im_RyanReynolds.png', 'Im_PatrickDempsey.png', 'Im_OrlandoBloom.png', 'Im_LeonardoDiCaprio.png', 'Im_GeorgeClooney.png', 'Im_JustinTimberlake.png', 'Im_BradPitt.png', 'Im_DanielRadcliffe.png', 'Im_RobertPattinson.png'],diff,1,0.42491620000055264,16,66.66666666666667,
PIPE1804,train,pos,0,pos0_id19_im4.bmp_pos0_id7_im26.bmp,['Im_DanielCraig.png', 'Im_RyanReynolds.png', 'Im_PatrickDempsey.png', 'Im_OrlandoBloom.png', 'Im_LeonardoDiCaprio.png', 'Im_GeorgeClooney.png', 'Im_JustinTimberlake.png', 'Im_BradPitt.png', 'Im_DanielRadcliffe.png', 'Im_RobertPattinson.png'],diff,1,0.41674220000004425,17,66.66666666666667,
PIPE1804,train,pos,120,pos120_id13_im10.bmp_pos120_id19_im8.bmp,['Im_DanielCraig.png', 'Im_RyanReynolds.png', 'Im_PatrickDempsey.png', 'Im_OrlandoBloom.png', 'Im_LeonardoDiCaprio.png', 'Im_GeorgeClooney.png', 'Im_JustinTimberlake.png', 'Im_BradPitt.png', 'Im_DanielRadcliffe.png', 'Im_RobertPattinson.png'],diff,1,0.4249595000001136,18,66.66666666666667,
PIPE1804,train,pos,0,pos0_id10_im18.bmp_pos0_id21_im22.bmp,['Im_DanielCraig.png', 'Im_RyanReynolds.png', 'Im_PatrickDempsey.png', 'Im_OrlandoBloom.png', 'Im_LeonardoDiCaprio.png', 'Im_GeorgeClooney.png', 'Im_JustinTimberlake.png', 'Im_BradPitt.png', 'Im_DanielRadcliffe.png', 'Im_RobertPattinson.png'],diff,1,0.41680259999975533,19,66.66666666666667,
PIPE1804,train,pos,30,pos30_id4_im20.bmp_pos30_id21_im22.bmp,['Im_DanielCraig.png', 'Im_RyanReynolds.png', 'Im_PatrickDempsey.png', 'Im_OrlandoBloom.png', 'Im_LeonardoDiCaprio.png', 'Im_GeorgeClooney.png', 'Im_JustinTimberlake.png', 'Im_BradPitt.png', 'Im_DanielRadcliffe.png', 'Im_RobertPattinson.png'],diff,1,0.4164022999993904,20,66.66666666666667,
PIPE1804,train,pos,fs,posfs_id17_im14.bmp_posfs_id17_im9.bmp,['Im_DanielCraig.png', 'Im_RyanReynolds.png', 'Im_PatrickDempsey.png', 'Im_OrlandoBloom.png', 'Im_LeonardoDiCaprio.png', 'Im_GeorgeClooney.png', 'Im_JustinTimberlake.png', 'Im_BradPitt.png', 'Im_DanielRadcliffe.png', 'Im_RobertPattinson.png'],same,1,0.4167970999997124,21,66.66666666666667,
PIPE1804,train,pos,90,pos90_id10_im17.bmp_pos90_id10_im1.bmp,['Im_DanielCraig.png', 'Im_RyanReynolds.png', 'Im_PatrickDempsey.png', 'Im_OrlandoBloom.png', 'Im_LeonardoDiCaprio.png', 'Im_GeorgeClooney.png', 'Im_JustinTimberlake.png', 'Im_BradPitt.png', 'Im_DanielRadcliffe.png', 'Im_RobertPattinson.png'],same,1,0.40006930000072316,22,66.66666666666667,
PIPE1804,train,pos,120,pos120_id7_im15.bmp_pos120_id21_im16.bmp,['Im_DanielCraig.png', 'Im_RyanReynolds.png', 'Im_PatrickDempsey.png', 'Im_OrlandoBloom.png', 'Im_LeonardoDiCaprio.png', 'Im_GeorgeClooney.png', 'Im_JustinTimberlake.png', 'Im_BradPitt.png', 'Im_DanielRadcliffe.png', 'Im_RobertPattinson.png'],diff,1,0.41666630000054283,23,66.66666666666667,
PIPE1804,train,pos,fs,posfs_id16_im3.bmp_posfs_id19_im8.bmp,['Im_DanielCraig.png', 'Im_RyanReynolds.png', 'Im_PatrickDempsey.png', 'Im_OrlandoBloom.png', 'Im_LeonardoDiCaprio.png', 'Im_GeorgeClooney.png', 'Im_JustinTimberlake.png', 'Im_BradPitt.png', 'Im_DanielRadcliffe.png', 'Im_RobertPattinson.png'],diff,1,0.4165892000000895,24,66.66666666666667,
PIPE1804,train,pos,150,pos150_id21_im16.bmp_pos150_id21_im17.bmp,['Im_DanielCraig.png', 'Im_RyanReynolds.png', 'Im_PatrickDempsey.png', 'Im_OrlandoBloom.png', 'Im_LeonardoDiCaprio.png', 'Im_GeorgeClooney.png', 'Im_JustinTimberlake.png', 'Im_BradPitt.png', 'Im_DanielRadcliffe.png', 'Im_RobertPattinson.png'],same,1,0.41688109999995504,25,66.66666666666667,
PIPE1804,train,pos,60,pos60_id10_im1.bmp_pos60_id5_im1.bmp,['Im_DanielCraig.png', 'Im_RyanReynolds.png', 'Im_PatrickDempsey.png', 'Im_OrlandoBloom.png', 'Im_LeonardoDiCaprio.png', 'Im_GeorgeClooney.png', 'Im_JustinTimberlake.png', 'Im_BradPitt.png', 'Im_DanielRadcliffe.png', 'Im_RobertPattinson.png'],diff,1,0.41672539999945,26,66.66666666666667,
PIPE1804,train,pos,150,pos150_id16_im2.bmp_pos150_id13_im10.bmp,['Im_DanielCraig.png', 'Im_RyanReynolds.png', 'Im_PatrickDempsey.png', 'Im_OrlandoBloom.png', 'Im_LeonardoDiCaprio.png', 'Im_GeorgeClooney.png', 'Im_JustinTimberlake.png', 'Im_BradPitt.png', 'Im_DanielRadcliffe.png', 'Im_RobertPattinson.png'],diff,1,0.41639779999968596,27,66.66666666666667,
PIPE1804,train,pos,60,pos60_id4_im7.bmp_pos60_id4_im20.bmp,['Im_DanielCraig.png', 'Im_RyanReynolds.png', 'Im_PatrickDempsey.png', 'Im_OrlandoBloom.png', 'Im_LeonardoDiCaprio.png', 'Im_GeorgeClooney.png', 'Im_JustinTimberlake.png', 'Im_BradPitt.png', 'Im_DanielRadcliffe.png', 'Im_RobertPattinson.png'],same,1,0.41658129999996163,28,66.66666666666667,
PIPE1804,train,inv,30,pos30_id21_im16.bmp_pos30_id21_im22.bmp,['Im_DanielCraig.png', 'Im_RyanReynolds.png', 'Im_PatrickDempsey.png', 'Im_OrlandoBloom.png', 'Im_LeonardoDiCaprio.png', 'Im_GeorgeClooney.png', 'Im_JustinTimberlake.png', 'Im_BradPitt.png', 'Im_DanielRadcliffe.png', 'Im_RobertPattinson.png'],same,1,0.40826729999935196,29,66.66666666666667,
PIPE1804,train,inv,60,pos60_id19_im27.bmp_pos60_id19_im8.bmp,['Im_DanielCraig.png', 'Im_RyanReynolds.png', 'Im_PatrickDempsey.png', 'Im_OrlandoBloom.png', 'Im_LeonardoDiCaprio.png', 'Im_GeorgeClooney.png', 'Im_JustinTimberlake.png', 'Im_BradPitt.png', 'Im_DanielRadcliffe.png', 'Im_RobertPattinson.png'],same,1,0.4000194999998712,30,66.66666666666667,
PIPE1804,train,inv,60,pos60_id16_im19.bmp_pos60_id5_im20.bmp,['Im_DanielCraig.png', 'Im_RyanReynolds.png', 'Im_PatrickDempsey.png', 'Im_OrlandoBloom.png', 'Im_LeonardoDiCaprio.png', 'Im_GeorgeClooney.png', 'Im_JustinTimberlake.png', 'Im_BradPitt.png', 'Im_DanielRadcliffe.png', 'Im_RobertPattinson.png'],diff,1,0.4251146000005974,31,66.66666666666667,
PIPE1804,train,inv,30,pos30_id17_im9.bmp_pos30_id4_im7.bmp,['Im_DanielCraig.png', 'Im_RyanReynolds.png', 'Im_PatrickDempsey.png', 'Im_OrlandoBloom.png', 'Im_LeonardoDiCaprio.png', 'Im_GeorgeClooney.png', 'Im_JustinTimberlake.png', 'Im_BradPitt.png', 'Im_DanielRadcliffe.png', 'Im_RobertPattinson.png'],diff,1,0.8499269000003551,32,66.66666666666667,
PIPE1804,train,inv,0,pos0_id4_im15.bmp_pos0_id4_im7.bmp,['Im_DanielCraig.png', 'Im_RyanReynolds.png', 'Im_PatrickDempsey.png', 'Im_OrlandoBloom.png', 'Im_LeonardoDiCaprio.png', 'Im_GeorgeClooney.png', 'Im_JustinTimberlake.png', 'Im_BradPitt.png', 'Im_DanielRadcliffe.png', 'Im_RobertPattinson.png'],same,1,0.5085816000000705,33,66.66666666666667,
PIPE1804,train,inv,150,pos150_id13_im15.bmp_pos150_id13_im29.bmp,['Im_DanielCraig.png', 'Im_RyanReynolds.png', 'Im_PatrickDempsey.png', 'Im_OrlandoBloom.png', 'Im_LeonardoDiCaprio.png', 'Im_GeorgeClooney.png', 'Im_JustinTimberlake.png', 'Im_BradPitt.png', 'Im_DanielRadcliffe.png', 'Im_RobertPattinson.png'],same,1,0.43354120000003604,34,66.66666666666667,
PIPE1804,train,inv,90,pos90_id5_im1.bmp_pos90_id5_im10.bmp,['Im_DanielCraig.png', 'Im_RyanReynolds.png', 'Im_PatrickDempsey.png', 'Im_OrlandoBloom.png', 'Im_LeonardoDiCaprio.png', 'Im_GeorgeClooney.png', 'Im_JustinTimberlake.png', 'Im_BradPitt.png', 'Im_DanielRadcliffe.png', 'Im_RobertPattinson.png'],same,1,0.41658359999928507,35,66.66666666666667,
PIPE1804,train,inv,fs,posfs_id4_im15.bmp_posfs_id4_im7.bmp,['Im_DanielCraig.png', 'Im_RyanReynolds.png', 'Im_PatrickDempsey.png', 'Im_OrlandoBloom.png', 'Im_LeonardoDiCaprio.png', 'Im_GeorgeClooney.png', 'Im_JustinTimberlake.png', 'Im_BradPitt.png', 'Im_DanielRadcliffe.png', 'Im_RobertPattinson.png'],same,1,0.416621600000326,36,66.66666666666667,
PIPE1804,train,inv,120,pos120_id17_im9.bmp_pos120_id17_im14.bmp,['Im_DanielCraig.png', 'Im_RyanReynolds.png', 'Im_PatrickDempsey.png', 'Im_OrlandoBloom.png', 'Im_LeonardoDiCaprio.png', 'Im_GeorgeClooney.png', 'Im_JustinTimberlake.png', 'Im_BradPitt.png', 'Im_DanielRadcliffe.png', 'Im_RobertPattinson.png'],diff,0,0.5833707000001596,36,66.66666666666667,
PIPE1804,train,inv,120,pos120_id3_im17.bmp_pos120_id3_im8.bmp,['Im_DanielCraig.png', 'Im_RyanReynolds.png', 'Im_PatrickDempsey.png', 'Im_OrlandoBloom.png', 'Im_LeonardoDiCaprio.png', 'Im_GeorgeClooney.png', 'Im_JustinTimberlake.png', 'Im_BradPitt.png', 'Im_DanielRadcliffe.png', 'Im_RobertPattinson.png'],diff,0,0.4004944999996951,36,66.66666666666667,
PIPE1804,train,inv,0,pos0_id21_im16.bmp_pos0_id21_im17.bmp,['Im_DanielCraig.png', 'Im_RyanReynolds.png', 'Im_PatrickDempsey.png', 'Im_OrlandoBloom.png', 'Im_LeonardoDiCaprio.png', 'Im_GeorgeClooney.png', 'Im_JustinTimberlake.png', 'Im_BradPitt.png', 'Im_DanielRadcliffe.png', 'Im_RobertPattinson.png'],same,1,0.43357860000014625,37,66.66666666666667,
PIPE1804,train,inv,150,pos150_id19_im27.bmp_pos150_id4_im15.bmp,['Im_DanielCraig.png', 'Im_RyanReynolds.png', 'Im_PatrickDempsey.png', 'Im_OrlandoBloom.png', 'Im_LeonardoDiCaprio.png', 'Im_GeorgeClooney.png', 'Im_JustinTimberlake.png', 'Im_BradPitt.png', 'Im_DanielRadcliffe.png', 'Im_RobertPattinson.png'],same,0,0.41667059999963385,37,66.66666666666667,
PIPE1804,train,inv,90,pos90_id10_im18.bmp_pos90_id10_im1.bmp,['Im_DanielCraig.png', 'Im_RyanReynolds.png', 'Im_PatrickDempsey.png', 'Im_OrlandoBloom.png', 'Im_LeonardoDiCaprio.png', 'Im_GeorgeClooney.png', 'Im_JustinTimberlake.png', 'Im_BradPitt.png', 'Im_DanielRadcliffe.png', 'Im_RobertPattinson.png'],same,1,0.41672269999980927,38,66.66666666666667,
PIPE1804,train,inv,fs,posfs_id5_im10.bmp_posfs_id16_im2.bmp,['Im_DanielCraig.png', 'Im_RyanReynolds.png', 'Im_PatrickDempsey.png', 'Im_OrlandoBloom.png', 'Im_LeonardoDiCaprio.png', 'Im_GeorgeClooney.png', 'Im_JustinTimberlake.png', 'Im_BradPitt.png', 'Im_DanielRadcliffe.png', 'Im_RobertPattinson.png'],diff,1,0.4251021000000037,39,66.66666666666667,
PIPE1804,train,neg,0,neg0_id17_im9.bmp_neg0_id17_im14.bmp,['Im_DanielCraig.png', 'Im_RyanReynolds.png', 'Im_PatrickDempsey.png', 'Im_OrlandoBloom.png', 'Im_LeonardoDiCaprio.png', 'Im_GeorgeClooney.png', 'Im_JustinTimberlake.png', 'Im_BradPitt.png', 'Im_DanielRadcliffe.png', 'Im_RobertPattinson.png'],same,1,0.42496790000041074,1,92.85714285714286,
PIPE1804,train,neg,30,neg30_id4_im15.bmp_neg30_id4_im20.bmp,['Im_DanielCraig.png', 'Im_RyanReynolds.png', 'Im_PatrickDempsey.png', 'Im_OrlandoBloom.png', 'Im_LeonardoDiCaprio.png', 'Im_GeorgeClooney.png', 'Im_JustinTimberlake.png', 'Im_BradPitt.png', 'Im_DanielRadcliffe.png', 'Im_RobertPattinson.png'],diff,0,0.41670019999946817,1,92.85714285714286,
PIPE1804,train,neg,60,neg60_id7_im26.bmp_neg60_id19_im4.bmp,['Im_DanielCraig.png', 'Im_RyanReynolds.png', 'Im_PatrickDempsey.png', 'Im_OrlandoBloom.png', 'Im_LeonardoDiCaprio.png', 'Im_GeorgeClooney.png', 'Im_JustinTimberlake.png', 'Im_BradPitt.png', 'Im_DanielRadcliffe.png', 'Im_RobertPattinson.png'],diff,1,0.4246901999995316,2,92.85714285714286,
PIPE1804,train,neg,150,neg150_id5_im20.bmp_neg150_id16_im19.bmp,['Im_DanielCraig.png', 'Im_RyanReynolds.png', 'Im_PatrickDempsey.png', 'Im_OrlandoBloom.png', 'Im_LeonardoDiCaprio.png', 'Im_GeorgeClooney.png', 'Im_JustinTimberlake.png', 'Im_BradPitt.png', 'Im_DanielRadcliffe.png', 'Im_RobertPattinson.png'],diff,1,0.40007800000057614,3,92.85714285714286,
PIPE1804,train,neg,fs,negfs_id7_im15.bmp_negfs_id21_im16.bmp,['Im_DanielCraig.png', 'Im_RyanReynolds.png', 'Im_PatrickDempsey.png', 'Im_OrlandoBloom.png', 'Im_LeonardoDiCaprio.png', 'Im_GeorgeClooney.png', 'Im_JustinTimberlake.png', 'Im_BradPitt.png', 'Im_DanielRadcliffe.png', 'Im_RobertPattinson.png'],diff,1,0.41664870000022347,4,92.85714285714286,
PIPE1804,train,neg,150,neg150_id7_im14.bmp_neg150_id7_im15.bmp,['Im_DanielCraig.png', 'Im_RyanReynolds.png', 'Im_PatrickDempsey.png', 'Im_OrlandoBloom.png', 'Im_LeonardoDiCaprio.png', 'Im_GeorgeClooney.png', 'Im_JustinTimberlake.png', 'Im_BradPitt.png', 'Im_DanielRadcliffe.png', 'Im_RobertPattinson.png'],same,1,0.6419959999993807,5,92.85714285714286,
PIPE1804,train,neg,90,neg90_id19_im27.bmp_neg90_id19_im8.bmp,['Im_DanielCraig.png', 'Im_RyanReynolds.png', 'Im_PatrickDempsey.png', 'Im_OrlandoBloom.png', 'Im_LeonardoDiCaprio.png', 'Im_GeorgeClooney.png', 'Im_JustinTimberlake.png', 'Im_BradPitt.png', 'Im_DanielRadcliffe.png', 'Im_RobertPattinson.png'],same,1,0.41680970000015805,6,92.85714285714286,
PIPE1804,train,neg,30,neg30_id10_im18.bmp_neg30_id10_im17.bmp,['Im_DanielCraig.png', 'Im_RyanReynolds.png', 'Im_PatrickDempsey.png', 'Im_OrlandoBloom.png', 'Im_LeonardoDiCaprio.png', 'Im_GeorgeClooney.png', 'Im_JustinTimberlake.png', 'Im_BradPitt.png', 'Im_DanielRadcliffe.png', 'Im_RobertPattinson.png'],diff,0,1.150078399999984,6,92.85714285714286,
PIPE1804,train,neg,0,neg0_id3_im17.bmp_neg0_id3_im8.bmp,['Im_DanielCraig.png', 'Im_RyanReynolds.png', 'Im_PatrickDempsey.png', 'Im_OrlandoBloom.png', 'Im_LeonardoDiCaprio.png', 'Im_GeorgeClooney.png', 'Im_JustinTimberlake.png', 'Im_BradPitt.png', 'Im_DanielRadcliffe.png', 'Im_RobertPattinson.png'],same,1,0.42569469999943976,7,92.85714285714286,
PIPE1804,train,neg,60,neg60_id19_im8.bmp_neg60_id13_im10.bmp,['Im_DanielCraig.png', 'Im_RyanReynolds.png', 'Im_PatrickDempsey.png', 'Im_OrlandoBloom.png', 'Im_LeonardoDiCaprio.png', 'Im_GeorgeClooney.png', 'Im_JustinTimberlake.png', 'Im_BradPitt.png', 'Im_DanielRadcliffe.png', 'Im_RobertPattinson.png'],same,0,0.40852780000022904,7,92.85714285714286,
PIPE1804,train,neg,120,neg120_id7_im26.bmp_neg120_id7_im14.bmp,['Im_DanielCraig.png', 'Im_RyanReynolds.png', 'Im_PatrickDempsey.png', 'Im_OrlandoBloom.png', 'Im_LeonardoDiCaprio.png', 'Im_GeorgeClooney.png', 'Im_JustinTimberlake.png', 'Im_BradPitt.png', 'Im_DanielRadcliffe.png', 'Im_RobertPattinson.png'],same,1,0.4167280000001483,8,92.85714285714286,
PIPE1804,train,neg,120,neg120_id21_im22.bmp_neg120_id4_im20.bmp,['Im_DanielCraig.png', 'Im_RyanReynolds.png', 'Im_PatrickDempsey.png', 'Im_OrlandoBloom.png', 'Im_LeonardoDiCaprio.png', 'Im_GeorgeClooney.png', 'Im_JustinTimberlake.png', 'Im_BradPitt.png', 'Im_DanielRadcliffe.png', 'Im_RobertPattinson.png'],diff,1,0.4420287000002645,9,92.85714285714286,
PIPE1804,train,neg,fs,negfs_id19_im8.bmp_negfs_id19_im4.bmp,['Im_DanielCraig.png', 'Im_RyanReynolds.png', 'Im_PatrickDempsey.png', 'Im_OrlandoBloom.png', 'Im_LeonardoDiCaprio.png', 'Im_GeorgeClooney.png', 'Im_JustinTimberlake.png', 'Im_BradPitt.png', 'Im_DanielRadcliffe.png', 'Im_RobertPattinson.png'],same,1,0.41671020000012504,10,92.85714285714286,
PIPE1804,train,neg,90,neg90_id5_im1.bmp_neg90_id10_im1.bmp,['Im_DanielCraig.png', 'Im_RyanReynolds.png', 'Im_PatrickDempsey.png', 'Im_OrlandoBloom.png', 'Im_LeonardoDiCaprio.png', 'Im_GeorgeClooney.png', 'Im_JustinTimberlake.png', 'Im_BradPitt.png', 'Im_DanielRadcliffe.png', 'Im_RobertPattinson.png'],same,0,0.43327619999945455,10,92.85714285714286,
PIPE1804,train,pos,30,pos30_id19_im8.bmp_pos30_id19_im27.bmp,['Im_DanielCraig.png', 'Im_RyanReynolds.png', 'Im_PatrickDempsey.png', 'Im_OrlandoBloom.png', 'Im_LeonardoDiCaprio.png', 'Im_GeorgeClooney.png', 'Im_JustinTimberlake.png', 'Im_BradPitt.png', 'Im_DanielRadcliffe.png', 'Im_RobertPattinson.png'],same,1,0.44175520000044344,11,92.85714285714286,
PIPE1804,train,pos,30,pos30_id3_im8.bmp_pos30_id3_im17.bmp,['Im_DanielCraig.png', 'Im_RyanReynolds.png', 'Im_PatrickDempsey.png', 'Im_OrlandoBloom.png', 'Im_LeonardoDiCaprio.png', 'Im_GeorgeClooney.png', 'Im_JustinTimberlake.png', 'Im_BradPitt.png', 'Im_DanielRadcliffe.png', 'Im_RobertPattinson.png'],same,1,0.41659249999975145,12,92.85714285714286,
PIPE1804,train,pos,90,pos90_id19_im8.bmp_pos90_id19_im27.bmp,['Im_DanielCraig.png', 'Im_RyanReynolds.png', 'Im_PatrickDempsey.png', 'Im_OrlandoBloom.png', 'Im_LeonardoDiCaprio.png', 'Im_GeorgeClooney.png', 'Im_JustinTimberlake.png', 'Im_BradPitt.png', 'Im_DanielRadcliffe.png', 'Im_RobertPattinson.png'],same,1,0.433396299999913,13,92.85714285714286,
PIPE1804,train,pos,60,pos60_id21_im17.bmp_pos60_id5_im20.bmp,['Im_DanielCraig.png', 'Im_RyanReynolds.png', 'Im_PatrickDempsey.png', 'Im_OrlandoBloom.png', 'Im_LeonardoDiCaprio.png', 'Im_GeorgeClooney.png', 'Im_JustinTimberlake.png', 'Im_BradPitt.png', 'Im_DanielRadcliffe.png', 'Im_RobertPattinson.png'],diff,1,0.42513980000057927,14,92.85714285714286,
PIPE1804,train,pos,150,pos150_id13_im10.bmp_pos150_id13_im29.bmp,['Im_DanielCraig.png', 'Im_RyanReynolds.png', 'Im_PatrickDempsey.png', 'Im_OrlandoBloom.png', 'Im_LeonardoDiCaprio.png', 'Im_GeorgeClooney.png', 'Im_JustinTimberlake.png', 'Im_BradPitt.png', 'Im_DanielRadcliffe.png', 'Im_RobertPattinson.png'],diff,0,0.42521039999974164,14,92.85714285714286,
PIPE1804,train,pos,60,pos60_id3_im17.bmp_pos60_id10_im1.bmp,['Im_DanielCraig.png', 'Im_RyanReynolds.png', 'Im_PatrickDempsey.png', 'Im_OrlandoBloom.png', 'Im_LeonardoDiCaprio.png', 'Im_GeorgeClooney.png', 'Im_JustinTimberlake.png', 'Im_BradPitt.png', 'Im_DanielRadcliffe.png', 'Im_RobertPattinson.png'],diff,1,0.4250853999992614,15,92.85714285714286,
PIPE1804,train,pos,fs,posfs_id16_im3.bmp_posfs_id7_im14.bmp,['Im_DanielCraig.png', 'Im_RyanReynolds.png', 'Im_PatrickDempsey.png', 'Im_OrlandoBloom.png', 'Im_LeonardoDiCaprio.png', 'Im_GeorgeClooney.png', 'Im_JustinTimberlake.png', 'Im_BradPitt.png', 'Im_DanielRadcliffe.png', 'Im_RobertPattinson.png'],diff,1,0.4249730000001364,16,92.85714285714286,
PIPE1804,train,pos,fs,posfs_id5_im10.bmp_posfs_id5_im1.bmp,['Im_DanielCraig.png', 'Im_RyanReynolds.png', 'Im_PatrickDempsey.png', 'Im_OrlandoBloom.png', 'Im_LeonardoDiCaprio.png', 'Im_GeorgeClooney.png', 'Im_JustinTimberlake.png', 'Im_BradPitt.png', 'Im_DanielRadcliffe.png', 'Im_RobertPattinson.png'],same,1,0.41671580000001995,17,92.85714285714286,
PIPE1804,train,pos,0,pos0_id10_im17.bmp_pos0_id17_im8.bmp,['Im_DanielCraig.png', 'Im_RyanReynolds.png', 'Im_PatrickDempsey.png', 'Im_OrlandoBloom.png', 'Im_LeonardoDiCaprio.png', 'Im_GeorgeClooney.png', 'Im_JustinTimberlake.png', 'Im_BradPitt.png', 'Im_DanielRadcliffe.png', 'Im_RobertPattinson.png'],diff,1,0.4168681999999535,18,92.85714285714286,
PIPE1804,train,pos,120,pos120_id19_im4.bmp_pos120_id7_im26.bmp,['Im_DanielCraig.png', 'Im_RyanReynolds.png', 'Im_PatrickDempsey.png', 'Im_OrlandoBloom.png', 'Im_LeonardoDiCaprio.png', 'Im_GeorgeClooney.png', 'Im_JustinTimberlake.png', 'Im_BradPitt.png', 'Im_DanielRadcliffe.png', 'Im_RobertPattinson.png'],diff,1,0.4335031999999046,19,92.85714285714286,
PIPE1804,train,pos,120,pos120_id19_im27.bmp_pos120_id19_im4.bmp,['Im_DanielCraig.png', 'Im_RyanReynolds.png', 'Im_PatrickDempsey.png', 'Im_OrlandoBloom.png', 'Im_LeonardoDiCaprio.png', 'Im_GeorgeClooney.png', 'Im_JustinTimberlake.png', 'Im_BradPitt.png', 'Im_DanielRadcliffe.png', 'Im_RobertPattinson.png'],same,1,0.42501440000069124,20,92.85714285714286,
PIPE1804,train,pos,0,pos0_id13_im29.bmp_pos0_id13_im15.bmp,['Im_DanielCraig.png', 'Im_RyanReynolds.png', 'Im_PatrickDempsey.png', 'Im_OrlandoBloom.png', 'Im_LeonardoDiCaprio.png', 'Im_GeorgeClooney.png', 'Im_JustinTimberlake.png', 'Im_BradPitt.png', 'Im_DanielRadcliffe.png', 'Im_RobertPattinson.png'],same,1,0.42478140000002895,21,92.85714285714286,
PIPE1804,train,pos,90,pos90_id3_im6.bmp_pos90_id17_im9.bmp,['Im_DanielCraig.png', 'Im_RyanReynolds.png', 'Im_PatrickDempsey.png', 'Im_OrlandoBloom.png', 'Im_LeonardoDiCaprio.png', 'Im_GeorgeClooney.png', 'Im_JustinTimberlake.png', 'Im_BradPitt.png', 'Im_DanielRadcliffe.png', 'Im_RobertPattinson.png'],same,0,0.4000562999999602,21,92.85714285714286,
PIPE1804,train,pos,150,pos150_id10_im18.bmp_pos150_id21_im22.bmp,['Im_DanielCraig.png', 'Im_RyanReynolds.png', 'Im_PatrickDempsey.png', 'Im_OrlandoBloom.png', 'Im_LeonardoDiCaprio.png', 'Im_GeorgeClooney.png', 'Im_JustinTimberlake.png', 'Im_BradPitt.png', 'Im_DanielRadcliffe.png', 'Im_RobertPattinson.png'],diff,1,0.4168872000000192,22,92.85714285714286,
PIPE1804,train,inv,30,pos30_id5_im1.bmp_pos30_id10_im1.bmp,['Im_DanielCraig.png', 'Im_RyanReynolds.png', 'Im_PatrickDempsey.png', 'Im_OrlandoBloom.png', 'Im_LeonardoDiCaprio.png', 'Im_GeorgeClooney.png', 'Im_JustinTimberlake.png', 'Im_BradPitt.png', 'Im_DanielRadcliffe.png', 'Im_RobertPattinson.png'],diff,1,0.40839320000031876,23,92.85714285714286,
PIPE1804,train,inv,90,pos90_id21_im22.bmp_pos90_id10_im18.bmp,['Im_DanielCraig.png', 'Im_RyanReynolds.png', 'Im_PatrickDempsey.png', 'Im_OrlandoBloom.png', 'Im_LeonardoDiCaprio.png', 'Im_GeorgeClooney.png', 'Im_JustinTimberlake.png', 'Im_BradPitt.png', 'Im_DanielRadcliffe.png', 'Im_RobertPattinson.png'],same,0,0.450159199999689,23,92.85714285714286,
PIPE1804,train,inv,60,pos60_id17_im14.bmp_pos60_id17_im8.bmp,['Im_DanielCraig.png', 'Im_RyanReynolds.png', 'Im_PatrickDempsey.png', 'Im_OrlandoBloom.png', 'Im_LeonardoDiCaprio.png', 'Im_GeorgeClooney.png', 'Im_JustinTimberlake.png', 'Im_BradPitt.png', 'Im_DanielRadcliffe.png', 'Im_RobertPattinson.png'],diff,0,0.8919443000004321,23,92.85714285714286,
PIPE1804,train,inv,60,pos60_id4_im15.bmp_pos60_id4_im7.bmp,['Im_DanielCraig.png', 'Im_RyanReynolds.png', 'Im_PatrickDempsey.png', 'Im_OrlandoBloom.png', 'Im_LeonardoDiCaprio.png', 'Im_GeorgeClooney.png', 'Im_JustinTimberlake.png', 'Im_BradPitt.png', 'Im_DanielRadcliffe.png', 'Im_RobertPattinson.png'],same,1,0.5917961000004652,24,92.85714285714286,
PIPE1804,train,inv,30,pos30_id13_im29.bmp_pos30_id13_im15.bmp,['Im_DanielCraig.png', 'Im_RyanReynolds.png', 'Im_PatrickDempsey.png', 'Im_OrlandoBloom.png', 'Im_LeonardoDiCaprio.png', 'Im_GeorgeClooney.png', 'Im_JustinTimberlake.png', 'Im_BradPitt.png', 'Im_DanielRadcliffe.png', 'Im_RobertPattinson.png'],same,1,0.7669081000003644,25,92.85714285714286,
PIPE1804,train,inv,0,pos0_id7_im14.bmp_pos0_id7_im15.bmp,['Im_DanielCraig.png', 'Im_RyanReynolds.png', 'Im_PatrickDempsey.png', 'Im_OrlandoBloom.png', 'Im_LeonardoDiCaprio.png', 'Im_GeorgeClooney.png', 'Im_JustinTimberlake.png', 'Im_BradPitt.png', 'Im_DanielRadcliffe.png', 'Im_RobertPattinson.png'],same,1,0.4251492000003054,26,92.85714285714286,
PIPE1804,train,inv,150,pos150_id10_im1.bmp_pos150_id10_im17.bmp,['Im_DanielCraig.png', 'Im_RyanReynolds.png', 'Im_PatrickDempsey.png', 'Im_OrlandoBloom.png', 'Im_LeonardoDiCaprio.png', 'Im_GeorgeClooney.png', 'Im_JustinTimberlake.png', 'Im_BradPitt.png', 'Im_DanielRadcliffe.png', 'Im_RobertPattinson.png'],same,1,0.4166158000007272,27,92.85714285714286,
PIPE1804,train,inv,150,pos150_id21_im22.bmp_pos150_id21_im17.bmp,['Im_DanielCraig.png', 'Im_RyanReynolds.png', 'Im_PatrickDempsey.png', 'Im_OrlandoBloom.png', 'Im_LeonardoDiCaprio.png', 'Im_GeorgeClooney.png', 'Im_JustinTimberlake.png', 'Im_BradPitt.png', 'Im_DanielRadcliffe.png', 'Im_RobertPattinson.png'],same,1,0.4164392000002408,28,92.85714285714286,
PIPE1804,train,inv,120,pos120_id19_im27.bmp_pos120_id19_im4.bmp,['Im_DanielCraig.png', 'Im_RyanReynolds.png', 'Im_PatrickDempsey.png', 'Im_OrlandoBloom.png', 'Im_LeonardoDiCaprio.png', 'Im_GeorgeClooney.png', 'Im_JustinTimberlake.png', 'Im_BradPitt.png', 'Im_DanielRadcliffe.png', 'Im_RobertPattinson.png'],same,1,0.4246407000000545,29,92.85714285714286,
PIPE1804,train,inv,90,pos90_id7_im26.bmp_pos90_id3_im8.bmp,['Im_DanielCraig.png', 'Im_RyanReynolds.png', 'Im_PatrickDempsey.png', 'Im_OrlandoBloom.png', 'Im_LeonardoDiCaprio.png', 'Im_GeorgeClooney.png', 'Im_JustinTimberlake.png', 'Im_BradPitt.png', 'Im_DanielRadcliffe.png', 'Im_RobertPattinson.png'],same,0,0.4250925999995161,29,92.85714285714286,
PIPE1804,train,inv,120,pos120_id5_im20.bmp_pos120_id5_im10.bmp,['Im_DanielCraig.png', 'Im_RyanReynolds.png', 'Im_PatrickDempsey.png', 'Im_OrlandoBloom.png', 'Im_LeonardoDiCaprio.png', 'Im_GeorgeClooney.png', 'Im_JustinTimberlake.png', 'Im_BradPitt.png', 'Im_DanielRadcliffe.png', 'Im_RobertPattinson.png'],same,1,0.8831224999994447,30,92.85714285714286,
PIPE1804,train,inv,fs,posfs_id19_im8.bmp_posfs_id19_im27.bmp,['Im_DanielCraig.png', 'Im_RyanReynolds.png', 'Im_PatrickDempsey.png', 'Im_OrlandoBloom.png', 'Im_LeonardoDiCaprio.png', 'Im_GeorgeClooney.png', 'Im_JustinTimberlake.png', 'Im_BradPitt.png', 'Im_DanielRadcliffe.png', 'Im_RobertPattinson.png'],same,1,0.4001466999998229,31,92.85714285714286,
PIPE1804,train,inv,fs,posfs_id17_im9.bmp_posfs_id17_im14.bmp,['Im_DanielCraig.png', 'Im_RyanReynolds.png', 'Im_PatrickDempsey.png', 'Im_OrlandoBloom.png', 'Im_LeonardoDiCaprio.png', 'Im_GeorgeClooney.png', 'Im_JustinTimberlake.png', 'Im_BradPitt.png', 'Im_DanielRadcliffe.png', 'Im_RobertPattinson.png'],same,1,0.7580054999998538,32,92.85714285714286,
PIPE1804,train,inv,0,pos0_id4_im20.bmp_pos0_id4_im7.bmp,['Im_DanielCraig.png', 'Im_RyanReynolds.png', 'Im_PatrickDempsey.png', 'Im_OrlandoBloom.png', 'Im_LeonardoDiCaprio.png', 'Im_GeorgeClooney.png', 'Im_JustinTimberlake.png', 'Im_BradPitt.png', 'Im_DanielRadcliffe.png', 'Im_RobertPattinson.png'],same,1,0.4083904999997685,33,92.85714285714286,
PIPE1804,0,neg,90,neg90_id3_im8.bmp_neg90_id3_im17.bmp,['Im_DanielCraig.png', 'Im_RyanReynolds.png', 'Im_PatrickDempsey.png', 'Im_OrlandoBloom.png', 'Im_LeonardoDiCaprio.png', 'Im_GeorgeClooney.png', 'Im_JustinTimberlake.png', 'Im_BradPitt.png', 'Im_DanielRadcliffe.png', 'Im_RobertPattinson.png'],same,1,0.41672769999968295,1,0,
PIPE1804,0,neg,60,neg60_id7_im14.bmp_neg60_id7_im26.bmp,['Im_DanielCraig.png', 'Im_RyanReynolds.png', 'Im_PatrickDempsey.png', 'Im_OrlandoBloom.png', 'Im_LeonardoDiCaprio.png', 'Im_GeorgeClooney.png', 'Im_JustinTimberlake.png', 'Im_BradPitt.png', 'Im_DanielRadcliffe.png', 'Im_RobertPattinson.png'],same,1,0.4250045999997383,2,0,
PIPE1804,0,neg,120,neg120_id17_im8.bmp_neg120_id4_im7.bmp,['Im_DanielCraig.png', 'Im_RyanReynolds.png', 'Im_PatrickDempsey.png', 'Im_OrlandoBloom.png', 'Im_LeonardoDiCaprio.png', 'Im_GeorgeClooney.png', 'Im_JustinTimberlake.png', 'Im_BradPitt.png', 'Im_DanielRadcliffe.png', 'Im_RobertPattinson.png'],diff,1,0.9586200000003373,3,0,
PIPE1804,0,neg,150,neg150_id4_im20.bmp_neg150_id7_im14.bmp,['Im_DanielCraig.png', 'Im_RyanReynolds.png', 'Im_PatrickDempsey.png', 'Im_OrlandoBloom.png', 'Im_LeonardoDiCaprio.png', 'Im_GeorgeClooney.png', 'Im_JustinTimberlake.png', 'Im_BradPitt.png', 'Im_DanielRadcliffe.png', 'Im_RobertPattinson.png'],diff,1,0.4251723999996102,4,0,
PIPE1804,0,neg,60,neg60_id16_im2.bmp_neg60_id5_im10.bmp,['Im_DanielCraig.png', 'Im_RyanReynolds.png', 'Im_PatrickDempsey.png', 'Im_OrlandoBloom.png', 'Im_LeonardoDiCaprio.png', 'Im_GeorgeClooney.png', 'Im_JustinTimberlake.png', 'Im_BradPitt.png', 'Im_DanielRadcliffe.png', 'Im_RobertPattinson.png'],diff,1,0.4084004000005734,5,0,
PIPE1804,0,neg,fs,negfs_id19_im27.bmp_negfs_id13_im15.bmp,['Im_DanielCraig.png', 'Im_RyanReynolds.png', 'Im_PatrickDempsey.png', 'Im_OrlandoBloom.png', 'Im_LeonardoDiCaprio.png', 'Im_GeorgeClooney.png', 'Im_JustinTimberlake.png', 'Im_BradPitt.png', 'Im_DanielRadcliffe.png', 'Im_RobertPattinson.png'],diff,1,0.42490620000080526,6,0,
PIPE1804,0,neg,0,neg0_id10_im18.bmp_neg0_id13_im29.bmp,['Im_DanielCraig.png', 'Im_RyanReynolds.png', 'Im_PatrickDempsey.png', 'Im_OrlandoBloom.png', 'Im_LeonardoDiCaprio.png', 'Im_GeorgeClooney.png', 'Im_JustinTimberlake.png', 'Im_BradPitt.png', 'Im_DanielRadcliffe.png', 'Im_RobertPattinson.png'],same,0,0.5750762999996368,6,0,
PIPE1804,0,neg,150,neg150_id16_im19.bmp_neg150_id16_im3.bmp,['Im_DanielCraig.png', 'Im_RyanReynolds.png', 'Im_PatrickDempsey.png', 'Im_OrlandoBloom.png', 'Im_LeonardoDiCaprio.png', 'Im_GeorgeClooney.png', 'Im_JustinTimberlake.png', 'Im_BradPitt.png', 'Im_DanielRadcliffe.png', 'Im_RobertPattinson.png'],same,1,0.4083132999994632,7,0,
PIPE1804,0,neg,0,neg0_id21_im17.bmp_neg0_id21_im22.bmp,['Im_DanielCraig.png', 'Im_RyanReynolds.png', 'Im_PatrickDempsey.png', 'Im_OrlandoBloom.png', 'Im_LeonardoDiCaprio.png', 'Im_GeorgeClooney.png', 'Im_JustinTimberlake.png', 'Im_BradPitt.png', 'Im_DanielRadcliffe.png', 'Im_RobertPattinson.png'],same,1,0.42500139999992825,8,0,
PIPE1804,0,neg,90,neg90_id3_im6.bmp_neg90_id17_im9.bmp,['Im_DanielCraig.png', 'Im_RyanReynolds.png', 'Im_PatrickDempsey.png', 'Im_OrlandoBloom.png', 'Im_LeonardoDiCaprio.png', 'Im_GeorgeClooney.png', 'Im_JustinTimberlake.png', 'Im_BradPitt.png', 'Im_DanielRadcliffe.png', 'Im_RobertPattinson.png'],same,0,0.40824659999998403,8,0,
PIPE1804,0,neg,120,neg120_id16_im3.bmp_neg120_id19_im8.bmp,['Im_DanielCraig.png', 'Im_RyanReynolds.png', 'Im_PatrickDempsey.png', 'Im_OrlandoBloom.png', 'Im_LeonardoDiCaprio.png', 'Im_GeorgeClooney.png', 'Im_JustinTimberlake.png', 'Im_BradPitt.png', 'Im_DanielRadcliffe.png', 'Im_RobertPattinson.png'],same,0,0.41671190000033675,8,0,
PIPE1804,0,neg,fs,negfs_id7_im26.bmp_negfs_id7_im14.bmp,['Im_DanielCraig.png', 'Im_RyanReynolds.png', 'Im_PatrickDempsey.png', 'Im_OrlandoBloom.png', 'Im_LeonardoDiCaprio.png', 'Im_GeorgeClooney.png', 'Im_JustinTimberlake.png', 'Im_BradPitt.png', 'Im_DanielRadcliffe.png', 'Im_RobertPattinson.png'],same,1,0.4167201999998724,9,0,
PIPE1804,0,neg,30,neg30_id17_im9.bmp_neg30_id17_im8.bmp,['Im_DanielCraig.png', 'Im_RyanReynolds.png', 'Im_PatrickDempsey.png', 'Im_OrlandoBloom.png', 'Im_LeonardoDiCaprio.png', 'Im_GeorgeClooney.png', 'Im_JustinTimberlake.png', 'Im_BradPitt.png', 'Im_DanielRadcliffe.png', 'Im_RobertPattinson.png'],same,1,0.4250142999999298,10,0,
PIPE1804,0,neg,30,neg30_id19_im8.bmp_neg30_id16_im3.bmp,['Im_DanielCraig.png', 'Im_RyanReynolds.png', 'Im_PatrickDempsey.png', 'Im_OrlandoBloom.png', 'Im_LeonardoDiCaprio.png', 'Im_GeorgeClooney.png', 'Im_JustinTimberlake.png', 'Im_BradPitt.png', 'Im_DanielRadcliffe.png', 'Im_RobertPattinson.png'],same,0,0.42498090000026423,10,0,
PIPE1804,1,inv,90,pos90_id10_im18.bmp_pos90_id13_im29.bmp,['Im_DanielCraig.png', 'Im_RyanReynolds.png', 'Im_PatrickDempsey.png', 'Im_OrlandoBloom.png', 'Im_LeonardoDiCaprio.png', 'Im_GeorgeClooney.png', 'Im_JustinTimberlake.png', 'Im_BradPitt.png', 'Im_DanielRadcliffe.png', 'Im_RobertPattinson.png'],diff,1,0.5833284000000276,11,0,
PIPE1804,1,inv,0,pos0_id4_im20.bmp_pos0_id7_im14.bmp,['Im_DanielCraig.png', 'Im_RyanReynolds.png', 'Im_PatrickDempsey.png', 'Im_OrlandoBloom.png', 'Im_LeonardoDiCaprio.png', 'Im_GeorgeClooney.png', 'Im_JustinTimberlake.png', 'Im_BradPitt.png', 'Im_DanielRadcliffe.png', 'Im_RobertPattinson.png'],diff,1,0.41659160000017437,12,0,
PIPE1804,1,inv,60,pos60_id4_im20.bmp_pos60_id4_im15.bmp,['Im_DanielCraig.png', 'Im_RyanReynolds.png', 'Im_PatrickDempsey.png', 'Im_OrlandoBloom.png', 'Im_LeonardoDiCaprio.png', 'Im_GeorgeClooney.png', 'Im_JustinTimberlake.png', 'Im_BradPitt.png', 'Im_DanielRadcliffe.png', 'Im_RobertPattinson.png'],diff,0,0.4166830000003756,12,0,
PIPE1804,1,inv,150,pos150_id16_im19.bmp_pos150_id21_im16.bmp,['Im_DanielCraig.png', 'Im_RyanReynolds.png', 'Im_PatrickDempsey.png', 'Im_OrlandoBloom.png', 'Im_LeonardoDiCaprio.png', 'Im_GeorgeClooney.png', 'Im_JustinTimberlake.png', 'Im_BradPitt.png', 'Im_DanielRadcliffe.png', 'Im_RobertPattinson.png'],diff,1,0.425066799999513,13,0,
PIPE1804,1,inv,fs,posfs_id10_im17.bmp_posfs_id10_im18.bmp,['Im_DanielCraig.png', 'Im_RyanReynolds.png', 'Im_PatrickDempsey.png', 'Im_OrlandoBloom.png', 'Im_LeonardoDiCaprio.png', 'Im_GeorgeClooney.png', 'Im_JustinTimberlake.png', 'Im_BradPitt.png', 'Im_DanielRadcliffe.png', 'Im_RobertPattinson.png'],same,1,0.8418865000003279,14,0,
PIPE1804,1,inv,120,pos120_id17_im8.bmp_pos120_id10_im17.bmp,['Im_DanielCraig.png', 'Im_RyanReynolds.png', 'Im_PatrickDempsey.png', 'Im_OrlandoBloom.png', 'Im_LeonardoDiCaprio.png', 'Im_GeorgeClooney.png', 'Im_JustinTimberlake.png', 'Im_BradPitt.png', 'Im_DanielRadcliffe.png', 'Im_RobertPattinson.png'],diff,1,0.4250774000001911,15,0,
PIPE1804,1,inv,60,pos60_id5_im1.bmp_pos60_id5_im10.bmp,['Im_DanielCraig.png', 'Im_RyanReynolds.png', 'Im_PatrickDempsey.png', 'Im_OrlandoBloom.png', 'Im_LeonardoDiCaprio.png', 'Im_GeorgeClooney.png', 'Im_JustinTimberlake.png', 'Im_BradPitt.png', 'Im_DanielRadcliffe.png', 'Im_RobertPattinson.png'],same,1,0.40840489999936835,16,0,
PIPE1804,1,inv,0,pos0_id21_im22.bmp_pos0_id10_im18.bmp,['Im_DanielCraig.png', 'Im_RyanReynolds.png', 'Im_PatrickDempsey.png', 'Im_OrlandoBloom.png', 'Im_LeonardoDiCaprio.png', 'Im_GeorgeClooney.png', 'Im_JustinTimberlake.png', 'Im_BradPitt.png', 'Im_DanielRadcliffe.png', 'Im_RobertPattinson.png'],diff,1,0.4169546999992235,17,0,
PIPE1804,1,inv,30,pos30_id16_im3.bmp_pos30_id16_im2.bmp,['Im_DanielCraig.png', 'Im_RyanReynolds.png', 'Im_PatrickDempsey.png', 'Im_OrlandoBloom.png', 'Im_LeonardoDiCaprio.png', 'Im_GeorgeClooney.png', 'Im_JustinTimberlake.png', 'Im_BradPitt.png', 'Im_DanielRadcliffe.png', 'Im_RobertPattinson.png'],diff,0,0.4168037999997978,17,0,
PIPE1804,1,inv,150,pos150_id21_im22.bmp_pos150_id10_im18.bmp,['Im_DanielCraig.png', 'Im_RyanReynolds.png', 'Im_PatrickDempsey.png', 'Im_OrlandoBloom.png', 'Im_LeonardoDiCaprio.png', 'Im_GeorgeClooney.png', 'Im_JustinTimberlake.png', 'Im_BradPitt.png', 'Im_DanielRadcliffe.png', 'Im_RobertPattinson.png'],diff,1,0.42510390000006737,18,0,
PIPE1804,1,inv,90,pos90_id10_im17.bmp_pos90_id17_im8.bmp,['Im_DanielCraig.png', 'Im_RyanReynolds.png', 'Im_PatrickDempsey.png', 'Im_OrlandoBloom.png', 'Im_LeonardoDiCaprio.png', 'Im_GeorgeClooney.png', 'Im_JustinTimberlake.png', 'Im_BradPitt.png', 'Im_DanielRadcliffe.png', 'Im_RobertPattinson.png'],diff,1,0.42511389999981475,19,0,
PIPE1804,1,inv,30,pos30_id21_im16.bmp_pos30_id16_im19.bmp,['Im_DanielCraig.png', 'Im_RyanReynolds.png', 'Im_PatrickDempsey.png', 'Im_OrlandoBloom.png', 'Im_LeonardoDiCaprio.png', 'Im_GeorgeClooney.png', 'Im_JustinTimberlake.png', 'Im_BradPitt.png', 'Im_DanielRadcliffe.png', 'Im_RobertPattinson.png'],diff,1,0.4335194999994201,20,0,
PIPE1804,1,inv,120,pos120_id7_im14.bmp_pos120_id4_im20.bmp,['Im_DanielCraig.png', 'Im_RyanReynolds.png', 'Im_PatrickDempsey.png', 'Im_OrlandoBloom.png', 'Im_LeonardoDiCaprio.png', 'Im_GeorgeClooney.png', 'Im_JustinTimberlake.png', 'Im_BradPitt.png', 'Im_DanielRadcliffe.png', 'Im_RobertPattinson.png'],same,0,0.43343240000012884,20,0,
PIPE1804,1,inv,fs,posfs_id4_im7.bmp_posfs_id4_im20.bmp,['Im_DanielCraig.png', 'Im_RyanReynolds.png', 'Im_PatrickDempsey.png', 'Im_OrlandoBloom.png', 'Im_LeonardoDiCaprio.png', 'Im_GeorgeClooney.png', 'Im_JustinTimberlake.png', 'Im_BradPitt.png', 'Im_DanielRadcliffe.png', 'Im_RobertPattinson.png'],same,1,0.42510049999964394,21,0,
PIPE1804,2,neg,60,neg60_id13_im29.bmp_neg60_id10_im18.bmp,['Im_DanielCraig.png', 'Im_RyanReynolds.png', 'Im_PatrickDempsey.png', 'Im_OrlandoBloom.png', 'Im_LeonardoDiCaprio.png', 'Im_GeorgeClooney.png', 'Im_JustinTimberlake.png', 'Im_BradPitt.png', 'Im_DanielRadcliffe.png', 'Im_RobertPattinson.png'],diff,1,0.4250665999998091,22,0,
PIPE1804,2,neg,90,neg90_id19_im27.bmp_neg90_id19_im4.bmp,['Im_DanielCraig.png', 'Im_RyanReynolds.png', 'Im_PatrickDempsey.png', 'Im_OrlandoBloom.png', 'Im_LeonardoDiCaprio.png', 'Im_GeorgeClooney.png', 'Im_JustinTimberlake.png', 'Im_BradPitt.png', 'Im_DanielRadcliffe.png', 'Im_RobertPattinson.png'],same,1,0.42514139999912004,23,0,
PIPE1804,2,neg,60,neg60_id4_im7.bmp_neg60_id4_im15.bmp,['Im_DanielCraig.png', 'Im_RyanReynolds.png', 'Im_PatrickDempsey.png', 'Im_OrlandoBloom.png', 'Im_LeonardoDiCaprio.png', 'Im_GeorgeClooney.png', 'Im_JustinTimberlake.png', 'Im_BradPitt.png', 'Im_DanielRadcliffe.png', 'Im_RobertPattinson.png'],diff,0,0.4084894000006898,23,0,
PIPE1804,2,neg,120,neg120_id5_im10.bmp_neg120_id5_im1.bmp,['Im_DanielCraig.png', 'Im_RyanReynolds.png', 'Im_PatrickDempsey.png', 'Im_OrlandoBloom.png', 'Im_LeonardoDiCaprio.png', 'Im_GeorgeClooney.png', 'Im_JustinTimberlake.png', 'Im_BradPitt.png', 'Im_DanielRadcliffe.png', 'Im_RobertPattinson.png'],same,1,0.4082508000001326,24,0,
PIPE1804,2,neg,150,neg150_id4_im20.bmp_neg150_id4_im7.bmp,['Im_DanielCraig.png', 'Im_RyanReynolds.png', 'Im_PatrickDempsey.png', 'Im_OrlandoBloom.png', 'Im_LeonardoDiCaprio.png', 'Im_GeorgeClooney.png', 'Im_JustinTimberlake.png', 'Im_BradPitt.png', 'Im_DanielRadcliffe.png', 'Im_RobertPattinson.png'],same,1,0.41679870000007213,25,0,
PIPE1804,2,neg,30,neg30_id7_im26.bmp_neg30_id3_im8.bmp,['Im_DanielCraig.png', 'Im_RyanReynolds.png', 'Im_PatrickDempsey.png', 'Im_OrlandoBloom.png', 'Im_LeonardoDiCaprio.png', 'Im_GeorgeClooney.png', 'Im_JustinTimberlake.png', 'Im_BradPitt.png', 'Im_DanielRadcliffe.png', 'Im_RobertPattinson.png'],diff,1,0.4167919000001348,26,0,
PIPE1804,2,neg,90,neg90_id13_im10.bmp_neg90_id19_im8.bmp,['Im_DanielCraig.png', 'Im_RyanReynolds.png', 'Im_PatrickDempsey.png', 'Im_OrlandoBloom.png', 'Im_LeonardoDiCaprio.png', 'Im_GeorgeClooney.png', 'Im_JustinTimberlake.png', 'Im_BradPitt.png', 'Im_DanielRadcliffe.png', 'Im_RobertPattinson.png'],same,0,0.4081808999999339,26,0,
PIPE1804,2,neg,fs,negfs_id17_im14.bmp_negfs_id13_im15.bmp,['Im_DanielCraig.png', 'Im_RyanReynolds.png', 'Im_PatrickDempsey.png', 'Im_OrlandoBloom.png', 'Im_LeonardoDiCaprio.png', 'Im_GeorgeClooney.png', 'Im_JustinTimberlake.png', 'Im_BradPitt.png', 'Im_DanielRadcliffe.png', 'Im_RobertPattinson.png'],diff,1,0.4086940000006507,27,0,
PIPE1804,2,neg,0,neg0_id13_im29.bmp_neg0_id3_im17.bmp,['Im_DanielCraig.png', 'Im_RyanReynolds.png', 'Im_PatrickDempsey.png', 'Im_OrlandoBloom.png', 'Im_LeonardoDiCaprio.png', 'Im_GeorgeClooney.png', 'Im_JustinTimberlake.png', 'Im_BradPitt.png', 'Im_DanielRadcliffe.png', 'Im_RobertPattinson.png'],diff,1,0.5502536999993026,28,0,
PIPE1804,2,neg,150,neg150_id3_im6.bmp_neg150_id3_im8.bmp,['Im_DanielCraig.png', 'Im_RyanReynolds.png', 'Im_PatrickDempsey.png', 'Im_OrlandoBloom.png', 'Im_LeonardoDiCaprio.png', 'Im_GeorgeClooney.png', 'Im_JustinTimberlake.png', 'Im_BradPitt.png', 'Im_DanielRadcliffe.png', 'Im_RobertPattinson.png'],same,1,0.4250437000000602,29,0,
PIPE1804,2,neg,0,neg0_id5_im10.bmp_neg0_id16_im2.bmp,['Im_DanielCraig.png', 'Im_RyanReynolds.png', 'Im_PatrickDempsey.png', 'Im_OrlandoBloom.png', 'Im_LeonardoDiCaprio.png', 'Im_GeorgeClooney.png', 'Im_JustinTimberlake.png', 'Im_BradPitt.png', 'Im_DanielRadcliffe.png', 'Im_RobertPattinson.png'],diff,1,0.42504809999991267,30,0,
PIPE1804,2,neg,fs,negfs_id3_im17.bmp_negfs_id10_im1.bmp,['Im_DanielCraig.png', 'Im_RyanReynolds.png', 'Im_PatrickDempsey.png', 'Im_OrlandoBloom.png', 'Im_LeonardoDiCaprio.png', 'Im_GeorgeClooney.png', 'Im_JustinTimberlake.png', 'Im_BradPitt.png', 'Im_DanielRadcliffe.png', 'Im_RobertPattinson.png'],diff,1,0.4167295999995986,31,0,
PIPE1804,2,neg,120,neg120_id21_im16.bmp_neg120_id21_im17.bmp,['Im_DanielCraig.png', 'Im_RyanReynolds.png', 'Im_PatrickDempsey.png', 'Im_OrlandoBloom.png', 'Im_LeonardoDiCaprio.png', 'Im_GeorgeClooney.png', 'Im_JustinTimberlake.png', 'Im_BradPitt.png', 'Im_DanielRadcliffe.png', 'Im_RobertPattinson.png'],same,1,0.4084198999998989,32,0,
PIPE1804,2,neg,30,neg30_id4_im20.bmp_neg30_id7_im14.bmp,['Im_DanielCraig.png', 'Im_RyanReynolds.png', 'Im_PatrickDempsey.png', 'Im_OrlandoBloom.png', 'Im_LeonardoDiCaprio.png', 'Im_GeorgeClooney.png', 'Im_JustinTimberlake.png', 'Im_BradPitt.png', 'Im_DanielRadcliffe.png', 'Im_RobertPattinson.png'],diff,1,0.43320029999995313,33,0,
PIPE1804,3,pos,0,pos0_id5_im10.bmp_pos0_id5_im20.bmp,['Im_DanielCraig.png', 'Im_RyanReynolds.png', 'Im_PatrickDempsey.png', 'Im_OrlandoBloom.png', 'Im_LeonardoDiCaprio.png', 'Im_GeorgeClooney.png', 'Im_JustinTimberlake.png', 'Im_BradPitt.png', 'Im_DanielRadcliffe.png', 'Im_RobertPattinson.png'],diff,0,0.4251214000005348,0,78.57142857142857,
PIPE1804,3,pos,150,pos150_id17_im14.bmp_pos150_id17_im9.bmp,['Im_DanielCraig.png', 'Im_RyanReynolds.png', 'Im_PatrickDempsey.png', 'Im_OrlandoBloom.png', 'Im_LeonardoDiCaprio.png', 'Im_GeorgeClooney.png', 'Im_JustinTimberlake.png', 'Im_BradPitt.png', 'Im_DanielRadcliffe.png', 'Im_RobertPattinson.png'],same,1,0.4248631000000387,1,78.57142857142857,
PIPE1804,3,pos,fs,posfs_id13_im10.bmp_posfs_id13_im29.bmp,['Im_DanielCraig.png', 'Im_RyanReynolds.png', 'Im_PatrickDempsey.png', 'Im_OrlandoBloom.png', 'Im_LeonardoDiCaprio.png', 'Im_GeorgeClooney.png', 'Im_JustinTimberlake.png', 'Im_BradPitt.png', 'Im_DanielRadcliffe.png', 'Im_RobertPattinson.png'],same,1,0.4166144999999233,2,78.57142857142857,
PIPE1804,3,pos,0,pos0_id19_im27.bmp_pos0_id13_im15.bmp,['Im_DanielCraig.png', 'Im_RyanReynolds.png', 'Im_PatrickDempsey.png', 'Im_OrlandoBloom.png', 'Im_LeonardoDiCaprio.png', 'Im_GeorgeClooney.png', 'Im_JustinTimberlake.png', 'Im_BradPitt.png', 'Im_DanielRadcliffe.png', 'Im_RobertPattinson.png'],diff,1,0.4334225000002334,3,78.57142857142857,
PIPE1804,3,pos,60,pos60_id19_im8.bmp_pos60_id19_im4.bmp,['Im_DanielCraig.png', 'Im_RyanReynolds.png', 'Im_PatrickDempsey.png', 'Im_OrlandoBloom.png', 'Im_LeonardoDiCaprio.png', 'Im_GeorgeClooney.png', 'Im_JustinTimberlake.png', 'Im_BradPitt.png', 'Im_DanielRadcliffe.png', 'Im_RobertPattinson.png'],same,1,0.43333999999958905,4,78.57142857142857,
PIPE1804,3,pos,60,pos60_id19_im4.bmp_pos60_id19_im27.bmp,['Im_DanielCraig.png', 'Im_RyanReynolds.png', 'Im_PatrickDempsey.png', 'Im_OrlandoBloom.png', 'Im_LeonardoDiCaprio.png', 'Im_GeorgeClooney.png', 'Im_JustinTimberlake.png', 'Im_BradPitt.png', 'Im_DanielRadcliffe.png', 'Im_RobertPattinson.png'],same,1,0.45849339999949734,5,78.57142857142857,
PIPE1804,3,pos,90,pos90_id13_im10.bmp_pos90_id19_im8.bmp,['Im_DanielCraig.png', 'Im_RyanReynolds.png', 'Im_PatrickDempsey.png', 'Im_OrlandoBloom.png', 'Im_LeonardoDiCaprio.png', 'Im_GeorgeClooney.png', 'Im_JustinTimberlake.png', 'Im_BradPitt.png', 'Im_DanielRadcliffe.png', 'Im_RobertPattinson.png'],same,0,0.4251282999994146,5,78.57142857142857,
PIPE1804,3,pos,30,pos30_id7_im14.bmp_pos30_id4_im20.bmp,['Im_DanielCraig.png', 'Im_RyanReynolds.png', 'Im_PatrickDempsey.png', 'Im_OrlandoBloom.png', 'Im_LeonardoDiCaprio.png', 'Im_GeorgeClooney.png', 'Im_JustinTimberlake.png', 'Im_BradPitt.png', 'Im_DanielRadcliffe.png', 'Im_RobertPattinson.png'],diff,1,0.4166310999999041,6,78.57142857142857,
PIPE1804,3,pos,fs,posfs_id13_im15.bmp_posfs_id19_im27.bmp,['Im_DanielCraig.png', 'Im_RyanReynolds.png', 'Im_PatrickDempsey.png', 'Im_OrlandoBloom.png', 'Im_LeonardoDiCaprio.png', 'Im_GeorgeClooney.png', 'Im_JustinTimberlake.png', 'Im_BradPitt.png', 'Im_DanielRadcliffe.png', 'Im_RobertPattinson.png'],diff,1,0.42505459999938466,7,78.57142857142857,
PIPE1804,3,pos,120,pos120_id21_im17.bmp_pos120_id21_im16.bmp,['Im_DanielCraig.png', 'Im_RyanReynolds.png', 'Im_PatrickDempsey.png', 'Im_OrlandoBloom.png', 'Im_LeonardoDiCaprio.png', 'Im_GeorgeClooney.png', 'Im_JustinTimberlake.png', 'Im_BradPitt.png', 'Im_DanielRadcliffe.png', 'Im_RobertPattinson.png'],same,1,0.4251211000000694,8,78.57142857142857,
PIPE1804,3,pos,90,pos90_id21_im17.bmp_pos90_id5_im10.bmp,['Im_DanielCraig.png', 'Im_RyanReynolds.png', 'Im_PatrickDempsey.png', 'Im_OrlandoBloom.png', 'Im_LeonardoDiCaprio.png', 'Im_GeorgeClooney.png', 'Im_JustinTimberlake.png', 'Im_BradPitt.png', 'Im_DanielRadcliffe.png', 'Im_RobertPattinson.png'],diff,1,0.42514550000032614,9,78.57142857142857,
PIPE1804,3,pos,120,pos120_id5_im1.bmp_pos120_id10_im1.bmp,['Im_DanielCraig.png', 'Im_RyanReynolds.png', 'Im_PatrickDempsey.png', 'Im_OrlandoBloom.png', 'Im_LeonardoDiCaprio.png', 'Im_GeorgeClooney.png', 'Im_JustinTimberlake.png', 'Im_BradPitt.png', 'Im_DanielRadcliffe.png', 'Im_RobertPattinson.png'],diff,1,0.4167758000003232,10,78.57142857142857,
PIPE1804,3,pos,150,pos150_id16_im3.bmp_pos150_id7_im14.bmp,['Im_DanielCraig.png', 'Im_RyanReynolds.png', 'Im_PatrickDempsey.png', 'Im_OrlandoBloom.png', 'Im_LeonardoDiCaprio.png', 'Im_GeorgeClooney.png', 'Im_JustinTimberlake.png', 'Im_BradPitt.png', 'Im_DanielRadcliffe.png', 'Im_RobertPattinson.png'],diff,1,0.4333939999996801,11,78.57142857142857,
PIPE1804,3,pos,30,pos30_id10_im1.bmp_pos30_id10_im18.bmp,['Im_DanielCraig.png', 'Im_RyanReynolds.png', 'Im_PatrickDempsey.png', 'Im_OrlandoBloom.png', 'Im_LeonardoDiCaprio.png', 'Im_GeorgeClooney.png', 'Im_JustinTimberlake.png', 'Im_BradPitt.png', 'Im_DanielRadcliffe.png', 'Im_RobertPattinson.png'],same,1,0.4249977999998009,12,78.57142857142857,
PIPE1804,4,pos,60,pos60_id13_im10.bmp_pos60_id13_im29.bmp,['Im_DanielCraig.png', 'Im_RyanReynolds.png', 'Im_PatrickDempsey.png', 'Im_OrlandoBloom.png', 'Im_LeonardoDiCaprio.png', 'Im_GeorgeClooney.png', 'Im_JustinTimberlake.png', 'Im_BradPitt.png', 'Im_DanielRadcliffe.png', 'Im_RobertPattinson.png'],same,1,0.40827420000005077,13,78.57142857142857,
PIPE1804,4,pos,120,pos120_id17_im14.bmp_pos120_id3_im8.bmp,['Im_DanielCraig.png', 'Im_RyanReynolds.png', 'Im_PatrickDempsey.png', 'Im_OrlandoBloom.png', 'Im_LeonardoDiCaprio.png', 'Im_GeorgeClooney.png', 'Im_JustinTimberlake.png', 'Im_BradPitt.png', 'Im_DanielRadcliffe.png', 'Im_RobertPattinson.png'],same,0,0.4921415999997407,13,78.57142857142857,
PIPE1804,4,pos,150,pos150_id4_im20.bmp_pos150_id4_im15.bmp,['Im_DanielCraig.png', 'Im_RyanReynolds.png', 'Im_PatrickDempsey.png', 'Im_OrlandoBloom.png', 'Im_LeonardoDiCaprio.png', 'Im_GeorgeClooney.png', 'Im_JustinTimberlake.png', 'Im_BradPitt.png', 'Im_DanielRadcliffe.png', 'Im_RobertPattinson.png'],same,1,0.4251464999997552,14,78.57142857142857,
PIPE1804,4,pos,30,pos30_id16_im19.bmp_pos30_id16_im2.bmp,['Im_DanielCraig.png', 'Im_RyanReynolds.png', 'Im_PatrickDempsey.png', 'Im_OrlandoBloom.png', 'Im_LeonardoDiCaprio.png', 'Im_GeorgeClooney.png', 'Im_JustinTimberlake.png', 'Im_BradPitt.png', 'Im_DanielRadcliffe.png', 'Im_RobertPattinson.png'],same,1,0.4333414000002449,15,78.57142857142857,
PIPE1804,4,pos,fs,posfs_id10_im1.bmp_posfs_id3_im17.bmp,['Im_DanielCraig.png', 'Im_RyanReynolds.png', 'Im_PatrickDempsey.png', 'Im_OrlandoBloom.png', 'Im_LeonardoDiCaprio.png', 'Im_GeorgeClooney.png', 'Im_JustinTimberlake.png', 'Im_BradPitt.png', 'Im_DanielRadcliffe.png', 'Im_RobertPattinson.png'],diff,1,0.4084253999999419,16,78.57142857142857,
PIPE1804,4,pos,30,pos30_id10_im18.bmp_pos30_id13_im29.bmp,['Im_DanielCraig.png', 'Im_RyanReynolds.png', 'Im_PatrickDempsey.png', 'Im_OrlandoBloom.png', 'Im_LeonardoDiCaprio.png', 'Im_GeorgeClooney.png', 'Im_JustinTimberlake.png', 'Im_BradPitt.png', 'Im_DanielRadcliffe.png', 'Im_RobertPattinson.png'],diff,1,0.5670088999995642,17,78.57142857142857,
PIPE1804,4,pos,150,pos150_id3_im6.bmp_pos150_id3_im17.bmp,['Im_DanielCraig.png', 'Im_RyanReynolds.png', 'Im_PatrickDempsey.png', 'Im_OrlandoBloom.png', 'Im_LeonardoDiCaprio.png', 'Im_GeorgeClooney.png', 'Im_JustinTimberlake.png', 'Im_BradPitt.png', 'Im_DanielRadcliffe.png', 'Im_RobertPattinson.png'],same,1,0.4251451000000088,18,78.57142857142857,
PIPE1804,4,pos,120,pos120_id13_im15.bmp_pos120_id13_im10.bmp,['Im_DanielCraig.png', 'Im_RyanReynolds.png', 'Im_PatrickDempsey.png', 'Im_OrlandoBloom.png', 'Im_LeonardoDiCaprio.png', 'Im_GeorgeClooney.png', 'Im_JustinTimberlake.png', 'Im_BradPitt.png', 'Im_DanielRadcliffe.png', 'Im_RobertPattinson.png'],same,1,0.4251459999995859,19,78.57142857142857,
PIPE1804,4,pos,0,pos0_id4_im7.bmp_pos0_id4_im15.bmp,['Im_DanielCraig.png', 'Im_RyanReynolds.png', 'Im_PatrickDempsey.png', 'Im_OrlandoBloom.png', 'Im_LeonardoDiCaprio.png', 'Im_GeorgeClooney.png', 'Im_JustinTimberlake.png', 'Im_BradPitt.png', 'Im_DanielRadcliffe.png', 'Im_RobertPattinson.png'],same,1,0.41678159999992204,20,78.57142857142857,
PIPE1804,4,pos,60,pos60_id7_im15.bmp_pos60_id21_im16.bmp,['Im_DanielCraig.png', 'Im_RyanReynolds.png', 'Im_PatrickDempsey.png', 'Im_OrlandoBloom.png', 'Im_LeonardoDiCaprio.png', 'Im_GeorgeClooney.png', 'Im_JustinTimberlake.png', 'Im_BradPitt.png', 'Im_DanielRadcliffe.png', 'Im_RobertPattinson.png'],diff,1,0.42504989999997633,21,78.57142857142857,
PIPE1804,4,pos,90,pos90_id7_im14.bmp_pos90_id16_im3.bmp,['Im_DanielCraig.png', 'Im_RyanReynolds.png', 'Im_PatrickDempsey.png', 'Im_OrlandoBloom.png', 'Im_LeonardoDiCaprio.png', 'Im_GeorgeClooney.png', 'Im_JustinTimberlake.png', 'Im_BradPitt.png', 'Im_DanielRadcliffe.png', 'Im_RobertPattinson.png'],diff,1,0.4167295000006561,22,78.57142857142857,
PIPE1804,4,pos,90,pos90_id4_im15.bmp_pos90_id5_im1.bmp,['Im_DanielCraig.png', 'Im_RyanReynolds.png', 'Im_PatrickDempsey.png', 'Im_OrlandoBloom.png', 'Im_LeonardoDiCaprio.png', 'Im_GeorgeClooney.png', 'Im_JustinTimberlake.png', 'Im_BradPitt.png', 'Im_DanielRadcliffe.png', 'Im_RobertPattinson.png'],diff,1,0.42501179999999295,23,78.57142857142857,
PIPE1804,4,pos,fs,posfs_id21_im16.bmp_posfs_id7_im15.bmp,['Im_DanielCraig.png', 'Im_RyanReynolds.png', 'Im_PatrickDempsey.png', 'Im_OrlandoBloom.png', 'Im_LeonardoDiCaprio.png', 'Im_GeorgeClooney.png', 'Im_JustinTimberlake.png', 'Im_BradPitt.png', 'Im_DanielRadcliffe.png', 'Im_RobertPattinson.png'],diff,1,0.4167531000002782,24,78.57142857142857,
PIPE1804,4,pos,0,pos0_id17_im14.bmp_pos0_id3_im8.bmp,['Im_DanielCraig.png', 'Im_RyanReynolds.png', 'Im_PatrickDempsey.png', 'Im_OrlandoBloom.png', 'Im_LeonardoDiCaprio.png', 'Im_GeorgeClooney.png', 'Im_JustinTimberlake.png', 'Im_BradPitt.png', 'Im_DanielRadcliffe.png', 'Im_RobertPattinson.png'],diff,1,0.440819499999634,25,78.57142857142857,
PIPE1804,5,inv,fs,posfs_id10_im1.bmp_posfs_id3_im17.bmp,['Im_DanielCraig.png', 'Im_RyanReynolds.png', 'Im_PatrickDempsey.png', 'Im_OrlandoBloom.png', 'Im_LeonardoDiCaprio.png', 'Im_GeorgeClooney.png', 'Im_JustinTimberlake.png', 'Im_BradPitt.png', 'Im_DanielRadcliffe.png', 'Im_RobertPattinson.png'],diff,1,0.42505140000048414,26,78.57142857142857,
PIPE1804,5,inv,120,pos120_id7_im15.bmp_pos120_id21_im16.bmp,['Im_DanielCraig.png', 'Im_RyanReynolds.png', 'Im_PatrickDempsey.png', 'Im_OrlandoBloom.png', 'Im_LeonardoDiCaprio.png', 'Im_GeorgeClooney.png', 'Im_JustinTimberlake.png', 'Im_BradPitt.png', 'Im_DanielRadcliffe.png', 'Im_RobertPattinson.png'],diff,1,0.425396799999362,27,78.57142857142857,
PIPE1804,5,inv,90,pos90_id10_im1.bmp_pos90_id3_im17.bmp,['Im_DanielCraig.png', 'Im_RyanReynolds.png', 'Im_PatrickDempsey.png', 'Im_OrlandoBloom.png', 'Im_LeonardoDiCaprio.png', 'Im_GeorgeClooney.png', 'Im_JustinTimberlake.png', 'Im_BradPitt.png', 'Im_DanielRadcliffe.png', 'Im_RobertPattinson.png'],diff,1,0.4084306999993714,28,78.57142857142857,
PIPE1804,5,inv,30,pos30_id7_im14.bmp_pos30_id7_im26.bmp,['Im_DanielCraig.png', 'Im_RyanReynolds.png', 'Im_PatrickDempsey.png', 'Im_OrlandoBloom.png', 'Im_LeonardoDiCaprio.png', 'Im_GeorgeClooney.png', 'Im_JustinTimberlake.png', 'Im_BradPitt.png', 'Im_DanielRadcliffe.png', 'Im_RobertPattinson.png'],same,1,0.41696799999954237,29,78.57142857142857,
PIPE1804,5,inv,90,pos90_id13_im10.bmp_pos90_id13_im29.bmp,['Im_DanielCraig.png', 'Im_RyanReynolds.png', 'Im_PatrickDempsey.png', 'Im_OrlandoBloom.png', 'Im_LeonardoDiCaprio.png', 'Im_GeorgeClooney.png', 'Im_JustinTimberlake.png', 'Im_BradPitt.png', 'Im_DanielRadcliffe.png', 'Im_RobertPattinson.png'],diff,0,0.4167453000000023,29,78.57142857142857,
PIPE1804,5,inv,60,pos60_id17_im8.bmp_pos60_id10_im17.bmp,['Im_DanielCraig.png', 'Im_RyanReynolds.png', 'Im_PatrickDempsey.png', 'Im_OrlandoBloom.png', 'Im_LeonardoDiCaprio.png', 'Im_GeorgeClooney.png', 'Im_JustinTimberlake.png', 'Im_BradPitt.png', 'Im_DanielRadcliffe.png', 'Im_RobertPattinson.png'],diff,1,0.4250836999999592,30,78.57142857142857,
PIPE1804,5,inv,150,pos150_id3_im6.bmp_pos150_id10_im17.bmp,['Im_DanielCraig.png', 'Im_RyanReynolds.png', 'Im_PatrickDempsey.png', 'Im_OrlandoBloom.png', 'Im_LeonardoDiCaprio.png', 'Im_GeorgeClooney.png', 'Im_JustinTimberlake.png', 'Im_BradPitt.png', 'Im_DanielRadcliffe.png', 'Im_RobertPattinson.png'],diff,1,0.4167944000000716,31,78.57142857142857,
PIPE1804,5,inv,120,pos120_id10_im1.bmp_pos120_id10_im17.bmp,['Im_DanielCraig.png', 'Im_RyanReynolds.png', 'Im_PatrickDempsey.png', 'Im_OrlandoBloom.png', 'Im_LeonardoDiCaprio.png', 'Im_GeorgeClooney.png', 'Im_JustinTimberlake.png', 'Im_BradPitt.png', 'Im_DanielRadcliffe.png', 'Im_RobertPattinson.png'],same,1,0.4333989000006113,32,78.57142857142857,
PIPE1804,5,inv,60,pos60_id10_im18.bmp_pos60_id13_im29.bmp,['Im_DanielCraig.png', 'Im_RyanReynolds.png', 'Im_PatrickDempsey.png', 'Im_OrlandoBloom.png', 'Im_LeonardoDiCaprio.png', 'Im_GeorgeClooney.png', 'Im_JustinTimberlake.png', 'Im_BradPitt.png', 'Im_DanielRadcliffe.png', 'Im_RobertPattinson.png'],diff,1,0.41673379999974713,33,78.57142857142857,
PIPE1804,5,inv,0,pos0_id19_im8.bmp_pos0_id16_im3.bmp,['Im_DanielCraig.png', 'Im_RyanReynolds.png', 'Im_PatrickDempsey.png', 'Im_OrlandoBloom.png', 'Im_LeonardoDiCaprio.png', 'Im_GeorgeClooney.png', 'Im_JustinTimberlake.png', 'Im_BradPitt.png', 'Im_DanielRadcliffe.png', 'Im_RobertPattinson.png'],diff,1,0.4166931999998269,34,78.57142857142857,
PIPE1804,5,inv,fs,posfs_id4_im20.bmp_posfs_id21_im22.bmp,['Im_DanielCraig.png', 'Im_RyanReynolds.png', 'Im_PatrickDempsey.png', 'Im_OrlandoBloom.png', 'Im_LeonardoDiCaprio.png', 'Im_GeorgeClooney.png', 'Im_JustinTimberlake.png', 'Im_BradPitt.png', 'Im_DanielRadcliffe.png', 'Im_RobertPattinson.png'],diff,1,0.43317990000014106,35,78.57142857142857,
PIPE1804,5,inv,30,pos30_id5_im20.bmp_pos30_id5_im1.bmp,['Im_DanielCraig.png', 'Im_RyanReynolds.png', 'Im_PatrickDempsey.png', 'Im_OrlandoBloom.png', 'Im_LeonardoDiCaprio.png', 'Im_GeorgeClooney.png', 'Im_JustinTimberlake.png', 'Im_BradPitt.png', 'Im_DanielRadcliffe.png', 'Im_RobertPattinson.png'],diff,0,0.4334713999996893,35,78.57142857142857,
PIPE1804,5,inv,150,pos150_id16_im3.bmp_pos150_id7_im14.bmp,['Im_DanielCraig.png', 'Im_RyanReynolds.png', 'Im_PatrickDempsey.png', 'Im_OrlandoBloom.png', 'Im_LeonardoDiCaprio.png', 'Im_GeorgeClooney.png', 'Im_JustinTimberlake.png', 'Im_BradPitt.png', 'Im_DanielRadcliffe.png', 'Im_RobertPattinson.png'],diff,1,0.42492179999953805,36,78.57142857142857,
PIPE1804,5,inv,0,pos0_id10_im17.bmp_pos0_id17_im8.bmp,['Im_DanielCraig.png', 'Im_RyanReynolds.png', 'Im_PatrickDempsey.png', 'Im_OrlandoBloom.png', 'Im_LeonardoDiCaprio.png', 'Im_GeorgeClooney.png', 'Im_JustinTimberlake.png', 'Im_BradPitt.png', 'Im_DanielRadcliffe.png', 'Im_RobertPattinson.png'],diff,1,0.42504250000001775,37,78.57142857142857,
PIPE1804,6,neg,120,neg120_id16_im3.bmp_neg120_id16_im19.bmp,['Im_DanielCraig.png', 'Im_RyanReynolds.png', 'Im_PatrickDempsey.png', 'Im_OrlandoBloom.png', 'Im_LeonardoDiCaprio.png', 'Im_GeorgeClooney.png', 'Im_JustinTimberlake.png', 'Im_BradPitt.png', 'Im_DanielRadcliffe.png', 'Im_RobertPattinson.png'],same,1,0.4250230999996347,1,88.0952380952381,
PIPE1804,6,neg,60,neg60_id4_im7.bmp_neg60_id17_im9.bmp,['Im_DanielCraig.png', 'Im_RyanReynolds.png', 'Im_PatrickDempsey.png', 'Im_OrlandoBloom.png', 'Im_LeonardoDiCaprio.png', 'Im_GeorgeClooney.png', 'Im_JustinTimberlake.png', 'Im_BradPitt.png', 'Im_DanielRadcliffe.png', 'Im_RobertPattinson.png'],diff,1,0.41673509999964153,2,88.0952380952381,
PIPE1804,6,neg,150,neg150_id3_im8.bmp_neg150_id3_im17.bmp,['Im_DanielCraig.png', 'Im_RyanReynolds.png', 'Im_PatrickDempsey.png', 'Im_OrlandoBloom.png', 'Im_LeonardoDiCaprio.png', 'Im_GeorgeClooney.png', 'Im_JustinTimberlake.png', 'Im_BradPitt.png', 'Im_DanielRadcliffe.png', 'Im_RobertPattinson.png'],same,1,0.43317059999935736,3,88.0952380952381,
PIPE1804,6,neg,30,neg30_id17_im8.bmp_neg30_id4_im7.bmp,['Im_DanielCraig.png', 'Im_RyanReynolds.png', 'Im_PatrickDempsey.png', 'Im_OrlandoBloom.png', 'Im_LeonardoDiCaprio.png', 'Im_GeorgeClooney.png', 'Im_JustinTimberlake.png', 'Im_BradPitt.png', 'Im_DanielRadcliffe.png', 'Im_RobertPattinson.png'],diff,1,0.41685879999931785,4,88.0952380952381,
PIPE1804,6,neg,fs,negfs_id5_im1.bmp_negfs_id5_im20.bmp,['Im_DanielCraig.png', 'Im_RyanReynolds.png', 'Im_PatrickDempsey.png', 'Im_OrlandoBloom.png', 'Im_LeonardoDiCaprio.png', 'Im_GeorgeClooney.png', 'Im_JustinTimberlake.png', 'Im_BradPitt.png', 'Im_DanielRadcliffe.png', 'Im_RobertPattinson.png'],same,1,0.4749830999999176,5,88.0952380952381,
PIPE1804,6,neg,90,neg90_id17_im9.bmp_neg90_id17_im8.bmp,['Im_DanielCraig.png', 'Im_RyanReynolds.png', 'Im_PatrickDempsey.png', 'Im_OrlandoBloom.png', 'Im_LeonardoDiCaprio.png', 'Im_GeorgeClooney.png', 'Im_JustinTimberlake.png', 'Im_BradPitt.png', 'Im_DanielRadcliffe.png', 'Im_RobertPattinson.png'],same,1,0.4250170999994225,6,88.0952380952381,
PIPE1804,6,neg,0,neg0_id5_im20.bmp_neg0_id5_im10.bmp,['Im_DanielCraig.png', 'Im_RyanReynolds.png', 'Im_PatrickDempsey.png', 'Im_OrlandoBloom.png', 'Im_LeonardoDiCaprio.png', 'Im_GeorgeClooney.png', 'Im_JustinTimberlake.png', 'Im_BradPitt.png', 'Im_DanielRadcliffe.png', 'Im_RobertPattinson.png'],same,1,0.45006480000029114,7,88.0952380952381,
PIPE1804,6,neg,90,neg90_id5_im10.bmp_neg90_id21_im17.bmp,['Im_DanielCraig.png', 'Im_RyanReynolds.png', 'Im_PatrickDempsey.png', 'Im_OrlandoBloom.png', 'Im_LeonardoDiCaprio.png', 'Im_GeorgeClooney.png', 'Im_JustinTimberlake.png', 'Im_BradPitt.png', 'Im_DanielRadcliffe.png', 'Im_RobertPattinson.png'],diff,1,0.41673220000029687,8,88.0952380952381,
PIPE1804,6,neg,60,neg60_id5_im1.bmp_neg60_id4_im15.bmp,['Im_DanielCraig.png', 'Im_RyanReynolds.png', 'Im_PatrickDempsey.png', 'Im_OrlandoBloom.png', 'Im_LeonardoDiCaprio.png', 'Im_GeorgeClooney.png', 'Im_JustinTimberlake.png', 'Im_BradPitt.png', 'Im_DanielRadcliffe.png', 'Im_RobertPattinson.png'],diff,1,0.41672920000019076,9,88.0952380952381,
PIPE1804,6,neg,0,neg0_id3_im8.bmp_neg0_id3_im6.bmp,['Im_DanielCraig.png', 'Im_RyanReynolds.png', 'Im_PatrickDempsey.png', 'Im_OrlandoBloom.png', 'Im_LeonardoDiCaprio.png', 'Im_GeorgeClooney.png', 'Im_JustinTimberlake.png', 'Im_BradPitt.png', 'Im_DanielRadcliffe.png', 'Im_RobertPattinson.png'],same,1,0.41678979999960575,10,88.0952380952381,
PIPE1804,6,neg,fs,negfs_id19_im8.bmp_negfs_id13_im10.bmp,['Im_DanielCraig.png', 'Im_RyanReynolds.png', 'Im_PatrickDempsey.png', 'Im_OrlandoBloom.png', 'Im_LeonardoDiCaprio.png', 'Im_GeorgeClooney.png', 'Im_JustinTimberlake.png', 'Im_BradPitt.png', 'Im_DanielRadcliffe.png', 'Im_RobertPattinson.png'],diff,1,0.4083965999998327,11,88.0952380952381,
PIPE1804,6,neg,120,neg120_id19_im4.bmp_neg120_id19_im8.bmp,['Im_DanielCraig.png', 'Im_RyanReynolds.png', 'Im_PatrickDempsey.png', 'Im_OrlandoBloom.png', 'Im_LeonardoDiCaprio.png', 'Im_GeorgeClooney.png', 'Im_JustinTimberlake.png', 'Im_BradPitt.png', 'Im_DanielRadcliffe.png', 'Im_RobertPattinson.png'],same,1,0.4667498999997406,12,88.0952380952381,
PIPE1804,6,neg,30,neg30_id7_im15.bmp_neg30_id21_im16.bmp,['Im_DanielCraig.png', 'Im_RyanReynolds.png', 'Im_PatrickDempsey.png', 'Im_OrlandoBloom.png', 'Im_LeonardoDiCaprio.png', 'Im_GeorgeClooney.png', 'Im_JustinTimberlake.png', 'Im_BradPitt.png', 'Im_DanielRadcliffe.png', 'Im_RobertPattinson.png'],diff,1,0.42502129999957106,13,88.0952380952381,
PIPE1804,6,neg,150,neg150_id13_im29.bmp_neg150_id10_im18.bmp,['Im_DanielCraig.png', 'Im_RyanReynolds.png', 'Im_PatrickDempsey.png', 'Im_OrlandoBloom.png', 'Im_LeonardoDiCaprio.png', 'Im_GeorgeClooney.png', 'Im_JustinTimberlake.png', 'Im_BradPitt.png', 'Im_DanielRadcliffe.png', 'Im_RobertPattinson.png'],diff,1,0.41679649999969115,14,88.0952380952381,
PIPE1804,7,inv,0,pos0_id17_im14.bmp_pos0_id13_im15.bmp,['Im_DanielCraig.png', 'Im_RyanReynolds.png', 'Im_PatrickDempsey.png', 'Im_OrlandoBloom.png', 'Im_LeonardoDiCaprio.png', 'Im_GeorgeClooney.png', 'Im_JustinTimberlake.png', 'Im_BradPitt.png', 'Im_DanielRadcliffe.png', 'Im_RobertPattinson.png'],diff,1,0.4166574999999284,15,88.0952380952381,
PIPE1804,7,inv,fs,posfs_id21_im17.bmp_posfs_id21_im22.bmp,['Im_DanielCraig.png', 'Im_RyanReynolds.png', 'Im_PatrickDempsey.png', 'Im_OrlandoBloom.png', 'Im_LeonardoDiCaprio.png', 'Im_GeorgeClooney.png', 'Im_JustinTimberlake.png', 'Im_BradPitt.png', 'Im_DanielRadcliffe.png', 'Im_RobertPattinson.png'],same,1,0.41693190000023606,16,88.0952380952381,
PIPE1804,7,inv,150,pos150_id7_im14.bmp_pos150_id7_im26.bmp,['Im_DanielCraig.png', 'Im_RyanReynolds.png', 'Im_PatrickDempsey.png', 'Im_OrlandoBloom.png', 'Im_LeonardoDiCaprio.png', 'Im_GeorgeClooney.png', 'Im_JustinTimberlake.png', 'Im_BradPitt.png', 'Im_DanielRadcliffe.png', 'Im_RobertPattinson.png'],same,1,0.42507130000012694,17,88.0952380952381,
PIPE1804,7,inv,120,pos120_id3_im8.bmp_pos120_id17_im14.bmp,['Im_DanielCraig.png', 'Im_RyanReynolds.png', 'Im_PatrickDempsey.png', 'Im_OrlandoBloom.png', 'Im_LeonardoDiCaprio.png', 'Im_GeorgeClooney.png', 'Im_JustinTimberlake.png', 'Im_BradPitt.png', 'Im_DanielRadcliffe.png', 'Im_RobertPattinson.png'],diff,1,0.42508840000027703,18,88.0952380952381,
PIPE1804,7,inv,30,pos30_id19_im4.bmp_pos30_id19_im27.bmp,['Im_DanielCraig.png', 'Im_RyanReynolds.png', 'Im_PatrickDempsey.png', 'Im_OrlandoBloom.png', 'Im_LeonardoDiCaprio.png', 'Im_GeorgeClooney.png', 'Im_JustinTimberlake.png', 'Im_BradPitt.png', 'Im_DanielRadcliffe.png', 'Im_RobertPattinson.png'],same,1,0.4250521000003573,19,88.0952380952381,
PIPE1804,7,inv,0,pos0_id5_im20.bmp_pos0_id16_im19.bmp,['Im_DanielCraig.png', 'Im_RyanReynolds.png', 'Im_PatrickDempsey.png', 'Im_OrlandoBloom.png', 'Im_LeonardoDiCaprio.png', 'Im_GeorgeClooney.png', 'Im_JustinTimberlake.png', 'Im_BradPitt.png', 'Im_DanielRadcliffe.png', 'Im_RobertPattinson.png'],diff,1,0.4249788000006447,20,88.0952380952381,
PIPE1804,7,inv,90,pos90_id4_im7.bmp_pos90_id4_im15.bmp,['Im_DanielCraig.png', 'Im_RyanReynolds.png', 'Im_PatrickDempsey.png', 'Im_OrlandoBloom.png', 'Im_LeonardoDiCaprio.png', 'Im_GeorgeClooney.png', 'Im_JustinTimberlake.png', 'Im_BradPitt.png', 'Im_DanielRadcliffe.png', 'Im_RobertPattinson.png'],diff,0,0.4250854000001709,20,88.0952380952381,
PIPE1804,7,inv,150,pos150_id5_im20.bmp_pos150_id21_im17.bmp,['Im_DanielCraig.png', 'Im_RyanReynolds.png', 'Im_PatrickDempsey.png', 'Im_OrlandoBloom.png', 'Im_LeonardoDiCaprio.png', 'Im_GeorgeClooney.png', 'Im_JustinTimberlake.png', 'Im_BradPitt.png', 'Im_DanielRadcliffe.png', 'Im_RobertPattinson.png'],diff,1,0.48380529999940336,21,88.0952380952381,
PIPE1804,7,inv,60,pos60_id17_im14.bmp_pos60_id17_im9.bmp,['Im_DanielCraig.png', 'Im_RyanReynolds.png', 'Im_PatrickDempsey.png', 'Im_OrlandoBloom.png', 'Im_LeonardoDiCaprio.png', 'Im_GeorgeClooney.png', 'Im_JustinTimberlake.png', 'Im_BradPitt.png', 'Im_DanielRadcliffe.png', 'Im_RobertPattinson.png'],same,1,0.4083927000001495,22,88.0952380952381,
PIPE1804,7,inv,120,pos120_id13_im29.bmp_pos120_id3_im17.bmp,['Im_DanielCraig.png', 'Im_RyanReynolds.png', 'Im_PatrickDempsey.png', 'Im_OrlandoBloom.png', 'Im_LeonardoDiCaprio.png', 'Im_GeorgeClooney.png', 'Im_JustinTimberlake.png', 'Im_BradPitt.png', 'Im_DanielRadcliffe.png', 'Im_RobertPattinson.png'],diff,1,0.4336577000003672,23,88.0952380952381,
PIPE1804,7,inv,fs,posfs_id10_im17.bmp_posfs_id10_im1.bmp,['Im_DanielCraig.png', 'Im_RyanReynolds.png', 'Im_PatrickDempsey.png', 'Im_OrlandoBloom.png', 'Im_LeonardoDiCaprio.png', 'Im_GeorgeClooney.png', 'Im_JustinTimberlake.png', 'Im_BradPitt.png', 'Im_DanielRadcliffe.png', 'Im_RobertPattinson.png'],same,1,0.408283400000073,24,88.0952380952381,
PIPE1804,7,inv,90,pos90_id3_im6.bmp_pos90_id17_im9.bmp,['Im_DanielCraig.png', 'Im_RyanReynolds.png', 'Im_PatrickDempsey.png', 'Im_OrlandoBloom.png', 'Im_LeonardoDiCaprio.png', 'Im_GeorgeClooney.png', 'Im_JustinTimberlake.png', 'Im_BradPitt.png', 'Im_DanielRadcliffe.png', 'Im_RobertPattinson.png'],same,0,0.4167617999992217,24,88.0952380952381,
PIPE1804,7,inv,60,pos60_id16_im19.bmp_pos60_id16_im3.bmp,['Im_DanielCraig.png', 'Im_RyanReynolds.png', 'Im_PatrickDempsey.png', 'Im_OrlandoBloom.png', 'Im_LeonardoDiCaprio.png', 'Im_GeorgeClooney.png', 'Im_JustinTimberlake.png', 'Im_BradPitt.png', 'Im_DanielRadcliffe.png', 'Im_RobertPattinson.png'],same,1,0.5084077999999863,25,88.0952380952381,
PIPE1804,7,inv,30,pos30_id7_im15.bmp_pos30_id7_im26.bmp,['Im_DanielCraig.png', 'Im_RyanReynolds.png', 'Im_PatrickDempsey.png', 'Im_OrlandoBloom.png', 'Im_LeonardoDiCaprio.png', 'Im_GeorgeClooney.png', 'Im_JustinTimberlake.png', 'Im_BradPitt.png', 'Im_DanielRadcliffe.png', 'Im_RobertPattinson.png'],same,1,0.4083452999993824,26,88.0952380952381,
PIPE1804,8,pos,90,pos90_id17_im8.bmp_pos90_id17_im9.bmp,['Im_DanielCraig.png', 'Im_RyanReynolds.png', 'Im_PatrickDempsey.png', 'Im_OrlandoBloom.png', 'Im_LeonardoDiCaprio.png', 'Im_GeorgeClooney.png', 'Im_JustinTimberlake.png', 'Im_BradPitt.png', 'Im_DanielRadcliffe.png', 'Im_RobertPattinson.png'],same,1,0.42503320000014355,27,88.0952380952381,
PIPE1804,8,pos,30,pos30_id5_im10.bmp_pos30_id5_im1.bmp,['Im_DanielCraig.png', 'Im_RyanReynolds.png', 'Im_PatrickDempsey.png', 'Im_OrlandoBloom.png', 'Im_LeonardoDiCaprio.png', 'Im_GeorgeClooney.png', 'Im_JustinTimberlake.png', 'Im_BradPitt.png', 'Im_DanielRadcliffe.png', 'Im_RobertPattinson.png'],same,1,0.4169376999998349,28,88.0952380952381,
PIPE1804,8,pos,0,pos0_id5_im1.bmp_pos0_id5_im10.bmp,['Im_DanielCraig.png', 'Im_RyanReynolds.png', 'Im_PatrickDempsey.png', 'Im_OrlandoBloom.png', 'Im_LeonardoDiCaprio.png', 'Im_GeorgeClooney.png', 'Im_JustinTimberlake.png', 'Im_BradPitt.png', 'Im_DanielRadcliffe.png', 'Im_RobertPattinson.png'],same,1,0.4251929000001837,29,88.0952380952381,
PIPE1804,8,pos,30,pos30_id3_im8.bmp_pos30_id7_im26.bmp,['Im_DanielCraig.png', 'Im_RyanReynolds.png', 'Im_PatrickDempsey.png', 'Im_OrlandoBloom.png', 'Im_LeonardoDiCaprio.png', 'Im_GeorgeClooney.png', 'Im_JustinTimberlake.png', 'Im_BradPitt.png', 'Im_DanielRadcliffe.png', 'Im_RobertPattinson.png'],same,0,0.4168307999998433,29,88.0952380952381,
PIPE1804,8,pos,60,pos60_id17_im14.bmp_pos60_id3_im8.bmp,['Im_DanielCraig.png', 'Im_RyanReynolds.png', 'Im_PatrickDempsey.png', 'Im_OrlandoBloom.png', 'Im_LeonardoDiCaprio.png', 'Im_GeorgeClooney.png', 'Im_JustinTimberlake.png', 'Im_BradPitt.png', 'Im_DanielRadcliffe.png', 'Im_RobertPattinson.png'],diff,1,0.41679240000030404,30,88.0952380952381,
PIPE1804,8,pos,60,pos60_id10_im1.bmp_pos60_id10_im17.bmp,['Im_DanielCraig.png', 'Im_RyanReynolds.png', 'Im_PatrickDempsey.png', 'Im_OrlandoBloom.png', 'Im_LeonardoDiCaprio.png', 'Im_GeorgeClooney.png', 'Im_JustinTimberlake.png', 'Im_BradPitt.png', 'Im_DanielRadcliffe.png', 'Im_RobertPattinson.png'],same,1,0.40830319999986386,31,88.0952380952381,
PIPE1804,8,pos,150,pos150_id13_im29.bmp_pos150_id3_im17.bmp,['Im_DanielCraig.png', 'Im_RyanReynolds.png', 'Im_PatrickDempsey.png', 'Im_OrlandoBloom.png', 'Im_LeonardoDiCaprio.png', 'Im_GeorgeClooney.png', 'Im_JustinTimberlake.png', 'Im_BradPitt.png', 'Im_DanielRadcliffe.png', 'Im_RobertPattinson.png'],diff,1,0.4167836000005991,32,88.0952380952381,
PIPE1804,8,pos,150,pos150_id21_im17.bmp_pos150_id5_im10.bmp,['Im_DanielCraig.png', 'Im_RyanReynolds.png', 'Im_PatrickDempsey.png', 'Im_OrlandoBloom.png', 'Im_LeonardoDiCaprio.png', 'Im_GeorgeClooney.png', 'Im_JustinTimberlake.png', 'Im_BradPitt.png', 'Im_DanielRadcliffe.png', 'Im_RobertPattinson.png'],diff,1,0.4251330999995844,33,88.0952380952381,
