Sujet,Trial,Condition,Filter,Imname,Actor0,Actor1,Actor2,Actor3,Actor4,Actor5,Actor6,Actor7,Actor8,Actor9,Answer,Accu,RT,Score,Scoreperc, 
RIIS2206,train,pos,90,pos90_id5_im1.bmp_pos90_id5_im10.bmp,['Im_BradPitt.png', 'Im_PatrickDempsey.png', 'Im_RobertPattinson.png', 'Im_RyanGosling.png', 'Im_OrlandoBloom.png', 'Im_MattDamon.png', 'Im_DanielCraig.png', 'Im_RobertDowneyJr.png', 'Im_DanielRadcliffe.png', 'Im_LeonardoDiCaprio.png'],same,1,822.4728813000002,1,0,
RIIS2206,train,pos,0,pos0_id5_im10.bmp_pos0_id18_im18.bmp,['Im_BradPitt.png', 'Im_PatrickDempsey.png', 'Im_RobertPattinson.png', 'Im_RyanGosling.png', 'Im_OrlandoBloom.png', 'Im_MattDamon.png', 'Im_DanielCraig.png', 'Im_RobertDowneyJr.png', 'Im_DanielRadcliffe.png', 'Im_LeonardoDiCaprio.png'],diff,1,826.2812106000019,2,0,
RIIS2206,train,pos,30,pos30_id18_im19.bmp_pos30_id14_im16.bmp,['Im_BradPitt.png', 'Im_PatrickDempsey.png', 'Im_RobertPattinson.png', 'Im_RyanGosling.png', 'Im_OrlandoBloom.png', 'Im_MattDamon.png', 'Im_DanielCraig.png', 'Im_RobertDowneyJr.png', 'Im_DanielRadcliffe.png', 'Im_LeonardoDiCaprio.png'],diff,1,829.906333400002,3,0,
RIIS2206,train,pos,60,pos60_id20_im3.bmp_pos60_id20_im30.bmp,['Im_BradPitt.png', 'Im_PatrickDempsey.png', 'Im_RobertPattinson.png', 'Im_RyanGosling.png', 'Im_OrlandoBloom.png', 'Im_MattDamon.png', 'Im_DanielCraig.png', 'Im_RobertDowneyJr.png', 'Im_DanielRadcliffe.png', 'Im_LeonardoDiCaprio.png'],same,1,833.9396536000022,4,0,
RIIS2206,train,pos,fs,posfs_id13_im10.bmp_posfs_id20_im12.bmp,['Im_BradPitt.png', 'Im_PatrickDempsey.png', 'Im_RobertPattinson.png', 'Im_RyanGosling.png', 'Im_OrlandoBloom.png', 'Im_MattDamon.png', 'Im_DanielCraig.png', 'Im_RobertDowneyJr.png', 'Im_DanielRadcliffe.png', 'Im_LeonardoDiCaprio.png'],diff,1,837.6395441000022,5,0,
RIIS2206,train,pos,150,pos150_id13_im10.bmp_pos150_id13_im29.bmp,['Im_BradPitt.png', 'Im_PatrickDempsey.png', 'Im_RobertPattinson.png', 'Im_RyanGosling.png', 'Im_OrlandoBloom.png', 'Im_MattDamon.png', 'Im_DanielCraig.png', 'Im_RobertDowneyJr.png', 'Im_DanielRadcliffe.png', 'Im_LeonardoDiCaprio.png'],diff,0,841.8648367000023,5,0,
RIIS2206,train,pos,30,pos30_id5_im10.bmp_pos30_id18_im18.bmp,['Im_BradPitt.png', 'Im_PatrickDempsey.png', 'Im_RobertPattinson.png', 'Im_RyanGosling.png', 'Im_OrlandoBloom.png', 'Im_MattDamon.png', 'Im_DanielCraig.png', 'Im_RobertDowneyJr.png', 'Im_DanielRadcliffe.png', 'Im_LeonardoDiCaprio.png'],diff,1,845.5980339000016,6,0,
RIIS2206,train,pos,60,pos60_id19_im4.bmp_pos60_id19_im27.bmp,['Im_BradPitt.png', 'Im_PatrickDempsey.png', 'Im_RobertPattinson.png', 'Im_RyanGosling.png', 'Im_OrlandoBloom.png', 'Im_MattDamon.png', 'Im_DanielCraig.png', 'Im_RobertDowneyJr.png', 'Im_DanielRadcliffe.png', 'Im_LeonardoDiCaprio.png'],same,1,849.3814157000015,7,0,
RIIS2206,train,pos,0,pos0_id3_im8.bmp_pos0_id17_im8.bmp,['Im_BradPitt.png', 'Im_PatrickDempsey.png', 'Im_RobertPattinson.png', 'Im_RyanGosling.png', 'Im_OrlandoBloom.png', 'Im_MattDamon.png', 'Im_DanielCraig.png', 'Im_RobertDowneyJr.png', 'Im_DanielRadcliffe.png', 'Im_LeonardoDiCaprio.png'],same,0,853.397939800001,7,0,
RIIS2206,train,pos,90,pos90_id16_im19.bmp_pos90_id19_im27.bmp,['Im_BradPitt.png', 'Im_PatrickDempsey.png', 'Im_RobertPattinson.png', 'Im_RyanGosling.png', 'Im_OrlandoBloom.png', 'Im_MattDamon.png', 'Im_DanielCraig.png', 'Im_RobertDowneyJr.png', 'Im_DanielRadcliffe.png', 'Im_LeonardoDiCaprio.png'],diff,1,857.0481087000007,8,0,
RIIS2206,train,pos,fs,posfs_id17_im9.bmp_posfs_id17_im8.bmp,['Im_BradPitt.png', 'Im_PatrickDempsey.png', 'Im_RobertPattinson.png', 'Im_RyanGosling.png', 'Im_OrlandoBloom.png', 'Im_MattDamon.png', 'Im_DanielCraig.png', 'Im_RobertDowneyJr.png', 'Im_DanielRadcliffe.png', 'Im_LeonardoDiCaprio.png'],same,1,860.7814406000034,9,0,
RIIS2206,train,pos,150,pos150_id17_im9.bmp_pos150_id17_im14.bmp,['Im_BradPitt.png', 'Im_PatrickDempsey.png', 'Im_RobertPattinson.png', 'Im_RyanGosling.png', 'Im_OrlandoBloom.png', 'Im_MattDamon.png', 'Im_DanielCraig.png', 'Im_RobertDowneyJr.png', 'Im_DanielRadcliffe.png', 'Im_LeonardoDiCaprio.png'],same,1,864.5397764000008,10,0,
RIIS2206,train,pos,120,pos120_id16_im19.bmp_pos120_id19_im27.bmp,['Im_BradPitt.png', 'Im_PatrickDempsey.png', 'Im_RobertPattinson.png', 'Im_RyanGosling.png', 'Im_OrlandoBloom.png', 'Im_MattDamon.png', 'Im_DanielCraig.png', 'Im_RobertDowneyJr.png', 'Im_DanielRadcliffe.png', 'Im_LeonardoDiCaprio.png'],diff,1,868.364650800002,11,0,
RIIS2206,train,pos,120,pos120_id4_im7.bmp_pos120_id4_im20.bmp,['Im_BradPitt.png', 'Im_PatrickDempsey.png', 'Im_RobertPattinson.png', 'Im_RyanGosling.png', 'Im_OrlandoBloom.png', 'Im_MattDamon.png', 'Im_DanielCraig.png', 'Im_RobertDowneyJr.png', 'Im_DanielRadcliffe.png', 'Im_LeonardoDiCaprio.png'],same,1,872.4396564000017,12,0,
RIIS2206,train,pos,30,pos30_id13_im29.bmp_pos30_id13_im10.bmp,['Im_BradPitt.png', 'Im_PatrickDempsey.png', 'Im_RobertPattinson.png', 'Im_RyanGosling.png', 'Im_OrlandoBloom.png', 'Im_MattDamon.png', 'Im_DanielCraig.png', 'Im_RobertDowneyJr.png', 'Im_DanielRadcliffe.png', 'Im_LeonardoDiCaprio.png'],same,1,876.0147382000032,13,0,
RIIS2206,train,pos,120,pos120_id17_im9.bmp_pos120_id20_im3.bmp,['Im_BradPitt.png', 'Im_PatrickDempsey.png', 'Im_RobertPattinson.png', 'Im_RyanGosling.png', 'Im_OrlandoBloom.png', 'Im_MattDamon.png', 'Im_DanielCraig.png', 'Im_RobertDowneyJr.png', 'Im_DanielRadcliffe.png', 'Im_LeonardoDiCaprio.png'],diff,1,879.7980926000018,14,0,
RIIS2206,train,pos,60,pos60_id14_im24.bmp_pos60_id20_im12.bmp,['Im_BradPitt.png', 'Im_PatrickDempsey.png', 'Im_RobertPattinson.png', 'Im_RyanGosling.png', 'Im_OrlandoBloom.png', 'Im_MattDamon.png', 'Im_DanielCraig.png', 'Im_RobertDowneyJr.png', 'Im_DanielRadcliffe.png', 'Im_LeonardoDiCaprio.png'],diff,1,883.7064604000007,15,0,
RIIS2206,train,pos,fs,posfs_id16_im3.bmp_posfs_id5_im1.bmp,['Im_BradPitt.png', 'Im_PatrickDempsey.png', 'Im_RobertPattinson.png', 'Im_RyanGosling.png', 'Im_OrlandoBloom.png', 'Im_MattDamon.png', 'Im_DanielCraig.png', 'Im_RobertDowneyJr.png', 'Im_DanielRadcliffe.png', 'Im_LeonardoDiCaprio.png'],diff,1,887.3565180000005,16,0,
RIIS2206,train,pos,120,pos120_id20_im3.bmp_pos120_id13_im15.bmp,['Im_BradPitt.png', 'Im_PatrickDempsey.png', 'Im_RobertPattinson.png', 'Im_RyanGosling.png', 'Im_OrlandoBloom.png', 'Im_MattDamon.png', 'Im_DanielCraig.png', 'Im_RobertDowneyJr.png', 'Im_DanielRadcliffe.png', 'Im_LeonardoDiCaprio.png'],diff,1,891.0233827000011,17,0,
RIIS2206,train,pos,fs,posfs_id18_im18.bmp_posfs_id5_im20.bmp,['Im_BradPitt.png', 'Im_PatrickDempsey.png', 'Im_RobertPattinson.png', 'Im_RyanGosling.png', 'Im_OrlandoBloom.png', 'Im_MattDamon.png', 'Im_DanielCraig.png', 'Im_RobertDowneyJr.png', 'Im_DanielRadcliffe.png', 'Im_LeonardoDiCaprio.png'],diff,1,894.9564600000012,18,0,
RIIS2206,train,pos,150,pos150_id20_im30.bmp_pos150_id17_im14.bmp,['Im_BradPitt.png', 'Im_PatrickDempsey.png', 'Im_RobertPattinson.png', 'Im_RyanGosling.png', 'Im_OrlandoBloom.png', 'Im_MattDamon.png', 'Im_DanielCraig.png', 'Im_RobertDowneyJr.png', 'Im_DanielRadcliffe.png', 'Im_LeonardoDiCaprio.png'],diff,1,898.7812888000008,19,0,
RIIS2206,train,pos,30,pos30_id5_im20.bmp_pos30_id18_im18.bmp,['Im_BradPitt.png', 'Im_PatrickDempsey.png', 'Im_RobertPattinson.png', 'Im_RyanGosling.png', 'Im_OrlandoBloom.png', 'Im_MattDamon.png', 'Im_DanielCraig.png', 'Im_RobertDowneyJr.png', 'Im_DanielRadcliffe.png', 'Im_LeonardoDiCaprio.png'],diff,1,902.4314512000019,20,0,
RIIS2206,train,pos,150,pos150_id3_im6.bmp_pos150_id3_im17.bmp,['Im_BradPitt.png', 'Im_PatrickDempsey.png', 'Im_RobertPattinson.png', 'Im_RyanGosling.png', 'Im_OrlandoBloom.png', 'Im_MattDamon.png', 'Im_DanielCraig.png', 'Im_RobertDowneyJr.png', 'Im_DanielRadcliffe.png', 'Im_LeonardoDiCaprio.png'],diff,0,906.348163300001,20,0,
RIIS2206,train,pos,90,pos90_id4_im15.bmp_pos90_id4_im20.bmp,['Im_BradPitt.png', 'Im_PatrickDempsey.png', 'Im_RobertPattinson.png', 'Im_RyanGosling.png', 'Im_OrlandoBloom.png', 'Im_MattDamon.png', 'Im_DanielCraig.png', 'Im_RobertDowneyJr.png', 'Im_DanielRadcliffe.png', 'Im_LeonardoDiCaprio.png'],same,1,910.3398037000006,21,0,
RIIS2206,train,pos,90,pos90_id16_im2.bmp_pos90_id14_im16.bmp,['Im_BradPitt.png', 'Im_PatrickDempsey.png', 'Im_RobertPattinson.png', 'Im_RyanGosling.png', 'Im_OrlandoBloom.png', 'Im_MattDamon.png', 'Im_DanielCraig.png', 'Im_RobertDowneyJr.png', 'Im_DanielRadcliffe.png', 'Im_LeonardoDiCaprio.png'],diff,1,914.4648013000005,22,0,
RIIS2206,train,pos,0,pos0_id4_im7.bmp_pos0_id19_im4.bmp,['Im_BradPitt.png', 'Im_PatrickDempsey.png', 'Im_RobertPattinson.png', 'Im_RyanGosling.png', 'Im_OrlandoBloom.png', 'Im_MattDamon.png', 'Im_DanielCraig.png', 'Im_RobertDowneyJr.png', 'Im_DanielRadcliffe.png', 'Im_LeonardoDiCaprio.png'],diff,1,918.5565300000017,23,0,
RIIS2206,train,pos,0,pos0_id17_im9.bmp_pos0_id17_im8.bmp,['Im_BradPitt.png', 'Im_PatrickDempsey.png', 'Im_RobertPattinson.png', 'Im_RyanGosling.png', 'Im_OrlandoBloom.png', 'Im_MattDamon.png', 'Im_DanielCraig.png', 'Im_RobertDowneyJr.png', 'Im_DanielRadcliffe.png', 'Im_LeonardoDiCaprio.png'],diff,0,922.6482072000035,23,0,
RIIS2206,train,pos,60,pos60_id13_im10.bmp_pos60_id4_im15.bmp,['Im_BradPitt.png', 'Im_PatrickDempsey.png', 'Im_RobertPattinson.png', 'Im_RyanGosling.png', 'Im_OrlandoBloom.png', 'Im_MattDamon.png', 'Im_DanielCraig.png', 'Im_RobertDowneyJr.png', 'Im_DanielRadcliffe.png', 'Im_LeonardoDiCaprio.png'],diff,1,926.5482318000031,24,0,
RIIS2206,train,neg,60,neg60_id4_im15.bmp_neg60_id13_im10.bmp,['Im_BradPitt.png', 'Im_PatrickDempsey.png', 'Im_RobertPattinson.png', 'Im_RyanGosling.png', 'Im_OrlandoBloom.png', 'Im_MattDamon.png', 'Im_DanielCraig.png', 'Im_RobertDowneyJr.png', 'Im_DanielRadcliffe.png', 'Im_LeonardoDiCaprio.png'],diff,1,930.5149137000008,25,0,
RIIS2206,train,neg,fs,negfs_id20_im12.bmp_negfs_id20_im3.bmp,['Im_BradPitt.png', 'Im_PatrickDempsey.png', 'Im_RobertPattinson.png', 'Im_RyanGosling.png', 'Im_OrlandoBloom.png', 'Im_MattDamon.png', 'Im_DanielCraig.png', 'Im_RobertDowneyJr.png', 'Im_DanielRadcliffe.png', 'Im_LeonardoDiCaprio.png'],same,1,934.5482360000024,26,0,
RIIS2206,train,neg,60,neg60_id20_im12.bmp_neg60_id13_im10.bmp,['Im_BradPitt.png', 'Im_PatrickDempsey.png', 'Im_RobertPattinson.png', 'Im_RyanGosling.png', 'Im_OrlandoBloom.png', 'Im_MattDamon.png', 'Im_DanielCraig.png', 'Im_RobertDowneyJr.png', 'Im_DanielRadcliffe.png', 'Im_LeonardoDiCaprio.png'],diff,1,938.2898817000023,27,0,
RIIS2206,train,neg,120,neg120_id18_im11.bmp_neg120_id3_im17.bmp,['Im_BradPitt.png', 'Im_PatrickDempsey.png', 'Im_RobertPattinson.png', 'Im_RyanGosling.png', 'Im_OrlandoBloom.png', 'Im_MattDamon.png', 'Im_DanielCraig.png', 'Im_RobertDowneyJr.png', 'Im_DanielRadcliffe.png', 'Im_LeonardoDiCaprio.png'],diff,1,942.1731977000018,28,0,
RIIS2206,train,neg,90,neg90_id4_im15.bmp_neg90_id4_im20.bmp,['Im_BradPitt.png', 'Im_PatrickDempsey.png', 'Im_RobertPattinson.png', 'Im_RyanGosling.png', 'Im_OrlandoBloom.png', 'Im_MattDamon.png', 'Im_DanielCraig.png', 'Im_RobertDowneyJr.png', 'Im_DanielRadcliffe.png', 'Im_LeonardoDiCaprio.png'],same,1,945.9732153000004,29,0,
RIIS2206,train,neg,150,neg150_id3_im17.bmp_neg150_id3_im6.bmp,['Im_BradPitt.png', 'Im_PatrickDempsey.png', 'Im_RobertPattinson.png', 'Im_RyanGosling.png', 'Im_OrlandoBloom.png', 'Im_MattDamon.png', 'Im_DanielCraig.png', 'Im_RobertDowneyJr.png', 'Im_DanielRadcliffe.png', 'Im_LeonardoDiCaprio.png'],same,1,949.9648893000012,30,0,
RIIS2206,train,neg,30,neg30_id13_im10.bmp_neg30_id13_im15.bmp,['Im_BradPitt.png', 'Im_PatrickDempsey.png', 'Im_RobertPattinson.png', 'Im_RyanGosling.png', 'Im_OrlandoBloom.png', 'Im_MattDamon.png', 'Im_DanielCraig.png', 'Im_RobertDowneyJr.png', 'Im_DanielRadcliffe.png', 'Im_LeonardoDiCaprio.png'],same,1,954.3231907000009,31,0,
RIIS2206,train,neg,90,neg90_id5_im10.bmp_neg90_id18_im18.bmp,['Im_BradPitt.png', 'Im_PatrickDempsey.png', 'Im_RobertPattinson.png', 'Im_RyanGosling.png', 'Im_OrlandoBloom.png', 'Im_MattDamon.png', 'Im_DanielCraig.png', 'Im_RobertDowneyJr.png', 'Im_DanielRadcliffe.png', 'Im_LeonardoDiCaprio.png'],diff,1,958.3230844000027,32,0,
RIIS2206,train,neg,0,neg0_id4_im15.bmp_neg0_id4_im7.bmp,['Im_BradPitt.png', 'Im_PatrickDempsey.png', 'Im_RobertPattinson.png', 'Im_RyanGosling.png', 'Im_OrlandoBloom.png', 'Im_MattDamon.png', 'Im_DanielCraig.png', 'Im_RobertDowneyJr.png', 'Im_DanielRadcliffe.png', 'Im_LeonardoDiCaprio.png'],same,1,962.1232372000013,33,0,
RIIS2206,train,neg,150,neg150_id18_im11.bmp_neg150_id18_im19.bmp,['Im_BradPitt.png', 'Im_PatrickDempsey.png', 'Im_RobertPattinson.png', 'Im_RyanGosling.png', 'Im_OrlandoBloom.png', 'Im_MattDamon.png', 'Im_DanielCraig.png', 'Im_RobertDowneyJr.png', 'Im_DanielRadcliffe.png', 'Im_LeonardoDiCaprio.png'],same,1,965.9400483000027,34,0,
RIIS2206,train,neg,30,neg30_id16_im2.bmp_neg30_id4_im20.bmp,['Im_BradPitt.png', 'Im_PatrickDempsey.png', 'Im_RobertPattinson.png', 'Im_RyanGosling.png', 'Im_OrlandoBloom.png', 'Im_MattDamon.png', 'Im_DanielCraig.png', 'Im_RobertDowneyJr.png', 'Im_DanielRadcliffe.png', 'Im_LeonardoDiCaprio.png'],diff,1,969.9149626000035,35,0,
RIIS2206,train,neg,fs,negfs_id3_im8.bmp_negfs_id3_im17.bmp,['Im_BradPitt.png', 'Im_PatrickDempsey.png', 'Im_RobertPattinson.png', 'Im_RyanGosling.png', 'Im_OrlandoBloom.png', 'Im_MattDamon.png', 'Im_DanielCraig.png', 'Im_RobertDowneyJr.png', 'Im_DanielRadcliffe.png', 'Im_LeonardoDiCaprio.png'],same,1,973.9649621000026,36,0,
RIIS2206,train,neg,120,neg120_id17_im9.bmp_neg120_id17_im14.bmp,['Im_BradPitt.png', 'Im_PatrickDempsey.png', 'Im_RobertPattinson.png', 'Im_RyanGosling.png', 'Im_OrlandoBloom.png', 'Im_MattDamon.png', 'Im_DanielCraig.png', 'Im_RobertDowneyJr.png', 'Im_DanielRadcliffe.png', 'Im_LeonardoDiCaprio.png'],same,1,977.9982612000022,37,0,
RIIS2206,train,neg,0,neg0_id5_im20.bmp_neg0_id5_im1.bmp,['Im_BradPitt.png', 'Im_PatrickDempsey.png', 'Im_RobertPattinson.png', 'Im_RyanGosling.png', 'Im_OrlandoBloom.png', 'Im_MattDamon.png', 'Im_DanielCraig.png', 'Im_RobertDowneyJr.png', 'Im_DanielRadcliffe.png', 'Im_LeonardoDiCaprio.png'],same,1,982.0068625000022,38,0,
RIIS2206,train,inv,120,pos120_id16_im3.bmp_pos120_id16_im2.bmp,['Im_BradPitt.png', 'Im_PatrickDempsey.png', 'Im_RobertPattinson.png', 'Im_RyanGosling.png', 'Im_OrlandoBloom.png', 'Im_MattDamon.png', 'Im_DanielCraig.png', 'Im_RobertDowneyJr.png', 'Im_DanielRadcliffe.png', 'Im_LeonardoDiCaprio.png'],diff,0,988.7817435000034,0,90.47619047619048,
RIIS2206,train,inv,0,pos0_id5_im1.bmp_pos0_id5_im20.bmp,['Im_BradPitt.png', 'Im_PatrickDempsey.png', 'Im_RobertPattinson.png', 'Im_RyanGosling.png', 'Im_OrlandoBloom.png', 'Im_MattDamon.png', 'Im_DanielCraig.png', 'Im_RobertDowneyJr.png', 'Im_DanielRadcliffe.png', 'Im_LeonardoDiCaprio.png'],diff,0,992.731739400002,0,90.47619047619048,
RIIS2206,train,inv,120,pos120_id18_im11.bmp_pos120_id18_im18.bmp,['Im_BradPitt.png', 'Im_PatrickDempsey.png', 'Im_RobertPattinson.png', 'Im_RyanGosling.png', 'Im_OrlandoBloom.png', 'Im_MattDamon.png', 'Im_DanielCraig.png', 'Im_RobertDowneyJr.png', 'Im_DanielRadcliffe.png', 'Im_LeonardoDiCaprio.png'],diff,0,996.7232839000026,0,90.47619047619048,
RIIS2206,train,inv,fs,posfs_id4_im20.bmp_posfs_id4_im7.bmp,['Im_BradPitt.png', 'Im_PatrickDempsey.png', 'Im_RobertPattinson.png', 'Im_RyanGosling.png', 'Im_OrlandoBloom.png', 'Im_MattDamon.png', 'Im_DanielCraig.png', 'Im_RobertDowneyJr.png', 'Im_DanielRadcliffe.png', 'Im_LeonardoDiCaprio.png'],same,1,1000.6817354000013,1,90.47619047619048,
RIIS2206,train,inv,30,pos30_id19_im27.bmp_pos30_id19_im8.bmp,['Im_BradPitt.png', 'Im_PatrickDempsey.png', 'Im_RobertPattinson.png', 'Im_RyanGosling.png', 'Im_OrlandoBloom.png', 'Im_MattDamon.png', 'Im_DanielCraig.png', 'Im_RobertDowneyJr.png', 'Im_DanielRadcliffe.png', 'Im_LeonardoDiCaprio.png'],same,1,1004.2731761000032,2,90.47619047619048,
RIIS2206,train,inv,60,pos60_id3_im8.bmp_pos60_id17_im9.bmp,['Im_BradPitt.png', 'Im_PatrickDempsey.png', 'Im_RobertPattinson.png', 'Im_RyanGosling.png', 'Im_OrlandoBloom.png', 'Im_MattDamon.png', 'Im_DanielCraig.png', 'Im_RobertDowneyJr.png', 'Im_DanielRadcliffe.png', 'Im_LeonardoDiCaprio.png'],same,0,1008.1733478000024,2,90.47619047619048,
RIIS2206,train,inv,fs,posfs_id3_im6.bmp_posfs_id5_im1.bmp,['Im_BradPitt.png', 'Im_PatrickDempsey.png', 'Im_RobertPattinson.png', 'Im_RyanGosling.png', 'Im_OrlandoBloom.png', 'Im_MattDamon.png', 'Im_DanielCraig.png', 'Im_RobertDowneyJr.png', 'Im_DanielRadcliffe.png', 'Im_LeonardoDiCaprio.png'],diff,1,1012.0816922000013,3,90.47619047619048,
RIIS2206,train,inv,150,pos150_id19_im4.bmp_pos150_id19_im27.bmp,['Im_BradPitt.png', 'Im_PatrickDempsey.png', 'Im_RobertPattinson.png', 'Im_RyanGosling.png', 'Im_OrlandoBloom.png', 'Im_MattDamon.png', 'Im_DanielCraig.png', 'Im_RobertDowneyJr.png', 'Im_DanielRadcliffe.png', 'Im_LeonardoDiCaprio.png'],same,1,1016.2567174000033,4,90.47619047619048,
RIIS2206,train,inv,0,pos0_id3_im8.bmp_pos0_id3_im17.bmp,['Im_BradPitt.png', 'Im_PatrickDempsey.png', 'Im_RobertPattinson.png', 'Im_RyanGosling.png', 'Im_OrlandoBloom.png', 'Im_MattDamon.png', 'Im_DanielCraig.png', 'Im_RobertDowneyJr.png', 'Im_DanielRadcliffe.png', 'Im_LeonardoDiCaprio.png'],diff,0,1019.7900414000032,4,90.47619047619048,
RIIS2206,train,inv,30,pos30_id13_im15.bmp_pos30_id13_im10.bmp,['Im_BradPitt.png', 'Im_PatrickDempsey.png', 'Im_RobertPattinson.png', 'Im_RyanGosling.png', 'Im_OrlandoBloom.png', 'Im_MattDamon.png', 'Im_DanielCraig.png', 'Im_RobertDowneyJr.png', 'Im_DanielRadcliffe.png', 'Im_LeonardoDiCaprio.png'],diff,0,1023.7067319000016,4,90.47619047619048,
RIIS2206,train,inv,90,pos90_id13_im29.bmp_pos90_id13_im10.bmp,['Im_BradPitt.png', 'Im_PatrickDempsey.png', 'Im_RobertPattinson.png', 'Im_RyanGosling.png', 'Im_OrlandoBloom.png', 'Im_MattDamon.png', 'Im_DanielCraig.png', 'Im_RobertDowneyJr.png', 'Im_DanielRadcliffe.png', 'Im_LeonardoDiCaprio.png'],diff,0,1027.7817034,4,90.47619047619048,
RIIS2206,train,inv,60,pos60_id17_im14.bmp_pos60_id17_im9.bmp,['Im_BradPitt.png', 'Im_PatrickDempsey.png', 'Im_RobertPattinson.png', 'Im_RyanGosling.png', 'Im_OrlandoBloom.png', 'Im_MattDamon.png', 'Im_DanielCraig.png', 'Im_RobertDowneyJr.png', 'Im_DanielRadcliffe.png', 'Im_LeonardoDiCaprio.png'],same,1,1031.7068526000003,5,90.47619047619048,
RIIS2206,train,inv,150,pos150_id5_im20.bmp_pos150_id5_im1.bmp,['Im_BradPitt.png', 'Im_PatrickDempsey.png', 'Im_RobertPattinson.png', 'Im_RyanGosling.png', 'Im_OrlandoBloom.png', 'Im_MattDamon.png', 'Im_DanielCraig.png', 'Im_RobertDowneyJr.png', 'Im_DanielRadcliffe.png', 'Im_LeonardoDiCaprio.png'],diff,0,1035.3149378000016,5,90.47619047619048,
RIIS2206,train,inv,90,pos90_id18_im19.bmp_pos90_id18_im11.bmp,['Im_BradPitt.png', 'Im_PatrickDempsey.png', 'Im_RobertPattinson.png', 'Im_RyanGosling.png', 'Im_OrlandoBloom.png', 'Im_MattDamon.png', 'Im_DanielCraig.png', 'Im_RobertDowneyJr.png', 'Im_DanielRadcliffe.png', 'Im_LeonardoDiCaprio.png'],same,1,1039.048392800003,6,90.47619047619048,
RIIS2206,train,inv,0,pos0_id16_im3.bmp_pos0_id5_im1.bmp,['Im_BradPitt.png', 'Im_PatrickDempsey.png', 'Im_RobertPattinson.png', 'Im_RyanGosling.png', 'Im_OrlandoBloom.png', 'Im_MattDamon.png', 'Im_DanielCraig.png', 'Im_RobertDowneyJr.png', 'Im_DanielRadcliffe.png', 'Im_LeonardoDiCaprio.png'],diff,1,1043.1567090000026,7,90.47619047619048,
RIIS2206,train,inv,60,pos60_id19_im4.bmp_pos60_id4_im20.bmp,['Im_BradPitt.png', 'Im_PatrickDempsey.png', 'Im_RobertPattinson.png', 'Im_RyanGosling.png', 'Im_OrlandoBloom.png', 'Im_MattDamon.png', 'Im_DanielCraig.png', 'Im_RobertDowneyJr.png', 'Im_DanielRadcliffe.png', 'Im_LeonardoDiCaprio.png'],same,0,1046.9317085000002,7,90.47619047619048,
RIIS2206,train,inv,120,pos120_id17_im8.bmp_pos120_id17_im9.bmp,['Im_BradPitt.png', 'Im_PatrickDempsey.png', 'Im_RobertPattinson.png', 'Im_RyanGosling.png', 'Im_OrlandoBloom.png', 'Im_MattDamon.png', 'Im_DanielCraig.png', 'Im_RobertDowneyJr.png', 'Im_DanielRadcliffe.png', 'Im_LeonardoDiCaprio.png'],same,1,1051.198396300002,8,90.47619047619048,
RIIS2206,train,inv,fs,posfs_id4_im7.bmp_posfs_id19_im4.bmp,['Im_BradPitt.png', 'Im_PatrickDempsey.png', 'Im_RobertPattinson.png', 'Im_RyanGosling.png', 'Im_OrlandoBloom.png', 'Im_MattDamon.png', 'Im_DanielCraig.png', 'Im_RobertDowneyJr.png', 'Im_DanielRadcliffe.png', 'Im_LeonardoDiCaprio.png'],diff,1,1055.1483167000006,9,90.47619047619048,
RIIS2206,train,inv,60,pos60_id16_im2.bmp_pos60_id4_im20.bmp,['Im_BradPitt.png', 'Im_PatrickDempsey.png', 'Im_RobertPattinson.png', 'Im_RyanGosling.png', 'Im_OrlandoBloom.png', 'Im_MattDamon.png', 'Im_DanielCraig.png', 'Im_RobertDowneyJr.png', 'Im_DanielRadcliffe.png', 'Im_LeonardoDiCaprio.png'],diff,1,1058.7734243000014,10,90.47619047619048,
RIIS2206,train,inv,30,pos30_id3_im17.bmp_pos30_id4_im15.bmp,['Im_BradPitt.png', 'Im_PatrickDempsey.png', 'Im_RobertPattinson.png', 'Im_RyanGosling.png', 'Im_OrlandoBloom.png', 'Im_MattDamon.png', 'Im_DanielCraig.png', 'Im_RobertDowneyJr.png', 'Im_DanielRadcliffe.png', 'Im_LeonardoDiCaprio.png'],diff,1,1062.531805300001,11,90.47619047619048,
RIIS2206,train,inv,0,pos0_id19_im8.bmp_pos0_id3_im6.bmp,['Im_BradPitt.png', 'Im_PatrickDempsey.png', 'Im_RobertPattinson.png', 'Im_RyanGosling.png', 'Im_OrlandoBloom.png', 'Im_MattDamon.png', 'Im_DanielCraig.png', 'Im_RobertDowneyJr.png', 'Im_DanielRadcliffe.png', 'Im_LeonardoDiCaprio.png'],same,0,1066.6484038000017,11,90.47619047619048,
RIIS2206,train,inv,120,pos120_id14_im24.bmp_pos120_id14_im16.bmp,['Im_BradPitt.png', 'Im_PatrickDempsey.png', 'Im_RobertPattinson.png', 'Im_RyanGosling.png', 'Im_OrlandoBloom.png', 'Im_MattDamon.png', 'Im_DanielCraig.png', 'Im_RobertDowneyJr.png', 'Im_DanielRadcliffe.png', 'Im_LeonardoDiCaprio.png'],diff,0,1070.9569411000011,11,90.47619047619048,
RIIS2206,train,inv,90,pos90_id20_im3.bmp_pos90_id17_im9.bmp,['Im_BradPitt.png', 'Im_PatrickDempsey.png', 'Im_RobertPattinson.png', 'Im_RyanGosling.png', 'Im_OrlandoBloom.png', 'Im_MattDamon.png', 'Im_DanielCraig.png', 'Im_RobertDowneyJr.png', 'Im_DanielRadcliffe.png', 'Im_LeonardoDiCaprio.png'],diff,1,1075.0732751000032,12,90.47619047619048,
RIIS2206,train,inv,30,pos30_id20_im3.bmp_pos30_id20_im12.bmp,['Im_BradPitt.png', 'Im_PatrickDempsey.png', 'Im_RobertPattinson.png', 'Im_RyanGosling.png', 'Im_OrlandoBloom.png', 'Im_MattDamon.png', 'Im_DanielCraig.png', 'Im_RobertDowneyJr.png', 'Im_DanielRadcliffe.png', 'Im_LeonardoDiCaprio.png'],same,1,1078.8903121000003,13,90.47619047619048,
RIIS2206,train,inv,fs,posfs_id4_im7.bmp_posfs_id16_im19.bmp,['Im_BradPitt.png', 'Im_PatrickDempsey.png', 'Im_RobertPattinson.png', 'Im_RyanGosling.png', 'Im_OrlandoBloom.png', 'Im_MattDamon.png', 'Im_DanielCraig.png', 'Im_RobertDowneyJr.png', 'Im_DanielRadcliffe.png', 'Im_LeonardoDiCaprio.png'],diff,1,1082.5901515000005,14,90.47619047619048,
RIIS2206,train,inv,90,pos90_id20_im30.bmp_pos90_id5_im20.bmp,['Im_BradPitt.png', 'Im_PatrickDempsey.png', 'Im_RobertPattinson.png', 'Im_RyanGosling.png', 'Im_OrlandoBloom.png', 'Im_MattDamon.png', 'Im_DanielCraig.png', 'Im_RobertDowneyJr.png', 'Im_DanielRadcliffe.png', 'Im_LeonardoDiCaprio.png'],diff,1,1087.1066702000026,15,90.47619047619048,
RIIS2206,train,inv,150,pos150_id3_im17.bmp_pos150_id18_im11.bmp,['Im_BradPitt.png', 'Im_PatrickDempsey.png', 'Im_RobertPattinson.png', 'Im_RyanGosling.png', 'Im_OrlandoBloom.png', 'Im_MattDamon.png', 'Im_DanielCraig.png', 'Im_RobertDowneyJr.png', 'Im_DanielRadcliffe.png', 'Im_LeonardoDiCaprio.png'],diff,1,1091.4400976000034,16,90.47619047619048,
RIIS2206,train,inv,150,pos150_id16_im19.bmp_pos150_id4_im7.bmp,['Im_BradPitt.png', 'Im_PatrickDempsey.png', 'Im_RobertPattinson.png', 'Im_RyanGosling.png', 'Im_OrlandoBloom.png', 'Im_MattDamon.png', 'Im_DanielCraig.png', 'Im_RobertDowneyJr.png', 'Im_DanielRadcliffe.png', 'Im_LeonardoDiCaprio.png'],diff,1,1095.406702700002,17,90.47619047619048,
RIIS2206,train,pos,60,pos60_id18_im18.bmp_pos60_id5_im10.bmp,['Im_BradPitt.png', 'Im_PatrickDempsey.png', 'Im_RobertPattinson.png', 'Im_RyanGosling.png', 'Im_OrlandoBloom.png', 'Im_MattDamon.png', 'Im_DanielCraig.png', 'Im_RobertDowneyJr.png', 'Im_DanielRadcliffe.png', 'Im_LeonardoDiCaprio.png'],diff,1,1099.6153234000012,18,90.47619047619048,
RIIS2206,train,pos,150,pos150_id14_im16.bmp_pos150_id18_im19.bmp,['Im_BradPitt.png', 'Im_PatrickDempsey.png', 'Im_RobertPattinson.png', 'Im_RyanGosling.png', 'Im_OrlandoBloom.png', 'Im_MattDamon.png', 'Im_DanielCraig.png', 'Im_RobertDowneyJr.png', 'Im_DanielRadcliffe.png', 'Im_LeonardoDiCaprio.png'],diff,1,1103.5067219000011,19,90.47619047619048,
RIIS2206,train,pos,120,pos120_id14_im16.bmp_pos120_id16_im2.bmp,['Im_BradPitt.png', 'Im_PatrickDempsey.png', 'Im_RobertPattinson.png', 'Im_RyanGosling.png', 'Im_OrlandoBloom.png', 'Im_MattDamon.png', 'Im_DanielCraig.png', 'Im_RobertDowneyJr.png', 'Im_DanielRadcliffe.png', 'Im_LeonardoDiCaprio.png'],diff,1,1107.4152012000013,20,90.47619047619048,
RIIS2206,train,pos,0,pos0_id17_im14.bmp_pos0_id17_im9.bmp,['Im_BradPitt.png', 'Im_PatrickDempsey.png', 'Im_RobertPattinson.png', 'Im_RyanGosling.png', 'Im_OrlandoBloom.png', 'Im_MattDamon.png', 'Im_DanielCraig.png', 'Im_RobertDowneyJr.png', 'Im_DanielRadcliffe.png', 'Im_LeonardoDiCaprio.png'],same,1,1111.5651459,21,90.47619047619048,
RIIS2206,train,pos,60,pos60_id5_im10.bmp_pos60_id19_im27.bmp,['Im_BradPitt.png', 'Im_PatrickDempsey.png', 'Im_RobertPattinson.png', 'Im_RyanGosling.png', 'Im_OrlandoBloom.png', 'Im_MattDamon.png', 'Im_DanielCraig.png', 'Im_RobertDowneyJr.png', 'Im_DanielRadcliffe.png', 'Im_LeonardoDiCaprio.png'],diff,1,1115.6985200000017,22,90.47619047619048,
RIIS2206,train,pos,120,pos120_id5_im1.bmp_pos120_id3_im6.bmp,['Im_BradPitt.png', 'Im_PatrickDempsey.png', 'Im_RobertPattinson.png', 'Im_RyanGosling.png', 'Im_OrlandoBloom.png', 'Im_MattDamon.png', 'Im_DanielCraig.png', 'Im_RobertDowneyJr.png', 'Im_DanielRadcliffe.png', 'Im_LeonardoDiCaprio.png'],diff,1,1119.7150261000024,23,90.47619047619048,
RIIS2206,train,pos,90,pos90_id16_im3.bmp_pos90_id16_im2.bmp,['Im_BradPitt.png', 'Im_PatrickDempsey.png', 'Im_RobertPattinson.png', 'Im_RyanGosling.png', 'Im_OrlandoBloom.png', 'Im_MattDamon.png', 'Im_DanielCraig.png', 'Im_RobertDowneyJr.png', 'Im_DanielRadcliffe.png', 'Im_LeonardoDiCaprio.png'],same,1,1123.506909300002,24,90.47619047619048,
RIIS2206,train,pos,fs,posfs_id13_im10.bmp_posfs_id13_im29.bmp,['Im_BradPitt.png', 'Im_PatrickDempsey.png', 'Im_RobertPattinson.png', 'Im_RyanGosling.png', 'Im_OrlandoBloom.png', 'Im_MattDamon.png', 'Im_DanielCraig.png', 'Im_RobertDowneyJr.png', 'Im_DanielRadcliffe.png', 'Im_LeonardoDiCaprio.png'],same,1,1127.5818922000035,25,90.47619047619048,
RIIS2206,train,pos,90,pos90_id17_im9.bmp_pos90_id17_im14.bmp,['Im_BradPitt.png', 'Im_PatrickDempsey.png', 'Im_RobertPattinson.png', 'Im_RyanGosling.png', 'Im_OrlandoBloom.png', 'Im_MattDamon.png', 'Im_DanielCraig.png', 'Im_RobertDowneyJr.png', 'Im_DanielRadcliffe.png', 'Im_LeonardoDiCaprio.png'],same,1,1131.1985731000022,26,90.47619047619048,
RIIS2206,train,pos,150,pos150_id20_im3.bmp_pos150_id17_im9.bmp,['Im_BradPitt.png', 'Im_PatrickDempsey.png', 'Im_RobertPattinson.png', 'Im_RyanGosling.png', 'Im_OrlandoBloom.png', 'Im_MattDamon.png', 'Im_DanielCraig.png', 'Im_RobertDowneyJr.png', 'Im_DanielRadcliffe.png', 'Im_LeonardoDiCaprio.png'],diff,1,1134.8152291000006,27,90.47619047619048,
RIIS2206,train,pos,30,pos30_id20_im12.bmp_pos30_id20_im30.bmp,['Im_BradPitt.png', 'Im_PatrickDempsey.png', 'Im_RobertPattinson.png', 'Im_RyanGosling.png', 'Im_OrlandoBloom.png', 'Im_MattDamon.png', 'Im_DanielCraig.png', 'Im_RobertDowneyJr.png', 'Im_DanielRadcliffe.png', 'Im_LeonardoDiCaprio.png'],same,1,1138.698449800002,28,90.47619047619048,
RIIS2206,train,pos,fs,posfs_id14_im18.bmp_posfs_id17_im14.bmp,['Im_BradPitt.png', 'Im_PatrickDempsey.png', 'Im_RobertPattinson.png', 'Im_RyanGosling.png', 'Im_OrlandoBloom.png', 'Im_MattDamon.png', 'Im_DanielCraig.png', 'Im_RobertDowneyJr.png', 'Im_DanielRadcliffe.png', 'Im_LeonardoDiCaprio.png'],diff,1,1142.2902140000006,29,90.47619047619048,
RIIS2206,train,pos,30,pos30_id20_im12.bmp_pos30_id14_im24.bmp,['Im_BradPitt.png', 'Im_PatrickDempsey.png', 'Im_RobertPattinson.png', 'Im_RyanGosling.png', 'Im_OrlandoBloom.png', 'Im_MattDamon.png', 'Im_DanielCraig.png', 'Im_RobertDowneyJr.png', 'Im_DanielRadcliffe.png', 'Im_LeonardoDiCaprio.png'],diff,1,1146.0320999000032,30,90.47619047619048,
RIIS2206,train,pos,0,pos0_id14_im18.bmp_pos0_id14_im16.bmp,['Im_BradPitt.png', 'Im_PatrickDempsey.png', 'Im_RobertPattinson.png', 'Im_RyanGosling.png', 'Im_OrlandoBloom.png', 'Im_MattDamon.png', 'Im_DanielCraig.png', 'Im_RobertDowneyJr.png', 'Im_DanielRadcliffe.png', 'Im_LeonardoDiCaprio.png'],diff,0,1150.131946900001,30,90.47619047619048,
RIIS2206,train,neg,120,neg120_id14_im18.bmp_neg120_id18_im11.bmp,['Im_BradPitt.png', 'Im_PatrickDempsey.png', 'Im_RobertPattinson.png', 'Im_RyanGosling.png', 'Im_OrlandoBloom.png', 'Im_MattDamon.png', 'Im_DanielCraig.png', 'Im_RobertDowneyJr.png', 'Im_DanielRadcliffe.png', 'Im_LeonardoDiCaprio.png'],diff,1,1158.298595700002,1,71.42857142857143,
RIIS2206,train,neg,0,neg0_id3_im17.bmp_neg0_id4_im15.bmp,['Im_BradPitt.png', 'Im_PatrickDempsey.png', 'Im_RobertPattinson.png', 'Im_RyanGosling.png', 'Im_OrlandoBloom.png', 'Im_MattDamon.png', 'Im_DanielCraig.png', 'Im_RobertDowneyJr.png', 'Im_DanielRadcliffe.png', 'Im_LeonardoDiCaprio.png'],diff,1,1162.298595700002,2,71.42857142857143,
RIIS2206,train,neg,30,neg30_id19_im27.bmp_neg30_id16_im19.bmp,['Im_BradPitt.png', 'Im_PatrickDempsey.png', 'Im_RobertPattinson.png', 'Im_RyanGosling.png', 'Im_OrlandoBloom.png', 'Im_MattDamon.png', 'Im_DanielCraig.png', 'Im_RobertDowneyJr.png', 'Im_DanielRadcliffe.png', 'Im_LeonardoDiCaprio.png'],diff,1,1166.2153132000021,3,71.42857142857143,
RIIS2206,train,neg,90,neg90_id18_im19.bmp_neg90_id18_im18.bmp,['Im_BradPitt.png', 'Im_PatrickDempsey.png', 'Im_RobertPattinson.png', 'Im_RyanGosling.png', 'Im_OrlandoBloom.png', 'Im_MattDamon.png', 'Im_DanielCraig.png', 'Im_RobertDowneyJr.png', 'Im_DanielRadcliffe.png', 'Im_LeonardoDiCaprio.png'],same,1,1170.0902757000003,4,71.42857142857143,
RIIS2206,train,neg,150,neg150_id4_im7.bmp_neg150_id19_im4.bmp,['Im_BradPitt.png', 'Im_PatrickDempsey.png', 'Im_RobertPattinson.png', 'Im_RyanGosling.png', 'Im_OrlandoBloom.png', 'Im_MattDamon.png', 'Im_DanielCraig.png', 'Im_RobertDowneyJr.png', 'Im_DanielRadcliffe.png', 'Im_LeonardoDiCaprio.png'],diff,1,1173.9569219000005,5,71.42857142857143,
RIIS2206,train,neg,60,neg60_id20_im3.bmp_neg60_id20_im12.bmp,['Im_BradPitt.png', 'Im_PatrickDempsey.png', 'Im_RobertPattinson.png', 'Im_RyanGosling.png', 'Im_OrlandoBloom.png', 'Im_MattDamon.png', 'Im_DanielCraig.png', 'Im_RobertDowneyJr.png', 'Im_DanielRadcliffe.png', 'Im_LeonardoDiCaprio.png'],same,1,1177.6652595000014,6,71.42857142857143,
RIIS2206,train,neg,120,neg120_id14_im16.bmp_neg120_id14_im18.bmp,['Im_BradPitt.png', 'Im_PatrickDempsey.png', 'Im_RobertPattinson.png', 'Im_RyanGosling.png', 'Im_OrlandoBloom.png', 'Im_MattDamon.png', 'Im_DanielCraig.png', 'Im_RobertDowneyJr.png', 'Im_DanielRadcliffe.png', 'Im_LeonardoDiCaprio.png'],same,1,1181.6736726000017,7,71.42857142857143,
RIIS2206,train,neg,60,neg60_id4_im7.bmp_neg60_id16_im19.bmp,['Im_BradPitt.png', 'Im_PatrickDempsey.png', 'Im_RobertPattinson.png', 'Im_RyanGosling.png', 'Im_OrlandoBloom.png', 'Im_MattDamon.png', 'Im_DanielCraig.png', 'Im_RobertDowneyJr.png', 'Im_DanielRadcliffe.png', 'Im_LeonardoDiCaprio.png'],diff,1,1185.5152761000027,8,71.42857142857143,
RIIS2206,train,neg,150,neg150_id19_im27.bmp_neg150_id5_im10.bmp,['Im_BradPitt.png', 'Im_PatrickDempsey.png', 'Im_RobertPattinson.png', 'Im_RyanGosling.png', 'Im_OrlandoBloom.png', 'Im_MattDamon.png', 'Im_DanielCraig.png', 'Im_RobertDowneyJr.png', 'Im_DanielRadcliffe.png', 'Im_LeonardoDiCaprio.png'],diff,1,1189.6654547000035,9,71.42857142857143,
RIIS2206,train,neg,30,neg30_id14_im24.bmp_neg30_id20_im12.bmp,['Im_BradPitt.png', 'Im_PatrickDempsey.png', 'Im_RobertPattinson.png', 'Im_RyanGosling.png', 'Im_OrlandoBloom.png', 'Im_MattDamon.png', 'Im_DanielCraig.png', 'Im_RobertDowneyJr.png', 'Im_DanielRadcliffe.png', 'Im_LeonardoDiCaprio.png'],diff,1,1193.515294300003,10,71.42857142857143,
RIIS2206,train,neg,0,neg0_id17_im8.bmp_neg0_id17_im9.bmp,['Im_BradPitt.png', 'Im_PatrickDempsey.png', 'Im_RobertPattinson.png', 'Im_RyanGosling.png', 'Im_OrlandoBloom.png', 'Im_MattDamon.png', 'Im_DanielCraig.png', 'Im_RobertDowneyJr.png', 'Im_DanielRadcliffe.png', 'Im_LeonardoDiCaprio.png'],same,1,1197.1569935000007,11,71.42857142857143,
RIIS2206,train,neg,90,neg90_id13_im29.bmp_neg90_id14_im24.bmp,['Im_BradPitt.png', 'Im_PatrickDempsey.png', 'Im_RobertPattinson.png', 'Im_RyanGosling.png', 'Im_OrlandoBloom.png', 'Im_MattDamon.png', 'Im_DanielCraig.png', 'Im_RobertDowneyJr.png', 'Im_DanielRadcliffe.png', 'Im_LeonardoDiCaprio.png'],same,0,1200.7653108000013,11,71.42857142857143,
RIIS2206,train,neg,fs,negfs_id16_im2.bmp_negfs_id16_im19.bmp,['Im_BradPitt.png', 'Im_PatrickDempsey.png', 'Im_RobertPattinson.png', 'Im_RyanGosling.png', 'Im_OrlandoBloom.png', 'Im_MattDamon.png', 'Im_DanielCraig.png', 'Im_RobertDowneyJr.png', 'Im_DanielRadcliffe.png', 'Im_LeonardoDiCaprio.png'],same,1,1204.506986100001,12,71.42857142857143,
RIIS2206,train,neg,fs,negfs_id3_im8.bmp_negfs_id17_im8.bmp,['Im_BradPitt.png', 'Im_PatrickDempsey.png', 'Im_RobertPattinson.png', 'Im_RyanGosling.png', 'Im_OrlandoBloom.png', 'Im_MattDamon.png', 'Im_DanielCraig.png', 'Im_RobertDowneyJr.png', 'Im_DanielRadcliffe.png', 'Im_LeonardoDiCaprio.png'],diff,1,1208.1820005000009,13,71.42857142857143,
RIIS2206,train,inv,150,pos150_id13_im29.bmp_pos150_id13_im10.bmp,['Im_BradPitt.png', 'Im_PatrickDempsey.png', 'Im_RobertPattinson.png', 'Im_RyanGosling.png', 'Im_OrlandoBloom.png', 'Im_MattDamon.png', 'Im_DanielCraig.png', 'Im_RobertDowneyJr.png', 'Im_DanielRadcliffe.png', 'Im_LeonardoDiCaprio.png'],diff,0,1212.3402384,13,71.42857142857143,
RIIS2206,train,inv,60,pos60_id4_im20.bmp_pos60_id4_im7.bmp,['Im_BradPitt.png', 'Im_PatrickDempsey.png', 'Im_RobertPattinson.png', 'Im_RyanGosling.png', 'Im_OrlandoBloom.png', 'Im_MattDamon.png', 'Im_DanielCraig.png', 'Im_RobertDowneyJr.png', 'Im_DanielRadcliffe.png', 'Im_LeonardoDiCaprio.png'],same,1,1216.523537000001,14,71.42857142857143,
RIIS2206,train,inv,90,pos90_id3_im17.bmp_pos90_id3_im8.bmp,['Im_BradPitt.png', 'Im_PatrickDempsey.png', 'Im_RobertPattinson.png', 'Im_RyanGosling.png', 'Im_OrlandoBloom.png', 'Im_MattDamon.png', 'Im_DanielCraig.png', 'Im_RobertDowneyJr.png', 'Im_DanielRadcliffe.png', 'Im_LeonardoDiCaprio.png'],diff,0,1220.6321848000007,14,71.42857142857143,
RIIS2206,train,inv,30,pos30_id20_im3.bmp_pos30_id17_im9.bmp,['Im_BradPitt.png', 'Im_PatrickDempsey.png', 'Im_RobertPattinson.png', 'Im_RyanGosling.png', 'Im_OrlandoBloom.png', 'Im_MattDamon.png', 'Im_DanielCraig.png', 'Im_RobertDowneyJr.png', 'Im_DanielRadcliffe.png', 'Im_LeonardoDiCaprio.png'],same,0,1224.1903557000005,14,71.42857142857143,
RIIS2206,train,inv,150,pos150_id16_im19.bmp_pos150_id19_im27.bmp,['Im_BradPitt.png', 'Im_PatrickDempsey.png', 'Im_RobertPattinson.png', 'Im_RyanGosling.png', 'Im_OrlandoBloom.png', 'Im_MattDamon.png', 'Im_DanielCraig.png', 'Im_RobertDowneyJr.png', 'Im_DanielRadcliffe.png', 'Im_LeonardoDiCaprio.png'],diff,1,1228.3569331000035,15,71.42857142857143,
RIIS2206,train,inv,fs,posfs_id5_im10.bmp_posfs_id19_im27.bmp,['Im_BradPitt.png', 'Im_PatrickDempsey.png', 'Im_RobertPattinson.png', 'Im_RyanGosling.png', 'Im_OrlandoBloom.png', 'Im_MattDamon.png', 'Im_DanielCraig.png', 'Im_RobertDowneyJr.png', 'Im_DanielRadcliffe.png', 'Im_LeonardoDiCaprio.png'],diff,1,1232.473668300001,16,71.42857142857143,
RIIS2206,train,inv,90,pos90_id4_im15.bmp_pos90_id4_im7.bmp,['Im_BradPitt.png', 'Im_PatrickDempsey.png', 'Im_RobertPattinson.png', 'Im_RyanGosling.png', 'Im_OrlandoBloom.png', 'Im_MattDamon.png', 'Im_DanielCraig.png', 'Im_RobertDowneyJr.png', 'Im_DanielRadcliffe.png', 'Im_LeonardoDiCaprio.png'],same,1,1236.3403860000035,17,71.42857142857143,
RIIS2206,train,inv,60,pos60_id17_im9.bmp_pos60_id20_im3.bmp,['Im_BradPitt.png', 'Im_PatrickDempsey.png', 'Im_RobertPattinson.png', 'Im_RyanGosling.png', 'Im_OrlandoBloom.png', 'Im_MattDamon.png', 'Im_DanielCraig.png', 'Im_RobertDowneyJr.png', 'Im_DanielRadcliffe.png', 'Im_LeonardoDiCaprio.png'],same,0,1240.4987432000016,17,71.42857142857143,
RIIS2206,train,inv,fs,posfs_id3_im17.bmp_posfs_id3_im6.bmp,['Im_BradPitt.png', 'Im_PatrickDempsey.png', 'Im_RobertPattinson.png', 'Im_RyanGosling.png', 'Im_OrlandoBloom.png', 'Im_MattDamon.png', 'Im_DanielCraig.png', 'Im_RobertDowneyJr.png', 'Im_DanielRadcliffe.png', 'Im_LeonardoDiCaprio.png'],same,1,1244.3987328000003,18,71.42857142857143,
RIIS2206,train,inv,0,pos0_id16_im2.bmp_pos0_id14_im16.bmp,['Im_BradPitt.png', 'Im_PatrickDempsey.png', 'Im_RobertPattinson.png', 'Im_RyanGosling.png', 'Im_OrlandoBloom.png', 'Im_MattDamon.png', 'Im_DanielCraig.png', 'Im_RobertDowneyJr.png', 'Im_DanielRadcliffe.png', 'Im_LeonardoDiCaprio.png'],diff,1,1248.3822329000031,19,71.42857142857143,
RIIS2206,train,inv,120,pos120_id3_im8.bmp_pos120_id17_im8.bmp,['Im_BradPitt.png', 'Im_PatrickDempsey.png', 'Im_RobertPattinson.png', 'Im_RyanGosling.png', 'Im_OrlandoBloom.png', 'Im_MattDamon.png', 'Im_DanielCraig.png', 'Im_RobertDowneyJr.png', 'Im_DanielRadcliffe.png', 'Im_LeonardoDiCaprio.png'],same,0,1252.523502400003,19,71.42857142857143,
RIIS2206,train,inv,0,pos0_id14_im24.bmp_pos0_id20_im12.bmp,['Im_BradPitt.png', 'Im_PatrickDempsey.png', 'Im_RobertPattinson.png', 'Im_RyanGosling.png', 'Im_OrlandoBloom.png', 'Im_MattDamon.png', 'Im_DanielCraig.png', 'Im_RobertDowneyJr.png', 'Im_DanielRadcliffe.png', 'Im_LeonardoDiCaprio.png'],same,0,1256.4820646000007,19,71.42857142857143,
RIIS2206,train,inv,30,pos30_id20_im12.bmp_pos30_id13_im10.bmp,['Im_BradPitt.png', 'Im_PatrickDempsey.png', 'Im_RobertPattinson.png', 'Im_RyanGosling.png', 'Im_OrlandoBloom.png', 'Im_MattDamon.png', 'Im_DanielCraig.png', 'Im_RobertDowneyJr.png', 'Im_DanielRadcliffe.png', 'Im_LeonardoDiCaprio.png'],diff,1,1260.3321045000012,20,71.42857142857143,
RIIS2206,train,inv,120,pos120_id14_im18.bmp_pos120_id14_im24.bmp,['Im_BradPitt.png', 'Im_PatrickDempsey.png', 'Im_RobertPattinson.png', 'Im_RyanGosling.png', 'Im_OrlandoBloom.png', 'Im_MattDamon.png', 'Im_DanielCraig.png', 'Im_RobertDowneyJr.png', 'Im_DanielRadcliffe.png', 'Im_LeonardoDiCaprio.png'],same,1,1264.2738863000013,21,71.42857142857143,
RIIS2206,train,neg,150,neg150_id20_im3.bmp_neg150_id20_im12.bmp,['Im_BradPitt.png', 'Im_PatrickDempsey.png', 'Im_RobertPattinson.png', 'Im_RyanGosling.png', 'Im_OrlandoBloom.png', 'Im_MattDamon.png', 'Im_DanielCraig.png', 'Im_RobertDowneyJr.png', 'Im_DanielRadcliffe.png', 'Im_LeonardoDiCaprio.png'],same,1,1268.1237623000015,22,71.42857142857143,
RIIS2206,train,neg,60,neg60_id14_im18.bmp_neg60_id14_im16.bmp,['Im_BradPitt.png', 'Im_PatrickDempsey.png', 'Im_RobertPattinson.png', 'Im_RyanGosling.png', 'Im_OrlandoBloom.png', 'Im_MattDamon.png', 'Im_DanielCraig.png', 'Im_RobertDowneyJr.png', 'Im_DanielRadcliffe.png', 'Im_LeonardoDiCaprio.png'],same,1,1271.8154560000003,23,71.42857142857143,
RIIS2206,train,neg,30,neg30_id3_im8.bmp_neg30_id17_im8.bmp,['Im_BradPitt.png', 'Im_PatrickDempsey.png', 'Im_RobertPattinson.png', 'Im_RyanGosling.png', 'Im_OrlandoBloom.png', 'Im_MattDamon.png', 'Im_DanielCraig.png', 'Im_RobertDowneyJr.png', 'Im_DanielRadcliffe.png', 'Im_LeonardoDiCaprio.png'],same,0,1275.5321067000004,23,71.42857142857143,
RIIS2206,train,neg,90,neg90_id17_im9.bmp_neg90_id20_im3.bmp,['Im_BradPitt.png', 'Im_PatrickDempsey.png', 'Im_RobertPattinson.png', 'Im_RyanGosling.png', 'Im_OrlandoBloom.png', 'Im_MattDamon.png', 'Im_DanielCraig.png', 'Im_RobertDowneyJr.png', 'Im_DanielRadcliffe.png', 'Im_LeonardoDiCaprio.png'],diff,1,1279.3571087000018,24,71.42857142857143,
RIIS2206,train,neg,90,neg90_id14_im18.bmp_neg90_id14_im16.bmp,['Im_BradPitt.png', 'Im_PatrickDempsey.png', 'Im_RobertPattinson.png', 'Im_RyanGosling.png', 'Im_OrlandoBloom.png', 'Im_MattDamon.png', 'Im_DanielCraig.png', 'Im_RobertDowneyJr.png', 'Im_DanielRadcliffe.png', 'Im_LeonardoDiCaprio.png'],same,1,1283.4154966000024,25,71.42857142857143,
RIIS2206,train,neg,120,neg120_id19_im8.bmp_neg120_id19_im4.bmp,['Im_BradPitt.png', 'Im_PatrickDempsey.png', 'Im_RobertPattinson.png', 'Im_RyanGosling.png', 'Im_OrlandoBloom.png', 'Im_MattDamon.png', 'Im_DanielCraig.png', 'Im_RobertDowneyJr.png', 'Im_DanielRadcliffe.png', 'Im_LeonardoDiCaprio.png'],same,1,1287.157180600003,26,71.42857142857143,
RIIS2206,train,neg,30,neg30_id5_im20.bmp_neg30_id18_im18.bmp,['Im_BradPitt.png', 'Im_PatrickDempsey.png', 'Im_RobertPattinson.png', 'Im_RyanGosling.png', 'Im_OrlandoBloom.png', 'Im_MattDamon.png', 'Im_DanielCraig.png', 'Im_RobertDowneyJr.png', 'Im_DanielRadcliffe.png', 'Im_LeonardoDiCaprio.png'],diff,1,1291.3155136000023,27,71.42857142857143,
RIIS2206,train,neg,fs,negfs_id4_im7.bmp_negfs_id19_im4.bmp,['Im_BradPitt.png', 'Im_PatrickDempsey.png', 'Im_RobertPattinson.png', 'Im_RyanGosling.png', 'Im_OrlandoBloom.png', 'Im_MattDamon.png', 'Im_DanielCraig.png', 'Im_RobertDowneyJr.png', 'Im_DanielRadcliffe.png', 'Im_LeonardoDiCaprio.png'],diff,1,1295.4154519000003,28,71.42857142857143,
RIIS2206,train,neg,fs,negfs_id14_im24.bmp_negfs_id14_im18.bmp,['Im_BradPitt.png', 'Im_PatrickDempsey.png', 'Im_RobertPattinson.png', 'Im_RyanGosling.png', 'Im_OrlandoBloom.png', 'Im_MattDamon.png', 'Im_DanielCraig.png', 'Im_RobertDowneyJr.png', 'Im_DanielRadcliffe.png', 'Im_LeonardoDiCaprio.png'],same,1,1299.3571512000017,29,71.42857142857143,
RIIS2206,train,neg,0,neg0_id4_im7.bmp_neg0_id16_im19.bmp,['Im_BradPitt.png', 'Im_PatrickDempsey.png', 'Im_RobertPattinson.png', 'Im_RyanGosling.png', 'Im_OrlandoBloom.png', 'Im_MattDamon.png', 'Im_DanielCraig.png', 'Im_RobertDowneyJr.png', 'Im_DanielRadcliffe.png', 'Im_LeonardoDiCaprio.png'],diff,1,1303.4737668000016,30,71.42857142857143,
RIIS2206,train,neg,60,neg60_id16_im3.bmp_neg60_id18_im19.bmp,['Im_BradPitt.png', 'Im_PatrickDempsey.png', 'Im_RobertPattinson.png', 'Im_RyanGosling.png', 'Im_OrlandoBloom.png', 'Im_MattDamon.png', 'Im_DanielCraig.png', 'Im_RobertDowneyJr.png', 'Im_DanielRadcliffe.png', 'Im_LeonardoDiCaprio.png'],diff,1,1308.1904816000024,31,71.42857142857143,
RIIS2206,train,neg,120,neg120_id19_im27.bmp_neg120_id19_im4.bmp,['Im_BradPitt.png', 'Im_PatrickDempsey.png', 'Im_RobertPattinson.png', 'Im_RyanGosling.png', 'Im_OrlandoBloom.png', 'Im_MattDamon.png', 'Im_DanielCraig.png', 'Im_RobertDowneyJr.png', 'Im_DanielRadcliffe.png', 'Im_LeonardoDiCaprio.png'],same,1,1312.3905049000023,32,71.42857142857143,
RIIS2206,train,neg,0,neg0_id19_im27.bmp_neg0_id19_im8.bmp,['Im_BradPitt.png', 'Im_PatrickDempsey.png', 'Im_RobertPattinson.png', 'Im_RyanGosling.png', 'Im_OrlandoBloom.png', 'Im_MattDamon.png', 'Im_DanielCraig.png', 'Im_RobertDowneyJr.png', 'Im_DanielRadcliffe.png', 'Im_LeonardoDiCaprio.png'],same,1,1316.365683400003,33,71.42857142857143,
RIIS2206,train,neg,150,neg150_id13_im10.bmp_neg150_id13_im29.bmp,['Im_BradPitt.png', 'Im_PatrickDempsey.png', 'Im_RobertPattinson.png', 'Im_RyanGosling.png', 'Im_OrlandoBloom.png', 'Im_MattDamon.png', 'Im_DanielCraig.png', 'Im_RobertDowneyJr.png', 'Im_DanielRadcliffe.png', 'Im_LeonardoDiCaprio.png'],diff,0,1320.3737086,33,71.42857142857143,
RIIS2206,train,pos,60,pos60_id13_im15.bmp_pos60_id20_im3.bmp,['Im_BradPitt.png', 'Im_PatrickDempsey.png', 'Im_RobertPattinson.png', 'Im_RyanGosling.png', 'Im_OrlandoBloom.png', 'Im_MattDamon.png', 'Im_DanielCraig.png', 'Im_RobertDowneyJr.png', 'Im_DanielRadcliffe.png', 'Im_LeonardoDiCaprio.png'],diff,1,1330.4238710000027,1,78.57142857142857,
RIIS2206,train,pos,fs,posfs_id3_im8.bmp_posfs_id3_im17.bmp,['Im_BradPitt.png', 'Im_PatrickDempsey.png', 'Im_RobertPattinson.png', 'Im_RyanGosling.png', 'Im_OrlandoBloom.png', 'Im_MattDamon.png', 'Im_DanielCraig.png', 'Im_RobertDowneyJr.png', 'Im_DanielRadcliffe.png', 'Im_LeonardoDiCaprio.png'],same,1,1334.2072042,2,78.57142857142857,
RIIS2206,train,pos,150,pos150_id13_im15.bmp_pos150_id13_im29.bmp,['Im_BradPitt.png', 'Im_PatrickDempsey.png', 'Im_RobertPattinson.png', 'Im_RyanGosling.png', 'Im_OrlandoBloom.png', 'Im_MattDamon.png', 'Im_DanielCraig.png', 'Im_RobertDowneyJr.png', 'Im_DanielRadcliffe.png', 'Im_LeonardoDiCaprio.png'],same,1,1338.3573085000025,3,78.57142857142857,
RIIS2206,train,pos,90,pos90_id4_im7.bmp_pos90_id4_im20.bmp,['Im_BradPitt.png', 'Im_PatrickDempsey.png', 'Im_RobertPattinson.png', 'Im_RyanGosling.png', 'Im_OrlandoBloom.png', 'Im_MattDamon.png', 'Im_DanielCraig.png', 'Im_RobertDowneyJr.png', 'Im_DanielRadcliffe.png', 'Im_LeonardoDiCaprio.png'],same,1,1341.9404626000032,4,78.57142857142857,
RIIS2206,train,pos,150,pos150_id4_im20.bmp_pos150_id4_im7.bmp,['Im_BradPitt.png', 'Im_PatrickDempsey.png', 'Im_RobertPattinson.png', 'Im_RyanGosling.png', 'Im_OrlandoBloom.png', 'Im_MattDamon.png', 'Im_DanielCraig.png', 'Im_RobertDowneyJr.png', 'Im_DanielRadcliffe.png', 'Im_LeonardoDiCaprio.png'],same,1,1345.5738598000025,5,78.57142857142857,
RIIS2206,train,pos,60,pos60_id18_im11.bmp_pos60_id14_im18.bmp,['Im_BradPitt.png', 'Im_PatrickDempsey.png', 'Im_RobertPattinson.png', 'Im_RyanGosling.png', 'Im_OrlandoBloom.png', 'Im_MattDamon.png', 'Im_DanielCraig.png', 'Im_RobertDowneyJr.png', 'Im_DanielRadcliffe.png', 'Im_LeonardoDiCaprio.png'],diff,1,1349.2155663000012,6,78.57142857142857,
RIIS2206,train,pos,0,pos0_id18_im19.bmp_pos0_id14_im16.bmp,['Im_BradPitt.png', 'Im_PatrickDempsey.png', 'Im_RobertPattinson.png', 'Im_RyanGosling.png', 'Im_OrlandoBloom.png', 'Im_MattDamon.png', 'Im_DanielCraig.png', 'Im_RobertDowneyJr.png', 'Im_DanielRadcliffe.png', 'Im_LeonardoDiCaprio.png'],diff,1,1354.149099000002,7,78.57142857142857,
RIIS2206,train,pos,30,pos30_id16_im3.bmp_pos30_id16_im19.bmp,['Im_BradPitt.png', 'Im_PatrickDempsey.png', 'Im_RobertPattinson.png', 'Im_RyanGosling.png', 'Im_OrlandoBloom.png', 'Im_MattDamon.png', 'Im_DanielCraig.png', 'Im_RobertDowneyJr.png', 'Im_DanielRadcliffe.png', 'Im_LeonardoDiCaprio.png'],same,1,1358.2239357000035,8,78.57142857142857,
RIIS2206,train,pos,30,pos30_id17_im9.bmp_pos30_id17_im8.bmp,['Im_BradPitt.png', 'Im_PatrickDempsey.png', 'Im_RobertPattinson.png', 'Im_RyanGosling.png', 'Im_OrlandoBloom.png', 'Im_MattDamon.png', 'Im_DanielCraig.png', 'Im_RobertDowneyJr.png', 'Im_DanielRadcliffe.png', 'Im_LeonardoDiCaprio.png'],same,1,1362.065621400001,9,78.57142857142857,
RIIS2206,train,pos,120,pos120_id4_im20.bmp_pos120_id16_im2.bmp,['Im_BradPitt.png', 'Im_PatrickDempsey.png', 'Im_RobertPattinson.png', 'Im_RyanGosling.png', 'Im_OrlandoBloom.png', 'Im_MattDamon.png', 'Im_DanielCraig.png', 'Im_RobertDowneyJr.png', 'Im_DanielRadcliffe.png', 'Im_LeonardoDiCaprio.png'],diff,1,1366.0989431000016,10,78.57142857142857,
RIIS2206,train,pos,90,pos90_id18_im19.bmp_pos90_id14_im16.bmp,['Im_BradPitt.png', 'Im_PatrickDempsey.png', 'Im_RobertPattinson.png', 'Im_RyanGosling.png', 'Im_OrlandoBloom.png', 'Im_MattDamon.png', 'Im_DanielCraig.png', 'Im_RobertDowneyJr.png', 'Im_DanielRadcliffe.png', 'Im_LeonardoDiCaprio.png'],diff,1,1369.6989237000016,11,78.57142857142857,
RIIS2206,train,pos,0,pos0_id20_im3.bmp_pos0_id17_im9.bmp,['Im_BradPitt.png', 'Im_PatrickDempsey.png', 'Im_RobertPattinson.png', 'Im_RyanGosling.png', 'Im_OrlandoBloom.png', 'Im_MattDamon.png', 'Im_DanielCraig.png', 'Im_RobertDowneyJr.png', 'Im_DanielRadcliffe.png', 'Im_LeonardoDiCaprio.png'],diff,1,1373.615688400001,12,78.57142857142857,
RIIS2206,train,pos,120,pos120_id13_im10.bmp_pos120_id20_im12.bmp,['Im_BradPitt.png', 'Im_PatrickDempsey.png', 'Im_RobertPattinson.png', 'Im_RyanGosling.png', 'Im_OrlandoBloom.png', 'Im_MattDamon.png', 'Im_DanielCraig.png', 'Im_RobertDowneyJr.png', 'Im_DanielRadcliffe.png', 'Im_LeonardoDiCaprio.png'],diff,1,1377.6738496000035,13,78.57142857142857,
RIIS2206,train,pos,fs,posfs_id3_im8.bmp_posfs_id17_im8.bmp,['Im_BradPitt.png', 'Im_PatrickDempsey.png', 'Im_RobertPattinson.png', 'Im_RyanGosling.png', 'Im_OrlandoBloom.png', 'Im_MattDamon.png', 'Im_DanielCraig.png', 'Im_RobertDowneyJr.png', 'Im_DanielRadcliffe.png', 'Im_LeonardoDiCaprio.png'],diff,1,1381.3489652000026,14,78.57142857142857,
RIIS2206,train,pos,0,pos0_id18_im18.bmp_pos0_id18_im11.bmp,['Im_BradPitt.png', 'Im_PatrickDempsey.png', 'Im_RobertPattinson.png', 'Im_RyanGosling.png', 'Im_OrlandoBloom.png', 'Im_MattDamon.png', 'Im_DanielCraig.png', 'Im_RobertDowneyJr.png', 'Im_DanielRadcliffe.png', 'Im_LeonardoDiCaprio.png'],same,1,1385.2073342000003,15,78.57142857142857,
RIIS2206,train,pos,60,pos60_id3_im6.bmp_pos60_id19_im8.bmp,['Im_BradPitt.png', 'Im_PatrickDempsey.png', 'Im_RobertPattinson.png', 'Im_RyanGosling.png', 'Im_OrlandoBloom.png', 'Im_MattDamon.png', 'Im_DanielCraig.png', 'Im_RobertDowneyJr.png', 'Im_DanielRadcliffe.png', 'Im_LeonardoDiCaprio.png'],diff,1,1388.907241300003,16,78.57142857142857,
RIIS2206,train,pos,60,pos60_id16_im19.bmp_pos60_id4_im7.bmp,['Im_BradPitt.png', 'Im_PatrickDempsey.png', 'Im_RobertPattinson.png', 'Im_RyanGosling.png', 'Im_OrlandoBloom.png', 'Im_MattDamon.png', 'Im_DanielCraig.png', 'Im_RobertDowneyJr.png', 'Im_DanielRadcliffe.png', 'Im_LeonardoDiCaprio.png'],diff,1,1392.5490156000014,17,78.57142857142857,
RIIS2206,train,pos,150,pos150_id17_im9.bmp_pos150_id3_im8.bmp,['Im_BradPitt.png', 'Im_PatrickDempsey.png', 'Im_RobertPattinson.png', 'Im_RyanGosling.png', 'Im_OrlandoBloom.png', 'Im_MattDamon.png', 'Im_DanielCraig.png', 'Im_RobertDowneyJr.png', 'Im_DanielRadcliffe.png', 'Im_LeonardoDiCaprio.png'],diff,1,1396.4156049000012,18,78.57142857142857,
RIIS2206,train,pos,120,pos120_id19_im4.bmp_pos120_id4_im20.bmp,['Im_BradPitt.png', 'Im_PatrickDempsey.png', 'Im_RobertPattinson.png', 'Im_RyanGosling.png', 'Im_OrlandoBloom.png', 'Im_MattDamon.png', 'Im_DanielCraig.png', 'Im_RobertDowneyJr.png', 'Im_DanielRadcliffe.png', 'Im_LeonardoDiCaprio.png'],diff,1,1400.2239531000014,19,78.57142857142857,
RIIS2206,train,pos,150,pos150_id19_im8.bmp_pos150_id19_im27.bmp,['Im_BradPitt.png', 'Im_PatrickDempsey.png', 'Im_RobertPattinson.png', 'Im_RyanGosling.png', 'Im_OrlandoBloom.png', 'Im_MattDamon.png', 'Im_DanielCraig.png', 'Im_RobertDowneyJr.png', 'Im_DanielRadcliffe.png', 'Im_LeonardoDiCaprio.png'],same,1,1403.8656845000005,20,78.57142857142857,
RIIS2206,train,pos,30,pos30_id18_im18.bmp_pos30_id18_im19.bmp,['Im_BradPitt.png', 'Im_PatrickDempsey.png', 'Im_RobertPattinson.png', 'Im_RyanGosling.png', 'Im_OrlandoBloom.png', 'Im_MattDamon.png', 'Im_DanielCraig.png', 'Im_RobertDowneyJr.png', 'Im_DanielRadcliffe.png', 'Im_LeonardoDiCaprio.png'],same,1,1408.0073063000018,21,78.57142857142857,
RIIS2206,train,pos,fs,posfs_id20_im12.bmp_posfs_id20_im30.bmp,['Im_BradPitt.png', 'Im_PatrickDempsey.png', 'Im_RobertPattinson.png', 'Im_RyanGosling.png', 'Im_OrlandoBloom.png', 'Im_MattDamon.png', 'Im_DanielCraig.png', 'Im_RobertDowneyJr.png', 'Im_DanielRadcliffe.png', 'Im_LeonardoDiCaprio.png'],same,1,1411.873941400001,22,78.57142857142857,
RIIS2206,train,pos,30,pos30_id3_im6.bmp_pos30_id3_im8.bmp,['Im_BradPitt.png', 'Im_PatrickDempsey.png', 'Im_RobertPattinson.png', 'Im_RyanGosling.png', 'Im_OrlandoBloom.png', 'Im_MattDamon.png', 'Im_DanielCraig.png', 'Im_RobertDowneyJr.png', 'Im_DanielRadcliffe.png', 'Im_LeonardoDiCaprio.png'],same,1,1415.5908090000012,23,78.57142857142857,
RIIS2206,train,pos,90,pos90_id14_im24.bmp_pos90_id20_im12.bmp,['Im_BradPitt.png', 'Im_PatrickDempsey.png', 'Im_RobertPattinson.png', 'Im_RyanGosling.png', 'Im_OrlandoBloom.png', 'Im_MattDamon.png', 'Im_DanielCraig.png', 'Im_RobertDowneyJr.png', 'Im_DanielRadcliffe.png', 'Im_LeonardoDiCaprio.png'],diff,1,1419.5074402000027,24,78.57142857142857,
RIIS2206,train,pos,fs,posfs_id18_im19.bmp_posfs_id18_im11.bmp,['Im_BradPitt.png', 'Im_PatrickDempsey.png', 'Im_RobertPattinson.png', 'Im_RyanGosling.png', 'Im_OrlandoBloom.png', 'Im_MattDamon.png', 'Im_DanielCraig.png', 'Im_RobertDowneyJr.png', 'Im_DanielRadcliffe.png', 'Im_LeonardoDiCaprio.png'],same,1,1423.2990616000025,25,78.57142857142857,
RIIS2206,train,pos,0,pos0_id20_im3.bmp_pos0_id20_im30.bmp,['Im_BradPitt.png', 'Im_PatrickDempsey.png', 'Im_RobertPattinson.png', 'Im_RyanGosling.png', 'Im_OrlandoBloom.png', 'Im_MattDamon.png', 'Im_DanielCraig.png', 'Im_RobertDowneyJr.png', 'Im_DanielRadcliffe.png', 'Im_LeonardoDiCaprio.png'],diff,0,1427.3906486000014,25,78.57142857142857,
RIIS2206,train,pos,120,pos120_id19_im4.bmp_pos120_id19_im27.bmp,['Im_BradPitt.png', 'Im_PatrickDempsey.png', 'Im_RobertPattinson.png', 'Im_RyanGosling.png', 'Im_OrlandoBloom.png', 'Im_MattDamon.png', 'Im_DanielCraig.png', 'Im_RobertDowneyJr.png', 'Im_DanielRadcliffe.png', 'Im_LeonardoDiCaprio.png'],same,1,1431.2407104000013,26,78.57142857142857,
RIIS2206,train,pos,90,pos90_id19_im8.bmp_pos90_id19_im27.bmp,['Im_BradPitt.png', 'Im_PatrickDempsey.png', 'Im_RobertPattinson.png', 'Im_RyanGosling.png', 'Im_OrlandoBloom.png', 'Im_MattDamon.png', 'Im_DanielCraig.png', 'Im_RobertDowneyJr.png', 'Im_DanielRadcliffe.png', 'Im_LeonardoDiCaprio.png'],same,1,1435.199084400003,27,78.57142857142857,
RIIS2206,train,neg,0,neg0_id18_im19.bmp_neg0_id18_im18.bmp,['Im_BradPitt.png', 'Im_PatrickDempsey.png', 'Im_RobertPattinson.png', 'Im_RyanGosling.png', 'Im_OrlandoBloom.png', 'Im_MattDamon.png', 'Im_DanielCraig.png', 'Im_RobertDowneyJr.png', 'Im_DanielRadcliffe.png', 'Im_LeonardoDiCaprio.png'],same,1,1439.224313900002,28,78.57142857142857,
RIIS2206,train,neg,120,neg120_id5_im20.bmp_neg120_id5_im1.bmp,['Im_BradPitt.png', 'Im_PatrickDempsey.png', 'Im_RobertPattinson.png', 'Im_RyanGosling.png', 'Im_OrlandoBloom.png', 'Im_MattDamon.png', 'Im_DanielCraig.png', 'Im_RobertDowneyJr.png', 'Im_DanielRadcliffe.png', 'Im_LeonardoDiCaprio.png'],diff,0,1443.390708400002,28,78.57142857142857,
RIIS2206,train,neg,90,neg90_id16_im3.bmp_neg90_id16_im19.bmp,['Im_BradPitt.png', 'Im_PatrickDempsey.png', 'Im_RobertPattinson.png', 'Im_RyanGosling.png', 'Im_OrlandoBloom.png', 'Im_MattDamon.png', 'Im_DanielCraig.png', 'Im_RobertDowneyJr.png', 'Im_DanielRadcliffe.png', 'Im_LeonardoDiCaprio.png'],diff,0,1447.4407739000017,28,78.57142857142857,
RIIS2206,train,neg,150,neg150_id20_im12.bmp_neg150_id20_im30.bmp,['Im_BradPitt.png', 'Im_PatrickDempsey.png', 'Im_RobertPattinson.png', 'Im_RyanGosling.png', 'Im_OrlandoBloom.png', 'Im_MattDamon.png', 'Im_DanielCraig.png', 'Im_RobertDowneyJr.png', 'Im_DanielRadcliffe.png', 'Im_LeonardoDiCaprio.png'],same,1,1451.0407988000006,29,78.57142857142857,
RIIS2206,train,neg,60,neg60_id4_im7.bmp_neg60_id4_im15.bmp,['Im_BradPitt.png', 'Im_PatrickDempsey.png', 'Im_RobertPattinson.png', 'Im_RyanGosling.png', 'Im_OrlandoBloom.png', 'Im_MattDamon.png', 'Im_DanielCraig.png', 'Im_RobertDowneyJr.png', 'Im_DanielRadcliffe.png', 'Im_LeonardoDiCaprio.png'],same,1,1454.9074578,30,78.57142857142857,
RIIS2206,train,neg,60,neg60_id5_im1.bmp_neg60_id5_im20.bmp,['Im_BradPitt.png', 'Im_PatrickDempsey.png', 'Im_RobertPattinson.png', 'Im_RyanGosling.png', 'Im_OrlandoBloom.png', 'Im_MattDamon.png', 'Im_DanielCraig.png', 'Im_RobertDowneyJr.png', 'Im_DanielRadcliffe.png', 'Im_LeonardoDiCaprio.png'],same,1,1458.974134400003,31,78.57142857142857,
RIIS2206,train,neg,fs,negfs_id17_im14.bmp_negfs_id14_im18.bmp,['Im_BradPitt.png', 'Im_PatrickDempsey.png', 'Im_RobertPattinson.png', 'Im_RyanGosling.png', 'Im_OrlandoBloom.png', 'Im_MattDamon.png', 'Im_DanielCraig.png', 'Im_RobertDowneyJr.png', 'Im_DanielRadcliffe.png', 'Im_LeonardoDiCaprio.png'],diff,1,1462.9741508000006,32,78.57142857142857,
RIIS2206,train,neg,90,neg90_id3_im6.bmp_neg90_id3_im17.bmp,['Im_BradPitt.png', 'Im_PatrickDempsey.png', 'Im_RobertPattinson.png', 'Im_RyanGosling.png', 'Im_OrlandoBloom.png', 'Im_MattDamon.png', 'Im_DanielCraig.png', 'Im_RobertDowneyJr.png', 'Im_DanielRadcliffe.png', 'Im_LeonardoDiCaprio.png'],diff,0,1467.1161992000016,32,78.57142857142857,
RIIS2206,train,neg,0,neg0_id3_im8.bmp_neg0_id17_im8.bmp,['Im_BradPitt.png', 'Im_PatrickDempsey.png', 'Im_RobertPattinson.png', 'Im_RyanGosling.png', 'Im_OrlandoBloom.png', 'Im_MattDamon.png', 'Im_DanielCraig.png', 'Im_RobertDowneyJr.png', 'Im_DanielRadcliffe.png', 'Im_LeonardoDiCaprio.png'],same,0,1471.1491032000013,32,78.57142857142857,
RIIS2206,train,neg,fs,negfs_id14_im16.bmp_negfs_id16_im2.bmp,['Im_BradPitt.png', 'Im_PatrickDempsey.png', 'Im_RobertPattinson.png', 'Im_RyanGosling.png', 'Im_OrlandoBloom.png', 'Im_MattDamon.png', 'Im_DanielCraig.png', 'Im_RobertDowneyJr.png', 'Im_DanielRadcliffe.png', 'Im_LeonardoDiCaprio.png'],diff,1,1474.7908328000012,33,78.57142857142857,
RIIS2206,train,neg,150,neg150_id4_im20.bmp_neg150_id4_im15.bmp,['Im_BradPitt.png', 'Im_PatrickDempsey.png', 'Im_RobertPattinson.png', 'Im_RyanGosling.png', 'Im_OrlandoBloom.png', 'Im_MattDamon.png', 'Im_DanielCraig.png', 'Im_RobertDowneyJr.png', 'Im_DanielRadcliffe.png', 'Im_LeonardoDiCaprio.png'],same,1,1478.7824636000005,34,78.57142857142857,
RIIS2206,train,neg,30,neg30_id4_im20.bmp_neg30_id4_im7.bmp,['Im_BradPitt.png', 'Im_PatrickDempsey.png', 'Im_RobertPattinson.png', 'Im_RyanGosling.png', 'Im_OrlandoBloom.png', 'Im_MattDamon.png', 'Im_DanielCraig.png', 'Im_RobertDowneyJr.png', 'Im_DanielRadcliffe.png', 'Im_LeonardoDiCaprio.png'],same,1,1482.8158790000016,35,78.57142857142857,
RIIS2206,train,neg,30,neg30_id18_im19.bmp_neg30_id18_im18.bmp,['Im_BradPitt.png', 'Im_PatrickDempsey.png', 'Im_RobertPattinson.png', 'Im_RyanGosling.png', 'Im_OrlandoBloom.png', 'Im_MattDamon.png', 'Im_DanielCraig.png', 'Im_RobertDowneyJr.png', 'Im_DanielRadcliffe.png', 'Im_LeonardoDiCaprio.png'],same,1,1486.9490489000018,36,78.57142857142857,
RIIS2206,train,neg,120,neg120_id4_im20.bmp_neg120_id16_im2.bmp,['Im_BradPitt.png', 'Im_PatrickDempsey.png', 'Im_RobertPattinson.png', 'Im_RyanGosling.png', 'Im_OrlandoBloom.png', 'Im_MattDamon.png', 'Im_DanielCraig.png', 'Im_RobertDowneyJr.png', 'Im_DanielRadcliffe.png', 'Im_LeonardoDiCaprio.png'],diff,1,1490.7575005000035,37,78.57142857142857,
RIIS2206,0,inv,120,pos120_id13_im15.bmp_pos120_id17_im8.bmp,['Im_BradPitt.png', 'Im_PatrickDempsey.png', 'Im_RobertPattinson.png', 'Im_RyanGosling.png', 'Im_OrlandoBloom.png', 'Im_MattDamon.png', 'Im_DanielCraig.png', 'Im_RobertDowneyJr.png', 'Im_DanielRadcliffe.png', 'Im_LeonardoDiCaprio.png'],diff,1,1575.8991967000002,1,0,
RIIS2206,0,inv,150,pos150_id14_im18.bmp_pos150_id18_im11.bmp,['Im_BradPitt.png', 'Im_PatrickDempsey.png', 'Im_RobertPattinson.png', 'Im_RyanGosling.png', 'Im_OrlandoBloom.png', 'Im_MattDamon.png', 'Im_DanielCraig.png', 'Im_RobertDowneyJr.png', 'Im_DanielRadcliffe.png', 'Im_LeonardoDiCaprio.png'],diff,1,1580.4492943000005,2,0,
RIIS2206,0,inv,150,pos150_id17_im14.bmp_pos150_id17_im8.bmp,['Im_BradPitt.png', 'Im_PatrickDempsey.png', 'Im_RobertPattinson.png', 'Im_RyanGosling.png', 'Im_OrlandoBloom.png', 'Im_MattDamon.png', 'Im_DanielCraig.png', 'Im_RobertDowneyJr.png', 'Im_DanielRadcliffe.png', 'Im_LeonardoDiCaprio.png'],same,1,1584.9910081000016,3,0,
RIIS2206,0,inv,fs,posfs_id17_im14.bmp_posfs_id17_im8.bmp,['Im_BradPitt.png', 'Im_PatrickDempsey.png', 'Im_RobertPattinson.png', 'Im_RyanGosling.png', 'Im_OrlandoBloom.png', 'Im_MattDamon.png', 'Im_DanielCraig.png', 'Im_RobertDowneyJr.png', 'Im_DanielRadcliffe.png', 'Im_LeonardoDiCaprio.png'],same,1,1589.2743467,4,0,
RIIS2206,0,inv,90,pos90_id13_im10.bmp_pos90_id20_im12.bmp,['Im_BradPitt.png', 'Im_PatrickDempsey.png', 'Im_RobertPattinson.png', 'Im_RyanGosling.png', 'Im_OrlandoBloom.png', 'Im_MattDamon.png', 'Im_DanielCraig.png', 'Im_RobertDowneyJr.png', 'Im_DanielRadcliffe.png', 'Im_LeonardoDiCaprio.png'],diff,1,1593.7912729000018,5,0,
RIIS2206,0,inv,60,pos60_id5_im10.bmp_pos60_id5_im1.bmp,['Im_BradPitt.png', 'Im_PatrickDempsey.png', 'Im_RobertPattinson.png', 'Im_RyanGosling.png', 'Im_OrlandoBloom.png', 'Im_MattDamon.png', 'Im_DanielCraig.png', 'Im_RobertDowneyJr.png', 'Im_DanielRadcliffe.png', 'Im_LeonardoDiCaprio.png'],same,1,1598.1327340000025,6,0,
RIIS2206,0,inv,60,pos60_id20_im12.bmp_pos60_id20_im3.bmp,['Im_BradPitt.png', 'Im_PatrickDempsey.png', 'Im_RobertPattinson.png', 'Im_RyanGosling.png', 'Im_OrlandoBloom.png', 'Im_MattDamon.png', 'Im_DanielCraig.png', 'Im_RobertDowneyJr.png', 'Im_DanielRadcliffe.png', 'Im_LeonardoDiCaprio.png'],same,1,1602.6910424000016,7,0,
RIIS2206,0,inv,30,pos30_id4_im7.bmp_pos30_id16_im19.bmp,['Im_BradPitt.png', 'Im_PatrickDempsey.png', 'Im_RobertPattinson.png', 'Im_RyanGosling.png', 'Im_OrlandoBloom.png', 'Im_MattDamon.png', 'Im_DanielCraig.png', 'Im_RobertDowneyJr.png', 'Im_DanielRadcliffe.png', 'Im_LeonardoDiCaprio.png'],same,0,1607.5826252000006,7,0,
RIIS2206,0,inv,30,pos30_id20_im30.bmp_pos30_id5_im20.bmp,['Im_BradPitt.png', 'Im_PatrickDempsey.png', 'Im_RobertPattinson.png', 'Im_RyanGosling.png', 'Im_OrlandoBloom.png', 'Im_MattDamon.png', 'Im_DanielCraig.png', 'Im_RobertDowneyJr.png', 'Im_DanielRadcliffe.png', 'Im_LeonardoDiCaprio.png'],diff,1,1611.8076852000013,8,0,
RIIS2206,0,inv,0,pos0_id19_im4.bmp_pos0_id19_im8.bmp,['Im_BradPitt.png', 'Im_PatrickDempsey.png', 'Im_RobertPattinson.png', 'Im_RyanGosling.png', 'Im_OrlandoBloom.png', 'Im_MattDamon.png', 'Im_DanielCraig.png', 'Im_RobertDowneyJr.png', 'Im_DanielRadcliffe.png', 'Im_LeonardoDiCaprio.png'],same,1,1616.374266400002,9,0,
RIIS2206,0,inv,90,pos90_id5_im10.bmp_pos90_id18_im18.bmp,['Im_BradPitt.png', 'Im_PatrickDempsey.png', 'Im_RobertPattinson.png', 'Im_RyanGosling.png', 'Im_OrlandoBloom.png', 'Im_MattDamon.png', 'Im_DanielCraig.png', 'Im_RobertDowneyJr.png', 'Im_DanielRadcliffe.png', 'Im_LeonardoDiCaprio.png'],diff,1,1620.4576521000017,10,0,
RIIS2206,0,inv,120,pos120_id4_im20.bmp_pos120_id4_im7.bmp,['Im_BradPitt.png', 'Im_PatrickDempsey.png', 'Im_RobertPattinson.png', 'Im_RyanGosling.png', 'Im_OrlandoBloom.png', 'Im_MattDamon.png', 'Im_DanielCraig.png', 'Im_RobertDowneyJr.png', 'Im_DanielRadcliffe.png', 'Im_LeonardoDiCaprio.png'],same,1,1624.6160304000005,11,0,
RIIS2206,0,inv,0,pos0_id19_im27.bmp_pos0_id19_im4.bmp,['Im_BradPitt.png', 'Im_PatrickDempsey.png', 'Im_RobertPattinson.png', 'Im_RyanGosling.png', 'Im_OrlandoBloom.png', 'Im_MattDamon.png', 'Im_DanielCraig.png', 'Im_RobertDowneyJr.png', 'Im_DanielRadcliffe.png', 'Im_LeonardoDiCaprio.png'],same,1,1628.9242801,12,0,
RIIS2206,0,inv,fs,posfs_id17_im9.bmp_posfs_id20_im3.bmp,['Im_BradPitt.png', 'Im_PatrickDempsey.png', 'Im_RobertPattinson.png', 'Im_RyanGosling.png', 'Im_OrlandoBloom.png', 'Im_MattDamon.png', 'Im_DanielCraig.png', 'Im_RobertDowneyJr.png', 'Im_DanielRadcliffe.png', 'Im_LeonardoDiCaprio.png'],same,0,1633.1077062000004,12,0,
RIIS2206,1,pos,fs,posfs_id13_im15.bmp_posfs_id13_im29.bmp,['Im_BradPitt.png', 'Im_PatrickDempsey.png', 'Im_RobertPattinson.png', 'Im_RyanGosling.png', 'Im_OrlandoBloom.png', 'Im_MattDamon.png', 'Im_DanielCraig.png', 'Im_RobertDowneyJr.png', 'Im_DanielRadcliffe.png', 'Im_LeonardoDiCaprio.png'],same,1,1641.2077143000024,13,0,
RIIS2206,1,pos,150,pos150_id19_im27.bmp_pos150_id5_im10.bmp,['Im_BradPitt.png', 'Im_PatrickDempsey.png', 'Im_RobertPattinson.png', 'Im_RyanGosling.png', 'Im_OrlandoBloom.png', 'Im_MattDamon.png', 'Im_DanielCraig.png', 'Im_RobertDowneyJr.png', 'Im_DanielRadcliffe.png', 'Im_LeonardoDiCaprio.png'],diff,1,1645.8160577000017,14,0,
RIIS2206,1,pos,90,pos90_id13_im29.bmp_pos90_id14_im24.bmp,['Im_BradPitt.png', 'Im_PatrickDempsey.png', 'Im_RobertPattinson.png', 'Im_RyanGosling.png', 'Im_OrlandoBloom.png', 'Im_MattDamon.png', 'Im_DanielCraig.png', 'Im_RobertDowneyJr.png', 'Im_DanielRadcliffe.png', 'Im_LeonardoDiCaprio.png'],same,0,1650.4159672000023,14,0,
RIIS2206,1,pos,60,pos60_id16_im3.bmp_pos60_id16_im19.bmp,['Im_BradPitt.png', 'Im_PatrickDempsey.png', 'Im_RobertPattinson.png', 'Im_RyanGosling.png', 'Im_OrlandoBloom.png', 'Im_MattDamon.png', 'Im_DanielCraig.png', 'Im_RobertDowneyJr.png', 'Im_DanielRadcliffe.png', 'Im_LeonardoDiCaprio.png'],same,1,1654.5077035000031,15,0,
RIIS2206,1,pos,150,pos150_id14_im24.bmp_pos150_id14_im16.bmp,['Im_BradPitt.png', 'Im_PatrickDempsey.png', 'Im_RobertPattinson.png', 'Im_RyanGosling.png', 'Im_OrlandoBloom.png', 'Im_MattDamon.png', 'Im_DanielCraig.png', 'Im_RobertDowneyJr.png', 'Im_DanielRadcliffe.png', 'Im_LeonardoDiCaprio.png'],same,1,1659.1993122000022,16,0,
RIIS2206,1,pos,0,pos0_id20_im12.bmp_pos0_id20_im3.bmp,['Im_BradPitt.png', 'Im_PatrickDempsey.png', 'Im_RobertPattinson.png', 'Im_RyanGosling.png', 'Im_OrlandoBloom.png', 'Im_MattDamon.png', 'Im_DanielCraig.png', 'Im_RobertDowneyJr.png', 'Im_DanielRadcliffe.png', 'Im_LeonardoDiCaprio.png'],same,1,1663.5661194000022,17,0,
RIIS2206,1,pos,fs,posfs_id20_im30.bmp_posfs_id5_im20.bmp,['Im_BradPitt.png', 'Im_PatrickDempsey.png', 'Im_RobertPattinson.png', 'Im_RyanGosling.png', 'Im_OrlandoBloom.png', 'Im_MattDamon.png', 'Im_DanielCraig.png', 'Im_RobertDowneyJr.png', 'Im_DanielRadcliffe.png', 'Im_LeonardoDiCaprio.png'],diff,1,1667.9494092000023,18,0,
RIIS2206,1,pos,90,pos90_id14_im16.bmp_pos90_id14_im18.bmp,['Im_BradPitt.png', 'Im_PatrickDempsey.png', 'Im_RobertPattinson.png', 'Im_RyanGosling.png', 'Im_OrlandoBloom.png', 'Im_MattDamon.png', 'Im_DanielCraig.png', 'Im_RobertDowneyJr.png', 'Im_DanielRadcliffe.png', 'Im_LeonardoDiCaprio.png'],same,1,1672.0577348000006,19,0,
RIIS2206,1,pos,30,pos30_id18_im18.bmp_pos30_id18_im11.bmp,['Im_BradPitt.png', 'Im_PatrickDempsey.png', 'Im_RobertPattinson.png', 'Im_RyanGosling.png', 'Im_OrlandoBloom.png', 'Im_MattDamon.png', 'Im_DanielCraig.png', 'Im_RobertDowneyJr.png', 'Im_DanielRadcliffe.png', 'Im_LeonardoDiCaprio.png'],same,1,1676.541143100003,20,0,
RIIS2206,1,pos,0,pos0_id14_im16.bmp_pos0_id14_im24.bmp,['Im_BradPitt.png', 'Im_PatrickDempsey.png', 'Im_RobertPattinson.png', 'Im_RyanGosling.png', 'Im_OrlandoBloom.png', 'Im_MattDamon.png', 'Im_DanielCraig.png', 'Im_RobertDowneyJr.png', 'Im_DanielRadcliffe.png', 'Im_LeonardoDiCaprio.png'],diff,0,1680.8579990000035,20,0,
RIIS2206,1,pos,30,pos30_id14_im18.bmp_pos30_id18_im11.bmp,['Im_BradPitt.png', 'Im_PatrickDempsey.png', 'Im_RobertPattinson.png', 'Im_RyanGosling.png', 'Im_OrlandoBloom.png', 'Im_MattDamon.png', 'Im_DanielCraig.png', 'Im_RobertDowneyJr.png', 'Im_DanielRadcliffe.png', 'Im_LeonardoDiCaprio.png'],diff,1,1685.1910816000018,21,0,
RIIS2206,1,pos,60,pos60_id19_im8.bmp_pos60_id19_im4.bmp,['Im_BradPitt.png', 'Im_PatrickDempsey.png', 'Im_RobertPattinson.png', 'Im_RyanGosling.png', 'Im_OrlandoBloom.png', 'Im_MattDamon.png', 'Im_DanielCraig.png', 'Im_RobertDowneyJr.png', 'Im_DanielRadcliffe.png', 'Im_LeonardoDiCaprio.png'],same,1,1689.741124600001,22,0,
RIIS2206,1,pos,120,pos120_id13_im15.bmp_pos120_id17_im8.bmp,['Im_BradPitt.png', 'Im_PatrickDempsey.png', 'Im_RobertPattinson.png', 'Im_RyanGosling.png', 'Im_OrlandoBloom.png', 'Im_MattDamon.png', 'Im_DanielCraig.png', 'Im_RobertDowneyJr.png', 'Im_DanielRadcliffe.png', 'Im_LeonardoDiCaprio.png'],diff,1,1694.141137100003,23,0,
RIIS2206,1,pos,120,pos120_id19_im27.bmp_pos120_id5_im10.bmp,['Im_BradPitt.png', 'Im_PatrickDempsey.png', 'Im_RobertPattinson.png', 'Im_RyanGosling.png', 'Im_OrlandoBloom.png', 'Im_MattDamon.png', 'Im_DanielCraig.png', 'Im_RobertDowneyJr.png', 'Im_DanielRadcliffe.png', 'Im_LeonardoDiCaprio.png'],diff,1,1698.2660953000013,24,0,
RIIS2206,2,neg,fs,negfs_id19_im8.bmp_negfs_id3_im6.bmp,['Im_BradPitt.png', 'Im_PatrickDempsey.png', 'Im_RobertPattinson.png', 'Im_RyanGosling.png', 'Im_OrlandoBloom.png', 'Im_MattDamon.png', 'Im_DanielCraig.png', 'Im_RobertDowneyJr.png', 'Im_DanielRadcliffe.png', 'Im_LeonardoDiCaprio.png'],diff,1,1706.3411696000003,25,0,
RIIS2206,2,neg,fs,negfs_id20_im3.bmp_negfs_id20_im30.bmp,['Im_BradPitt.png', 'Im_PatrickDempsey.png', 'Im_RobertPattinson.png', 'Im_RyanGosling.png', 'Im_OrlandoBloom.png', 'Im_MattDamon.png', 'Im_DanielCraig.png', 'Im_RobertDowneyJr.png', 'Im_DanielRadcliffe.png', 'Im_LeonardoDiCaprio.png'],same,1,1710.8667331000033,26,0,
RIIS2206,2,neg,120,neg120_id20_im12.bmp_neg120_id20_im30.bmp,['Im_BradPitt.png', 'Im_PatrickDempsey.png', 'Im_RobertPattinson.png', 'Im_RyanGosling.png', 'Im_OrlandoBloom.png', 'Im_MattDamon.png', 'Im_DanielCraig.png', 'Im_RobertDowneyJr.png', 'Im_DanielRadcliffe.png', 'Im_LeonardoDiCaprio.png'],diff,0,1715.7744592000017,26,0,
RIIS2206,2,neg,120,neg120_id16_im2.bmp_neg120_id16_im3.bmp,['Im_BradPitt.png', 'Im_PatrickDempsey.png', 'Im_RobertPattinson.png', 'Im_RyanGosling.png', 'Im_OrlandoBloom.png', 'Im_MattDamon.png', 'Im_DanielCraig.png', 'Im_RobertDowneyJr.png', 'Im_DanielRadcliffe.png', 'Im_LeonardoDiCaprio.png'],same,1,1720.1662600000018,27,0,
RIIS2206,2,neg,90,neg90_id19_im4.bmp_neg90_id19_im8.bmp,['Im_BradPitt.png', 'Im_PatrickDempsey.png', 'Im_RobertPattinson.png', 'Im_RyanGosling.png', 'Im_OrlandoBloom.png', 'Im_MattDamon.png', 'Im_DanielCraig.png', 'Im_RobertDowneyJr.png', 'Im_DanielRadcliffe.png', 'Im_LeonardoDiCaprio.png'],same,1,1725.0413447000028,28,0,
RIIS2206,2,neg,0,neg0_id3_im17.bmp_neg0_id18_im11.bmp,['Im_BradPitt.png', 'Im_PatrickDempsey.png', 'Im_RobertPattinson.png', 'Im_RyanGosling.png', 'Im_OrlandoBloom.png', 'Im_MattDamon.png', 'Im_DanielCraig.png', 'Im_RobertDowneyJr.png', 'Im_DanielRadcliffe.png', 'Im_LeonardoDiCaprio.png'],diff,1,1729.582868100002,29,0,
RIIS2206,2,neg,60,neg60_id16_im2.bmp_neg60_id4_im20.bmp,['Im_BradPitt.png', 'Im_PatrickDempsey.png', 'Im_RobertPattinson.png', 'Im_RyanGosling.png', 'Im_OrlandoBloom.png', 'Im_MattDamon.png', 'Im_DanielCraig.png', 'Im_RobertDowneyJr.png', 'Im_DanielRadcliffe.png', 'Im_LeonardoDiCaprio.png'],diff,1,1733.7411363000028,30,0,
RIIS2206,2,neg,90,neg90_id5_im1.bmp_neg90_id5_im20.bmp,['Im_BradPitt.png', 'Im_PatrickDempsey.png', 'Im_RobertPattinson.png', 'Im_RyanGosling.png', 'Im_OrlandoBloom.png', 'Im_MattDamon.png', 'Im_DanielCraig.png', 'Im_RobertDowneyJr.png', 'Im_DanielRadcliffe.png', 'Im_LeonardoDiCaprio.png'],same,1,1737.8578528000035,31,0,
RIIS2206,2,neg,60,neg60_id13_im29.bmp_neg60_id13_im15.bmp,['Im_BradPitt.png', 'Im_PatrickDempsey.png', 'Im_RobertPattinson.png', 'Im_RyanGosling.png', 'Im_OrlandoBloom.png', 'Im_MattDamon.png', 'Im_DanielCraig.png', 'Im_RobertDowneyJr.png', 'Im_DanielRadcliffe.png', 'Im_LeonardoDiCaprio.png'],diff,0,1742.2077740000022,31,0,
RIIS2206,2,neg,0,neg0_id14_im16.bmp_neg0_id14_im24.bmp,['Im_BradPitt.png', 'Im_PatrickDempsey.png', 'Im_RobertPattinson.png', 'Im_RyanGosling.png', 'Im_OrlandoBloom.png', 'Im_MattDamon.png', 'Im_DanielCraig.png', 'Im_RobertDowneyJr.png', 'Im_DanielRadcliffe.png', 'Im_LeonardoDiCaprio.png'],same,1,1746.557853000002,32,0,
RIIS2206,2,neg,30,neg30_id3_im17.bmp_neg30_id3_im8.bmp,['Im_BradPitt.png', 'Im_PatrickDempsey.png', 'Im_RobertPattinson.png', 'Im_RyanGosling.png', 'Im_OrlandoBloom.png', 'Im_MattDamon.png', 'Im_DanielCraig.png', 'Im_RobertDowneyJr.png', 'Im_DanielRadcliffe.png', 'Im_LeonardoDiCaprio.png'],same,1,1750.9245090000004,33,0,
RIIS2206,2,neg,150,neg150_id5_im1.bmp_neg150_id5_im20.bmp,['Im_BradPitt.png', 'Im_PatrickDempsey.png', 'Im_RobertPattinson.png', 'Im_RyanGosling.png', 'Im_OrlandoBloom.png', 'Im_MattDamon.png', 'Im_DanielCraig.png', 'Im_RobertDowneyJr.png', 'Im_DanielRadcliffe.png', 'Im_LeonardoDiCaprio.png'],same,1,1755.3162444000009,34,0,
RIIS2206,2,neg,150,neg150_id20_im3.bmp_neg150_id20_im30.bmp,['Im_BradPitt.png', 'Im_PatrickDempsey.png', 'Im_RobertPattinson.png', 'Im_RyanGosling.png', 'Im_OrlandoBloom.png', 'Im_MattDamon.png', 'Im_DanielCraig.png', 'Im_RobertDowneyJr.png', 'Im_DanielRadcliffe.png', 'Im_LeonardoDiCaprio.png'],same,1,1759.7078352000026,35,0,
RIIS2206,2,neg,30,neg30_id3_im6.bmp_neg30_id3_im8.bmp,['Im_BradPitt.png', 'Im_PatrickDempsey.png', 'Im_RobertPattinson.png', 'Im_RyanGosling.png', 'Im_OrlandoBloom.png', 'Im_MattDamon.png', 'Im_DanielCraig.png', 'Im_RobertDowneyJr.png', 'Im_DanielRadcliffe.png', 'Im_LeonardoDiCaprio.png'],same,1,1764.4665526000026,36,0,
RIIS2206,3,neg,30,neg30_id4_im15.bmp_neg30_id3_im17.bmp,['Im_BradPitt.png', 'Im_PatrickDempsey.png', 'Im_RobertPattinson.png', 'Im_RyanGosling.png', 'Im_OrlandoBloom.png', 'Im_MattDamon.png', 'Im_DanielCraig.png', 'Im_RobertDowneyJr.png', 'Im_DanielRadcliffe.png', 'Im_LeonardoDiCaprio.png'],same,0,1786.6078893000013,0,85.71428571428571,
RIIS2206,3,neg,120,neg120_id3_im6.bmp_neg120_id5_im1.bmp,['Im_BradPitt.png', 'Im_PatrickDempsey.png', 'Im_RobertPattinson.png', 'Im_RyanGosling.png', 'Im_OrlandoBloom.png', 'Im_MattDamon.png', 'Im_DanielCraig.png', 'Im_RobertDowneyJr.png', 'Im_DanielRadcliffe.png', 'Im_LeonardoDiCaprio.png'],diff,1,1791.1497957000029,1,85.71428571428571,
RIIS2206,3,neg,0,neg0_id4_im20.bmp_neg0_id16_im2.bmp,['Im_BradPitt.png', 'Im_PatrickDempsey.png', 'Im_RobertPattinson.png', 'Im_RyanGosling.png', 'Im_OrlandoBloom.png', 'Im_MattDamon.png', 'Im_DanielCraig.png', 'Im_RobertDowneyJr.png', 'Im_DanielRadcliffe.png', 'Im_LeonardoDiCaprio.png'],diff,1,1795.807906500002,2,85.71428571428571,
RIIS2206,3,neg,60,neg60_id13_im29.bmp_neg60_id13_im10.bmp,['Im_BradPitt.png', 'Im_PatrickDempsey.png', 'Im_RobertPattinson.png', 'Im_RyanGosling.png', 'Im_OrlandoBloom.png', 'Im_MattDamon.png', 'Im_DanielCraig.png', 'Im_RobertDowneyJr.png', 'Im_DanielRadcliffe.png', 'Im_LeonardoDiCaprio.png'],same,1,1800.3662253000002,3,85.71428571428571,
RIIS2206,3,neg,120,neg120_id14_im24.bmp_neg120_id14_im18.bmp,['Im_BradPitt.png', 'Im_PatrickDempsey.png', 'Im_RobertPattinson.png', 'Im_RyanGosling.png', 'Im_OrlandoBloom.png', 'Im_MattDamon.png', 'Im_DanielCraig.png', 'Im_RobertDowneyJr.png', 'Im_DanielRadcliffe.png', 'Im_LeonardoDiCaprio.png'],same,1,1804.6495811000023,4,85.71428571428571,
RIIS2206,3,neg,150,neg150_id5_im1.bmp_neg150_id16_im3.bmp,['Im_BradPitt.png', 'Im_PatrickDempsey.png', 'Im_RobertPattinson.png', 'Im_RyanGosling.png', 'Im_OrlandoBloom.png', 'Im_MattDamon.png', 'Im_DanielCraig.png', 'Im_RobertDowneyJr.png', 'Im_DanielRadcliffe.png', 'Im_LeonardoDiCaprio.png'],diff,1,1808.849605200001,5,85.71428571428571,
RIIS2206,3,neg,150,neg150_id18_im11.bmp_neg150_id14_im18.bmp,['Im_BradPitt.png', 'Im_PatrickDempsey.png', 'Im_RobertPattinson.png', 'Im_RyanGosling.png', 'Im_OrlandoBloom.png', 'Im_MattDamon.png', 'Im_DanielCraig.png', 'Im_RobertDowneyJr.png', 'Im_DanielRadcliffe.png', 'Im_LeonardoDiCaprio.png'],same,0,1813.0413389000023,5,85.71428571428571,
RIIS2206,3,neg,90,neg90_id19_im8.bmp_neg90_id19_im27.bmp,['Im_BradPitt.png', 'Im_PatrickDempsey.png', 'Im_RobertPattinson.png', 'Im_RyanGosling.png', 'Im_OrlandoBloom.png', 'Im_MattDamon.png', 'Im_DanielCraig.png', 'Im_RobertDowneyJr.png', 'Im_DanielRadcliffe.png', 'Im_LeonardoDiCaprio.png'],same,1,1817.4244794000006,6,85.71428571428571,
RIIS2206,3,neg,90,neg90_id13_im15.bmp_neg90_id13_im10.bmp,['Im_BradPitt.png', 'Im_PatrickDempsey.png', 'Im_RobertPattinson.png', 'Im_RyanGosling.png', 'Im_OrlandoBloom.png', 'Im_MattDamon.png', 'Im_DanielCraig.png', 'Im_RobertDowneyJr.png', 'Im_DanielRadcliffe.png', 'Im_LeonardoDiCaprio.png'],same,1,1821.6161823000002,7,85.71428571428571,
RIIS2206,3,neg,fs,negfs_id19_im8.bmp_negfs_id13_im29.bmp,['Im_BradPitt.png', 'Im_PatrickDempsey.png', 'Im_RobertPattinson.png', 'Im_RyanGosling.png', 'Im_OrlandoBloom.png', 'Im_MattDamon.png', 'Im_DanielCraig.png', 'Im_RobertDowneyJr.png', 'Im_DanielRadcliffe.png', 'Im_LeonardoDiCaprio.png'],same,0,1825.8579480000008,7,85.71428571428571,
RIIS2206,3,neg,30,neg30_id13_im15.bmp_neg30_id17_im8.bmp,['Im_BradPitt.png', 'Im_PatrickDempsey.png', 'Im_RobertPattinson.png', 'Im_RyanGosling.png', 'Im_OrlandoBloom.png', 'Im_MattDamon.png', 'Im_DanielCraig.png', 'Im_RobertDowneyJr.png', 'Im_DanielRadcliffe.png', 'Im_LeonardoDiCaprio.png'],diff,1,1830.1496406000006,8,85.71428571428571,
RIIS2206,3,neg,60,neg60_id14_im24.bmp_neg60_id13_im29.bmp,['Im_BradPitt.png', 'Im_PatrickDempsey.png', 'Im_RobertPattinson.png', 'Im_RyanGosling.png', 'Im_OrlandoBloom.png', 'Im_MattDamon.png', 'Im_DanielCraig.png', 'Im_RobertDowneyJr.png', 'Im_DanielRadcliffe.png', 'Im_LeonardoDiCaprio.png'],diff,1,1835.1412192000025,9,85.71428571428571,
RIIS2206,3,neg,0,neg0_id16_im2.bmp_neg0_id14_im16.bmp,['Im_BradPitt.png', 'Im_PatrickDempsey.png', 'Im_RobertPattinson.png', 'Im_RyanGosling.png', 'Im_OrlandoBloom.png', 'Im_MattDamon.png', 'Im_DanielCraig.png', 'Im_RobertDowneyJr.png', 'Im_DanielRadcliffe.png', 'Im_LeonardoDiCaprio.png'],diff,1,1839.232890700001,10,85.71428571428571,
RIIS2206,3,neg,fs,negfs_id19_im4.bmp_negfs_id4_im20.bmp,['Im_BradPitt.png', 'Im_PatrickDempsey.png', 'Im_RobertPattinson.png', 'Im_RyanGosling.png', 'Im_OrlandoBloom.png', 'Im_MattDamon.png', 'Im_DanielCraig.png', 'Im_RobertDowneyJr.png', 'Im_DanielRadcliffe.png', 'Im_LeonardoDiCaprio.png'],diff,1,1843.7579103000025,11,85.71428571428571,
RIIS2206,4,pos,60,pos60_id14_im16.bmp_pos60_id18_im19.bmp,['Im_BradPitt.png', 'Im_PatrickDempsey.png', 'Im_RobertPattinson.png', 'Im_RyanGosling.png', 'Im_OrlandoBloom.png', 'Im_MattDamon.png', 'Im_DanielCraig.png', 'Im_RobertDowneyJr.png', 'Im_DanielRadcliffe.png', 'Im_LeonardoDiCaprio.png'],diff,1,1851.8579873000017,12,85.71428571428571,
RIIS2206,4,pos,0,pos0_id20_im30.bmp_pos0_id17_im14.bmp,['Im_BradPitt.png', 'Im_PatrickDempsey.png', 'Im_RobertPattinson.png', 'Im_RyanGosling.png', 'Im_OrlandoBloom.png', 'Im_MattDamon.png', 'Im_DanielCraig.png', 'Im_RobertDowneyJr.png', 'Im_DanielRadcliffe.png', 'Im_LeonardoDiCaprio.png'],diff,1,1857.3581286000008,13,85.71428571428571,
RIIS2206,4,pos,120,pos120_id18_im11.bmp_pos120_id18_im19.bmp,['Im_BradPitt.png', 'Im_PatrickDempsey.png', 'Im_RobertPattinson.png', 'Im_RyanGosling.png', 'Im_OrlandoBloom.png', 'Im_MattDamon.png', 'Im_DanielCraig.png', 'Im_RobertDowneyJr.png', 'Im_DanielRadcliffe.png', 'Im_LeonardoDiCaprio.png'],same,1,1861.6913341,14,85.71428571428571,
RIIS2206,4,pos,30,pos30_id14_im24.bmp_pos30_id14_im16.bmp,['Im_BradPitt.png', 'Im_PatrickDempsey.png', 'Im_RobertPattinson.png', 'Im_RyanGosling.png', 'Im_OrlandoBloom.png', 'Im_MattDamon.png', 'Im_DanielCraig.png', 'Im_RobertDowneyJr.png', 'Im_DanielRadcliffe.png', 'Im_LeonardoDiCaprio.png'],same,1,1866.1579889000022,15,85.71428571428571,
RIIS2206,4,pos,60,pos60_id4_im7.bmp_pos60_id4_im20.bmp,['Im_BradPitt.png', 'Im_PatrickDempsey.png', 'Im_RobertPattinson.png', 'Im_RyanGosling.png', 'Im_OrlandoBloom.png', 'Im_MattDamon.png', 'Im_DanielCraig.png', 'Im_RobertDowneyJr.png', 'Im_DanielRadcliffe.png', 'Im_LeonardoDiCaprio.png'],same,1,1870.666301600002,16,85.71428571428571,
RIIS2206,4,pos,150,pos150_id5_im10.bmp_pos150_id5_im20.bmp,['Im_BradPitt.png', 'Im_PatrickDempsey.png', 'Im_RobertPattinson.png', 'Im_RyanGosling.png', 'Im_OrlandoBloom.png', 'Im_MattDamon.png', 'Im_DanielCraig.png', 'Im_RobertDowneyJr.png', 'Im_DanielRadcliffe.png', 'Im_LeonardoDiCaprio.png'],same,1,1874.7829984000018,17,85.71428571428571,
RIIS2206,4,pos,120,pos120_id5_im20.bmp_pos120_id5_im10.bmp,['Im_BradPitt.png', 'Im_PatrickDempsey.png', 'Im_RobertPattinson.png', 'Im_RyanGosling.png', 'Im_OrlandoBloom.png', 'Im_MattDamon.png', 'Im_DanielCraig.png', 'Im_RobertDowneyJr.png', 'Im_DanielRadcliffe.png', 'Im_LeonardoDiCaprio.png'],same,1,1878.966382900002,18,85.71428571428571,
RIIS2206,4,pos,fs,posfs_id17_im8.bmp_posfs_id17_im14.bmp,['Im_BradPitt.png', 'Im_PatrickDempsey.png', 'Im_RobertPattinson.png', 'Im_RyanGosling.png', 'Im_OrlandoBloom.png', 'Im_MattDamon.png', 'Im_DanielCraig.png', 'Im_RobertDowneyJr.png', 'Im_DanielRadcliffe.png', 'Im_LeonardoDiCaprio.png'],same,1,1883.5080381000007,19,85.71428571428571,
RIIS2206,4,pos,90,pos90_id14_im16.bmp_pos90_id14_im24.bmp,['Im_BradPitt.png', 'Im_PatrickDempsey.png', 'Im_RobertPattinson.png', 'Im_RyanGosling.png', 'Im_OrlandoBloom.png', 'Im_MattDamon.png', 'Im_DanielCraig.png', 'Im_RobertDowneyJr.png', 'Im_DanielRadcliffe.png', 'Im_LeonardoDiCaprio.png'],same,1,1888.1248208000034,20,85.71428571428571,
RIIS2206,4,pos,0,pos0_id4_im7.bmp_pos0_id16_im19.bmp,['Im_BradPitt.png', 'Im_PatrickDempsey.png', 'Im_RobertPattinson.png', 'Im_RyanGosling.png', 'Im_OrlandoBloom.png', 'Im_MattDamon.png', 'Im_DanielCraig.png', 'Im_RobertDowneyJr.png', 'Im_DanielRadcliffe.png', 'Im_LeonardoDiCaprio.png'],diff,1,1892.3663511000013,21,85.71428571428571,
RIIS2206,4,pos,150,pos150_id14_im16.bmp_pos150_id14_im18.bmp,['Im_BradPitt.png', 'Im_PatrickDempsey.png', 'Im_RobertPattinson.png', 'Im_RyanGosling.png', 'Im_OrlandoBloom.png', 'Im_MattDamon.png', 'Im_DanielCraig.png', 'Im_RobertDowneyJr.png', 'Im_DanielRadcliffe.png', 'Im_LeonardoDiCaprio.png'],same,1,1896.8080825000034,22,85.71428571428571,
RIIS2206,4,pos,30,pos30_id19_im8.bmp_pos30_id13_im29.bmp,['Im_BradPitt.png', 'Im_PatrickDempsey.png', 'Im_RobertPattinson.png', 'Im_RyanGosling.png', 'Im_OrlandoBloom.png', 'Im_MattDamon.png', 'Im_DanielCraig.png', 'Im_RobertDowneyJr.png', 'Im_DanielRadcliffe.png', 'Im_LeonardoDiCaprio.png'],same,0,1901.1333027,22,85.71428571428571,
RIIS2206,4,pos,fs,posfs_id19_im8.bmp_posfs_id19_im27.bmp,['Im_BradPitt.png', 'Im_PatrickDempsey.png', 'Im_RobertPattinson.png', 'Im_RyanGosling.png', 'Im_OrlandoBloom.png', 'Im_MattDamon.png', 'Im_DanielCraig.png', 'Im_RobertDowneyJr.png', 'Im_DanielRadcliffe.png', 'Im_LeonardoDiCaprio.png'],same,1,1905.533069000001,23,85.71428571428571,
RIIS2206,4,pos,90,pos90_id20_im30.bmp_pos90_id20_im12.bmp,['Im_BradPitt.png', 'Im_PatrickDempsey.png', 'Im_RobertPattinson.png', 'Im_RyanGosling.png', 'Im_OrlandoBloom.png', 'Im_MattDamon.png', 'Im_DanielCraig.png', 'Im_RobertDowneyJr.png', 'Im_DanielRadcliffe.png', 'Im_LeonardoDiCaprio.png'],same,1,1910.1663974000003,24,85.71428571428571,
RIIS2206,5,inv,60,pos60_id17_im8.bmp_pos60_id17_im9.bmp,['Im_BradPitt.png', 'Im_PatrickDempsey.png', 'Im_RobertPattinson.png', 'Im_RyanGosling.png', 'Im_OrlandoBloom.png', 'Im_MattDamon.png', 'Im_DanielCraig.png', 'Im_RobertDowneyJr.png', 'Im_DanielRadcliffe.png', 'Im_LeonardoDiCaprio.png'],same,1,1918.3580003000025,25,85.71428571428571,
RIIS2206,5,inv,0,pos0_id18_im19.bmp_pos0_id14_im16.bmp,['Im_BradPitt.png', 'Im_PatrickDempsey.png', 'Im_RobertPattinson.png', 'Im_RyanGosling.png', 'Im_OrlandoBloom.png', 'Im_MattDamon.png', 'Im_DanielCraig.png', 'Im_RobertDowneyJr.png', 'Im_DanielRadcliffe.png', 'Im_LeonardoDiCaprio.png'],same,0,1922.9163775000015,25,85.71428571428571,
RIIS2206,5,inv,120,pos120_id4_im15.bmp_pos120_id3_im17.bmp,['Im_BradPitt.png', 'Im_PatrickDempsey.png', 'Im_RobertPattinson.png', 'Im_RyanGosling.png', 'Im_OrlandoBloom.png', 'Im_MattDamon.png', 'Im_DanielCraig.png', 'Im_RobertDowneyJr.png', 'Im_DanielRadcliffe.png', 'Im_LeonardoDiCaprio.png'],same,0,1927.2580813000022,25,85.71428571428571,
RIIS2206,5,inv,150,pos150_id13_im15.bmp_pos150_id13_im10.bmp,['Im_BradPitt.png', 'Im_PatrickDempsey.png', 'Im_RobertPattinson.png', 'Im_RyanGosling.png', 'Im_OrlandoBloom.png', 'Im_MattDamon.png', 'Im_DanielCraig.png', 'Im_RobertDowneyJr.png', 'Im_DanielRadcliffe.png', 'Im_LeonardoDiCaprio.png'],diff,0,1931.916597200001,25,85.71428571428571,
RIIS2206,5,inv,fs,posfs_id16_im2.bmp_posfs_id4_im20.bmp,['Im_BradPitt.png', 'Im_PatrickDempsey.png', 'Im_RobertPattinson.png', 'Im_RyanGosling.png', 'Im_OrlandoBloom.png', 'Im_MattDamon.png', 'Im_DanielCraig.png', 'Im_RobertDowneyJr.png', 'Im_DanielRadcliffe.png', 'Im_LeonardoDiCaprio.png'],diff,1,1936.4497507000015,26,85.71428571428571,
RIIS2206,5,inv,60,pos60_id19_im4.bmp_pos60_id19_im8.bmp,['Im_BradPitt.png', 'Im_PatrickDempsey.png', 'Im_RobertPattinson.png', 'Im_RyanGosling.png', 'Im_OrlandoBloom.png', 'Im_MattDamon.png', 'Im_DanielCraig.png', 'Im_RobertDowneyJr.png', 'Im_DanielRadcliffe.png', 'Im_LeonardoDiCaprio.png'],same,1,1941.0498594000019,27,85.71428571428571,
RIIS2206,5,inv,90,pos90_id14_im24.bmp_pos90_id13_im29.bmp,['Im_BradPitt.png', 'Im_PatrickDempsey.png', 'Im_RobertPattinson.png', 'Im_RyanGosling.png', 'Im_OrlandoBloom.png', 'Im_MattDamon.png', 'Im_DanielCraig.png', 'Im_RobertDowneyJr.png', 'Im_DanielRadcliffe.png', 'Im_LeonardoDiCaprio.png'],diff,1,1945.6498588000031,28,85.71428571428571,
RIIS2206,5,inv,0,pos0_id17_im14.bmp_pos0_id20_im30.bmp,['Im_BradPitt.png', 'Im_PatrickDempsey.png', 'Im_RobertPattinson.png', 'Im_RyanGosling.png', 'Im_OrlandoBloom.png', 'Im_MattDamon.png', 'Im_DanielCraig.png', 'Im_RobertDowneyJr.png', 'Im_DanielRadcliffe.png', 'Im_LeonardoDiCaprio.png'],same,0,1949.8665686000022,28,85.71428571428571,
RIIS2206,5,inv,90,pos90_id14_im24.bmp_pos90_id20_im12.bmp,['Im_BradPitt.png', 'Im_PatrickDempsey.png', 'Im_RobertPattinson.png', 'Im_RyanGosling.png', 'Im_OrlandoBloom.png', 'Im_MattDamon.png', 'Im_DanielCraig.png', 'Im_RobertDowneyJr.png', 'Im_DanielRadcliffe.png', 'Im_LeonardoDiCaprio.png'],same,0,1954.6666673,28,85.71428571428571,
RIIS2206,5,inv,fs,posfs_id20_im30.bmp_posfs_id20_im3.bmp,['Im_BradPitt.png', 'Im_PatrickDempsey.png', 'Im_RobertPattinson.png', 'Im_RyanGosling.png', 'Im_OrlandoBloom.png', 'Im_MattDamon.png', 'Im_DanielCraig.png', 'Im_RobertDowneyJr.png', 'Im_DanielRadcliffe.png', 'Im_LeonardoDiCaprio.png'],same,1,1958.7581694,29,85.71428571428571,
RIIS2206,5,inv,150,pos150_id20_im30.bmp_pos150_id17_im14.bmp,['Im_BradPitt.png', 'Im_PatrickDempsey.png', 'Im_RobertPattinson.png', 'Im_RyanGosling.png', 'Im_OrlandoBloom.png', 'Im_MattDamon.png', 'Im_DanielCraig.png', 'Im_RobertDowneyJr.png', 'Im_DanielRadcliffe.png', 'Im_LeonardoDiCaprio.png'],same,0,1962.8498432000015,29,85.71428571428571,
RIIS2206,5,inv,30,pos30_id18_im19.bmp_pos30_id14_im16.bmp,['Im_BradPitt.png', 'Im_PatrickDempsey.png', 'Im_RobertPattinson.png', 'Im_RyanGosling.png', 'Im_OrlandoBloom.png', 'Im_MattDamon.png', 'Im_DanielCraig.png', 'Im_RobertDowneyJr.png', 'Im_DanielRadcliffe.png', 'Im_LeonardoDiCaprio.png'],diff,1,1967.7915250000005,30,85.71428571428571,
RIIS2206,5,inv,30,pos30_id17_im8.bmp_pos30_id17_im9.bmp,['Im_BradPitt.png', 'Im_PatrickDempsey.png', 'Im_RobertPattinson.png', 'Im_RyanGosling.png', 'Im_OrlandoBloom.png', 'Im_MattDamon.png', 'Im_DanielCraig.png', 'Im_RobertDowneyJr.png', 'Im_DanielRadcliffe.png', 'Im_LeonardoDiCaprio.png'],same,1,1972.3665089000024,31,85.71428571428571,
RIIS2206,5,inv,120,pos120_id16_im2.bmp_pos120_id14_im16.bmp,['Im_BradPitt.png', 'Im_PatrickDempsey.png', 'Im_RobertPattinson.png', 'Im_RyanGosling.png', 'Im_OrlandoBloom.png', 'Im_MattDamon.png', 'Im_DanielCraig.png', 'Im_RobertDowneyJr.png', 'Im_DanielRadcliffe.png', 'Im_LeonardoDiCaprio.png'],diff,1,1976.549745700002,32,85.71428571428571,
RIIS2206,6,inv,90,pos90_id17_im9.bmp_pos90_id17_im14.bmp,['Im_BradPitt.png', 'Im_PatrickDempsey.png', 'Im_RobertPattinson.png', 'Im_RyanGosling.png', 'Im_OrlandoBloom.png', 'Im_MattDamon.png', 'Im_DanielCraig.png', 'Im_RobertDowneyJr.png', 'Im_DanielRadcliffe.png', 'Im_LeonardoDiCaprio.png'],same,1,1999.1997938000022,1,76.19047619047619,
RIIS2206,6,inv,90,pos90_id19_im4.bmp_pos90_id4_im20.bmp,['Im_BradPitt.png', 'Im_PatrickDempsey.png', 'Im_RobertPattinson.png', 'Im_RyanGosling.png', 'Im_OrlandoBloom.png', 'Im_MattDamon.png', 'Im_DanielCraig.png', 'Im_RobertDowneyJr.png', 'Im_DanielRadcliffe.png', 'Im_LeonardoDiCaprio.png'],diff,1,2003.2998940000034,2,76.19047619047619,
RIIS2206,6,inv,150,pos150_id19_im4.bmp_pos150_id4_im20.bmp,['Im_BradPitt.png', 'Im_PatrickDempsey.png', 'Im_RobertPattinson.png', 'Im_RyanGosling.png', 'Im_OrlandoBloom.png', 'Im_MattDamon.png', 'Im_DanielCraig.png', 'Im_RobertDowneyJr.png', 'Im_DanielRadcliffe.png', 'Im_LeonardoDiCaprio.png'],diff,1,2007.891543400001,3,76.19047619047619,
RIIS2206,6,inv,150,pos150_id19_im8.bmp_pos150_id3_im6.bmp,['Im_BradPitt.png', 'Im_PatrickDempsey.png', 'Im_RobertPattinson.png', 'Im_RyanGosling.png', 'Im_OrlandoBloom.png', 'Im_MattDamon.png', 'Im_DanielCraig.png', 'Im_RobertDowneyJr.png', 'Im_DanielRadcliffe.png', 'Im_LeonardoDiCaprio.png'],diff,1,2012.5834201000034,4,76.19047619047619,
RIIS2206,6,inv,60,pos60_id20_im12.bmp_pos60_id14_im24.bmp,['Im_BradPitt.png', 'Im_PatrickDempsey.png', 'Im_RobertPattinson.png', 'Im_RyanGosling.png', 'Im_OrlandoBloom.png', 'Im_MattDamon.png', 'Im_DanielCraig.png', 'Im_RobertDowneyJr.png', 'Im_DanielRadcliffe.png', 'Im_LeonardoDiCaprio.png'],same,0,2016.766674100003,4,76.19047619047619,
RIIS2206,6,inv,120,pos120_id20_im12.bmp_pos120_id13_im10.bmp,['Im_BradPitt.png', 'Im_PatrickDempsey.png', 'Im_RobertPattinson.png', 'Im_RyanGosling.png', 'Im_OrlandoBloom.png', 'Im_MattDamon.png', 'Im_DanielCraig.png', 'Im_RobertDowneyJr.png', 'Im_DanielRadcliffe.png', 'Im_LeonardoDiCaprio.png'],diff,1,2021.0083124000012,5,76.19047619047619,
RIIS2206,6,inv,fs,posfs_id13_im15.bmp_posfs_id13_im29.bmp,['Im_BradPitt.png', 'Im_PatrickDempsey.png', 'Im_RobertPattinson.png', 'Im_RyanGosling.png', 'Im_OrlandoBloom.png', 'Im_MattDamon.png', 'Im_DanielCraig.png', 'Im_RobertDowneyJr.png', 'Im_DanielRadcliffe.png', 'Im_LeonardoDiCaprio.png'],same,1,2026.0999357,6,76.19047619047619,
RIIS2206,6,inv,fs,posfs_id3_im8.bmp_posfs_id3_im6.bmp,['Im_BradPitt.png', 'Im_PatrickDempsey.png', 'Im_RobertPattinson.png', 'Im_RyanGosling.png', 'Im_OrlandoBloom.png', 'Im_MattDamon.png', 'Im_DanielCraig.png', 'Im_RobertDowneyJr.png', 'Im_DanielRadcliffe.png', 'Im_LeonardoDiCaprio.png'],same,1,2030.6916695,7,76.19047619047619,
RIIS2206,6,inv,60,pos60_id18_im19.bmp_pos60_id14_im16.bmp,['Im_BradPitt.png', 'Im_PatrickDempsey.png', 'Im_RobertPattinson.png', 'Im_RyanGosling.png', 'Im_OrlandoBloom.png', 'Im_MattDamon.png', 'Im_DanielCraig.png', 'Im_RobertDowneyJr.png', 'Im_DanielRadcliffe.png', 'Im_LeonardoDiCaprio.png'],diff,1,2035.0918390000006,8,76.19047619047619,
RIIS2206,6,inv,120,pos120_id19_im8.bmp_pos120_id13_im29.bmp,['Im_BradPitt.png', 'Im_PatrickDempsey.png', 'Im_RobertPattinson.png', 'Im_RyanGosling.png', 'Im_OrlandoBloom.png', 'Im_MattDamon.png', 'Im_DanielCraig.png', 'Im_RobertDowneyJr.png', 'Im_DanielRadcliffe.png', 'Im_LeonardoDiCaprio.png'],same,0,2039.5499407000025,8,76.19047619047619,
RIIS2206,6,inv,0,pos0_id19_im27.bmp_pos0_id19_im8.bmp,['Im_BradPitt.png', 'Im_PatrickDempsey.png', 'Im_RobertPattinson.png', 'Im_RyanGosling.png', 'Im_OrlandoBloom.png', 'Im_MattDamon.png', 'Im_DanielCraig.png', 'Im_RobertDowneyJr.png', 'Im_DanielRadcliffe.png', 'Im_LeonardoDiCaprio.png'],same,1,2044.2332872000006,9,76.19047619047619,
RIIS2206,6,inv,30,pos30_id19_im4.bmp_pos30_id4_im20.bmp,['Im_BradPitt.png', 'Im_PatrickDempsey.png', 'Im_RobertPattinson.png', 'Im_RyanGosling.png', 'Im_OrlandoBloom.png', 'Im_MattDamon.png', 'Im_DanielCraig.png', 'Im_RobertDowneyJr.png', 'Im_DanielRadcliffe.png', 'Im_LeonardoDiCaprio.png'],diff,1,2048.391594500001,10,76.19047619047619,
RIIS2206,6,inv,30,pos30_id19_im4.bmp_pos30_id4_im7.bmp,['Im_BradPitt.png', 'Im_PatrickDempsey.png', 'Im_RobertPattinson.png', 'Im_RyanGosling.png', 'Im_OrlandoBloom.png', 'Im_MattDamon.png', 'Im_DanielCraig.png', 'Im_RobertDowneyJr.png', 'Im_DanielRadcliffe.png', 'Im_LeonardoDiCaprio.png'],diff,1,2052.583247900002,11,76.19047619047619,
RIIS2206,6,inv,0,pos0_id19_im8.bmp_pos0_id13_im29.bmp,['Im_BradPitt.png', 'Im_PatrickDempsey.png', 'Im_RobertPattinson.png', 'Im_RyanGosling.png', 'Im_OrlandoBloom.png', 'Im_MattDamon.png', 'Im_DanielCraig.png', 'Im_RobertDowneyJr.png', 'Im_DanielRadcliffe.png', 'Im_LeonardoDiCaprio.png'],diff,1,2057.1166858000033,12,76.19047619047619,
RIIS2206,7,pos,120,pos120_id4_im15.bmp_pos120_id4_im7.bmp,['Im_BradPitt.png', 'Im_PatrickDempsey.png', 'Im_RobertPattinson.png', 'Im_RyanGosling.png', 'Im_OrlandoBloom.png', 'Im_MattDamon.png', 'Im_DanielCraig.png', 'Im_RobertDowneyJr.png', 'Im_DanielRadcliffe.png', 'Im_LeonardoDiCaprio.png'],same,1,2064.833296500001,13,76.19047619047619,
RIIS2206,7,pos,60,pos60_id3_im8.bmp_pos60_id17_im9.bmp,['Im_BradPitt.png', 'Im_PatrickDempsey.png', 'Im_RobertPattinson.png', 'Im_RyanGosling.png', 'Im_OrlandoBloom.png', 'Im_MattDamon.png', 'Im_DanielCraig.png', 'Im_RobertDowneyJr.png', 'Im_DanielRadcliffe.png', 'Im_LeonardoDiCaprio.png'],diff,1,2069.2583047000007,14,76.19047619047619,
RIIS2206,7,pos,120,pos120_id18_im19.bmp_pos120_id16_im3.bmp,['Im_BradPitt.png', 'Im_PatrickDempsey.png', 'Im_RobertPattinson.png', 'Im_RyanGosling.png', 'Im_OrlandoBloom.png', 'Im_MattDamon.png', 'Im_DanielCraig.png', 'Im_RobertDowneyJr.png', 'Im_DanielRadcliffe.png', 'Im_LeonardoDiCaprio.png'],diff,1,2073.683359300001,15,76.19047619047619,
RIIS2206,7,pos,150,pos150_id20_im30.bmp_pos150_id20_im3.bmp,['Im_BradPitt.png', 'Im_PatrickDempsey.png', 'Im_RobertPattinson.png', 'Im_RyanGosling.png', 'Im_OrlandoBloom.png', 'Im_MattDamon.png', 'Im_DanielCraig.png', 'Im_RobertDowneyJr.png', 'Im_DanielRadcliffe.png', 'Im_LeonardoDiCaprio.png'],same,1,2078.0583909000015,16,76.19047619047619,
RIIS2206,7,pos,90,pos90_id5_im10.bmp_pos90_id5_im20.bmp,['Im_BradPitt.png', 'Im_PatrickDempsey.png', 'Im_RobertPattinson.png', 'Im_RyanGosling.png', 'Im_OrlandoBloom.png', 'Im_MattDamon.png', 'Im_DanielCraig.png', 'Im_RobertDowneyJr.png', 'Im_DanielRadcliffe.png', 'Im_LeonardoDiCaprio.png'],same,1,2082.2583357000003,17,76.19047619047619,
RIIS2206,7,pos,30,pos30_id5_im10.bmp_pos30_id19_im27.bmp,['Im_BradPitt.png', 'Im_PatrickDempsey.png', 'Im_RobertPattinson.png', 'Im_RyanGosling.png', 'Im_OrlandoBloom.png', 'Im_MattDamon.png', 'Im_DanielCraig.png', 'Im_RobertDowneyJr.png', 'Im_DanielRadcliffe.png', 'Im_LeonardoDiCaprio.png'],diff,1,2086.741691500003,18,76.19047619047619,
RIIS2206,7,pos,30,pos30_id4_im20.bmp_pos30_id19_im4.bmp,['Im_BradPitt.png', 'Im_PatrickDempsey.png', 'Im_RobertPattinson.png', 'Im_RyanGosling.png', 'Im_OrlandoBloom.png', 'Im_MattDamon.png', 'Im_DanielCraig.png', 'Im_RobertDowneyJr.png', 'Im_DanielRadcliffe.png', 'Im_LeonardoDiCaprio.png'],diff,1,2090.9000748000035,19,76.19047619047619,
RIIS2206,7,pos,60,pos60_id17_im14.bmp_pos60_id20_im30.bmp,['Im_BradPitt.png', 'Im_PatrickDempsey.png', 'Im_RobertPattinson.png', 'Im_RyanGosling.png', 'Im_OrlandoBloom.png', 'Im_MattDamon.png', 'Im_DanielCraig.png', 'Im_RobertDowneyJr.png', 'Im_DanielRadcliffe.png', 'Im_LeonardoDiCaprio.png'],diff,1,2095.400041300003,20,76.19047619047619,
RIIS2206,7,pos,fs,posfs_id16_im3.bmp_posfs_id16_im2.bmp,['Im_BradPitt.png', 'Im_PatrickDempsey.png', 'Im_RobertPattinson.png', 'Im_RyanGosling.png', 'Im_OrlandoBloom.png', 'Im_MattDamon.png', 'Im_DanielCraig.png', 'Im_RobertDowneyJr.png', 'Im_DanielRadcliffe.png', 'Im_LeonardoDiCaprio.png'],same,1,2099.883367800001,21,76.19047619047619,
RIIS2206,7,pos,90,pos90_id3_im8.bmp_pos90_id17_im9.bmp,['Im_BradPitt.png', 'Im_PatrickDempsey.png', 'Im_RobertPattinson.png', 'Im_RyanGosling.png', 'Im_OrlandoBloom.png', 'Im_MattDamon.png', 'Im_DanielCraig.png', 'Im_RobertDowneyJr.png', 'Im_DanielRadcliffe.png', 'Im_LeonardoDiCaprio.png'],diff,1,2104.0916569,22,76.19047619047619,
RIIS2206,7,pos,0,pos0_id13_im29.bmp_pos0_id13_im15.bmp,['Im_BradPitt.png', 'Im_PatrickDempsey.png', 'Im_RobertPattinson.png', 'Im_RyanGosling.png', 'Im_OrlandoBloom.png', 'Im_MattDamon.png', 'Im_DanielCraig.png', 'Im_RobertDowneyJr.png', 'Im_DanielRadcliffe.png', 'Im_LeonardoDiCaprio.png'],same,1,2108.741781800003,23,76.19047619047619,
RIIS2206,7,pos,0,pos0_id19_im4.bmp_pos0_id4_im20.bmp,['Im_BradPitt.png', 'Im_PatrickDempsey.png', 'Im_RobertPattinson.png', 'Im_RyanGosling.png', 'Im_OrlandoBloom.png', 'Im_MattDamon.png', 'Im_DanielCraig.png', 'Im_RobertDowneyJr.png', 'Im_DanielRadcliffe.png', 'Im_LeonardoDiCaprio.png'],diff,1,2113.1665955000026,24,76.19047619047619,
RIIS2206,7,pos,150,pos150_id16_im2.bmp_pos150_id4_im20.bmp,['Im_BradPitt.png', 'Im_PatrickDempsey.png', 'Im_RobertPattinson.png', 'Im_RyanGosling.png', 'Im_OrlandoBloom.png', 'Im_MattDamon.png', 'Im_DanielCraig.png', 'Im_RobertDowneyJr.png', 'Im_DanielRadcliffe.png', 'Im_LeonardoDiCaprio.png'],diff,1,2117.516762500003,25,76.19047619047619,
RIIS2206,7,pos,fs,posfs_id16_im19.bmp_posfs_id16_im3.bmp,['Im_BradPitt.png', 'Im_PatrickDempsey.png', 'Im_RobertPattinson.png', 'Im_RyanGosling.png', 'Im_OrlandoBloom.png', 'Im_MattDamon.png', 'Im_DanielCraig.png', 'Im_RobertDowneyJr.png', 'Im_DanielRadcliffe.png', 'Im_LeonardoDiCaprio.png'],same,1,2121.849971900003,26,76.19047619047619,
RIIS2206,8,neg,90,neg90_id3_im8.bmp_neg90_id3_im6.bmp,['Im_BradPitt.png', 'Im_PatrickDempsey.png', 'Im_RobertPattinson.png', 'Im_RyanGosling.png', 'Im_OrlandoBloom.png', 'Im_MattDamon.png', 'Im_DanielCraig.png', 'Im_RobertDowneyJr.png', 'Im_DanielRadcliffe.png', 'Im_LeonardoDiCaprio.png'],same,1,2129.5500648000016,27,76.19047619047619,
RIIS2206,8,neg,30,neg30_id4_im20.bmp_neg30_id19_im4.bmp,['Im_BradPitt.png', 'Im_PatrickDempsey.png', 'Im_RobertPattinson.png', 'Im_RyanGosling.png', 'Im_OrlandoBloom.png', 'Im_MattDamon.png', 'Im_DanielCraig.png', 'Im_RobertDowneyJr.png', 'Im_DanielRadcliffe.png', 'Im_LeonardoDiCaprio.png'],diff,1,2134.0667761000004,28,76.19047619047619,
RIIS2206,8,neg,90,neg90_id20_im3.bmp_neg90_id20_im30.bmp,['Im_BradPitt.png', 'Im_PatrickDempsey.png', 'Im_RobertPattinson.png', 'Im_RyanGosling.png', 'Im_OrlandoBloom.png', 'Im_MattDamon.png', 'Im_DanielCraig.png', 'Im_RobertDowneyJr.png', 'Im_DanielRadcliffe.png', 'Im_LeonardoDiCaprio.png'],same,1,2138.483398700002,29,76.19047619047619,
RIIS2206,8,neg,120,neg120_id5_im10.bmp_neg120_id19_im27.bmp,['Im_BradPitt.png', 'Im_PatrickDempsey.png', 'Im_RobertPattinson.png', 'Im_RyanGosling.png', 'Im_OrlandoBloom.png', 'Im_MattDamon.png', 'Im_DanielCraig.png', 'Im_RobertDowneyJr.png', 'Im_DanielRadcliffe.png', 'Im_LeonardoDiCaprio.png'],same,0,2143.2834716000034,29,76.19047619047619,
RIIS2206,8,neg,30,neg30_id5_im10.bmp_neg30_id18_im18.bmp,['Im_BradPitt.png', 'Im_PatrickDempsey.png', 'Im_RobertPattinson.png', 'Im_RyanGosling.png', 'Im_OrlandoBloom.png', 'Im_MattDamon.png', 'Im_DanielCraig.png', 'Im_RobertDowneyJr.png', 'Im_DanielRadcliffe.png', 'Im_LeonardoDiCaprio.png'],diff,1,2147.7583675000024,30,76.19047619047619,
RIIS2206,8,neg,0,neg0_id18_im11.bmp_neg0_id14_im18.bmp,['Im_BradPitt.png', 'Im_PatrickDempsey.png', 'Im_RobertPattinson.png', 'Im_RyanGosling.png', 'Im_OrlandoBloom.png', 'Im_MattDamon.png', 'Im_DanielCraig.png', 'Im_RobertDowneyJr.png', 'Im_DanielRadcliffe.png', 'Im_LeonardoDiCaprio.png'],same,0,2152.1835009000024,30,76.19047619047619,
RIIS2206,8,neg,0,neg0_id3_im6.bmp_neg0_id19_im8.bmp,['Im_BradPitt.png', 'Im_PatrickDempsey.png', 'Im_RobertPattinson.png', 'Im_RyanGosling.png', 'Im_OrlandoBloom.png', 'Im_MattDamon.png', 'Im_DanielCraig.png', 'Im_RobertDowneyJr.png', 'Im_DanielRadcliffe.png', 'Im_LeonardoDiCaprio.png'],diff,1,2156.8501417000007,31,76.19047619047619,
RIIS2206,8,neg,60,neg60_id18_im18.bmp_neg60_id18_im11.bmp,['Im_BradPitt.png', 'Im_PatrickDempsey.png', 'Im_RobertPattinson.png', 'Im_RyanGosling.png', 'Im_OrlandoBloom.png', 'Im_MattDamon.png', 'Im_DanielCraig.png', 'Im_RobertDowneyJr.png', 'Im_DanielRadcliffe.png', 'Im_LeonardoDiCaprio.png'],same,1,2161.183505600002,32,76.19047619047619,
RIIS2206,8,neg,120,neg120_id18_im18.bmp_neg120_id5_im10.bmp,['Im_BradPitt.png', 'Im_PatrickDempsey.png', 'Im_RobertPattinson.png', 'Im_RyanGosling.png', 'Im_OrlandoBloom.png', 'Im_MattDamon.png', 'Im_DanielCraig.png', 'Im_RobertDowneyJr.png', 'Im_DanielRadcliffe.png', 'Im_LeonardoDiCaprio.png'],diff,1,2165.4584609000012,33,76.19047619047619,
RIIS2206,8,neg,150,neg150_id16_im3.bmp_neg150_id16_im19.bmp,['Im_BradPitt.png', 'Im_PatrickDempsey.png', 'Im_RobertPattinson.png', 'Im_RyanGosling.png', 'Im_OrlandoBloom.png', 'Im_MattDamon.png', 'Im_DanielCraig.png', 'Im_RobertDowneyJr.png', 'Im_DanielRadcliffe.png', 'Im_LeonardoDiCaprio.png'],same,1,2169.658477600002,34,76.19047619047619,
RIIS2206,8,neg,fs,negfs_id14_im24.bmp_negfs_id20_im12.bmp,['Im_BradPitt.png', 'Im_PatrickDempsey.png', 'Im_RobertPattinson.png', 'Im_RyanGosling.png', 'Im_OrlandoBloom.png', 'Im_MattDamon.png', 'Im_DanielCraig.png', 'Im_RobertDowneyJr.png', 'Im_DanielRadcliffe.png', 'Im_LeonardoDiCaprio.png'],diff,1,2174.258504100002,35,76.19047619047619,
RIIS2206,8,neg,fs,negfs_id3_im8.bmp_negfs_id17_im9.bmp,['Im_BradPitt.png', 'Im_PatrickDempsey.png', 'Im_RobertPattinson.png', 'Im_RyanGosling.png', 'Im_OrlandoBloom.png', 'Im_MattDamon.png', 'Im_DanielCraig.png', 'Im_RobertDowneyJr.png', 'Im_DanielRadcliffe.png', 'Im_LeonardoDiCaprio.png'],diff,1,2178.808574800001,36,76.19047619047619,
RIIS2206,8,neg,150,neg150_id5_im20.bmp_neg150_id20_im30.bmp,['Im_BradPitt.png', 'Im_PatrickDempsey.png', 'Im_RobertPattinson.png', 'Im_RyanGosling.png', 'Im_OrlandoBloom.png', 'Im_MattDamon.png', 'Im_DanielCraig.png', 'Im_RobertDowneyJr.png', 'Im_DanielRadcliffe.png', 'Im_LeonardoDiCaprio.png'],diff,1,2183.1501817000026,37,76.19047619047619,
RIIS2206,8,neg,60,neg60_id17_im9.bmp_neg60_id17_im14.bmp,['Im_BradPitt.png', 'Im_PatrickDempsey.png', 'Im_RobertPattinson.png', 'Im_RyanGosling.png', 'Im_OrlandoBloom.png', 'Im_MattDamon.png', 'Im_DanielCraig.png', 'Im_RobertDowneyJr.png', 'Im_DanielRadcliffe.png', 'Im_LeonardoDiCaprio.png'],same,1,2187.3168947000013,38,76.19047619047619,
