Sujet,Trial,Condition,Filter,Imname,Actor0,Actor1,Actor2,Actor3,Actor4,Actor5,Actor6,Actor7,Actor8,Actor9,Answer,Accu,RT,Score,Scoreperc, 
RIIS2206,train,neg,60,neg60_id3_im8.bmp_neg60_id3_im6.bmp,['Im_MattDamon.png', 'Im_LeonardoDiCaprio.png', 'Im_DanielRadcliffe.png', 'Im_PatrickDempsey.png', 'Im_OrlandoBloom.png', 'Im_DanielCraig.png', 'Im_RobertDowneyJr.png', 'Im_BradPitt.png', 'Im_RyanGosling.png', 'Im_RobertPattinson.png'],diff,0,101.11530589999984,0,0,
RIIS2206,train,neg,0,neg0_id16_im19.bmp_neg0_id19_im27.bmp,['Im_MattDamon.png', 'Im_LeonardoDiCaprio.png', 'Im_DanielRadcliffe.png', 'Im_PatrickDempsey.png', 'Im_OrlandoBloom.png', 'Im_DanielCraig.png', 'Im_RobertDowneyJr.png', 'Im_BradPitt.png', 'Im_RyanGosling.png', 'Im_RobertPattinson.png'],same,0,104.87338060000002,0,0,
RIIS2206,train,neg,90,neg90_id18_im18.bmp_neg90_id18_im11.bmp,['Im_MattDamon.png', 'Im_LeonardoDiCaprio.png', 'Im_DanielRadcliffe.png', 'Im_PatrickDempsey.png', 'Im_OrlandoBloom.png', 'Im_DanielCraig.png', 'Im_RobertDowneyJr.png', 'Im_BradPitt.png', 'Im_RyanGosling.png', 'Im_RobertPattinson.png'],same,1,108.87351789999957,1,0,
RIIS2206,train,neg,30,neg30_id5_im20.bmp_neg30_id5_im1.bmp,['Im_MattDamon.png', 'Im_LeonardoDiCaprio.png', 'Im_DanielRadcliffe.png', 'Im_PatrickDempsey.png', 'Im_OrlandoBloom.png', 'Im_DanielCraig.png', 'Im_RobertDowneyJr.png', 'Im_BradPitt.png', 'Im_RyanGosling.png', 'Im_RobertPattinson.png'],same,1,112.9401769999995,2,0,
RIIS2206,train,neg,30,neg30_id5_im1.bmp_neg30_id16_im3.bmp,['Im_MattDamon.png', 'Im_LeonardoDiCaprio.png', 'Im_DanielRadcliffe.png', 'Im_PatrickDempsey.png', 'Im_OrlandoBloom.png', 'Im_DanielCraig.png', 'Im_RobertDowneyJr.png', 'Im_BradPitt.png', 'Im_RyanGosling.png', 'Im_RobertPattinson.png'],diff,1,116.91520789999959,3,0,
RIIS2206,train,neg,150,neg150_id4_im20.bmp_neg150_id4_im7.bmp,['Im_MattDamon.png', 'Im_LeonardoDiCaprio.png', 'Im_DanielRadcliffe.png', 'Im_PatrickDempsey.png', 'Im_OrlandoBloom.png', 'Im_DanielCraig.png', 'Im_RobertDowneyJr.png', 'Im_BradPitt.png', 'Im_RyanGosling.png', 'Im_RobertPattinson.png'],same,1,120.54012259999945,4,0,
RIIS2206,train,neg,120,neg120_id18_im18.bmp_neg120_id18_im19.bmp,['Im_MattDamon.png', 'Im_LeonardoDiCaprio.png', 'Im_DanielRadcliffe.png', 'Im_PatrickDempsey.png', 'Im_OrlandoBloom.png', 'Im_DanielCraig.png', 'Im_RobertDowneyJr.png', 'Im_BradPitt.png', 'Im_RyanGosling.png', 'Im_RobertPattinson.png'],same,1,124.30663189999996,5,0,
RIIS2206,train,neg,0,neg0_id19_im8.bmp_neg0_id13_im29.bmp,['Im_MattDamon.png', 'Im_LeonardoDiCaprio.png', 'Im_DanielRadcliffe.png', 'Im_PatrickDempsey.png', 'Im_OrlandoBloom.png', 'Im_DanielCraig.png', 'Im_RobertDowneyJr.png', 'Im_BradPitt.png', 'Im_RyanGosling.png', 'Im_RobertPattinson.png'],same,0,128.3982672000002,5,0,
RIIS2206,train,neg,90,neg90_id13_im10.bmp_neg90_id4_im15.bmp,['Im_MattDamon.png', 'Im_LeonardoDiCaprio.png', 'Im_DanielRadcliffe.png', 'Im_PatrickDempsey.png', 'Im_OrlandoBloom.png', 'Im_DanielCraig.png', 'Im_RobertDowneyJr.png', 'Im_BradPitt.png', 'Im_RyanGosling.png', 'Im_RobertPattinson.png'],diff,1,132.3651651,6,0,
RIIS2206,train,neg,fs,negfs_id18_im11.bmp_negfs_id18_im19.bmp,['Im_MattDamon.png', 'Im_LeonardoDiCaprio.png', 'Im_DanielRadcliffe.png', 'Im_PatrickDempsey.png', 'Im_OrlandoBloom.png', 'Im_DanielCraig.png', 'Im_RobertDowneyJr.png', 'Im_BradPitt.png', 'Im_RyanGosling.png', 'Im_RobertPattinson.png'],same,1,136.44008519999988,7,0,
RIIS2206,train,neg,150,neg150_id19_im8.bmp_neg150_id19_im27.bmp,['Im_MattDamon.png', 'Im_LeonardoDiCaprio.png', 'Im_DanielRadcliffe.png', 'Im_PatrickDempsey.png', 'Im_OrlandoBloom.png', 'Im_DanielCraig.png', 'Im_RobertDowneyJr.png', 'Im_BradPitt.png', 'Im_RyanGosling.png', 'Im_RobertPattinson.png'],same,1,140.17339059999995,8,0,
RIIS2206,train,neg,fs,negfs_id18_im18.bmp_negfs_id18_im11.bmp,['Im_MattDamon.png', 'Im_LeonardoDiCaprio.png', 'Im_DanielRadcliffe.png', 'Im_PatrickDempsey.png', 'Im_OrlandoBloom.png', 'Im_DanielCraig.png', 'Im_RobertDowneyJr.png', 'Im_BradPitt.png', 'Im_RyanGosling.png', 'Im_RobertPattinson.png'],same,1,143.87335279999934,9,0,
RIIS2206,train,neg,60,neg60_id16_im19.bmp_neg60_id16_im3.bmp,['Im_MattDamon.png', 'Im_LeonardoDiCaprio.png', 'Im_DanielRadcliffe.png', 'Im_PatrickDempsey.png', 'Im_OrlandoBloom.png', 'Im_DanielCraig.png', 'Im_RobertDowneyJr.png', 'Im_BradPitt.png', 'Im_RyanGosling.png', 'Im_RobertPattinson.png'],same,1,147.71500959999958,10,0,
RIIS2206,train,neg,120,neg120_id18_im19.bmp_neg120_id16_im3.bmp,['Im_MattDamon.png', 'Im_LeonardoDiCaprio.png', 'Im_DanielRadcliffe.png', 'Im_PatrickDempsey.png', 'Im_OrlandoBloom.png', 'Im_DanielCraig.png', 'Im_RobertDowneyJr.png', 'Im_BradPitt.png', 'Im_RyanGosling.png', 'Im_RobertPattinson.png'],diff,1,151.45669799999996,11,0,
RIIS2206,train,pos,90,pos90_id18_im18.bmp_pos90_id18_im19.bmp,['Im_MattDamon.png', 'Im_LeonardoDiCaprio.png', 'Im_DanielRadcliffe.png', 'Im_PatrickDempsey.png', 'Im_OrlandoBloom.png', 'Im_DanielCraig.png', 'Im_RobertDowneyJr.png', 'Im_BradPitt.png', 'Im_RyanGosling.png', 'Im_RobertPattinson.png'],same,1,155.42336859999978,12,0,
RIIS2206,train,pos,60,pos60_id14_im16.bmp_pos60_id16_im2.bmp,['Im_MattDamon.png', 'Im_LeonardoDiCaprio.png', 'Im_DanielRadcliffe.png', 'Im_PatrickDempsey.png', 'Im_OrlandoBloom.png', 'Im_DanielCraig.png', 'Im_RobertDowneyJr.png', 'Im_BradPitt.png', 'Im_RyanGosling.png', 'Im_RobertPattinson.png'],diff,1,159.13159209999958,13,0,
RIIS2206,train,pos,150,pos150_id5_im10.bmp_pos150_id5_im1.bmp,['Im_MattDamon.png', 'Im_LeonardoDiCaprio.png', 'Im_DanielRadcliffe.png', 'Im_PatrickDempsey.png', 'Im_OrlandoBloom.png', 'Im_DanielCraig.png', 'Im_RobertDowneyJr.png', 'Im_BradPitt.png', 'Im_RyanGosling.png', 'Im_RobertPattinson.png'],same,1,162.8233311999993,14,0,
RIIS2206,train,pos,150,pos150_id13_im15.bmp_pos150_id20_im3.bmp,['Im_MattDamon.png', 'Im_LeonardoDiCaprio.png', 'Im_DanielRadcliffe.png', 'Im_PatrickDempsey.png', 'Im_OrlandoBloom.png', 'Im_DanielCraig.png', 'Im_RobertDowneyJr.png', 'Im_BradPitt.png', 'Im_RyanGosling.png', 'Im_RobertPattinson.png'],diff,1,166.9400015000001,15,0,
RIIS2206,train,pos,30,pos30_id4_im15.bmp_pos30_id4_im7.bmp,['Im_MattDamon.png', 'Im_LeonardoDiCaprio.png', 'Im_DanielRadcliffe.png', 'Im_PatrickDempsey.png', 'Im_OrlandoBloom.png', 'Im_DanielCraig.png', 'Im_RobertDowneyJr.png', 'Im_BradPitt.png', 'Im_RyanGosling.png', 'Im_RobertPattinson.png'],same,1,170.57329519999985,16,0,
RIIS2206,train,pos,30,pos30_id3_im17.bmp_pos30_id3_im8.bmp,['Im_MattDamon.png', 'Im_LeonardoDiCaprio.png', 'Im_DanielRadcliffe.png', 'Im_PatrickDempsey.png', 'Im_OrlandoBloom.png', 'Im_DanielCraig.png', 'Im_RobertDowneyJr.png', 'Im_BradPitt.png', 'Im_RyanGosling.png', 'Im_RobertPattinson.png'],same,1,174.4981502999999,17,0,
RIIS2206,train,pos,60,pos60_id20_im12.bmp_pos60_id20_im30.bmp,['Im_MattDamon.png', 'Im_LeonardoDiCaprio.png', 'Im_DanielRadcliffe.png', 'Im_PatrickDempsey.png', 'Im_OrlandoBloom.png', 'Im_DanielCraig.png', 'Im_RobertDowneyJr.png', 'Im_BradPitt.png', 'Im_RyanGosling.png', 'Im_RobertPattinson.png'],same,1,178.55651859999944,18,0,
RIIS2206,train,pos,0,pos0_id5_im10.bmp_pos0_id5_im20.bmp,['Im_MattDamon.png', 'Im_LeonardoDiCaprio.png', 'Im_DanielRadcliffe.png', 'Im_PatrickDempsey.png', 'Im_OrlandoBloom.png', 'Im_DanielCraig.png', 'Im_RobertDowneyJr.png', 'Im_BradPitt.png', 'Im_RyanGosling.png', 'Im_RobertPattinson.png'],same,1,182.2066291000001,19,0,
RIIS2206,train,pos,fs,posfs_id19_im27.bmp_posfs_id16_im19.bmp,['Im_MattDamon.png', 'Im_LeonardoDiCaprio.png', 'Im_DanielRadcliffe.png', 'Im_PatrickDempsey.png', 'Im_OrlandoBloom.png', 'Im_DanielCraig.png', 'Im_RobertDowneyJr.png', 'Im_BradPitt.png', 'Im_RyanGosling.png', 'Im_RobertPattinson.png'],diff,1,186.05662399999983,20,0,
RIIS2206,train,pos,90,pos90_id18_im11.bmp_pos90_id18_im19.bmp,['Im_MattDamon.png', 'Im_LeonardoDiCaprio.png', 'Im_DanielRadcliffe.png', 'Im_PatrickDempsey.png', 'Im_OrlandoBloom.png', 'Im_DanielCraig.png', 'Im_RobertDowneyJr.png', 'Im_BradPitt.png', 'Im_RyanGosling.png', 'Im_RobertPattinson.png'],same,1,189.85660629999984,21,0,
RIIS2206,train,pos,0,pos0_id4_im15.bmp_pos0_id13_im10.bmp,['Im_MattDamon.png', 'Im_LeonardoDiCaprio.png', 'Im_DanielRadcliffe.png', 'Im_PatrickDempsey.png', 'Im_OrlandoBloom.png', 'Im_DanielCraig.png', 'Im_RobertDowneyJr.png', 'Im_BradPitt.png', 'Im_RyanGosling.png', 'Im_RobertPattinson.png'],diff,1,193.6231472999998,22,0,
RIIS2206,train,pos,120,pos120_id18_im11.bmp_pos120_id18_im18.bmp,['Im_MattDamon.png', 'Im_LeonardoDiCaprio.png', 'Im_DanielRadcliffe.png', 'Im_PatrickDempsey.png', 'Im_OrlandoBloom.png', 'Im_DanielCraig.png', 'Im_RobertDowneyJr.png', 'Im_BradPitt.png', 'Im_RyanGosling.png', 'Im_RobertPattinson.png'],same,1,197.7814258999997,23,0,
RIIS2206,train,pos,120,pos120_id20_im3.bmp_pos120_id20_im12.bmp,['Im_MattDamon.png', 'Im_LeonardoDiCaprio.png', 'Im_DanielRadcliffe.png', 'Im_PatrickDempsey.png', 'Im_OrlandoBloom.png', 'Im_DanielCraig.png', 'Im_RobertDowneyJr.png', 'Im_BradPitt.png', 'Im_RyanGosling.png', 'Im_RobertPattinson.png'],same,1,201.71493120000014,24,0,
RIIS2206,train,pos,fs,posfs_id18_im18.bmp_posfs_id18_im11.bmp,['Im_MattDamon.png', 'Im_LeonardoDiCaprio.png', 'Im_DanielRadcliffe.png', 'Im_PatrickDempsey.png', 'Im_OrlandoBloom.png', 'Im_DanielCraig.png', 'Im_RobertDowneyJr.png', 'Im_BradPitt.png', 'Im_RyanGosling.png', 'Im_RobertPattinson.png'],same,1,205.42324089999966,25,0,
RIIS2206,train,neg,60,neg60_id5_im1.bmp_neg60_id5_im10.bmp,['Im_MattDamon.png', 'Im_LeonardoDiCaprio.png', 'Im_DanielRadcliffe.png', 'Im_PatrickDempsey.png', 'Im_OrlandoBloom.png', 'Im_DanielCraig.png', 'Im_RobertDowneyJr.png', 'Im_BradPitt.png', 'Im_RyanGosling.png', 'Im_RobertPattinson.png'],same,1,209.20642059999955,26,0,
RIIS2206,train,neg,90,neg90_id17_im8.bmp_neg90_id13_im15.bmp,['Im_MattDamon.png', 'Im_LeonardoDiCaprio.png', 'Im_DanielRadcliffe.png', 'Im_PatrickDempsey.png', 'Im_OrlandoBloom.png', 'Im_DanielCraig.png', 'Im_RobertDowneyJr.png', 'Im_BradPitt.png', 'Im_RyanGosling.png', 'Im_RobertPattinson.png'],same,0,212.76489200000015,26,0,
RIIS2206,train,neg,120,neg120_id4_im15.bmp_neg120_id13_im10.bmp,['Im_MattDamon.png', 'Im_LeonardoDiCaprio.png', 'Im_DanielRadcliffe.png', 'Im_PatrickDempsey.png', 'Im_OrlandoBloom.png', 'Im_DanielCraig.png', 'Im_RobertDowneyJr.png', 'Im_BradPitt.png', 'Im_RyanGosling.png', 'Im_RobertPattinson.png'],diff,1,216.4649202999999,27,0,
RIIS2206,train,neg,150,neg150_id4_im20.bmp_neg150_id19_im4.bmp,['Im_MattDamon.png', 'Im_LeonardoDiCaprio.png', 'Im_DanielRadcliffe.png', 'Im_PatrickDempsey.png', 'Im_OrlandoBloom.png', 'Im_DanielCraig.png', 'Im_RobertDowneyJr.png', 'Im_BradPitt.png', 'Im_RyanGosling.png', 'Im_RobertPattinson.png'],diff,1,220.55654499999946,28,0,
RIIS2206,train,neg,30,neg30_id17_im8.bmp_neg30_id17_im14.bmp,['Im_MattDamon.png', 'Im_LeonardoDiCaprio.png', 'Im_DanielRadcliffe.png', 'Im_PatrickDempsey.png', 'Im_OrlandoBloom.png', 'Im_DanielCraig.png', 'Im_RobertDowneyJr.png', 'Im_BradPitt.png', 'Im_RyanGosling.png', 'Im_RobertPattinson.png'],same,1,224.38990869999998,29,0,
RIIS2206,train,neg,0,neg0_id20_im12.bmp_neg0_id14_im24.bmp,['Im_MattDamon.png', 'Im_LeonardoDiCaprio.png', 'Im_DanielRadcliffe.png', 'Im_PatrickDempsey.png', 'Im_OrlandoBloom.png', 'Im_DanielCraig.png', 'Im_RobertDowneyJr.png', 'Im_BradPitt.png', 'Im_RyanGosling.png', 'Im_RobertPattinson.png'],same,0,228.2232230999998,29,0,
RIIS2206,train,neg,fs,negfs_id14_im18.bmp_negfs_id18_im11.bmp,['Im_MattDamon.png', 'Im_LeonardoDiCaprio.png', 'Im_DanielRadcliffe.png', 'Im_PatrickDempsey.png', 'Im_OrlandoBloom.png', 'Im_DanielCraig.png', 'Im_RobertDowneyJr.png', 'Im_BradPitt.png', 'Im_RyanGosling.png', 'Im_RobertPattinson.png'],diff,1,232.2898494000001,30,0,
RIIS2206,train,neg,0,neg0_id3_im6.bmp_neg0_id3_im8.bmp,['Im_MattDamon.png', 'Im_LeonardoDiCaprio.png', 'Im_DanielRadcliffe.png', 'Im_PatrickDempsey.png', 'Im_OrlandoBloom.png', 'Im_DanielCraig.png', 'Im_RobertDowneyJr.png', 'Im_BradPitt.png', 'Im_RyanGosling.png', 'Im_RobertPattinson.png'],same,1,236.0648911999997,31,0,
RIIS2206,train,neg,120,neg120_id3_im17.bmp_neg120_id3_im6.bmp,['Im_MattDamon.png', 'Im_LeonardoDiCaprio.png', 'Im_DanielRadcliffe.png', 'Im_PatrickDempsey.png', 'Im_OrlandoBloom.png', 'Im_DanielCraig.png', 'Im_RobertDowneyJr.png', 'Im_BradPitt.png', 'Im_RyanGosling.png', 'Im_RobertPattinson.png'],same,1,240.23979839999993,32,0,
RIIS2206,train,neg,90,neg90_id16_im19.bmp_neg90_id16_im2.bmp,['Im_MattDamon.png', 'Im_LeonardoDiCaprio.png', 'Im_DanielRadcliffe.png', 'Im_PatrickDempsey.png', 'Im_OrlandoBloom.png', 'Im_DanielCraig.png', 'Im_RobertDowneyJr.png', 'Im_BradPitt.png', 'Im_RyanGosling.png', 'Im_RobertPattinson.png'],same,1,244.13992280000002,33,0,
RIIS2206,train,neg,150,neg150_id16_im3.bmp_neg150_id18_im19.bmp,['Im_MattDamon.png', 'Im_LeonardoDiCaprio.png', 'Im_DanielRadcliffe.png', 'Im_PatrickDempsey.png', 'Im_OrlandoBloom.png', 'Im_DanielCraig.png', 'Im_RobertDowneyJr.png', 'Im_BradPitt.png', 'Im_RyanGosling.png', 'Im_RobertPattinson.png'],diff,1,248.0730020000001,34,0,
RIIS2206,train,neg,fs,negfs_id5_im10.bmp_negfs_id19_im27.bmp,['Im_MattDamon.png', 'Im_LeonardoDiCaprio.png', 'Im_DanielRadcliffe.png', 'Im_PatrickDempsey.png', 'Im_OrlandoBloom.png', 'Im_DanielCraig.png', 'Im_RobertDowneyJr.png', 'Im_BradPitt.png', 'Im_RyanGosling.png', 'Im_RobertPattinson.png'],diff,1,251.7064730000002,35,0,
RIIS2206,train,neg,60,neg60_id17_im9.bmp_neg60_id3_im8.bmp,['Im_MattDamon.png', 'Im_LeonardoDiCaprio.png', 'Im_DanielRadcliffe.png', 'Im_PatrickDempsey.png', 'Im_OrlandoBloom.png', 'Im_DanielCraig.png', 'Im_RobertDowneyJr.png', 'Im_BradPitt.png', 'Im_RyanGosling.png', 'Im_RobertPattinson.png'],diff,1,256.09831849999955,36,0,
RIIS2206,train,neg,30,neg30_id5_im10.bmp_neg30_id5_im20.bmp,['Im_MattDamon.png', 'Im_LeonardoDiCaprio.png', 'Im_DanielRadcliffe.png', 'Im_PatrickDempsey.png', 'Im_OrlandoBloom.png', 'Im_DanielCraig.png', 'Im_RobertDowneyJr.png', 'Im_BradPitt.png', 'Im_RyanGosling.png', 'Im_RobertPattinson.png'],same,1,260.1564862999994,37,0,
RIIS2206,train,inv,90,pos90_id20_im30.bmp_pos90_id17_im14.bmp,['Im_MattDamon.png', 'Im_LeonardoDiCaprio.png', 'Im_DanielRadcliffe.png', 'Im_PatrickDempsey.png', 'Im_OrlandoBloom.png', 'Im_DanielCraig.png', 'Im_RobertDowneyJr.png', 'Im_BradPitt.png', 'Im_RyanGosling.png', 'Im_RobertPattinson.png'],diff,1,268.3562781999999,1,88.0952380952381,
RIIS2206,train,inv,60,pos60_id13_im15.bmp_pos60_id13_im29.bmp,['Im_MattDamon.png', 'Im_LeonardoDiCaprio.png', 'Im_DanielRadcliffe.png', 'Im_PatrickDempsey.png', 'Im_OrlandoBloom.png', 'Im_DanielCraig.png', 'Im_RobertDowneyJr.png', 'Im_BradPitt.png', 'Im_RyanGosling.png', 'Im_RobertPattinson.png'],diff,0,272.2813906000001,1,88.0952380952381,
RIIS2206,train,inv,30,pos30_id14_im18.bmp_pos30_id18_im11.bmp,['Im_MattDamon.png', 'Im_LeonardoDiCaprio.png', 'Im_DanielRadcliffe.png', 'Im_PatrickDempsey.png', 'Im_OrlandoBloom.png', 'Im_DanielCraig.png', 'Im_RobertDowneyJr.png', 'Im_BradPitt.png', 'Im_RyanGosling.png', 'Im_RobertPattinson.png'],diff,1,276.6232676999998,2,88.0952380952381,
RIIS2206,train,inv,0,pos0_id17_im9.bmp_pos0_id3_im8.bmp,['Im_MattDamon.png', 'Im_LeonardoDiCaprio.png', 'Im_DanielRadcliffe.png', 'Im_PatrickDempsey.png', 'Im_OrlandoBloom.png', 'Im_DanielCraig.png', 'Im_RobertDowneyJr.png', 'Im_BradPitt.png', 'Im_RyanGosling.png', 'Im_RobertPattinson.png'],same,0,280.7480926999997,2,88.0952380952381,
RIIS2206,train,inv,120,pos120_id18_im19.bmp_pos120_id14_im16.bmp,['Im_MattDamon.png', 'Im_LeonardoDiCaprio.png', 'Im_DanielRadcliffe.png', 'Im_PatrickDempsey.png', 'Im_OrlandoBloom.png', 'Im_DanielCraig.png', 'Im_RobertDowneyJr.png', 'Im_BradPitt.png', 'Im_RyanGosling.png', 'Im_RobertPattinson.png'],diff,1,284.78147910000007,3,88.0952380952381,
RIIS2206,train,inv,150,pos150_id16_im3.bmp_pos150_id5_im1.bmp,['Im_MattDamon.png', 'Im_LeonardoDiCaprio.png', 'Im_DanielRadcliffe.png', 'Im_PatrickDempsey.png', 'Im_OrlandoBloom.png', 'Im_DanielCraig.png', 'Im_RobertDowneyJr.png', 'Im_BradPitt.png', 'Im_RyanGosling.png', 'Im_RobertPattinson.png'],diff,1,288.56477619999987,4,88.0952380952381,
RIIS2206,train,inv,fs,posfs_id19_im8.bmp_posfs_id19_im27.bmp,['Im_MattDamon.png', 'Im_LeonardoDiCaprio.png', 'Im_DanielRadcliffe.png', 'Im_PatrickDempsey.png', 'Im_OrlandoBloom.png', 'Im_DanielCraig.png', 'Im_RobertDowneyJr.png', 'Im_BradPitt.png', 'Im_RyanGosling.png', 'Im_RobertPattinson.png'],same,1,292.41477489999943,5,88.0952380952381,
RIIS2206,train,inv,150,pos150_id13_im15.bmp_pos150_id20_im3.bmp,['Im_MattDamon.png', 'Im_LeonardoDiCaprio.png', 'Im_DanielRadcliffe.png', 'Im_PatrickDempsey.png', 'Im_OrlandoBloom.png', 'Im_DanielCraig.png', 'Im_RobertDowneyJr.png', 'Im_BradPitt.png', 'Im_RyanGosling.png', 'Im_RobertPattinson.png'],same,0,296.0897709000001,5,88.0952380952381,
RIIS2206,train,inv,120,pos120_id18_im11.bmp_pos120_id18_im19.bmp,['Im_MattDamon.png', 'Im_LeonardoDiCaprio.png', 'Im_DanielRadcliffe.png', 'Im_PatrickDempsey.png', 'Im_OrlandoBloom.png', 'Im_DanielCraig.png', 'Im_RobertDowneyJr.png', 'Im_BradPitt.png', 'Im_RyanGosling.png', 'Im_RobertPattinson.png'],diff,0,300.1316343999997,5,88.0952380952381,
RIIS2206,train,inv,90,pos90_id19_im8.bmp_pos90_id3_im6.bmp,['Im_MattDamon.png', 'Im_LeonardoDiCaprio.png', 'Im_DanielRadcliffe.png', 'Im_PatrickDempsey.png', 'Im_OrlandoBloom.png', 'Im_DanielCraig.png', 'Im_RobertDowneyJr.png', 'Im_BradPitt.png', 'Im_RyanGosling.png', 'Im_RobertPattinson.png'],diff,1,303.98972179999964,6,88.0952380952381,
RIIS2206,train,inv,60,pos60_id4_im15.bmp_pos60_id13_im10.bmp,['Im_MattDamon.png', 'Im_LeonardoDiCaprio.png', 'Im_DanielRadcliffe.png', 'Im_PatrickDempsey.png', 'Im_OrlandoBloom.png', 'Im_DanielCraig.png', 'Im_RobertDowneyJr.png', 'Im_BradPitt.png', 'Im_RyanGosling.png', 'Im_RobertPattinson.png'],diff,1,308.3482322,7,88.0952380952381,
RIIS2206,train,inv,fs,posfs_id16_im2.bmp_posfs_id16_im3.bmp,['Im_MattDamon.png', 'Im_LeonardoDiCaprio.png', 'Im_DanielRadcliffe.png', 'Im_PatrickDempsey.png', 'Im_OrlandoBloom.png', 'Im_DanielCraig.png', 'Im_RobertDowneyJr.png', 'Im_BradPitt.png', 'Im_RyanGosling.png', 'Im_RobertPattinson.png'],same,1,312.43971799999963,8,88.0952380952381,
RIIS2206,train,inv,0,pos0_id14_im24.bmp_pos0_id13_im29.bmp,['Im_MattDamon.png', 'Im_LeonardoDiCaprio.png', 'Im_DanielRadcliffe.png', 'Im_PatrickDempsey.png', 'Im_OrlandoBloom.png', 'Im_DanielCraig.png', 'Im_RobertDowneyJr.png', 'Im_BradPitt.png', 'Im_RyanGosling.png', 'Im_RobertPattinson.png'],diff,1,316.4230324,9,88.0952380952381,
RIIS2206,train,inv,30,pos30_id18_im19.bmp_pos30_id18_im11.bmp,['Im_MattDamon.png', 'Im_LeonardoDiCaprio.png', 'Im_DanielRadcliffe.png', 'Im_PatrickDempsey.png', 'Im_OrlandoBloom.png', 'Im_DanielCraig.png', 'Im_RobertDowneyJr.png', 'Im_BradPitt.png', 'Im_RyanGosling.png', 'Im_RobertPattinson.png'],same,1,320.52320859999963,10,88.0952380952381,
RIIS2206,train,inv,120,pos120_id17_im9.bmp_pos120_id17_im14.bmp,['Im_MattDamon.png', 'Im_LeonardoDiCaprio.png', 'Im_DanielRadcliffe.png', 'Im_PatrickDempsey.png', 'Im_OrlandoBloom.png', 'Im_DanielCraig.png', 'Im_RobertDowneyJr.png', 'Im_BradPitt.png', 'Im_RyanGosling.png', 'Im_RobertPattinson.png'],same,1,324.5563843,11,88.0952380952381,
RIIS2206,train,inv,0,pos0_id18_im19.bmp_pos0_id16_im3.bmp,['Im_MattDamon.png', 'Im_LeonardoDiCaprio.png', 'Im_DanielRadcliffe.png', 'Im_PatrickDempsey.png', 'Im_OrlandoBloom.png', 'Im_DanielCraig.png', 'Im_RobertDowneyJr.png', 'Im_BradPitt.png', 'Im_RyanGosling.png', 'Im_RobertPattinson.png'],same,0,328.21467159999975,11,88.0952380952381,
RIIS2206,train,inv,0,pos0_id13_im15.bmp_pos0_id13_im29.bmp,['Im_MattDamon.png', 'Im_LeonardoDiCaprio.png', 'Im_DanielRadcliffe.png', 'Im_PatrickDempsey.png', 'Im_OrlandoBloom.png', 'Im_DanielCraig.png', 'Im_RobertDowneyJr.png', 'Im_BradPitt.png', 'Im_RyanGosling.png', 'Im_RobertPattinson.png'],diff,0,331.9563640999995,11,88.0952380952381,
RIIS2206,train,inv,60,pos60_id19_im27.bmp_pos60_id16_im19.bmp,['Im_MattDamon.png', 'Im_LeonardoDiCaprio.png', 'Im_DanielRadcliffe.png', 'Im_PatrickDempsey.png', 'Im_OrlandoBloom.png', 'Im_DanielCraig.png', 'Im_RobertDowneyJr.png', 'Im_BradPitt.png', 'Im_RyanGosling.png', 'Im_RobertPattinson.png'],diff,1,335.8730568000001,12,88.0952380952381,
RIIS2206,train,inv,120,pos120_id13_im29.bmp_pos120_id13_im10.bmp,['Im_MattDamon.png', 'Im_LeonardoDiCaprio.png', 'Im_DanielRadcliffe.png', 'Im_PatrickDempsey.png', 'Im_OrlandoBloom.png', 'Im_DanielCraig.png', 'Im_RobertDowneyJr.png', 'Im_BradPitt.png', 'Im_RyanGosling.png', 'Im_RobertPattinson.png'],same,1,339.58959609999965,13,88.0952380952381,
RIIS2206,train,inv,150,pos150_id19_im8.bmp_pos150_id19_im27.bmp,['Im_MattDamon.png', 'Im_LeonardoDiCaprio.png', 'Im_DanielRadcliffe.png', 'Im_PatrickDempsey.png', 'Im_OrlandoBloom.png', 'Im_DanielCraig.png', 'Im_RobertDowneyJr.png', 'Im_BradPitt.png', 'Im_RyanGosling.png', 'Im_RobertPattinson.png'],same,1,343.7979768999994,14,88.0952380952381,
RIIS2206,train,inv,30,pos30_id17_im14.bmp_pos30_id14_im18.bmp,['Im_MattDamon.png', 'Im_LeonardoDiCaprio.png', 'Im_DanielRadcliffe.png', 'Im_PatrickDempsey.png', 'Im_OrlandoBloom.png', 'Im_DanielCraig.png', 'Im_RobertDowneyJr.png', 'Im_BradPitt.png', 'Im_RyanGosling.png', 'Im_RobertPattinson.png'],same,0,347.4397191999997,14,88.0952380952381,
RIIS2206,train,inv,90,pos90_id5_im20.bmp_pos90_id5_im1.bmp,['Im_MattDamon.png', 'Im_LeonardoDiCaprio.png', 'Im_DanielRadcliffe.png', 'Im_PatrickDempsey.png', 'Im_OrlandoBloom.png', 'Im_DanielCraig.png', 'Im_RobertDowneyJr.png', 'Im_BradPitt.png', 'Im_RyanGosling.png', 'Im_RobertPattinson.png'],diff,0,351.10622259999946,14,88.0952380952381,
RIIS2206,train,inv,150,pos150_id20_im30.bmp_pos150_id20_im12.bmp,['Im_MattDamon.png', 'Im_LeonardoDiCaprio.png', 'Im_DanielRadcliffe.png', 'Im_PatrickDempsey.png', 'Im_OrlandoBloom.png', 'Im_DanielCraig.png', 'Im_RobertDowneyJr.png', 'Im_BradPitt.png', 'Im_RyanGosling.png', 'Im_RobertPattinson.png'],diff,0,354.90631010000016,14,88.0952380952381,
RIIS2206,train,inv,30,pos30_id17_im9.bmp_pos30_id3_im8.bmp,['Im_MattDamon.png', 'Im_LeonardoDiCaprio.png', 'Im_DanielRadcliffe.png', 'Im_PatrickDempsey.png', 'Im_OrlandoBloom.png', 'Im_DanielCraig.png', 'Im_RobertDowneyJr.png', 'Im_BradPitt.png', 'Im_RyanGosling.png', 'Im_RobertPattinson.png'],same,0,358.82305180000003,14,88.0952380952381,
RIIS2206,train,inv,90,pos90_id16_im3.bmp_pos90_id16_im2.bmp,['Im_MattDamon.png', 'Im_LeonardoDiCaprio.png', 'Im_DanielRadcliffe.png', 'Im_PatrickDempsey.png', 'Im_OrlandoBloom.png', 'Im_DanielCraig.png', 'Im_RobertDowneyJr.png', 'Im_BradPitt.png', 'Im_RyanGosling.png', 'Im_RobertPattinson.png'],diff,0,363.1731912999994,14,88.0952380952381,
RIIS2206,train,inv,fs,posfs_id18_im19.bmp_posfs_id16_im3.bmp,['Im_MattDamon.png', 'Im_LeonardoDiCaprio.png', 'Im_DanielRadcliffe.png', 'Im_PatrickDempsey.png', 'Im_OrlandoBloom.png', 'Im_DanielCraig.png', 'Im_RobertDowneyJr.png', 'Im_BradPitt.png', 'Im_RyanGosling.png', 'Im_RobertPattinson.png'],diff,1,367.18981259999964,15,88.0952380952381,
RIIS2206,train,inv,60,pos60_id16_im3.bmp_pos60_id5_im1.bmp,['Im_MattDamon.png', 'Im_LeonardoDiCaprio.png', 'Im_DanielRadcliffe.png', 'Im_PatrickDempsey.png', 'Im_OrlandoBloom.png', 'Im_DanielCraig.png', 'Im_RobertDowneyJr.png', 'Im_BradPitt.png', 'Im_RyanGosling.png', 'Im_RobertPattinson.png'],diff,1,371.0897595999995,16,88.0952380952381,
RIIS2206,train,inv,fs,posfs_id13_im10.bmp_posfs_id4_im15.bmp,['Im_MattDamon.png', 'Im_LeonardoDiCaprio.png', 'Im_DanielRadcliffe.png', 'Im_PatrickDempsey.png', 'Im_OrlandoBloom.png', 'Im_DanielCraig.png', 'Im_RobertDowneyJr.png', 'Im_BradPitt.png', 'Im_RyanGosling.png', 'Im_RobertPattinson.png'],diff,1,375.16464559999986,17,88.0952380952381,
RIIS2206,train,pos,90,pos90_id5_im10.bmp_pos90_id19_im27.bmp,['Im_MattDamon.png', 'Im_LeonardoDiCaprio.png', 'Im_DanielRadcliffe.png', 'Im_PatrickDempsey.png', 'Im_OrlandoBloom.png', 'Im_DanielCraig.png', 'Im_RobertDowneyJr.png', 'Im_BradPitt.png', 'Im_RyanGosling.png', 'Im_RobertPattinson.png'],diff,1,379.1063315000001,18,88.0952380952381,
RIIS2206,train,pos,30,pos30_id19_im27.bmp_pos30_id19_im4.bmp,['Im_MattDamon.png', 'Im_LeonardoDiCaprio.png', 'Im_DanielRadcliffe.png', 'Im_PatrickDempsey.png', 'Im_OrlandoBloom.png', 'Im_DanielCraig.png', 'Im_RobertDowneyJr.png', 'Im_BradPitt.png', 'Im_RyanGosling.png', 'Im_RobertPattinson.png'],same,1,382.9146418999999,19,88.0952380952381,
RIIS2206,train,pos,120,pos120_id18_im19.bmp_pos120_id14_im16.bmp,['Im_MattDamon.png', 'Im_LeonardoDiCaprio.png', 'Im_DanielRadcliffe.png', 'Im_PatrickDempsey.png', 'Im_OrlandoBloom.png', 'Im_DanielCraig.png', 'Im_RobertDowneyJr.png', 'Im_BradPitt.png', 'Im_RyanGosling.png', 'Im_RobertPattinson.png'],diff,1,386.9311896999998,20,88.0952380952381,
RIIS2206,train,pos,150,pos150_id19_im27.bmp_pos150_id16_im19.bmp,['Im_MattDamon.png', 'Im_LeonardoDiCaprio.png', 'Im_DanielRadcliffe.png', 'Im_PatrickDempsey.png', 'Im_OrlandoBloom.png', 'Im_DanielCraig.png', 'Im_RobertDowneyJr.png', 'Im_BradPitt.png', 'Im_RyanGosling.png', 'Im_RobertPattinson.png'],diff,1,390.5312866999993,21,88.0952380952381,
RIIS2206,train,pos,0,pos0_id4_im7.bmp_pos0_id4_im20.bmp,['Im_MattDamon.png', 'Im_LeonardoDiCaprio.png', 'Im_DanielRadcliffe.png', 'Im_PatrickDempsey.png', 'Im_OrlandoBloom.png', 'Im_DanielCraig.png', 'Im_RobertDowneyJr.png', 'Im_BradPitt.png', 'Im_RyanGosling.png', 'Im_RobertPattinson.png'],same,1,394.47292579999976,22,88.0952380952381,
RIIS2206,train,pos,fs,posfs_id3_im6.bmp_posfs_id5_im1.bmp,['Im_MattDamon.png', 'Im_LeonardoDiCaprio.png', 'Im_DanielRadcliffe.png', 'Im_PatrickDempsey.png', 'Im_OrlandoBloom.png', 'Im_DanielCraig.png', 'Im_RobertDowneyJr.png', 'Im_BradPitt.png', 'Im_RyanGosling.png', 'Im_RobertPattinson.png'],diff,1,398.5146197999993,23,88.0952380952381,
RIIS2206,train,pos,30,pos30_id17_im9.bmp_pos30_id3_im8.bmp,['Im_MattDamon.png', 'Im_LeonardoDiCaprio.png', 'Im_DanielRadcliffe.png', 'Im_PatrickDempsey.png', 'Im_OrlandoBloom.png', 'Im_DanielCraig.png', 'Im_RobertDowneyJr.png', 'Im_BradPitt.png', 'Im_RyanGosling.png', 'Im_RobertPattinson.png'],diff,1,402.4145576000001,24,88.0952380952381,
RIIS2206,train,pos,fs,posfs_id3_im17.bmp_posfs_id3_im6.bmp,['Im_MattDamon.png', 'Im_LeonardoDiCaprio.png', 'Im_DanielRadcliffe.png', 'Im_PatrickDempsey.png', 'Im_OrlandoBloom.png', 'Im_DanielCraig.png', 'Im_RobertDowneyJr.png', 'Im_BradPitt.png', 'Im_RyanGosling.png', 'Im_RobertPattinson.png'],same,1,406.47297160000016,25,88.0952380952381,
RIIS2206,train,pos,60,pos60_id20_im12.bmp_pos60_id20_im3.bmp,['Im_MattDamon.png', 'Im_LeonardoDiCaprio.png', 'Im_DanielRadcliffe.png', 'Im_PatrickDempsey.png', 'Im_OrlandoBloom.png', 'Im_DanielCraig.png', 'Im_RobertDowneyJr.png', 'Im_BradPitt.png', 'Im_RyanGosling.png', 'Im_RobertPattinson.png'],same,1,410.2562904999995,26,88.0952380952381,
RIIS2206,train,pos,0,pos0_id18_im11.bmp_pos0_id18_im19.bmp,['Im_MattDamon.png', 'Im_LeonardoDiCaprio.png', 'Im_DanielRadcliffe.png', 'Im_PatrickDempsey.png', 'Im_OrlandoBloom.png', 'Im_DanielCraig.png', 'Im_RobertDowneyJr.png', 'Im_BradPitt.png', 'Im_RyanGosling.png', 'Im_RobertPattinson.png'],same,1,414.3230566000002,27,88.0952380952381,
RIIS2206,train,pos,90,pos90_id18_im11.bmp_pos90_id3_im17.bmp,['Im_MattDamon.png', 'Im_LeonardoDiCaprio.png', 'Im_DanielRadcliffe.png', 'Im_PatrickDempsey.png', 'Im_OrlandoBloom.png', 'Im_DanielCraig.png', 'Im_RobertDowneyJr.png', 'Im_BradPitt.png', 'Im_RyanGosling.png', 'Im_RobertPattinson.png'],diff,1,418.48947080000016,28,88.0952380952381,
RIIS2206,train,pos,150,pos150_id18_im18.bmp_pos150_id5_im20.bmp,['Im_MattDamon.png', 'Im_LeonardoDiCaprio.png', 'Im_DanielRadcliffe.png', 'Im_PatrickDempsey.png', 'Im_OrlandoBloom.png', 'Im_DanielCraig.png', 'Im_RobertDowneyJr.png', 'Im_BradPitt.png', 'Im_RyanGosling.png', 'Im_RobertPattinson.png'],diff,1,422.4560707999999,29,88.0952380952381,
RIIS2206,train,pos,60,pos60_id13_im29.bmp_pos60_id19_im8.bmp,['Im_MattDamon.png', 'Im_LeonardoDiCaprio.png', 'Im_DanielRadcliffe.png', 'Im_PatrickDempsey.png', 'Im_OrlandoBloom.png', 'Im_DanielCraig.png', 'Im_RobertDowneyJr.png', 'Im_BradPitt.png', 'Im_RyanGosling.png', 'Im_RobertPattinson.png'],diff,1,426.5229220000001,30,88.0952380952381,
RIIS2206,train,pos,120,pos120_id17_im9.bmp_pos120_id17_im8.bmp,['Im_MattDamon.png', 'Im_LeonardoDiCaprio.png', 'Im_DanielRadcliffe.png', 'Im_PatrickDempsey.png', 'Im_OrlandoBloom.png', 'Im_DanielCraig.png', 'Im_RobertDowneyJr.png', 'Im_BradPitt.png', 'Im_RyanGosling.png', 'Im_RobertPattinson.png'],same,1,430.41460089999964,31,88.0952380952381,
RIIS2206,train,neg,90,neg90_id16_im19.bmp_neg90_id4_im7.bmp,['Im_MattDamon.png', 'Im_LeonardoDiCaprio.png', 'Im_DanielRadcliffe.png', 'Im_PatrickDempsey.png', 'Im_OrlandoBloom.png', 'Im_DanielCraig.png', 'Im_RobertDowneyJr.png', 'Im_BradPitt.png', 'Im_RyanGosling.png', 'Im_RobertPattinson.png'],diff,1,439.1064336999998,1,73.80952380952381,
RIIS2206,train,neg,120,neg120_id18_im18.bmp_neg120_id5_im20.bmp,['Im_MattDamon.png', 'Im_LeonardoDiCaprio.png', 'Im_DanielRadcliffe.png', 'Im_PatrickDempsey.png', 'Im_OrlandoBloom.png', 'Im_DanielCraig.png', 'Im_RobertDowneyJr.png', 'Im_BradPitt.png', 'Im_RyanGosling.png', 'Im_RobertPattinson.png'],diff,1,442.8312400999994,2,73.80952380952381,
RIIS2206,train,neg,60,neg60_id20_im30.bmp_neg60_id17_im14.bmp,['Im_MattDamon.png', 'Im_LeonardoDiCaprio.png', 'Im_DanielRadcliffe.png', 'Im_PatrickDempsey.png', 'Im_OrlandoBloom.png', 'Im_DanielCraig.png', 'Im_RobertDowneyJr.png', 'Im_BradPitt.png', 'Im_RyanGosling.png', 'Im_RobertPattinson.png'],diff,1,447.3728885999999,3,73.80952380952381,
RIIS2206,train,neg,150,neg150_id14_im16.bmp_neg150_id18_im19.bmp,['Im_MattDamon.png', 'Im_LeonardoDiCaprio.png', 'Im_DanielRadcliffe.png', 'Im_PatrickDempsey.png', 'Im_OrlandoBloom.png', 'Im_DanielCraig.png', 'Im_RobertDowneyJr.png', 'Im_BradPitt.png', 'Im_RyanGosling.png', 'Im_RobertPattinson.png'],diff,1,451.02284489999965,4,73.80952380952381,
RIIS2206,train,neg,30,neg30_id5_im10.bmp_neg30_id19_im27.bmp,['Im_MattDamon.png', 'Im_LeonardoDiCaprio.png', 'Im_DanielRadcliffe.png', 'Im_PatrickDempsey.png', 'Im_OrlandoBloom.png', 'Im_DanielCraig.png', 'Im_RobertDowneyJr.png', 'Im_BradPitt.png', 'Im_RyanGosling.png', 'Im_RobertPattinson.png'],diff,1,455.3060752000001,5,73.80952380952381,
RIIS2206,train,neg,fs,negfs_id4_im7.bmp_negfs_id16_im19.bmp,['Im_MattDamon.png', 'Im_LeonardoDiCaprio.png', 'Im_DanielRadcliffe.png', 'Im_PatrickDempsey.png', 'Im_OrlandoBloom.png', 'Im_DanielCraig.png', 'Im_RobertDowneyJr.png', 'Im_BradPitt.png', 'Im_RyanGosling.png', 'Im_RobertPattinson.png'],diff,1,458.9812229999998,6,73.80952380952381,
RIIS2206,train,neg,30,neg30_id3_im6.bmp_neg30_id3_im17.bmp,['Im_MattDamon.png', 'Im_LeonardoDiCaprio.png', 'Im_DanielRadcliffe.png', 'Im_PatrickDempsey.png', 'Im_OrlandoBloom.png', 'Im_DanielCraig.png', 'Im_RobertDowneyJr.png', 'Im_BradPitt.png', 'Im_RyanGosling.png', 'Im_RobertPattinson.png'],same,1,462.8062732999997,7,73.80952380952381,
RIIS2206,train,neg,0,neg0_id19_im4.bmp_neg0_id19_im8.bmp,['Im_MattDamon.png', 'Im_LeonardoDiCaprio.png', 'Im_DanielRadcliffe.png', 'Im_PatrickDempsey.png', 'Im_OrlandoBloom.png', 'Im_DanielCraig.png', 'Im_RobertDowneyJr.png', 'Im_BradPitt.png', 'Im_RyanGosling.png', 'Im_RobertPattinson.png'],same,1,466.5812191999994,8,73.80952380952381,
RIIS2206,train,neg,120,neg120_id3_im6.bmp_neg120_id19_im8.bmp,['Im_MattDamon.png', 'Im_LeonardoDiCaprio.png', 'Im_DanielRadcliffe.png', 'Im_PatrickDempsey.png', 'Im_OrlandoBloom.png', 'Im_DanielCraig.png', 'Im_RobertDowneyJr.png', 'Im_BradPitt.png', 'Im_RyanGosling.png', 'Im_RobertPattinson.png'],diff,1,470.4561912999998,9,73.80952380952381,
RIIS2206,train,neg,fs,negfs_id16_im3.bmp_negfs_id16_im2.bmp,['Im_MattDamon.png', 'Im_LeonardoDiCaprio.png', 'Im_DanielRadcliffe.png', 'Im_PatrickDempsey.png', 'Im_OrlandoBloom.png', 'Im_DanielCraig.png', 'Im_RobertDowneyJr.png', 'Im_BradPitt.png', 'Im_RyanGosling.png', 'Im_RobertPattinson.png'],same,1,474.5228747000001,10,73.80952380952381,
RIIS2206,train,neg,60,neg60_id16_im3.bmp_neg60_id5_im1.bmp,['Im_MattDamon.png', 'Im_LeonardoDiCaprio.png', 'Im_DanielRadcliffe.png', 'Im_PatrickDempsey.png', 'Im_OrlandoBloom.png', 'Im_DanielCraig.png', 'Im_RobertDowneyJr.png', 'Im_BradPitt.png', 'Im_RyanGosling.png', 'Im_RobertPattinson.png'],diff,1,478.6895012999994,11,73.80952380952381,
RIIS2206,train,neg,90,neg90_id16_im3.bmp_neg90_id18_im19.bmp,['Im_MattDamon.png', 'Im_LeonardoDiCaprio.png', 'Im_DanielRadcliffe.png', 'Im_PatrickDempsey.png', 'Im_OrlandoBloom.png', 'Im_DanielCraig.png', 'Im_RobertDowneyJr.png', 'Im_BradPitt.png', 'Im_RyanGosling.png', 'Im_RobertPattinson.png'],diff,1,482.56453950000014,12,73.80952380952381,
RIIS2206,train,neg,0,neg0_id17_im9.bmp_neg0_id17_im14.bmp,['Im_MattDamon.png', 'Im_LeonardoDiCaprio.png', 'Im_DanielRadcliffe.png', 'Im_PatrickDempsey.png', 'Im_OrlandoBloom.png', 'Im_DanielCraig.png', 'Im_RobertDowneyJr.png', 'Im_BradPitt.png', 'Im_RyanGosling.png', 'Im_RobertPattinson.png'],same,1,486.2395188999999,13,73.80952380952381,
RIIS2206,train,neg,150,neg150_id5_im20.bmp_neg150_id18_im18.bmp,['Im_MattDamon.png', 'Im_LeonardoDiCaprio.png', 'Im_DanielRadcliffe.png', 'Im_PatrickDempsey.png', 'Im_OrlandoBloom.png', 'Im_DanielCraig.png', 'Im_RobertDowneyJr.png', 'Im_BradPitt.png', 'Im_RyanGosling.png', 'Im_RobertPattinson.png'],diff,1,490.1396163999998,14,73.80952380952381,
RIIS2206,train,neg,120,neg120_id3_im17.bmp_neg120_id3_im8.bmp,['Im_MattDamon.png', 'Im_LeonardoDiCaprio.png', 'Im_DanielRadcliffe.png', 'Im_PatrickDempsey.png', 'Im_OrlandoBloom.png', 'Im_DanielCraig.png', 'Im_RobertDowneyJr.png', 'Im_BradPitt.png', 'Im_RyanGosling.png', 'Im_RobertPattinson.png'],same,1,494.0394802999999,15,73.80952380952381,
RIIS2206,train,neg,0,neg0_id3_im6.bmp_neg0_id5_im1.bmp,['Im_MattDamon.png', 'Im_LeonardoDiCaprio.png', 'Im_DanielRadcliffe.png', 'Im_PatrickDempsey.png', 'Im_OrlandoBloom.png', 'Im_DanielCraig.png', 'Im_RobertDowneyJr.png', 'Im_BradPitt.png', 'Im_RyanGosling.png', 'Im_RobertPattinson.png'],diff,1,498.15617049999946,16,73.80952380952381,
RIIS2206,train,neg,90,neg90_id20_im30.bmp_neg90_id5_im20.bmp,['Im_MattDamon.png', 'Im_LeonardoDiCaprio.png', 'Im_DanielRadcliffe.png', 'Im_PatrickDempsey.png', 'Im_OrlandoBloom.png', 'Im_DanielCraig.png', 'Im_RobertDowneyJr.png', 'Im_BradPitt.png', 'Im_RyanGosling.png', 'Im_RobertPattinson.png'],diff,1,502.2728466999997,17,73.80952380952381,
RIIS2206,train,neg,150,neg150_id16_im2.bmp_neg150_id4_im20.bmp,['Im_MattDamon.png', 'Im_LeonardoDiCaprio.png', 'Im_DanielRadcliffe.png', 'Im_PatrickDempsey.png', 'Im_OrlandoBloom.png', 'Im_DanielCraig.png', 'Im_RobertDowneyJr.png', 'Im_BradPitt.png', 'Im_RyanGosling.png', 'Im_RobertPattinson.png'],diff,1,506.1645010000002,18,73.80952380952381,
RIIS2206,train,neg,fs,negfs_id3_im6.bmp_negfs_id3_im8.bmp,['Im_MattDamon.png', 'Im_LeonardoDiCaprio.png', 'Im_DanielRadcliffe.png', 'Im_PatrickDempsey.png', 'Im_OrlandoBloom.png', 'Im_DanielCraig.png', 'Im_RobertDowneyJr.png', 'Im_BradPitt.png', 'Im_RyanGosling.png', 'Im_RobertPattinson.png'],same,1,510.30616909999935,19,73.80952380952381,
RIIS2206,train,neg,fs,negfs_id5_im10.bmp_negfs_id5_im20.bmp,['Im_MattDamon.png', 'Im_LeonardoDiCaprio.png', 'Im_DanielRadcliffe.png', 'Im_PatrickDempsey.png', 'Im_OrlandoBloom.png', 'Im_DanielCraig.png', 'Im_RobertDowneyJr.png', 'Im_BradPitt.png', 'Im_RyanGosling.png', 'Im_RobertPattinson.png'],same,1,514.4311530999994,20,73.80952380952381,
RIIS2206,train,neg,150,neg150_id3_im6.bmp_neg150_id19_im8.bmp,['Im_MattDamon.png', 'Im_LeonardoDiCaprio.png', 'Im_DanielRadcliffe.png', 'Im_PatrickDempsey.png', 'Im_OrlandoBloom.png', 'Im_DanielCraig.png', 'Im_RobertDowneyJr.png', 'Im_BradPitt.png', 'Im_RyanGosling.png', 'Im_RobertPattinson.png'],diff,1,518.3311439999998,21,73.80952380952381,
RIIS2206,train,neg,90,neg90_id16_im19.bmp_neg90_id19_im27.bmp,['Im_MattDamon.png', 'Im_LeonardoDiCaprio.png', 'Im_DanielRadcliffe.png', 'Im_PatrickDempsey.png', 'Im_OrlandoBloom.png', 'Im_DanielCraig.png', 'Im_RobertDowneyJr.png', 'Im_BradPitt.png', 'Im_RyanGosling.png', 'Im_RobertPattinson.png'],diff,1,522.3811562000001,22,73.80952380952381,
RIIS2206,train,neg,30,neg30_id3_im8.bmp_neg30_id17_im9.bmp,['Im_MattDamon.png', 'Im_LeonardoDiCaprio.png', 'Im_DanielRadcliffe.png', 'Im_PatrickDempsey.png', 'Im_OrlandoBloom.png', 'Im_DanielCraig.png', 'Im_RobertDowneyJr.png', 'Im_BradPitt.png', 'Im_RyanGosling.png', 'Im_RobertPattinson.png'],diff,1,526.8728044,23,73.80952380952381,
RIIS2206,train,neg,0,neg0_id18_im19.bmp_neg0_id14_im16.bmp,['Im_MattDamon.png', 'Im_LeonardoDiCaprio.png', 'Im_DanielRadcliffe.png', 'Im_PatrickDempsey.png', 'Im_OrlandoBloom.png', 'Im_DanielCraig.png', 'Im_RobertDowneyJr.png', 'Im_BradPitt.png', 'Im_RyanGosling.png', 'Im_RobertPattinson.png'],diff,1,530.9897629999996,24,73.80952380952381,
RIIS2206,train,neg,60,neg60_id5_im20.bmp_neg60_id5_im10.bmp,['Im_MattDamon.png', 'Im_LeonardoDiCaprio.png', 'Im_DanielRadcliffe.png', 'Im_PatrickDempsey.png', 'Im_OrlandoBloom.png', 'Im_DanielCraig.png', 'Im_RobertDowneyJr.png', 'Im_BradPitt.png', 'Im_RyanGosling.png', 'Im_RobertPattinson.png'],same,1,534.9142877999993,25,73.80952380952381,
RIIS2206,train,neg,120,neg120_id19_im8.bmp_neg120_id13_im29.bmp,['Im_MattDamon.png', 'Im_LeonardoDiCaprio.png', 'Im_DanielRadcliffe.png', 'Im_PatrickDempsey.png', 'Im_OrlandoBloom.png', 'Im_DanielCraig.png', 'Im_RobertDowneyJr.png', 'Im_BradPitt.png', 'Im_RyanGosling.png', 'Im_RobertPattinson.png'],diff,1,539.4810638999998,26,73.80952380952381,
RIIS2206,train,neg,30,neg30_id17_im14.bmp_neg30_id14_im18.bmp,['Im_MattDamon.png', 'Im_LeonardoDiCaprio.png', 'Im_DanielRadcliffe.png', 'Im_PatrickDempsey.png', 'Im_OrlandoBloom.png', 'Im_DanielCraig.png', 'Im_RobertDowneyJr.png', 'Im_BradPitt.png', 'Im_RyanGosling.png', 'Im_RobertPattinson.png'],diff,1,543.3811348999998,27,73.80952380952381,
RIIS2206,train,neg,60,neg60_id16_im2.bmp_neg60_id14_im16.bmp,['Im_MattDamon.png', 'Im_LeonardoDiCaprio.png', 'Im_DanielRadcliffe.png', 'Im_PatrickDempsey.png', 'Im_OrlandoBloom.png', 'Im_DanielCraig.png', 'Im_RobertDowneyJr.png', 'Im_BradPitt.png', 'Im_RyanGosling.png', 'Im_RobertPattinson.png'],diff,1,547.0561668,28,73.80952380952381,
RIIS2206,train,pos,150,pos150_id17_im8.bmp_pos150_id13_im15.bmp,['Im_MattDamon.png', 'Im_LeonardoDiCaprio.png', 'Im_DanielRadcliffe.png', 'Im_PatrickDempsey.png', 'Im_OrlandoBloom.png', 'Im_DanielCraig.png', 'Im_RobertDowneyJr.png', 'Im_BradPitt.png', 'Im_RyanGosling.png', 'Im_RobertPattinson.png'],diff,1,550.8228167999996,29,73.80952380952381,
RIIS2206,train,pos,120,pos120_id14_im24.bmp_pos120_id13_im29.bmp,['Im_MattDamon.png', 'Im_LeonardoDiCaprio.png', 'Im_DanielRadcliffe.png', 'Im_PatrickDempsey.png', 'Im_OrlandoBloom.png', 'Im_DanielCraig.png', 'Im_RobertDowneyJr.png', 'Im_BradPitt.png', 'Im_RyanGosling.png', 'Im_RobertPattinson.png'],diff,1,554.6476185000001,30,73.80952380952381,
RIIS2206,train,pos,fs,posfs_id20_im30.bmp_posfs_id20_im3.bmp,['Im_MattDamon.png', 'Im_LeonardoDiCaprio.png', 'Im_DanielRadcliffe.png', 'Im_PatrickDempsey.png', 'Im_OrlandoBloom.png', 'Im_DanielCraig.png', 'Im_RobertDowneyJr.png', 'Im_BradPitt.png', 'Im_RyanGosling.png', 'Im_RobertPattinson.png'],same,1,558.7809655000001,31,73.80952380952381,
RIIS2206,train,pos,120,pos120_id3_im17.bmp_pos120_id4_im15.bmp,['Im_MattDamon.png', 'Im_LeonardoDiCaprio.png', 'Im_DanielRadcliffe.png', 'Im_PatrickDempsey.png', 'Im_OrlandoBloom.png', 'Im_DanielCraig.png', 'Im_RobertDowneyJr.png', 'Im_BradPitt.png', 'Im_RyanGosling.png', 'Im_RobertPattinson.png'],diff,1,562.8142748,32,73.80952380952381,
RIIS2206,train,pos,0,pos0_id13_im29.bmp_pos0_id14_im24.bmp,['Im_MattDamon.png', 'Im_LeonardoDiCaprio.png', 'Im_DanielRadcliffe.png', 'Im_PatrickDempsey.png', 'Im_OrlandoBloom.png', 'Im_DanielCraig.png', 'Im_RobertDowneyJr.png', 'Im_BradPitt.png', 'Im_RyanGosling.png', 'Im_RobertPattinson.png'],diff,1,566.8899148,33,73.80952380952381,
RIIS2206,train,pos,90,pos90_id18_im18.bmp_pos90_id5_im20.bmp,['Im_MattDamon.png', 'Im_LeonardoDiCaprio.png', 'Im_DanielRadcliffe.png', 'Im_PatrickDempsey.png', 'Im_OrlandoBloom.png', 'Im_DanielCraig.png', 'Im_RobertDowneyJr.png', 'Im_BradPitt.png', 'Im_RyanGosling.png', 'Im_RobertPattinson.png'],diff,1,570.8227594999998,34,73.80952380952381,
RIIS2206,train,pos,30,pos30_id5_im20.bmp_pos30_id5_im10.bmp,['Im_MattDamon.png', 'Im_LeonardoDiCaprio.png', 'Im_DanielRadcliffe.png', 'Im_PatrickDempsey.png', 'Im_OrlandoBloom.png', 'Im_DanielCraig.png', 'Im_RobertDowneyJr.png', 'Im_BradPitt.png', 'Im_RyanGosling.png', 'Im_RobertPattinson.png'],same,1,574.4311903999997,35,73.80952380952381,
RIIS2206,train,pos,150,pos150_id13_im29.bmp_pos150_id14_im24.bmp,['Im_MattDamon.png', 'Im_LeonardoDiCaprio.png', 'Im_DanielRadcliffe.png', 'Im_PatrickDempsey.png', 'Im_OrlandoBloom.png', 'Im_DanielCraig.png', 'Im_RobertDowneyJr.png', 'Im_BradPitt.png', 'Im_RyanGosling.png', 'Im_RobertPattinson.png'],diff,1,578.8977895999997,36,73.80952380952381,
RIIS2206,train,pos,0,pos0_id3_im6.bmp_pos0_id5_im1.bmp,['Im_MattDamon.png', 'Im_LeonardoDiCaprio.png', 'Im_DanielRadcliffe.png', 'Im_PatrickDempsey.png', 'Im_OrlandoBloom.png', 'Im_DanielCraig.png', 'Im_RobertDowneyJr.png', 'Im_BradPitt.png', 'Im_RyanGosling.png', 'Im_RobertPattinson.png'],diff,1,582.7811270000002,37,73.80952380952381,
RIIS2206,train,pos,90,pos90_id18_im18.bmp_pos90_id18_im11.bmp,['Im_MattDamon.png', 'Im_LeonardoDiCaprio.png', 'Im_DanielRadcliffe.png', 'Im_PatrickDempsey.png', 'Im_OrlandoBloom.png', 'Im_DanielCraig.png', 'Im_RobertDowneyJr.png', 'Im_BradPitt.png', 'Im_RyanGosling.png', 'Im_RobertPattinson.png'],diff,0,587.4479597999998,37,73.80952380952381,
RIIS2206,train,pos,fs,posfs_id14_im24.bmp_posfs_id13_im29.bmp,['Im_MattDamon.png', 'Im_LeonardoDiCaprio.png', 'Im_DanielRadcliffe.png', 'Im_PatrickDempsey.png', 'Im_OrlandoBloom.png', 'Im_DanielCraig.png', 'Im_RobertDowneyJr.png', 'Im_BradPitt.png', 'Im_RyanGosling.png', 'Im_RobertPattinson.png'],diff,1,591.2559880999997,38,73.80952380952381,
RIIS2206,train,pos,30,pos30_id16_im19.bmp_pos30_id16_im2.bmp,['Im_MattDamon.png', 'Im_LeonardoDiCaprio.png', 'Im_DanielRadcliffe.png', 'Im_PatrickDempsey.png', 'Im_OrlandoBloom.png', 'Im_DanielCraig.png', 'Im_RobertDowneyJr.png', 'Im_BradPitt.png', 'Im_RyanGosling.png', 'Im_RobertPattinson.png'],same,1,594.8896170999997,39,73.80952380952381,
RIIS2206,train,pos,60,pos60_id5_im1.bmp_pos60_id3_im6.bmp,['Im_MattDamon.png', 'Im_LeonardoDiCaprio.png', 'Im_DanielRadcliffe.png', 'Im_PatrickDempsey.png', 'Im_OrlandoBloom.png', 'Im_DanielCraig.png', 'Im_RobertDowneyJr.png', 'Im_BradPitt.png', 'Im_RyanGosling.png', 'Im_RobertPattinson.png'],diff,1,598.7393830000001,40,73.80952380952381,
RIIS2206,train,pos,60,pos60_id17_im9.bmp_pos60_id17_im8.bmp,['Im_MattDamon.png', 'Im_LeonardoDiCaprio.png', 'Im_DanielRadcliffe.png', 'Im_PatrickDempsey.png', 'Im_OrlandoBloom.png', 'Im_DanielCraig.png', 'Im_RobertDowneyJr.png', 'Im_BradPitt.png', 'Im_RyanGosling.png', 'Im_RobertPattinson.png'],same,1,602.7310788999994,41,73.80952380952381,
RIIS2206,train,inv,0,pos0_id17_im9.bmp_pos0_id17_im14.bmp,['Im_MattDamon.png', 'Im_LeonardoDiCaprio.png', 'Im_DanielRadcliffe.png', 'Im_PatrickDempsey.png', 'Im_OrlandoBloom.png', 'Im_DanielCraig.png', 'Im_RobertDowneyJr.png', 'Im_BradPitt.png', 'Im_RyanGosling.png', 'Im_RobertPattinson.png'],diff,0,612.5227481000002,0,97.61904761904762,
RIIS2206,train,inv,60,pos60_id3_im8.bmp_pos60_id3_im17.bmp,['Im_MattDamon.png', 'Im_LeonardoDiCaprio.png', 'Im_DanielRadcliffe.png', 'Im_PatrickDempsey.png', 'Im_OrlandoBloom.png', 'Im_DanielCraig.png', 'Im_RobertDowneyJr.png', 'Im_BradPitt.png', 'Im_RyanGosling.png', 'Im_RobertPattinson.png'],same,1,616.6059489999998,1,97.61904761904762,
RIIS2206,train,inv,30,pos30_id19_im27.bmp_pos30_id19_im4.bmp,['Im_MattDamon.png', 'Im_LeonardoDiCaprio.png', 'Im_DanielRadcliffe.png', 'Im_PatrickDempsey.png', 'Im_OrlandoBloom.png', 'Im_DanielCraig.png', 'Im_RobertDowneyJr.png', 'Im_BradPitt.png', 'Im_RyanGosling.png', 'Im_RobertPattinson.png'],same,1,620.5810221000002,2,97.61904761904762,
RIIS2206,train,inv,120,pos120_id16_im3.bmp_pos120_id5_im1.bmp,['Im_MattDamon.png', 'Im_LeonardoDiCaprio.png', 'Im_DanielRadcliffe.png', 'Im_PatrickDempsey.png', 'Im_OrlandoBloom.png', 'Im_DanielCraig.png', 'Im_RobertDowneyJr.png', 'Im_BradPitt.png', 'Im_RyanGosling.png', 'Im_RobertPattinson.png'],diff,1,624.3643923,3,97.61904761904762,
RIIS2206,train,inv,120,pos120_id19_im27.bmp_pos120_id19_im8.bmp,['Im_MattDamon.png', 'Im_LeonardoDiCaprio.png', 'Im_DanielRadcliffe.png', 'Im_PatrickDempsey.png', 'Im_OrlandoBloom.png', 'Im_DanielCraig.png', 'Im_RobertDowneyJr.png', 'Im_BradPitt.png', 'Im_RyanGosling.png', 'Im_RobertPattinson.png'],same,1,628.0309738999995,4,97.61904761904762,
RIIS2206,train,inv,0,pos0_id18_im11.bmp_pos0_id18_im19.bmp,['Im_MattDamon.png', 'Im_LeonardoDiCaprio.png', 'Im_DanielRadcliffe.png', 'Im_PatrickDempsey.png', 'Im_OrlandoBloom.png', 'Im_DanielCraig.png', 'Im_RobertDowneyJr.png', 'Im_BradPitt.png', 'Im_RyanGosling.png', 'Im_RobertPattinson.png'],same,1,631.6976789,5,97.61904761904762,
RIIS2206,train,inv,90,pos90_id3_im17.bmp_pos90_id3_im6.bmp,['Im_MattDamon.png', 'Im_LeonardoDiCaprio.png', 'Im_DanielRadcliffe.png', 'Im_PatrickDempsey.png', 'Im_OrlandoBloom.png', 'Im_DanielCraig.png', 'Im_RobertDowneyJr.png', 'Im_BradPitt.png', 'Im_RyanGosling.png', 'Im_RobertPattinson.png'],same,1,635.4810704000001,6,97.61904761904762,
RIIS2206,train,inv,fs,posfs_id16_im3.bmp_posfs_id16_im19.bmp,['Im_MattDamon.png', 'Im_LeonardoDiCaprio.png', 'Im_DanielRadcliffe.png', 'Im_PatrickDempsey.png', 'Im_OrlandoBloom.png', 'Im_DanielCraig.png', 'Im_RobertDowneyJr.png', 'Im_BradPitt.png', 'Im_RyanGosling.png', 'Im_RobertPattinson.png'],same,1,639.6310434999996,7,97.61904761904762,
RIIS2206,train,inv,60,pos60_id14_im18.bmp_pos60_id18_im11.bmp,['Im_MattDamon.png', 'Im_LeonardoDiCaprio.png', 'Im_DanielRadcliffe.png', 'Im_PatrickDempsey.png', 'Im_OrlandoBloom.png', 'Im_DanielCraig.png', 'Im_RobertDowneyJr.png', 'Im_BradPitt.png', 'Im_RyanGosling.png', 'Im_RobertPattinson.png'],diff,1,643.656062,8,97.61904761904762,
RIIS2206,train,inv,90,pos90_id14_im24.bmp_pos90_id14_im18.bmp,['Im_MattDamon.png', 'Im_LeonardoDiCaprio.png', 'Im_DanielRadcliffe.png', 'Im_PatrickDempsey.png', 'Im_OrlandoBloom.png', 'Im_DanielCraig.png', 'Im_RobertDowneyJr.png', 'Im_BradPitt.png', 'Im_RyanGosling.png', 'Im_RobertPattinson.png'],same,1,647.4559515999999,9,97.61904761904762,
RIIS2206,train,inv,fs,posfs_id18_im11.bmp_posfs_id18_im18.bmp,['Im_MattDamon.png', 'Im_LeonardoDiCaprio.png', 'Im_DanielRadcliffe.png', 'Im_PatrickDempsey.png', 'Im_OrlandoBloom.png', 'Im_DanielCraig.png', 'Im_RobertDowneyJr.png', 'Im_BradPitt.png', 'Im_RyanGosling.png', 'Im_RobertPattinson.png'],same,1,651.4808288999993,10,97.61904761904762,
RIIS2206,train,inv,150,pos150_id4_im15.bmp_pos150_id13_im10.bmp,['Im_MattDamon.png', 'Im_LeonardoDiCaprio.png', 'Im_DanielRadcliffe.png', 'Im_PatrickDempsey.png', 'Im_OrlandoBloom.png', 'Im_DanielCraig.png', 'Im_RobertDowneyJr.png', 'Im_BradPitt.png', 'Im_RyanGosling.png', 'Im_RobertPattinson.png'],diff,1,655.3142714999994,11,97.61904761904762,
RIIS2206,train,inv,150,pos150_id16_im3.bmp_pos150_id16_im2.bmp,['Im_MattDamon.png', 'Im_LeonardoDiCaprio.png', 'Im_DanielRadcliffe.png', 'Im_PatrickDempsey.png', 'Im_OrlandoBloom.png', 'Im_DanielCraig.png', 'Im_RobertDowneyJr.png', 'Im_BradPitt.png', 'Im_RyanGosling.png', 'Im_RobertPattinson.png'],diff,0,658.9641980999995,11,97.61904761904762,
RIIS2206,train,inv,30,pos30_id18_im18.bmp_pos30_id5_im10.bmp,['Im_MattDamon.png', 'Im_LeonardoDiCaprio.png', 'Im_DanielRadcliffe.png', 'Im_PatrickDempsey.png', 'Im_OrlandoBloom.png', 'Im_DanielCraig.png', 'Im_RobertDowneyJr.png', 'Im_BradPitt.png', 'Im_RyanGosling.png', 'Im_RobertPattinson.png'],diff,1,662.5560240999994,12,97.61904761904762,
RIIS2206,train,inv,30,pos30_id4_im7.bmp_pos30_id4_im20.bmp,['Im_MattDamon.png', 'Im_LeonardoDiCaprio.png', 'Im_DanielRadcliffe.png', 'Im_PatrickDempsey.png', 'Im_OrlandoBloom.png', 'Im_DanielCraig.png', 'Im_RobertDowneyJr.png', 'Im_BradPitt.png', 'Im_RyanGosling.png', 'Im_RobertPattinson.png'],same,1,667.0227078999997,13,97.61904761904762,
RIIS2206,train,inv,120,pos120_id4_im7.bmp_pos120_id4_im15.bmp,['Im_MattDamon.png', 'Im_LeonardoDiCaprio.png', 'Im_DanielRadcliffe.png', 'Im_PatrickDempsey.png', 'Im_OrlandoBloom.png', 'Im_DanielCraig.png', 'Im_RobertDowneyJr.png', 'Im_BradPitt.png', 'Im_RyanGosling.png', 'Im_RobertPattinson.png'],same,1,670.8809518999997,14,97.61904761904762,
RIIS2206,train,inv,150,pos150_id14_im16.bmp_pos150_id14_im18.bmp,['Im_MattDamon.png', 'Im_LeonardoDiCaprio.png', 'Im_DanielRadcliffe.png', 'Im_PatrickDempsey.png', 'Im_OrlandoBloom.png', 'Im_DanielCraig.png', 'Im_RobertDowneyJr.png', 'Im_BradPitt.png', 'Im_RyanGosling.png', 'Im_RobertPattinson.png'],same,1,674.9392220999998,15,97.61904761904762,
RIIS2206,train,inv,150,pos150_id19_im4.bmp_pos150_id19_im8.bmp,['Im_MattDamon.png', 'Im_LeonardoDiCaprio.png', 'Im_DanielRadcliffe.png', 'Im_PatrickDempsey.png', 'Im_OrlandoBloom.png', 'Im_DanielCraig.png', 'Im_RobertDowneyJr.png', 'Im_BradPitt.png', 'Im_RyanGosling.png', 'Im_RobertPattinson.png'],diff,0,678.7226346999996,15,97.61904761904762,
RIIS2206,train,inv,90,pos90_id17_im9.bmp_pos90_id17_im8.bmp,['Im_MattDamon.png', 'Im_LeonardoDiCaprio.png', 'Im_DanielRadcliffe.png', 'Im_PatrickDempsey.png', 'Im_OrlandoBloom.png', 'Im_DanielCraig.png', 'Im_RobertDowneyJr.png', 'Im_BradPitt.png', 'Im_RyanGosling.png', 'Im_RobertPattinson.png'],same,1,682.4226779,16,97.61904761904762,
RIIS2206,train,inv,120,pos120_id17_im9.bmp_pos120_id3_im8.bmp,['Im_MattDamon.png', 'Im_LeonardoDiCaprio.png', 'Im_DanielRadcliffe.png', 'Im_PatrickDempsey.png', 'Im_OrlandoBloom.png', 'Im_DanielCraig.png', 'Im_RobertDowneyJr.png', 'Im_BradPitt.png', 'Im_RyanGosling.png', 'Im_RobertPattinson.png'],diff,1,686.2976005999999,17,97.61904761904762,
RIIS2206,train,inv,0,pos0_id3_im8.bmp_pos0_id3_im6.bmp,['Im_MattDamon.png', 'Im_LeonardoDiCaprio.png', 'Im_DanielRadcliffe.png', 'Im_PatrickDempsey.png', 'Im_OrlandoBloom.png', 'Im_DanielCraig.png', 'Im_RobertDowneyJr.png', 'Im_BradPitt.png', 'Im_RyanGosling.png', 'Im_RobertPattinson.png'],diff,0,690.3395124999997,17,97.61904761904762,
RIIS2206,train,inv,60,pos60_id13_im10.bmp_pos60_id20_im12.bmp,['Im_MattDamon.png', 'Im_LeonardoDiCaprio.png', 'Im_DanielRadcliffe.png', 'Im_PatrickDempsey.png', 'Im_OrlandoBloom.png', 'Im_DanielCraig.png', 'Im_RobertDowneyJr.png', 'Im_BradPitt.png', 'Im_RyanGosling.png', 'Im_RobertPattinson.png'],diff,1,694.4643697000001,18,97.61904761904762,
RIIS2206,train,inv,30,pos30_id19_im8.bmp_pos30_id13_im29.bmp,['Im_MattDamon.png', 'Im_LeonardoDiCaprio.png', 'Im_DanielRadcliffe.png', 'Im_PatrickDempsey.png', 'Im_OrlandoBloom.png', 'Im_DanielCraig.png', 'Im_RobertDowneyJr.png', 'Im_BradPitt.png', 'Im_RyanGosling.png', 'Im_RobertPattinson.png'],diff,1,698.2565940999993,19,97.61904761904762,
RIIS2206,train,inv,90,pos90_id18_im11.bmp_pos90_id14_im18.bmp,['Im_MattDamon.png', 'Im_LeonardoDiCaprio.png', 'Im_DanielRadcliffe.png', 'Im_PatrickDempsey.png', 'Im_OrlandoBloom.png', 'Im_DanielCraig.png', 'Im_RobertDowneyJr.png', 'Im_BradPitt.png', 'Im_RyanGosling.png', 'Im_RobertPattinson.png'],same,0,702.573257,19,97.61904761904762,
RIIS2206,train,inv,60,pos60_id4_im15.bmp_pos60_id3_im17.bmp,['Im_MattDamon.png', 'Im_LeonardoDiCaprio.png', 'Im_DanielRadcliffe.png', 'Im_PatrickDempsey.png', 'Im_OrlandoBloom.png', 'Im_DanielCraig.png', 'Im_RobertDowneyJr.png', 'Im_BradPitt.png', 'Im_RyanGosling.png', 'Im_RobertPattinson.png'],diff,1,706.4143826,20,97.61904761904762,
RIIS2206,train,inv,fs,posfs_id18_im19.bmp_posfs_id18_im18.bmp,['Im_MattDamon.png', 'Im_LeonardoDiCaprio.png', 'Im_DanielRadcliffe.png', 'Im_PatrickDempsey.png', 'Im_OrlandoBloom.png', 'Im_DanielCraig.png', 'Im_RobertDowneyJr.png', 'Im_BradPitt.png', 'Im_RyanGosling.png', 'Im_RobertPattinson.png'],same,1,710.2643334999993,21,97.61904761904762,
RIIS2206,train,inv,0,pos0_id4_im7.bmp_pos0_id4_im20.bmp,['Im_MattDamon.png', 'Im_LeonardoDiCaprio.png', 'Im_DanielRadcliffe.png', 'Im_PatrickDempsey.png', 'Im_OrlandoBloom.png', 'Im_DanielCraig.png', 'Im_RobertDowneyJr.png', 'Im_BradPitt.png', 'Im_RyanGosling.png', 'Im_RobertPattinson.png'],same,1,713.9143540999994,22,97.61904761904762,
RIIS2206,train,inv,fs,posfs_id18_im18.bmp_posfs_id5_im20.bmp,['Im_MattDamon.png', 'Im_LeonardoDiCaprio.png', 'Im_DanielRadcliffe.png', 'Im_PatrickDempsey.png', 'Im_OrlandoBloom.png', 'Im_DanielCraig.png', 'Im_RobertDowneyJr.png', 'Im_BradPitt.png', 'Im_RyanGosling.png', 'Im_RobertPattinson.png'],diff,1,717.8643978,23,97.61904761904762,
RIIS2206,train,neg,120,neg120_id17_im9.bmp_neg120_id20_im3.bmp,['Im_MattDamon.png', 'Im_LeonardoDiCaprio.png', 'Im_DanielRadcliffe.png', 'Im_PatrickDempsey.png', 'Im_OrlandoBloom.png', 'Im_DanielCraig.png', 'Im_RobertDowneyJr.png', 'Im_BradPitt.png', 'Im_RyanGosling.png', 'Im_RobertPattinson.png'],diff,1,722.2145315999996,24,97.61904761904762,
RIIS2206,train,neg,60,neg60_id19_im27.bmp_neg60_id5_im10.bmp,['Im_MattDamon.png', 'Im_LeonardoDiCaprio.png', 'Im_DanielRadcliffe.png', 'Im_PatrickDempsey.png', 'Im_OrlandoBloom.png', 'Im_DanielCraig.png', 'Im_RobertDowneyJr.png', 'Im_BradPitt.png', 'Im_RyanGosling.png', 'Im_RobertPattinson.png'],diff,1,726.2391280000002,25,97.61904761904762,
RIIS2206,train,neg,120,neg120_id13_im15.bmp_neg120_id20_im3.bmp,['Im_MattDamon.png', 'Im_LeonardoDiCaprio.png', 'Im_DanielRadcliffe.png', 'Im_PatrickDempsey.png', 'Im_OrlandoBloom.png', 'Im_DanielCraig.png', 'Im_RobertDowneyJr.png', 'Im_BradPitt.png', 'Im_RyanGosling.png', 'Im_RobertPattinson.png'],diff,1,730.6644970999996,26,97.61904761904762,
RIIS2206,train,neg,30,neg30_id19_im4.bmp_neg30_id4_im7.bmp,['Im_MattDamon.png', 'Im_LeonardoDiCaprio.png', 'Im_DanielRadcliffe.png', 'Im_PatrickDempsey.png', 'Im_OrlandoBloom.png', 'Im_DanielCraig.png', 'Im_RobertDowneyJr.png', 'Im_BradPitt.png', 'Im_RyanGosling.png', 'Im_RobertPattinson.png'],diff,1,734.9144373999998,27,97.61904761904762,
RIIS2206,train,neg,0,neg0_id13_im29.bmp_neg0_id13_im15.bmp,['Im_MattDamon.png', 'Im_LeonardoDiCaprio.png', 'Im_DanielRadcliffe.png', 'Im_PatrickDempsey.png', 'Im_OrlandoBloom.png', 'Im_DanielCraig.png', 'Im_RobertDowneyJr.png', 'Im_BradPitt.png', 'Im_RyanGosling.png', 'Im_RobertPattinson.png'],same,1,739.1061112999996,28,97.61904761904762,
RIIS2206,train,neg,fs,negfs_id5_im1.bmp_negfs_id16_im3.bmp,['Im_MattDamon.png', 'Im_LeonardoDiCaprio.png', 'Im_DanielRadcliffe.png', 'Im_PatrickDempsey.png', 'Im_OrlandoBloom.png', 'Im_DanielCraig.png', 'Im_RobertDowneyJr.png', 'Im_BradPitt.png', 'Im_RyanGosling.png', 'Im_RobertPattinson.png'],diff,1,742.8142283999996,29,97.61904761904762,
RIIS2206,train,neg,30,neg30_id13_im29.bmp_neg30_id13_im10.bmp,['Im_MattDamon.png', 'Im_LeonardoDiCaprio.png', 'Im_DanielRadcliffe.png', 'Im_PatrickDempsey.png', 'Im_OrlandoBloom.png', 'Im_DanielCraig.png', 'Im_RobertDowneyJr.png', 'Im_BradPitt.png', 'Im_RyanGosling.png', 'Im_RobertPattinson.png'],same,1,746.8895091999993,30,97.61904761904762,
RIIS2206,train,neg,fs,negfs_id18_im18.bmp_negfs_id18_im19.bmp,['Im_MattDamon.png', 'Im_LeonardoDiCaprio.png', 'Im_DanielRadcliffe.png', 'Im_PatrickDempsey.png', 'Im_OrlandoBloom.png', 'Im_DanielCraig.png', 'Im_RobertDowneyJr.png', 'Im_BradPitt.png', 'Im_RyanGosling.png', 'Im_RobertPattinson.png'],same,1,750.7642657999995,31,97.61904761904762,
RIIS2206,train,neg,60,neg60_id5_im20.bmp_neg60_id20_im30.bmp,['Im_MattDamon.png', 'Im_LeonardoDiCaprio.png', 'Im_DanielRadcliffe.png', 'Im_PatrickDempsey.png', 'Im_OrlandoBloom.png', 'Im_DanielCraig.png', 'Im_RobertDowneyJr.png', 'Im_BradPitt.png', 'Im_RyanGosling.png', 'Im_RobertPattinson.png'],diff,1,754.4142425999999,32,97.61904761904762,
RIIS2206,train,neg,150,neg150_id5_im10.bmp_neg150_id18_im18.bmp,['Im_MattDamon.png', 'Im_LeonardoDiCaprio.png', 'Im_DanielRadcliffe.png', 'Im_PatrickDempsey.png', 'Im_OrlandoBloom.png', 'Im_DanielCraig.png', 'Im_RobertDowneyJr.png', 'Im_BradPitt.png', 'Im_RyanGosling.png', 'Im_RobertPattinson.png'],diff,1,758.1977434999999,33,97.61904761904762,
RIIS2206,train,neg,90,neg90_id17_im9.bmp_neg90_id17_im8.bmp,['Im_MattDamon.png', 'Im_LeonardoDiCaprio.png', 'Im_DanielRadcliffe.png', 'Im_PatrickDempsey.png', 'Im_OrlandoBloom.png', 'Im_DanielCraig.png', 'Im_RobertDowneyJr.png', 'Im_BradPitt.png', 'Im_RyanGosling.png', 'Im_RobertPattinson.png'],same,1,761.9309990000002,34,97.61904761904762,
RIIS2206,train,neg,0,neg0_id4_im7.bmp_neg0_id4_im20.bmp,['Im_MattDamon.png', 'Im_LeonardoDiCaprio.png', 'Im_DanielRadcliffe.png', 'Im_PatrickDempsey.png', 'Im_OrlandoBloom.png', 'Im_DanielCraig.png', 'Im_RobertDowneyJr.png', 'Im_BradPitt.png', 'Im_RyanGosling.png', 'Im_RobertPattinson.png'],same,1,766.0559296000001,35,97.61904761904762,
RIIS2206,train,neg,90,neg90_id16_im2.bmp_neg90_id14_im16.bmp,['Im_MattDamon.png', 'Im_LeonardoDiCaprio.png', 'Im_DanielRadcliffe.png', 'Im_PatrickDempsey.png', 'Im_OrlandoBloom.png', 'Im_DanielCraig.png', 'Im_RobertDowneyJr.png', 'Im_BradPitt.png', 'Im_RyanGosling.png', 'Im_RobertPattinson.png'],diff,1,770.0225875999995,36,97.61904761904762,
RIIS2206,train,neg,150,neg150_id13_im10.bmp_neg150_id13_im15.bmp,['Im_MattDamon.png', 'Im_LeonardoDiCaprio.png', 'Im_DanielRadcliffe.png', 'Im_PatrickDempsey.png', 'Im_OrlandoBloom.png', 'Im_DanielCraig.png', 'Im_RobertDowneyJr.png', 'Im_BradPitt.png', 'Im_RyanGosling.png', 'Im_RobertPattinson.png'],same,1,773.8642523999997,37,97.61904761904762,
RIIS2206,0,inv,90,pos90_id20_im30.bmp_pos90_id20_im3.bmp,['Im_MattDamon.png', 'Im_LeonardoDiCaprio.png', 'Im_DanielRadcliffe.png', 'Im_PatrickDempsey.png', 'Im_OrlandoBloom.png', 'Im_DanielCraig.png', 'Im_RobertDowneyJr.png', 'Im_BradPitt.png', 'Im_RyanGosling.png', 'Im_RobertPattinson.png'],same,1,802.9641977000001,1,0,
RIIS2206,0,inv,60,pos60_id3_im17.bmp_pos60_id3_im6.bmp,['Im_MattDamon.png', 'Im_LeonardoDiCaprio.png', 'Im_DanielRadcliffe.png', 'Im_PatrickDempsey.png', 'Im_OrlandoBloom.png', 'Im_DanielCraig.png', 'Im_RobertDowneyJr.png', 'Im_BradPitt.png', 'Im_RyanGosling.png', 'Im_RobertPattinson.png'],same,1,807.3642055999999,2,0,
RIIS2206,0,inv,90,pos90_id4_im15.bmp_pos90_id13_im10.bmp,['Im_MattDamon.png', 'Im_LeonardoDiCaprio.png', 'Im_DanielRadcliffe.png', 'Im_PatrickDempsey.png', 'Im_OrlandoBloom.png', 'Im_DanielCraig.png', 'Im_RobertDowneyJr.png', 'Im_BradPitt.png', 'Im_RyanGosling.png', 'Im_RobertPattinson.png'],diff,1,811.7892516000002,3,0,
RIIS2206,0,inv,60,pos60_id14_im16.bmp_pos60_id14_im24.bmp,['Im_MattDamon.png', 'Im_LeonardoDiCaprio.png', 'Im_DanielRadcliffe.png', 'Im_PatrickDempsey.png', 'Im_OrlandoBloom.png', 'Im_DanielCraig.png', 'Im_RobertDowneyJr.png', 'Im_BradPitt.png', 'Im_RyanGosling.png', 'Im_RobertPattinson.png'],same,1,816.2140558000001,4,0,
RIIS2206,0,inv,30,pos30_id14_im24.bmp_pos30_id20_im12.bmp,['Im_MattDamon.png', 'Im_LeonardoDiCaprio.png', 'Im_DanielRadcliffe.png', 'Im_PatrickDempsey.png', 'Im_OrlandoBloom.png', 'Im_DanielCraig.png', 'Im_RobertDowneyJr.png', 'Im_BradPitt.png', 'Im_RyanGosling.png', 'Im_RobertPattinson.png'],same,0,820.4643256999998,4,0,
RIIS2206,0,inv,120,pos120_id16_im3.bmp_pos120_id16_im19.bmp,['Im_MattDamon.png', 'Im_LeonardoDiCaprio.png', 'Im_DanielRadcliffe.png', 'Im_PatrickDempsey.png', 'Im_OrlandoBloom.png', 'Im_DanielCraig.png', 'Im_RobertDowneyJr.png', 'Im_BradPitt.png', 'Im_RyanGosling.png', 'Im_RobertPattinson.png'],diff,0,824.9641756000001,4,0,
RIIS2206,0,inv,0,pos0_id16_im19.bmp_pos0_id16_im3.bmp,['Im_MattDamon.png', 'Im_LeonardoDiCaprio.png', 'Im_DanielRadcliffe.png', 'Im_PatrickDempsey.png', 'Im_OrlandoBloom.png', 'Im_DanielCraig.png', 'Im_RobertDowneyJr.png', 'Im_BradPitt.png', 'Im_RyanGosling.png', 'Im_RobertPattinson.png'],diff,0,829.5642075999995,4,0,
RIIS2206,0,inv,150,pos150_id16_im2.bmp_pos150_id4_im20.bmp,['Im_MattDamon.png', 'Im_LeonardoDiCaprio.png', 'Im_DanielRadcliffe.png', 'Im_PatrickDempsey.png', 'Im_OrlandoBloom.png', 'Im_DanielCraig.png', 'Im_RobertDowneyJr.png', 'Im_BradPitt.png', 'Im_RyanGosling.png', 'Im_RobertPattinson.png'],diff,1,833.9808868999999,5,0,
RIIS2206,0,inv,0,pos0_id5_im1.bmp_pos0_id3_im6.bmp,['Im_MattDamon.png', 'Im_LeonardoDiCaprio.png', 'Im_DanielRadcliffe.png', 'Im_PatrickDempsey.png', 'Im_OrlandoBloom.png', 'Im_DanielCraig.png', 'Im_RobertDowneyJr.png', 'Im_BradPitt.png', 'Im_RyanGosling.png', 'Im_RobertPattinson.png'],diff,1,838.5808384000002,6,0,
RIIS2206,0,inv,fs,posfs_id20_im12.bmp_posfs_id20_im30.bmp,['Im_MattDamon.png', 'Im_LeonardoDiCaprio.png', 'Im_DanielRadcliffe.png', 'Im_PatrickDempsey.png', 'Im_OrlandoBloom.png', 'Im_DanielCraig.png', 'Im_RobertDowneyJr.png', 'Im_BradPitt.png', 'Im_RyanGosling.png', 'Im_RobertPattinson.png'],same,1,843.1058837999999,7,0,
RIIS2206,0,inv,30,pos30_id16_im3.bmp_pos30_id18_im19.bmp,['Im_MattDamon.png', 'Im_LeonardoDiCaprio.png', 'Im_DanielRadcliffe.png', 'Im_PatrickDempsey.png', 'Im_OrlandoBloom.png', 'Im_DanielCraig.png', 'Im_RobertDowneyJr.png', 'Im_BradPitt.png', 'Im_RyanGosling.png', 'Im_RobertPattinson.png'],diff,1,847.3894308999998,8,0,
RIIS2206,0,inv,120,pos120_id4_im15.bmp_pos120_id13_im10.bmp,['Im_MattDamon.png', 'Im_LeonardoDiCaprio.png', 'Im_DanielRadcliffe.png', 'Im_PatrickDempsey.png', 'Im_OrlandoBloom.png', 'Im_DanielCraig.png', 'Im_RobertDowneyJr.png', 'Im_BradPitt.png', 'Im_RyanGosling.png', 'Im_RobertPattinson.png'],diff,1,851.7641423999994,9,0,
RIIS2206,0,inv,fs,posfs_id17_im14.bmp_posfs_id20_im30.bmp,['Im_MattDamon.png', 'Im_LeonardoDiCaprio.png', 'Im_DanielRadcliffe.png', 'Im_PatrickDempsey.png', 'Im_OrlandoBloom.png', 'Im_DanielCraig.png', 'Im_RobertDowneyJr.png', 'Im_BradPitt.png', 'Im_RyanGosling.png', 'Im_RobertPattinson.png'],diff,1,856.3808482999993,10,0,
RIIS2206,0,inv,150,pos150_id20_im12.bmp_pos150_id13_im10.bmp,['Im_MattDamon.png', 'Im_LeonardoDiCaprio.png', 'Im_DanielRadcliffe.png', 'Im_PatrickDempsey.png', 'Im_OrlandoBloom.png', 'Im_DanielCraig.png', 'Im_RobertDowneyJr.png', 'Im_BradPitt.png', 'Im_RyanGosling.png', 'Im_RobertPattinson.png'],diff,1,860.6391914999995,11,0,
RIIS2206,1,neg,150,neg150_id13_im10.bmp_neg150_id4_im15.bmp,['Im_MattDamon.png', 'Im_LeonardoDiCaprio.png', 'Im_DanielRadcliffe.png', 'Im_PatrickDempsey.png', 'Im_OrlandoBloom.png', 'Im_DanielCraig.png', 'Im_RobertDowneyJr.png', 'Im_BradPitt.png', 'Im_RyanGosling.png', 'Im_RobertPattinson.png'],diff,1,868.6894715999997,12,0,
RIIS2206,1,neg,30,neg30_id13_im10.bmp_neg30_id20_im12.bmp,['Im_MattDamon.png', 'Im_LeonardoDiCaprio.png', 'Im_DanielRadcliffe.png', 'Im_PatrickDempsey.png', 'Im_OrlandoBloom.png', 'Im_DanielCraig.png', 'Im_RobertDowneyJr.png', 'Im_BradPitt.png', 'Im_RyanGosling.png', 'Im_RobertPattinson.png'],diff,1,872.9308626000002,13,0,
RIIS2206,1,neg,fs,negfs_id20_im12.bmp_negfs_id20_im30.bmp,['Im_MattDamon.png', 'Im_LeonardoDiCaprio.png', 'Im_DanielRadcliffe.png', 'Im_PatrickDempsey.png', 'Im_OrlandoBloom.png', 'Im_DanielCraig.png', 'Im_RobertDowneyJr.png', 'Im_BradPitt.png', 'Im_RyanGosling.png', 'Im_RobertPattinson.png'],same,1,877.7389929000001,14,0,
RIIS2206,1,neg,0,neg0_id13_im10.bmp_neg0_id13_im29.bmp,['Im_MattDamon.png', 'Im_LeonardoDiCaprio.png', 'Im_DanielRadcliffe.png', 'Im_PatrickDempsey.png', 'Im_OrlandoBloom.png', 'Im_DanielCraig.png', 'Im_RobertDowneyJr.png', 'Im_BradPitt.png', 'Im_RyanGosling.png', 'Im_RobertPattinson.png'],same,1,882.1140522999995,15,0,
RIIS2206,1,neg,120,neg120_id13_im15.bmp_neg120_id17_im8.bmp,['Im_MattDamon.png', 'Im_LeonardoDiCaprio.png', 'Im_DanielRadcliffe.png', 'Im_PatrickDempsey.png', 'Im_OrlandoBloom.png', 'Im_DanielCraig.png', 'Im_RobertDowneyJr.png', 'Im_BradPitt.png', 'Im_RyanGosling.png', 'Im_RobertPattinson.png'],diff,1,886.7643343999998,16,0,
RIIS2206,1,neg,90,neg90_id13_im10.bmp_neg90_id13_im29.bmp,['Im_MattDamon.png', 'Im_LeonardoDiCaprio.png', 'Im_DanielRadcliffe.png', 'Im_PatrickDempsey.png', 'Im_OrlandoBloom.png', 'Im_DanielCraig.png', 'Im_RobertDowneyJr.png', 'Im_BradPitt.png', 'Im_RyanGosling.png', 'Im_RobertPattinson.png'],same,1,890.9726729999993,17,0,
RIIS2206,1,neg,120,neg120_id19_im27.bmp_neg120_id16_im19.bmp,['Im_MattDamon.png', 'Im_LeonardoDiCaprio.png', 'Im_DanielRadcliffe.png', 'Im_PatrickDempsey.png', 'Im_OrlandoBloom.png', 'Im_DanielCraig.png', 'Im_RobertDowneyJr.png', 'Im_BradPitt.png', 'Im_RyanGosling.png', 'Im_RobertPattinson.png'],diff,1,895.5392745999998,18,0,
RIIS2206,1,neg,90,neg90_id14_im24.bmp_neg90_id14_im16.bmp,['Im_MattDamon.png', 'Im_LeonardoDiCaprio.png', 'Im_DanielRadcliffe.png', 'Im_PatrickDempsey.png', 'Im_OrlandoBloom.png', 'Im_DanielCraig.png', 'Im_RobertDowneyJr.png', 'Im_BradPitt.png', 'Im_RyanGosling.png', 'Im_RobertPattinson.png'],same,1,900.1391653999999,19,0,
RIIS2206,1,neg,0,neg0_id3_im17.bmp_neg0_id3_im8.bmp,['Im_MattDamon.png', 'Im_LeonardoDiCaprio.png', 'Im_DanielRadcliffe.png', 'Im_PatrickDempsey.png', 'Im_OrlandoBloom.png', 'Im_DanielCraig.png', 'Im_RobertDowneyJr.png', 'Im_BradPitt.png', 'Im_RyanGosling.png', 'Im_RobertPattinson.png'],same,1,904.2807501999996,20,0,
RIIS2206,1,neg,30,neg30_id18_im11.bmp_neg30_id3_im17.bmp,['Im_MattDamon.png', 'Im_LeonardoDiCaprio.png', 'Im_DanielRadcliffe.png', 'Im_PatrickDempsey.png', 'Im_OrlandoBloom.png', 'Im_DanielCraig.png', 'Im_RobertDowneyJr.png', 'Im_BradPitt.png', 'Im_RyanGosling.png', 'Im_RobertPattinson.png'],diff,1,908.6309267999995,21,0,
RIIS2206,1,neg,60,neg60_id20_im30.bmp_neg60_id20_im3.bmp,['Im_MattDamon.png', 'Im_LeonardoDiCaprio.png', 'Im_DanielRadcliffe.png', 'Im_PatrickDempsey.png', 'Im_OrlandoBloom.png', 'Im_DanielCraig.png', 'Im_RobertDowneyJr.png', 'Im_BradPitt.png', 'Im_RyanGosling.png', 'Im_RobertPattinson.png'],same,1,912.7724905999994,22,0,
RIIS2206,1,neg,60,neg60_id4_im20.bmp_neg60_id19_im4.bmp,['Im_MattDamon.png', 'Im_LeonardoDiCaprio.png', 'Im_DanielRadcliffe.png', 'Im_PatrickDempsey.png', 'Im_OrlandoBloom.png', 'Im_DanielCraig.png', 'Im_RobertDowneyJr.png', 'Im_BradPitt.png', 'Im_RyanGosling.png', 'Im_RobertPattinson.png'],diff,1,917.3808061,23,0,
RIIS2206,1,neg,150,neg150_id20_im12.bmp_neg150_id13_im10.bmp,['Im_MattDamon.png', 'Im_LeonardoDiCaprio.png', 'Im_DanielRadcliffe.png', 'Im_PatrickDempsey.png', 'Im_OrlandoBloom.png', 'Im_DanielCraig.png', 'Im_RobertDowneyJr.png', 'Im_BradPitt.png', 'Im_RyanGosling.png', 'Im_RobertPattinson.png'],diff,1,921.9389778999994,24,0,
RIIS2206,1,neg,fs,negfs_id13_im10.bmp_negfs_id13_im15.bmp,['Im_MattDamon.png', 'Im_LeonardoDiCaprio.png', 'Im_DanielRadcliffe.png', 'Im_PatrickDempsey.png', 'Im_OrlandoBloom.png', 'Im_DanielCraig.png', 'Im_RobertDowneyJr.png', 'Im_BradPitt.png', 'Im_RyanGosling.png', 'Im_RobertPattinson.png'],same,1,926.1891519999999,25,0,
RIIS2206,2,inv,fs,posfs_id17_im9.bmp_posfs_id17_im14.bmp,['Im_MattDamon.png', 'Im_LeonardoDiCaprio.png', 'Im_DanielRadcliffe.png', 'Im_PatrickDempsey.png', 'Im_OrlandoBloom.png', 'Im_DanielCraig.png', 'Im_RobertDowneyJr.png', 'Im_BradPitt.png', 'Im_RyanGosling.png', 'Im_RobertPattinson.png'],same,1,934.2808220999996,26,0,
RIIS2206,2,inv,90,pos90_id13_im15.bmp_pos90_id17_im8.bmp,['Im_MattDamon.png', 'Im_LeonardoDiCaprio.png', 'Im_DanielRadcliffe.png', 'Im_PatrickDempsey.png', 'Im_OrlandoBloom.png', 'Im_DanielCraig.png', 'Im_RobertDowneyJr.png', 'Im_BradPitt.png', 'Im_RyanGosling.png', 'Im_RobertPattinson.png'],same,0,938.8222857000001,26,0,
RIIS2206,2,inv,150,pos150_id5_im20.bmp_pos150_id5_im10.bmp,['Im_MattDamon.png', 'Im_LeonardoDiCaprio.png', 'Im_DanielRadcliffe.png', 'Im_PatrickDempsey.png', 'Im_OrlandoBloom.png', 'Im_DanielCraig.png', 'Im_RobertDowneyJr.png', 'Im_BradPitt.png', 'Im_RyanGosling.png', 'Im_RobertPattinson.png'],same,1,943.7975898999994,27,0,
RIIS2206,2,inv,60,pos60_id4_im15.bmp_pos60_id4_im20.bmp,['Im_MattDamon.png', 'Im_LeonardoDiCaprio.png', 'Im_DanielRadcliffe.png', 'Im_PatrickDempsey.png', 'Im_OrlandoBloom.png', 'Im_DanielCraig.png', 'Im_RobertDowneyJr.png', 'Im_BradPitt.png', 'Im_RyanGosling.png', 'Im_RobertPattinson.png'],same,1,948.1476410999994,28,0,
RIIS2206,2,inv,120,pos120_id18_im11.bmp_pos120_id3_im17.bmp,['Im_MattDamon.png', 'Im_LeonardoDiCaprio.png', 'Im_DanielRadcliffe.png', 'Im_PatrickDempsey.png', 'Im_OrlandoBloom.png', 'Im_DanielCraig.png', 'Im_RobertDowneyJr.png', 'Im_BradPitt.png', 'Im_RyanGosling.png', 'Im_RobertPattinson.png'],diff,1,952.4807611999995,29,0,
RIIS2206,2,inv,0,pos0_id20_im3.bmp_pos0_id17_im9.bmp,['Im_MattDamon.png', 'Im_LeonardoDiCaprio.png', 'Im_DanielRadcliffe.png', 'Im_PatrickDempsey.png', 'Im_OrlandoBloom.png', 'Im_DanielCraig.png', 'Im_RobertDowneyJr.png', 'Im_BradPitt.png', 'Im_RyanGosling.png', 'Im_RobertPattinson.png'],same,0,956.7390797999997,29,0,
RIIS2206,2,inv,30,pos30_id18_im18.bmp_pos30_id18_im19.bmp,['Im_MattDamon.png', 'Im_LeonardoDiCaprio.png', 'Im_DanielRadcliffe.png', 'Im_PatrickDempsey.png', 'Im_OrlandoBloom.png', 'Im_DanielCraig.png', 'Im_RobertDowneyJr.png', 'Im_BradPitt.png', 'Im_RyanGosling.png', 'Im_RobertPattinson.png'],same,1,960.9894439999998,30,0,
RIIS2206,2,inv,90,pos90_id3_im8.bmp_pos90_id17_im8.bmp,['Im_MattDamon.png', 'Im_LeonardoDiCaprio.png', 'Im_DanielRadcliffe.png', 'Im_PatrickDempsey.png', 'Im_OrlandoBloom.png', 'Im_DanielCraig.png', 'Im_RobertDowneyJr.png', 'Im_BradPitt.png', 'Im_RyanGosling.png', 'Im_RobertPattinson.png'],same,0,965.3307289999993,30,0,
RIIS2206,2,inv,0,pos0_id14_im24.bmp_pos0_id14_im16.bmp,['Im_MattDamon.png', 'Im_LeonardoDiCaprio.png', 'Im_DanielRadcliffe.png', 'Im_PatrickDempsey.png', 'Im_OrlandoBloom.png', 'Im_DanielCraig.png', 'Im_RobertDowneyJr.png', 'Im_BradPitt.png', 'Im_RyanGosling.png', 'Im_RobertPattinson.png'],diff,0,969.7973698999995,30,0,
RIIS2206,2,inv,150,pos150_id14_im24.bmp_pos150_id14_im16.bmp,['Im_MattDamon.png', 'Im_LeonardoDiCaprio.png', 'Im_DanielRadcliffe.png', 'Im_PatrickDempsey.png', 'Im_OrlandoBloom.png', 'Im_DanielCraig.png', 'Im_RobertDowneyJr.png', 'Im_BradPitt.png', 'Im_RyanGosling.png', 'Im_RobertPattinson.png'],diff,0,974.1472869999998,30,0,
RIIS2206,2,inv,fs,posfs_id17_im9.bmp_posfs_id3_im8.bmp,['Im_MattDamon.png', 'Im_LeonardoDiCaprio.png', 'Im_DanielRadcliffe.png', 'Im_PatrickDempsey.png', 'Im_OrlandoBloom.png', 'Im_DanielCraig.png', 'Im_RobertDowneyJr.png', 'Im_BradPitt.png', 'Im_RyanGosling.png', 'Im_RobertPattinson.png'],diff,1,978.2723773999996,31,0,
RIIS2206,2,inv,60,pos60_id16_im3.bmp_pos60_id16_im2.bmp,['Im_MattDamon.png', 'Im_LeonardoDiCaprio.png', 'Im_DanielRadcliffe.png', 'Im_PatrickDempsey.png', 'Im_OrlandoBloom.png', 'Im_DanielCraig.png', 'Im_RobertDowneyJr.png', 'Im_BradPitt.png', 'Im_RyanGosling.png', 'Im_RobertPattinson.png'],diff,0,982.5727149999993,31,0,
RIIS2206,2,inv,30,pos30_id20_im30.bmp_pos30_id17_im14.bmp,['Im_MattDamon.png', 'Im_LeonardoDiCaprio.png', 'Im_DanielRadcliffe.png', 'Im_PatrickDempsey.png', 'Im_OrlandoBloom.png', 'Im_DanielCraig.png', 'Im_RobertDowneyJr.png', 'Im_BradPitt.png', 'Im_RyanGosling.png', 'Im_RobertPattinson.png'],same,0,986.9807383999996,31,0,
RIIS2206,2,inv,120,pos120_id13_im29.bmp_pos120_id14_im24.bmp,['Im_MattDamon.png', 'Im_LeonardoDiCaprio.png', 'Im_DanielRadcliffe.png', 'Im_PatrickDempsey.png', 'Im_OrlandoBloom.png', 'Im_DanielCraig.png', 'Im_RobertDowneyJr.png', 'Im_BradPitt.png', 'Im_RyanGosling.png', 'Im_RobertPattinson.png'],same,0,991.6140817999994,31,0,
RIIS2206,3,pos,90,pos90_id5_im1.bmp_pos90_id5_im10.bmp,['Im_MattDamon.png', 'Im_LeonardoDiCaprio.png', 'Im_DanielRadcliffe.png', 'Im_PatrickDempsey.png', 'Im_OrlandoBloom.png', 'Im_DanielCraig.png', 'Im_RobertDowneyJr.png', 'Im_BradPitt.png', 'Im_RyanGosling.png', 'Im_RobertPattinson.png'],same,1,1039.9140671999994,1,73.80952380952381,
RIIS2206,3,pos,0,pos0_id18_im18.bmp_pos0_id5_im10.bmp,['Im_MattDamon.png', 'Im_LeonardoDiCaprio.png', 'Im_DanielRadcliffe.png', 'Im_PatrickDempsey.png', 'Im_OrlandoBloom.png', 'Im_DanielCraig.png', 'Im_RobertDowneyJr.png', 'Im_BradPitt.png', 'Im_RyanGosling.png', 'Im_RobertPattinson.png'],diff,1,1044.4306287,2,73.80952380952381,
RIIS2206,3,pos,30,pos30_id14_im16.bmp_pos30_id18_im19.bmp,['Im_MattDamon.png', 'Im_LeonardoDiCaprio.png', 'Im_DanielRadcliffe.png', 'Im_PatrickDempsey.png', 'Im_OrlandoBloom.png', 'Im_DanielCraig.png', 'Im_RobertDowneyJr.png', 'Im_BradPitt.png', 'Im_RyanGosling.png', 'Im_RobertPattinson.png'],diff,1,1049.0389423999995,3,73.80952380952381,
RIIS2206,3,pos,60,pos60_id20_im3.bmp_pos60_id20_im30.bmp,['Im_MattDamon.png', 'Im_LeonardoDiCaprio.png', 'Im_DanielRadcliffe.png', 'Im_PatrickDempsey.png', 'Im_OrlandoBloom.png', 'Im_DanielCraig.png', 'Im_RobertDowneyJr.png', 'Im_BradPitt.png', 'Im_RyanGosling.png', 'Im_RobertPattinson.png'],same,1,1053.3058609,4,73.80952380952381,
RIIS2206,3,pos,fs,posfs_id13_im10.bmp_posfs_id20_im12.bmp,['Im_MattDamon.png', 'Im_LeonardoDiCaprio.png', 'Im_DanielRadcliffe.png', 'Im_PatrickDempsey.png', 'Im_OrlandoBloom.png', 'Im_DanielCraig.png', 'Im_RobertDowneyJr.png', 'Im_BradPitt.png', 'Im_RyanGosling.png', 'Im_RobertPattinson.png'],diff,1,1057.4472133999998,5,73.80952380952381,
RIIS2206,3,pos,150,pos150_id13_im10.bmp_pos150_id13_im29.bmp,['Im_MattDamon.png', 'Im_LeonardoDiCaprio.png', 'Im_DanielRadcliffe.png', 'Im_PatrickDempsey.png', 'Im_OrlandoBloom.png', 'Im_DanielCraig.png', 'Im_RobertDowneyJr.png', 'Im_BradPitt.png', 'Im_RyanGosling.png', 'Im_RobertPattinson.png'],diff,0,1062.5724424,5,73.80952380952381,
RIIS2206,3,pos,30,pos30_id5_im10.bmp_pos30_id18_im18.bmp,['Im_MattDamon.png', 'Im_LeonardoDiCaprio.png', 'Im_DanielRadcliffe.png', 'Im_PatrickDempsey.png', 'Im_OrlandoBloom.png', 'Im_DanielCraig.png', 'Im_RobertDowneyJr.png', 'Im_BradPitt.png', 'Im_RyanGosling.png', 'Im_RobertPattinson.png'],diff,1,1067.1806828999997,6,73.80952380952381,
RIIS2206,3,pos,60,pos60_id19_im4.bmp_pos60_id19_im27.bmp,['Im_MattDamon.png', 'Im_LeonardoDiCaprio.png', 'Im_DanielRadcliffe.png', 'Im_PatrickDempsey.png', 'Im_OrlandoBloom.png', 'Im_DanielCraig.png', 'Im_RobertDowneyJr.png', 'Im_BradPitt.png', 'Im_RyanGosling.png', 'Im_RobertPattinson.png'],same,1,1071.8306980999996,7,73.80952380952381,
RIIS2206,3,pos,0,pos0_id17_im8.bmp_pos0_id3_im8.bmp,['Im_MattDamon.png', 'Im_LeonardoDiCaprio.png', 'Im_DanielRadcliffe.png', 'Im_PatrickDempsey.png', 'Im_OrlandoBloom.png', 'Im_DanielCraig.png', 'Im_RobertDowneyJr.png', 'Im_BradPitt.png', 'Im_RyanGosling.png', 'Im_RobertPattinson.png'],diff,1,1076.3806516999994,8,73.80952380952381,
RIIS2206,3,pos,90,pos90_id19_im27.bmp_pos90_id16_im19.bmp,['Im_MattDamon.png', 'Im_LeonardoDiCaprio.png', 'Im_DanielRadcliffe.png', 'Im_PatrickDempsey.png', 'Im_OrlandoBloom.png', 'Im_DanielCraig.png', 'Im_RobertDowneyJr.png', 'Im_BradPitt.png', 'Im_RyanGosling.png', 'Im_RobertPattinson.png'],diff,1,1080.7806886999997,9,73.80952380952381,
RIIS2206,3,pos,fs,posfs_id17_im8.bmp_posfs_id17_im9.bmp,['Im_MattDamon.png', 'Im_LeonardoDiCaprio.png', 'Im_DanielRadcliffe.png', 'Im_PatrickDempsey.png', 'Im_OrlandoBloom.png', 'Im_DanielCraig.png', 'Im_RobertDowneyJr.png', 'Im_BradPitt.png', 'Im_RyanGosling.png', 'Im_RobertPattinson.png'],same,1,1085.3138619000001,10,73.80952380952381,
RIIS2206,3,pos,150,pos150_id17_im14.bmp_pos150_id17_im9.bmp,['Im_MattDamon.png', 'Im_LeonardoDiCaprio.png', 'Im_DanielRadcliffe.png', 'Im_PatrickDempsey.png', 'Im_OrlandoBloom.png', 'Im_DanielCraig.png', 'Im_RobertDowneyJr.png', 'Im_BradPitt.png', 'Im_RyanGosling.png', 'Im_RobertPattinson.png'],same,1,1089.5639770999996,11,73.80952380952381,
RIIS2206,3,pos,120,pos120_id16_im19.bmp_pos120_id19_im27.bmp,['Im_MattDamon.png', 'Im_LeonardoDiCaprio.png', 'Im_DanielRadcliffe.png', 'Im_PatrickDempsey.png', 'Im_OrlandoBloom.png', 'Im_DanielCraig.png', 'Im_RobertDowneyJr.png', 'Im_BradPitt.png', 'Im_RyanGosling.png', 'Im_RobertPattinson.png'],diff,1,1094.1140078999997,12,73.80952380952381,
RIIS2206,3,pos,120,pos120_id4_im7.bmp_pos120_id4_im20.bmp,['Im_MattDamon.png', 'Im_LeonardoDiCaprio.png', 'Im_DanielRadcliffe.png', 'Im_PatrickDempsey.png', 'Im_OrlandoBloom.png', 'Im_DanielCraig.png', 'Im_RobertDowneyJr.png', 'Im_BradPitt.png', 'Im_RyanGosling.png', 'Im_RobertPattinson.png'],same,1,1098.7806464999994,13,73.80952380952381,
RIIS2206,4,pos,30,pos30_id13_im10.bmp_pos30_id13_im29.bmp,['Im_MattDamon.png', 'Im_LeonardoDiCaprio.png', 'Im_DanielRadcliffe.png', 'Im_PatrickDempsey.png', 'Im_OrlandoBloom.png', 'Im_DanielCraig.png', 'Im_RobertDowneyJr.png', 'Im_BradPitt.png', 'Im_RyanGosling.png', 'Im_RobertPattinson.png'],same,1,1106.3888772,14,73.80952380952381,
RIIS2206,4,pos,120,pos120_id20_im3.bmp_pos120_id17_im9.bmp,['Im_MattDamon.png', 'Im_LeonardoDiCaprio.png', 'Im_DanielRadcliffe.png', 'Im_PatrickDempsey.png', 'Im_OrlandoBloom.png', 'Im_DanielCraig.png', 'Im_RobertDowneyJr.png', 'Im_BradPitt.png', 'Im_RyanGosling.png', 'Im_RobertPattinson.png'],diff,1,1110.9054916999994,15,73.80952380952381,
RIIS2206,4,pos,60,pos60_id20_im12.bmp_pos60_id14_im24.bmp,['Im_MattDamon.png', 'Im_LeonardoDiCaprio.png', 'Im_DanielRadcliffe.png', 'Im_PatrickDempsey.png', 'Im_OrlandoBloom.png', 'Im_DanielCraig.png', 'Im_RobertDowneyJr.png', 'Im_BradPitt.png', 'Im_RyanGosling.png', 'Im_RobertPattinson.png'],diff,1,1115.2306717000001,16,73.80952380952381,
RIIS2206,4,pos,fs,posfs_id16_im3.bmp_posfs_id5_im1.bmp,['Im_MattDamon.png', 'Im_LeonardoDiCaprio.png', 'Im_DanielRadcliffe.png', 'Im_PatrickDempsey.png', 'Im_OrlandoBloom.png', 'Im_DanielCraig.png', 'Im_RobertDowneyJr.png', 'Im_BradPitt.png', 'Im_RyanGosling.png', 'Im_RobertPattinson.png'],diff,1,1119.5806806,17,73.80952380952381,
RIIS2206,4,pos,120,pos120_id20_im3.bmp_pos120_id13_im15.bmp,['Im_MattDamon.png', 'Im_LeonardoDiCaprio.png', 'Im_DanielRadcliffe.png', 'Im_PatrickDempsey.png', 'Im_OrlandoBloom.png', 'Im_DanielCraig.png', 'Im_RobertDowneyJr.png', 'Im_BradPitt.png', 'Im_RyanGosling.png', 'Im_RobertPattinson.png'],diff,1,1123.8554506,18,73.80952380952381,
RIIS2206,4,pos,fs,posfs_id18_im18.bmp_posfs_id5_im20.bmp,['Im_MattDamon.png', 'Im_LeonardoDiCaprio.png', 'Im_DanielRadcliffe.png', 'Im_PatrickDempsey.png', 'Im_OrlandoBloom.png', 'Im_DanielCraig.png', 'Im_RobertDowneyJr.png', 'Im_BradPitt.png', 'Im_RyanGosling.png', 'Im_RobertPattinson.png'],diff,1,1128.1223119999995,19,73.80952380952381,
RIIS2206,4,pos,150,pos150_id17_im14.bmp_pos150_id20_im30.bmp,['Im_MattDamon.png', 'Im_LeonardoDiCaprio.png', 'Im_DanielRadcliffe.png', 'Im_PatrickDempsey.png', 'Im_OrlandoBloom.png', 'Im_DanielCraig.png', 'Im_RobertDowneyJr.png', 'Im_BradPitt.png', 'Im_RyanGosling.png', 'Im_RobertPattinson.png'],diff,1,1132.7976700999998,20,73.80952380952381,
RIIS2206,4,pos,30,pos30_id5_im20.bmp_pos30_id18_im18.bmp,['Im_MattDamon.png', 'Im_LeonardoDiCaprio.png', 'Im_DanielRadcliffe.png', 'Im_PatrickDempsey.png', 'Im_OrlandoBloom.png', 'Im_DanielCraig.png', 'Im_RobertDowneyJr.png', 'Im_BradPitt.png', 'Im_RyanGosling.png', 'Im_RobertPattinson.png'],diff,1,1137.1889894999995,21,73.80952380952381,
RIIS2206,4,pos,150,pos150_id3_im6.bmp_pos150_id3_im17.bmp,['Im_MattDamon.png', 'Im_LeonardoDiCaprio.png', 'Im_DanielRadcliffe.png', 'Im_PatrickDempsey.png', 'Im_OrlandoBloom.png', 'Im_DanielCraig.png', 'Im_RobertDowneyJr.png', 'Im_BradPitt.png', 'Im_RyanGosling.png', 'Im_RobertPattinson.png'],same,1,1141.8722619,22,73.80952380952381,
RIIS2206,4,pos,90,pos90_id4_im20.bmp_pos90_id4_im15.bmp,['Im_MattDamon.png', 'Im_LeonardoDiCaprio.png', 'Im_DanielRadcliffe.png', 'Im_PatrickDempsey.png', 'Im_OrlandoBloom.png', 'Im_DanielCraig.png', 'Im_RobertDowneyJr.png', 'Im_BradPitt.png', 'Im_RyanGosling.png', 'Im_RobertPattinson.png'],same,1,1146.1222902999998,23,73.80952380952381,
RIIS2206,4,pos,90,pos90_id16_im2.bmp_pos90_id14_im16.bmp,['Im_MattDamon.png', 'Im_LeonardoDiCaprio.png', 'Im_DanielRadcliffe.png', 'Im_PatrickDempsey.png', 'Im_OrlandoBloom.png', 'Im_DanielCraig.png', 'Im_RobertDowneyJr.png', 'Im_BradPitt.png', 'Im_RyanGosling.png', 'Im_RobertPattinson.png'],diff,1,1150.688763,24,73.80952380952381,
RIIS2206,4,pos,0,pos0_id4_im7.bmp_pos0_id19_im4.bmp,['Im_MattDamon.png', 'Im_LeonardoDiCaprio.png', 'Im_DanielRadcliffe.png', 'Im_PatrickDempsey.png', 'Im_OrlandoBloom.png', 'Im_DanielCraig.png', 'Im_RobertDowneyJr.png', 'Im_BradPitt.png', 'Im_RyanGosling.png', 'Im_RobertPattinson.png'],diff,1,1154.8889836999997,25,73.80952380952381,
RIIS2206,4,pos,0,pos0_id17_im9.bmp_pos0_id17_im8.bmp,['Im_MattDamon.png', 'Im_LeonardoDiCaprio.png', 'Im_DanielRadcliffe.png', 'Im_PatrickDempsey.png', 'Im_OrlandoBloom.png', 'Im_DanielCraig.png', 'Im_RobertDowneyJr.png', 'Im_BradPitt.png', 'Im_RyanGosling.png', 'Im_RobertPattinson.png'],same,1,1159.3889389999995,26,73.80952380952381,
RIIS2206,4,pos,60,pos60_id13_im10.bmp_pos60_id4_im15.bmp,['Im_MattDamon.png', 'Im_LeonardoDiCaprio.png', 'Im_DanielRadcliffe.png', 'Im_PatrickDempsey.png', 'Im_OrlandoBloom.png', 'Im_DanielCraig.png', 'Im_RobertDowneyJr.png', 'Im_BradPitt.png', 'Im_RyanGosling.png', 'Im_RobertPattinson.png'],diff,1,1163.7139277999995,27,73.80952380952381,
RIIS2206,5,neg,60,neg60_id4_im15.bmp_neg60_id13_im10.bmp,['Im_MattDamon.png', 'Im_LeonardoDiCaprio.png', 'Im_DanielRadcliffe.png', 'Im_PatrickDempsey.png', 'Im_OrlandoBloom.png', 'Im_DanielCraig.png', 'Im_RobertDowneyJr.png', 'Im_BradPitt.png', 'Im_RyanGosling.png', 'Im_RobertPattinson.png'],diff,1,1171.4056075999997,28,73.80952380952381,
RIIS2206,5,neg,fs,negfs_id20_im12.bmp_negfs_id20_im3.bmp,['Im_MattDamon.png', 'Im_LeonardoDiCaprio.png', 'Im_DanielRadcliffe.png', 'Im_PatrickDempsey.png', 'Im_OrlandoBloom.png', 'Im_DanielCraig.png', 'Im_RobertDowneyJr.png', 'Im_BradPitt.png', 'Im_RyanGosling.png', 'Im_RobertPattinson.png'],same,1,1175.6390166,29,73.80952380952381,
RIIS2206,5,neg,60,neg60_id20_im12.bmp_neg60_id13_im10.bmp,['Im_MattDamon.png', 'Im_LeonardoDiCaprio.png', 'Im_DanielRadcliffe.png', 'Im_PatrickDempsey.png', 'Im_OrlandoBloom.png', 'Im_DanielCraig.png', 'Im_RobertDowneyJr.png', 'Im_BradPitt.png', 'Im_RyanGosling.png', 'Im_RobertPattinson.png'],diff,1,1180.0472294,30,73.80952380952381,
RIIS2206,5,neg,120,neg120_id3_im17.bmp_neg120_id18_im11.bmp,['Im_MattDamon.png', 'Im_LeonardoDiCaprio.png', 'Im_DanielRadcliffe.png', 'Im_PatrickDempsey.png', 'Im_OrlandoBloom.png', 'Im_DanielCraig.png', 'Im_RobertDowneyJr.png', 'Im_BradPitt.png', 'Im_RyanGosling.png', 'Im_RobertPattinson.png'],diff,1,1185.4889097999994,31,73.80952380952381,
RIIS2206,5,neg,90,neg90_id4_im15.bmp_neg90_id4_im20.bmp,['Im_MattDamon.png', 'Im_LeonardoDiCaprio.png', 'Im_DanielRadcliffe.png', 'Im_PatrickDempsey.png', 'Im_OrlandoBloom.png', 'Im_DanielCraig.png', 'Im_RobertDowneyJr.png', 'Im_BradPitt.png', 'Im_RyanGosling.png', 'Im_RobertPattinson.png'],same,1,1189.9638844,32,73.80952380952381,
RIIS2206,5,neg,150,neg150_id3_im17.bmp_neg150_id3_im6.bmp,['Im_MattDamon.png', 'Im_LeonardoDiCaprio.png', 'Im_DanielRadcliffe.png', 'Im_PatrickDempsey.png', 'Im_OrlandoBloom.png', 'Im_DanielCraig.png', 'Im_RobertDowneyJr.png', 'Im_BradPitt.png', 'Im_RyanGosling.png', 'Im_RobertPattinson.png'],same,1,1194.1888921999998,33,73.80952380952381,
RIIS2206,5,neg,30,neg30_id13_im10.bmp_neg30_id13_im15.bmp,['Im_MattDamon.png', 'Im_LeonardoDiCaprio.png', 'Im_DanielRadcliffe.png', 'Im_PatrickDempsey.png', 'Im_OrlandoBloom.png', 'Im_DanielCraig.png', 'Im_RobertDowneyJr.png', 'Im_BradPitt.png', 'Im_RyanGosling.png', 'Im_RobertPattinson.png'],same,1,1198.5055619999994,34,73.80952380952381,
RIIS2206,5,neg,90,neg90_id18_im18.bmp_neg90_id5_im10.bmp,['Im_MattDamon.png', 'Im_LeonardoDiCaprio.png', 'Im_DanielRadcliffe.png', 'Im_PatrickDempsey.png', 'Im_OrlandoBloom.png', 'Im_DanielCraig.png', 'Im_RobertDowneyJr.png', 'Im_BradPitt.png', 'Im_RyanGosling.png', 'Im_RobertPattinson.png'],diff,1,1202.7224771,35,73.80952380952381,
RIIS2206,5,neg,0,neg0_id4_im7.bmp_neg0_id4_im15.bmp,['Im_MattDamon.png', 'Im_LeonardoDiCaprio.png', 'Im_DanielRadcliffe.png', 'Im_PatrickDempsey.png', 'Im_OrlandoBloom.png', 'Im_DanielCraig.png', 'Im_RobertDowneyJr.png', 'Im_BradPitt.png', 'Im_RyanGosling.png', 'Im_RobertPattinson.png'],same,1,1207.3805200999996,36,73.80952380952381,
RIIS2206,5,neg,150,neg150_id18_im19.bmp_neg150_id18_im11.bmp,['Im_MattDamon.png', 'Im_LeonardoDiCaprio.png', 'Im_DanielRadcliffe.png', 'Im_PatrickDempsey.png', 'Im_OrlandoBloom.png', 'Im_DanielCraig.png', 'Im_RobertDowneyJr.png', 'Im_BradPitt.png', 'Im_RyanGosling.png', 'Im_RobertPattinson.png'],diff,0,1211.6221615999993,36,73.80952380952381,
RIIS2206,5,neg,30,neg30_id4_im20.bmp_neg30_id16_im2.bmp,['Im_MattDamon.png', 'Im_LeonardoDiCaprio.png', 'Im_DanielRadcliffe.png', 'Im_PatrickDempsey.png', 'Im_OrlandoBloom.png', 'Im_DanielCraig.png', 'Im_RobertDowneyJr.png', 'Im_BradPitt.png', 'Im_RyanGosling.png', 'Im_RobertPattinson.png'],diff,1,1216.0305041000001,37,73.80952380952381,
RIIS2206,5,neg,fs,negfs_id3_im17.bmp_negfs_id3_im8.bmp,['Im_MattDamon.png', 'Im_LeonardoDiCaprio.png', 'Im_DanielRadcliffe.png', 'Im_PatrickDempsey.png', 'Im_OrlandoBloom.png', 'Im_DanielCraig.png', 'Im_RobertDowneyJr.png', 'Im_BradPitt.png', 'Im_RyanGosling.png', 'Im_RobertPattinson.png'],same,1,1220.3055221999994,38,73.80952380952381,
RIIS2206,5,neg,120,neg120_id17_im9.bmp_neg120_id17_im14.bmp,['Im_MattDamon.png', 'Im_LeonardoDiCaprio.png', 'Im_DanielRadcliffe.png', 'Im_PatrickDempsey.png', 'Im_OrlandoBloom.png', 'Im_DanielCraig.png', 'Im_RobertDowneyJr.png', 'Im_BradPitt.png', 'Im_RyanGosling.png', 'Im_RobertPattinson.png'],same,1,1224.6721890999997,39,73.80952380952381,
RIIS2206,5,neg,0,neg0_id5_im20.bmp_neg0_id5_im1.bmp,['Im_MattDamon.png', 'Im_LeonardoDiCaprio.png', 'Im_DanielRadcliffe.png', 'Im_PatrickDempsey.png', 'Im_OrlandoBloom.png', 'Im_DanielCraig.png', 'Im_RobertDowneyJr.png', 'Im_BradPitt.png', 'Im_RyanGosling.png', 'Im_RobertPattinson.png'],same,1,1229.2805368,40,73.80952380952381,
RIIS2206,6,inv,120,pos120_id16_im3.bmp_pos120_id16_im2.bmp,['Im_MattDamon.png', 'Im_LeonardoDiCaprio.png', 'Im_DanielRadcliffe.png', 'Im_PatrickDempsey.png', 'Im_OrlandoBloom.png', 'Im_DanielCraig.png', 'Im_RobertDowneyJr.png', 'Im_BradPitt.png', 'Im_RyanGosling.png', 'Im_RobertPattinson.png'],same,1,1243.6388786999996,1,95.23809523809524,
RIIS2206,6,inv,0,pos0_id5_im20.bmp_pos0_id5_im1.bmp,['Im_MattDamon.png', 'Im_LeonardoDiCaprio.png', 'Im_DanielRadcliffe.png', 'Im_PatrickDempsey.png', 'Im_OrlandoBloom.png', 'Im_DanielCraig.png', 'Im_RobertDowneyJr.png', 'Im_BradPitt.png', 'Im_RyanGosling.png', 'Im_RobertPattinson.png'],same,1,1249.0306930999996,2,95.23809523809524,
RIIS2206,6,inv,120,pos120_id18_im18.bmp_pos120_id18_im11.bmp,['Im_MattDamon.png', 'Im_LeonardoDiCaprio.png', 'Im_DanielRadcliffe.png', 'Im_PatrickDempsey.png', 'Im_OrlandoBloom.png', 'Im_DanielCraig.png', 'Im_RobertDowneyJr.png', 'Im_BradPitt.png', 'Im_RyanGosling.png', 'Im_RobertPattinson.png'],same,1,1253.2388192999997,3,95.23809523809524,
RIIS2206,6,inv,fs,posfs_id4_im20.bmp_posfs_id4_im7.bmp,['Im_MattDamon.png', 'Im_LeonardoDiCaprio.png', 'Im_DanielRadcliffe.png', 'Im_PatrickDempsey.png', 'Im_OrlandoBloom.png', 'Im_DanielCraig.png', 'Im_RobertDowneyJr.png', 'Im_BradPitt.png', 'Im_RyanGosling.png', 'Im_RobertPattinson.png'],same,1,1257.8555333999993,4,95.23809523809524,
RIIS2206,6,inv,30,pos30_id19_im8.bmp_pos30_id19_im27.bmp,['Im_MattDamon.png', 'Im_LeonardoDiCaprio.png', 'Im_DanielRadcliffe.png', 'Im_PatrickDempsey.png', 'Im_OrlandoBloom.png', 'Im_DanielCraig.png', 'Im_RobertDowneyJr.png', 'Im_BradPitt.png', 'Im_RyanGosling.png', 'Im_RobertPattinson.png'],same,1,1262.3221457,5,95.23809523809524,
RIIS2206,6,inv,60,pos60_id3_im8.bmp_pos60_id17_im9.bmp,['Im_MattDamon.png', 'Im_LeonardoDiCaprio.png', 'Im_DanielRadcliffe.png', 'Im_PatrickDempsey.png', 'Im_OrlandoBloom.png', 'Im_DanielCraig.png', 'Im_RobertDowneyJr.png', 'Im_BradPitt.png', 'Im_RyanGosling.png', 'Im_RobertPattinson.png'],diff,1,1266.9469718,6,95.23809523809524,
RIIS2206,6,inv,fs,posfs_id5_im1.bmp_posfs_id3_im6.bmp,['Im_MattDamon.png', 'Im_LeonardoDiCaprio.png', 'Im_DanielRadcliffe.png', 'Im_PatrickDempsey.png', 'Im_OrlandoBloom.png', 'Im_DanielCraig.png', 'Im_RobertDowneyJr.png', 'Im_BradPitt.png', 'Im_RyanGosling.png', 'Im_RobertPattinson.png'],diff,1,1271.5304968,7,95.23809523809524,
RIIS2206,6,inv,150,pos150_id19_im27.bmp_pos150_id19_im4.bmp,['Im_MattDamon.png', 'Im_LeonardoDiCaprio.png', 'Im_DanielRadcliffe.png', 'Im_PatrickDempsey.png', 'Im_OrlandoBloom.png', 'Im_DanielCraig.png', 'Im_RobertDowneyJr.png', 'Im_BradPitt.png', 'Im_RyanGosling.png', 'Im_RobertPattinson.png'],same,1,1275.9888308999998,8,95.23809523809524,
RIIS2206,6,inv,0,pos0_id3_im8.bmp_pos0_id3_im17.bmp,['Im_MattDamon.png', 'Im_LeonardoDiCaprio.png', 'Im_DanielRadcliffe.png', 'Im_PatrickDempsey.png', 'Im_OrlandoBloom.png', 'Im_DanielCraig.png', 'Im_RobertDowneyJr.png', 'Im_BradPitt.png', 'Im_RyanGosling.png', 'Im_RobertPattinson.png'],same,1,1280.5388943999997,9,95.23809523809524,
RIIS2206,6,inv,30,pos30_id13_im15.bmp_pos30_id13_im10.bmp,['Im_MattDamon.png', 'Im_LeonardoDiCaprio.png', 'Im_DanielRadcliffe.png', 'Im_PatrickDempsey.png', 'Im_OrlandoBloom.png', 'Im_DanielCraig.png', 'Im_RobertDowneyJr.png', 'Im_BradPitt.png', 'Im_RyanGosling.png', 'Im_RobertPattinson.png'],same,1,1284.9052907999994,10,95.23809523809524,
RIIS2206,6,inv,90,pos90_id13_im29.bmp_pos90_id13_im10.bmp,['Im_MattDamon.png', 'Im_LeonardoDiCaprio.png', 'Im_DanielRadcliffe.png', 'Im_PatrickDempsey.png', 'Im_OrlandoBloom.png', 'Im_DanielCraig.png', 'Im_RobertDowneyJr.png', 'Im_BradPitt.png', 'Im_RyanGosling.png', 'Im_RobertPattinson.png'],same,1,1289.3554648999998,11,95.23809523809524,
RIIS2206,6,inv,60,pos60_id17_im9.bmp_pos60_id17_im14.bmp,['Im_MattDamon.png', 'Im_LeonardoDiCaprio.png', 'Im_DanielRadcliffe.png', 'Im_PatrickDempsey.png', 'Im_OrlandoBloom.png', 'Im_DanielCraig.png', 'Im_RobertDowneyJr.png', 'Im_BradPitt.png', 'Im_RyanGosling.png', 'Im_RobertPattinson.png'],diff,0,1293.9887534,11,95.23809523809524,
RIIS2206,6,inv,150,pos150_id5_im1.bmp_pos150_id5_im20.bmp,['Im_MattDamon.png', 'Im_LeonardoDiCaprio.png', 'Im_DanielRadcliffe.png', 'Im_PatrickDempsey.png', 'Im_OrlandoBloom.png', 'Im_DanielCraig.png', 'Im_RobertDowneyJr.png', 'Im_BradPitt.png', 'Im_RyanGosling.png', 'Im_RobertPattinson.png'],diff,0,1298.2053428999998,11,95.23809523809524,
RIIS2206,6,inv,90,pos90_id18_im19.bmp_pos90_id18_im11.bmp,['Im_MattDamon.png', 'Im_LeonardoDiCaprio.png', 'Im_DanielRadcliffe.png', 'Im_PatrickDempsey.png', 'Im_OrlandoBloom.png', 'Im_DanielCraig.png', 'Im_RobertDowneyJr.png', 'Im_BradPitt.png', 'Im_RyanGosling.png', 'Im_RobertPattinson.png'],same,1,1302.6304825999996,12,95.23809523809524,
RIIS2206,7,inv,0,pos0_id5_im1.bmp_pos0_id16_im3.bmp,['Im_MattDamon.png', 'Im_LeonardoDiCaprio.png', 'Im_DanielRadcliffe.png', 'Im_PatrickDempsey.png', 'Im_OrlandoBloom.png', 'Im_DanielCraig.png', 'Im_RobertDowneyJr.png', 'Im_BradPitt.png', 'Im_RyanGosling.png', 'Im_RobertPattinson.png'],diff,1,1310.2389772999995,13,95.23809523809524,
RIIS2206,7,inv,60,pos60_id19_im4.bmp_pos60_id4_im20.bmp,['Im_MattDamon.png', 'Im_LeonardoDiCaprio.png', 'Im_DanielRadcliffe.png', 'Im_PatrickDempsey.png', 'Im_OrlandoBloom.png', 'Im_DanielCraig.png', 'Im_RobertDowneyJr.png', 'Im_BradPitt.png', 'Im_RyanGosling.png', 'Im_RobertPattinson.png'],diff,1,1314.3890960999997,14,95.23809523809524,
RIIS2206,7,inv,120,pos120_id17_im8.bmp_pos120_id17_im9.bmp,['Im_MattDamon.png', 'Im_LeonardoDiCaprio.png', 'Im_DanielRadcliffe.png', 'Im_PatrickDempsey.png', 'Im_OrlandoBloom.png', 'Im_DanielCraig.png', 'Im_RobertDowneyJr.png', 'Im_BradPitt.png', 'Im_RyanGosling.png', 'Im_RobertPattinson.png'],diff,0,1318.5220825999995,14,95.23809523809524,
RIIS2206,7,inv,fs,posfs_id19_im4.bmp_posfs_id4_im7.bmp,['Im_MattDamon.png', 'Im_LeonardoDiCaprio.png', 'Im_DanielRadcliffe.png', 'Im_PatrickDempsey.png', 'Im_OrlandoBloom.png', 'Im_DanielCraig.png', 'Im_RobertDowneyJr.png', 'Im_BradPitt.png', 'Im_RyanGosling.png', 'Im_RobertPattinson.png'],diff,1,1322.7804548999993,15,95.23809523809524,
RIIS2206,7,inv,60,pos60_id4_im20.bmp_pos60_id16_im2.bmp,['Im_MattDamon.png', 'Im_LeonardoDiCaprio.png', 'Im_DanielRadcliffe.png', 'Im_PatrickDempsey.png', 'Im_OrlandoBloom.png', 'Im_DanielCraig.png', 'Im_RobertDowneyJr.png', 'Im_BradPitt.png', 'Im_RyanGosling.png', 'Im_RobertPattinson.png'],diff,1,1327.5806438,16,95.23809523809524,
RIIS2206,7,inv,30,pos30_id4_im15.bmp_pos30_id3_im17.bmp,['Im_MattDamon.png', 'Im_LeonardoDiCaprio.png', 'Im_DanielRadcliffe.png', 'Im_PatrickDempsey.png', 'Im_OrlandoBloom.png', 'Im_DanielCraig.png', 'Im_RobertDowneyJr.png', 'Im_BradPitt.png', 'Im_RyanGosling.png', 'Im_RobertPattinson.png'],diff,1,1332.0720932999993,17,95.23809523809524,
RIIS2206,7,inv,0,pos0_id3_im6.bmp_pos0_id19_im8.bmp,['Im_MattDamon.png', 'Im_LeonardoDiCaprio.png', 'Im_DanielRadcliffe.png', 'Im_PatrickDempsey.png', 'Im_OrlandoBloom.png', 'Im_DanielCraig.png', 'Im_RobertDowneyJr.png', 'Im_BradPitt.png', 'Im_RyanGosling.png', 'Im_RobertPattinson.png'],diff,1,1336.5972465999994,18,95.23809523809524,
RIIS2206,7,inv,120,pos120_id14_im16.bmp_pos120_id14_im24.bmp,['Im_MattDamon.png', 'Im_LeonardoDiCaprio.png', 'Im_DanielRadcliffe.png', 'Im_PatrickDempsey.png', 'Im_OrlandoBloom.png', 'Im_DanielCraig.png', 'Im_RobertDowneyJr.png', 'Im_BradPitt.png', 'Im_RyanGosling.png', 'Im_RobertPattinson.png'],same,1,1340.8720778999996,19,95.23809523809524,
RIIS2206,7,inv,90,pos90_id20_im3.bmp_pos90_id17_im9.bmp,['Im_MattDamon.png', 'Im_LeonardoDiCaprio.png', 'Im_DanielRadcliffe.png', 'Im_PatrickDempsey.png', 'Im_OrlandoBloom.png', 'Im_DanielCraig.png', 'Im_RobertDowneyJr.png', 'Im_BradPitt.png', 'Im_RyanGosling.png', 'Im_RobertPattinson.png'],same,0,1345.0220539000002,19,95.23809523809524,
RIIS2206,7,inv,30,pos30_id20_im3.bmp_pos30_id20_im12.bmp,['Im_MattDamon.png', 'Im_LeonardoDiCaprio.png', 'Im_DanielRadcliffe.png', 'Im_PatrickDempsey.png', 'Im_OrlandoBloom.png', 'Im_DanielCraig.png', 'Im_RobertDowneyJr.png', 'Im_BradPitt.png', 'Im_RyanGosling.png', 'Im_RobertPattinson.png'],same,1,1349.7720560999996,20,95.23809523809524,
RIIS2206,7,inv,fs,posfs_id4_im7.bmp_posfs_id16_im19.bmp,['Im_MattDamon.png', 'Im_LeonardoDiCaprio.png', 'Im_DanielRadcliffe.png', 'Im_PatrickDempsey.png', 'Im_OrlandoBloom.png', 'Im_DanielCraig.png', 'Im_RobertDowneyJr.png', 'Im_BradPitt.png', 'Im_RyanGosling.png', 'Im_RobertPattinson.png'],diff,1,1354.1054464,21,95.23809523809524,
RIIS2206,7,inv,90,pos90_id20_im30.bmp_pos90_id5_im20.bmp,['Im_MattDamon.png', 'Im_LeonardoDiCaprio.png', 'Im_DanielRadcliffe.png', 'Im_PatrickDempsey.png', 'Im_OrlandoBloom.png', 'Im_DanielCraig.png', 'Im_RobertDowneyJr.png', 'Im_BradPitt.png', 'Im_RyanGosling.png', 'Im_RobertPattinson.png'],diff,1,1358.4636669000001,22,95.23809523809524,
RIIS2206,7,inv,150,pos150_id3_im17.bmp_pos150_id18_im11.bmp,['Im_MattDamon.png', 'Im_LeonardoDiCaprio.png', 'Im_DanielRadcliffe.png', 'Im_PatrickDempsey.png', 'Im_OrlandoBloom.png', 'Im_DanielCraig.png', 'Im_RobertDowneyJr.png', 'Im_BradPitt.png', 'Im_RyanGosling.png', 'Im_RobertPattinson.png'],diff,1,1362.6554142999994,23,95.23809523809524,
RIIS2206,7,inv,150,pos150_id16_im19.bmp_pos150_id4_im7.bmp,['Im_MattDamon.png', 'Im_LeonardoDiCaprio.png', 'Im_DanielRadcliffe.png', 'Im_PatrickDempsey.png', 'Im_OrlandoBloom.png', 'Im_DanielCraig.png', 'Im_RobertDowneyJr.png', 'Im_BradPitt.png', 'Im_RyanGosling.png', 'Im_RobertPattinson.png'],diff,1,1367.0389131000002,24,95.23809523809524,
RIIS2206,8,pos,60,pos60_id18_im18.bmp_pos60_id5_im10.bmp,['Im_MattDamon.png', 'Im_LeonardoDiCaprio.png', 'Im_DanielRadcliffe.png', 'Im_PatrickDempsey.png', 'Im_OrlandoBloom.png', 'Im_DanielCraig.png', 'Im_RobertDowneyJr.png', 'Im_BradPitt.png', 'Im_RyanGosling.png', 'Im_RobertPattinson.png'],diff,1,1375.0053950000001,25,95.23809523809524,
RIIS2206,8,pos,150,pos150_id18_im19.bmp_pos150_id14_im16.bmp,['Im_MattDamon.png', 'Im_LeonardoDiCaprio.png', 'Im_DanielRadcliffe.png', 'Im_PatrickDempsey.png', 'Im_OrlandoBloom.png', 'Im_DanielCraig.png', 'Im_RobertDowneyJr.png', 'Im_BradPitt.png', 'Im_RyanGosling.png', 'Im_RobertPattinson.png'],diff,1,1379.2804043999995,26,95.23809523809524,
RIIS2206,8,pos,120,pos120_id16_im2.bmp_pos120_id14_im16.bmp,['Im_MattDamon.png', 'Im_LeonardoDiCaprio.png', 'Im_DanielRadcliffe.png', 'Im_PatrickDempsey.png', 'Im_OrlandoBloom.png', 'Im_DanielCraig.png', 'Im_RobertDowneyJr.png', 'Im_BradPitt.png', 'Im_RyanGosling.png', 'Im_RobertPattinson.png'],diff,1,1383.9137327999997,27,95.23809523809524,
RIIS2206,8,pos,0,pos0_id17_im9.bmp_pos0_id17_im14.bmp,['Im_MattDamon.png', 'Im_LeonardoDiCaprio.png', 'Im_DanielRadcliffe.png', 'Im_PatrickDempsey.png', 'Im_OrlandoBloom.png', 'Im_DanielCraig.png', 'Im_RobertDowneyJr.png', 'Im_BradPitt.png', 'Im_RyanGosling.png', 'Im_RobertPattinson.png'],same,1,1388.1890452999996,28,95.23809523809524,
RIIS2206,8,pos,60,pos60_id19_im27.bmp_pos60_id5_im10.bmp,['Im_MattDamon.png', 'Im_LeonardoDiCaprio.png', 'Im_DanielRadcliffe.png', 'Im_PatrickDempsey.png', 'Im_OrlandoBloom.png', 'Im_DanielCraig.png', 'Im_RobertDowneyJr.png', 'Im_BradPitt.png', 'Im_RyanGosling.png', 'Im_RobertPattinson.png'],diff,1,1392.6387217000001,29,95.23809523809524,
RIIS2206,8,pos,120,pos120_id3_im6.bmp_pos120_id5_im1.bmp,['Im_MattDamon.png', 'Im_LeonardoDiCaprio.png', 'Im_DanielRadcliffe.png', 'Im_PatrickDempsey.png', 'Im_OrlandoBloom.png', 'Im_DanielCraig.png', 'Im_RobertDowneyJr.png', 'Im_BradPitt.png', 'Im_RyanGosling.png', 'Im_RobertPattinson.png'],diff,1,1397.2887028999994,30,95.23809523809524,
RIIS2206,8,pos,90,pos90_id16_im2.bmp_pos90_id16_im3.bmp,['Im_MattDamon.png', 'Im_LeonardoDiCaprio.png', 'Im_DanielRadcliffe.png', 'Im_PatrickDempsey.png', 'Im_OrlandoBloom.png', 'Im_DanielCraig.png', 'Im_RobertDowneyJr.png', 'Im_BradPitt.png', 'Im_RyanGosling.png', 'Im_RobertPattinson.png'],same,1,1401.8222553999994,31,95.23809523809524,
RIIS2206,8,pos,fs,posfs_id13_im29.bmp_posfs_id13_im10.bmp,['Im_MattDamon.png', 'Im_LeonardoDiCaprio.png', 'Im_DanielRadcliffe.png', 'Im_PatrickDempsey.png', 'Im_OrlandoBloom.png', 'Im_DanielCraig.png', 'Im_RobertDowneyJr.png', 'Im_BradPitt.png', 'Im_RyanGosling.png', 'Im_RobertPattinson.png'],same,1,1406.2802723999994,32,95.23809523809524,
RIIS2206,8,pos,90,pos90_id17_im9.bmp_pos90_id17_im14.bmp,['Im_MattDamon.png', 'Im_LeonardoDiCaprio.png', 'Im_DanielRadcliffe.png', 'Im_PatrickDempsey.png', 'Im_OrlandoBloom.png', 'Im_DanielCraig.png', 'Im_RobertDowneyJr.png', 'Im_BradPitt.png', 'Im_RyanGosling.png', 'Im_RobertPattinson.png'],same,1,1410.7553561999994,33,95.23809523809524,
RIIS2206,8,pos,150,pos150_id17_im9.bmp_pos150_id20_im3.bmp,['Im_MattDamon.png', 'Im_LeonardoDiCaprio.png', 'Im_DanielRadcliffe.png', 'Im_PatrickDempsey.png', 'Im_OrlandoBloom.png', 'Im_DanielCraig.png', 'Im_RobertDowneyJr.png', 'Im_BradPitt.png', 'Im_RyanGosling.png', 'Im_RobertPattinson.png'],diff,1,1415.1219981999993,34,95.23809523809524,
RIIS2206,8,pos,30,pos30_id20_im30.bmp_pos30_id20_im12.bmp,['Im_MattDamon.png', 'Im_LeonardoDiCaprio.png', 'Im_DanielRadcliffe.png', 'Im_PatrickDempsey.png', 'Im_OrlandoBloom.png', 'Im_DanielCraig.png', 'Im_RobertDowneyJr.png', 'Im_BradPitt.png', 'Im_RyanGosling.png', 'Im_RobertPattinson.png'],same,1,1419.6303248999993,35,95.23809523809524,
RIIS2206,8,pos,fs,posfs_id17_im14.bmp_posfs_id14_im18.bmp,['Im_MattDamon.png', 'Im_LeonardoDiCaprio.png', 'Im_DanielRadcliffe.png', 'Im_PatrickDempsey.png', 'Im_OrlandoBloom.png', 'Im_DanielCraig.png', 'Im_RobertDowneyJr.png', 'Im_BradPitt.png', 'Im_RyanGosling.png', 'Im_RobertPattinson.png'],diff,1,1424.1052752999994,36,95.23809523809524,
RIIS2206,8,pos,30,pos30_id14_im24.bmp_pos30_id20_im12.bmp,['Im_MattDamon.png', 'Im_LeonardoDiCaprio.png', 'Im_DanielRadcliffe.png', 'Im_PatrickDempsey.png', 'Im_OrlandoBloom.png', 'Im_DanielCraig.png', 'Im_RobertDowneyJr.png', 'Im_BradPitt.png', 'Im_RyanGosling.png', 'Im_RobertPattinson.png'],diff,1,1428.3220278999997,37,95.23809523809524,
RIIS2206,8,pos,0,pos0_id14_im18.bmp_pos0_id14_im16.bmp,['Im_MattDamon.png', 'Im_LeonardoDiCaprio.png', 'Im_DanielRadcliffe.png', 'Im_PatrickDempsey.png', 'Im_OrlandoBloom.png', 'Im_DanielCraig.png', 'Im_RobertDowneyJr.png', 'Im_BradPitt.png', 'Im_RyanGosling.png', 'Im_RobertPattinson.png'],same,1,1432.9387528999996,38,95.23809523809524,
RIIS2206,9,neg,120,neg120_id14_im18.bmp_neg120_id18_im11.bmp,['Im_MattDamon.png', 'Im_LeonardoDiCaprio.png', 'Im_DanielRadcliffe.png', 'Im_PatrickDempsey.png', 'Im_OrlandoBloom.png', 'Im_DanielCraig.png', 'Im_RobertDowneyJr.png', 'Im_BradPitt.png', 'Im_RyanGosling.png', 'Im_RobertPattinson.png'],diff,1,1447.3636827,1,90.47619047619048,
