Sujet,Trial,Condition,Filter,Imname,Actor0,Actor1,Actor2,Actor3,Actor4,Actor5,Actor6,Actor7,Actor8,Actor9,Answer,Accu,RT,Score,Scoreperc, 
ROIS2212,_,posfs_RobertDowneyJr_im18.bmp,RobertDowneyJr,MattDamon,MattDamon,BradPitt,GeorgeClooney,JustinTimberlake,,,,,posfs_RobertDowneyJr_im18.bmp,3.0004719000000932,
ROIS2212,_,posfs_BenStiller_im16.bmp,BenStiller,KeanuReeves,KeanuReeves,MattDamon,JustinTimberlake,BenAffleck,,,,,posfs_BenStiller_im16.bmp,4.781037300000207,
ROIS2212,_,posfs_RyanReynolds_im17.bmp,RyanReynolds,PatrickDempsey,PatrickDempsey,ElijahWood,BenStiller,BradPitt,,,,,posfs_RyanReynolds_im17.bmp,3.1778542000001835,
ROIS2212,_,posfs_HughJackman_im21.bmp,HughJackman,OrlandoBloom,OrlandoBloom,GeorgeClooney,RyanGosling,BradPitt,,,,,posfs_HughJackman_im21.bmp,4.118957599999703,
ROIS2212,_,posfs_GeorgeClooney_im15.bmp,GeorgeClooney,JustinTimberlake,JustinTimberlake,DanielRadcliffe,DanielCraig,BenAffleck,,,,,posfs_GeorgeClooney_im15.bmp,2.9753508999997393,
ROIS2212,_,posfs_PatrickDempsey_im8.bmp,PatrickDempsey,BenStiller,BenStiller,MattDamon,BradPitt,RyanGosling,,,,,posfs_PatrickDempsey_im8.bmp,1.604693700000098,
ROIS2212,_,posfs_GeorgeClooney_im23.bmp,GeorgeClooney,BenAffleck,BenAffleck,MattDamon,OrlandoBloom,KeanuReeves,,,,,posfs_GeorgeClooney_im23.bmp,0.7750436000001173,
ROIS2212,_,posfs_ElijahWood_im12.bmp,ElijahWood,DanielRadcliffe,DanielRadcliffe,RobertDowneyJr,GeorgeClooney,BenStiller,,,,,4,3.656840800000282,
ROIS2212,_,posfs_RobertDowneyJr_im11.bmp,RobertDowneyJr,HughJackman,HughJackman,RyanGosling,JustinTimberlake,BenStiller,,,,,posfs_RobertDowneyJr_im11.bmp,1.3796886999998605,
ROIS2212,_,posfs_RobertDowneyJr_im4.bmp,RobertDowneyJr,RyanGosling,RyanGosling,BradPitt,HughJackman,ElijahWood,,,,,posfs_RobertDowneyJr_im4.bmp,6.416851899999983,
ROIS2212,_,posfs_PatrickDempsey_im14.bmp,PatrickDempsey,KeanuReeves,KeanuReeves,RobertDowneyJr,HughJackman,RyanReynolds,,,,,posfs_PatrickDempsey_im14.bmp,1.9752214000000095,
ROIS2212,_,posfs_GeorgeClooney_im14.bmp,GeorgeClooney,KeanuReeves,KeanuReeves,LeonardoDiCaprio,PatrickDempsey,RobertPattinson,,,,,posfs_GeorgeClooney_im14.bmp,2.1244117000001097,
ROIS2212,_,posfs_OrlandoBloom_im2.bmp,OrlandoBloom,BenAffleck,BenAffleck,RyanGosling,MattDamon,RobertDowneyJr,,,,,posfs_OrlandoBloom_im2.bmp,3.245008400000188,
ROIS2212,_,posfs_ElijahWood_im19.bmp,ElijahWood,PatrickDempsey,PatrickDempsey,RyanReynolds,BenAffleck,OrlandoBloom,,,,,4,2.2560896999998477,
ROIS2212,_,posfs_PatrickDempsey_im16.bmp,PatrickDempsey,BradPitt,BradPitt,DanielCraig,DanielRadcliffe,LeonardoDiCaprio,,,,,posfs_PatrickDempsey_im16.bmp,1.3010119999999006,
ROIS2212,_,posfs_RyanGosling_im3.bmp,RyanGosling,RobertPattinson,RobertPattinson,PatrickDempsey,DanielCraig,JustinTimberlake,,,,,posfs_RyanGosling_im3.bmp,4.182637700000214,
ROIS2212,_,posfs_RobertPattinson_im4.bmp,RobertPattinson,DanielRadcliffe,DanielRadcliffe,RyanGosling,MattDamon,ElijahWood,,,,,posfs_RobertPattinson_im4.bmp,3.331275099999857,
ROIS2212,_,posfs_RyanReynolds_im22.bmp,RyanReynolds,JustinTimberlake,JustinTimberlake,BradPitt,KeanuReeves,LeonardoDiCaprio,,,,,posfs_RyanReynolds_im22.bmp,2.460033100000146,
ROIS2212,_,posfs_RyanGosling_im30.bmp,RyanGosling,RyanReynolds,RyanReynolds,DanielCraig,PatrickDempsey,RobertPattinson,,,,,posfs_RyanGosling_im30.bmp,3.5748500999998214,
ROIS2212,_,posfs_RobertPattinson_im8.bmp,RobertPattinson,DanielRadcliffe,DanielRadcliffe,OrlandoBloom,MattDamon,RyanGosling,,,,,posfs_RobertPattinson_im8.bmp,2.5650305999997727,
ROIS2212,_,posfs_KeanuReeves_im1.bmp,KeanuReeves,LeonardoDiCaprio,LeonardoDiCaprio,BradPitt,JustinTimberlake,RobertPattinson,,,,,4,1.292563599999994,
ROIS2212,_,posfs_BenStiller_im2.bmp,BenStiller,RobertDowneyJr,RobertDowneyJr,GeorgeClooney,DanielCraig,RyanReynolds,,,,,posfs_BenStiller_im2.bmp,3.326666699999805,
ROIS2212,_,posfs_DanielCraig_im7.bmp,DanielCraig,BenAffleck,BenAffleck,KeanuReeves,PatrickDempsey,DanielRadcliffe,,,,,posfs_DanielCraig_im7.bmp,1.8702456000000893,
ROIS2212,_,posfs_BenAffleck_im4.bmp,BenAffleck,BenStiller,BenStiller,KeanuReeves,ElijahWood,PatrickDempsey,,,,,posfs_BenAffleck_im4.bmp,2.4797911000000568,
ROIS2212,_,posfs_DanielRadcliffe_im1.bmp,DanielRadcliffe,BradPitt,BradPitt,LeonardoDiCaprio,BenStiller,RobertPattinson,,,,,posfs_DanielRadcliffe_im1.bmp,2.3149422999999842,
ROIS2212,_,posfs_BenAffleck_im21.bmp,BenAffleck,RyanGosling,RyanGosling,GeorgeClooney,ElijahWood,BradPitt,,,,,posfs_BenAffleck_im21.bmp,1.7392225999997208,
ROIS2212,_,posfs_DanielCraig_im8.bmp,DanielCraig,RobertPattinson,RobertPattinson,BenAffleck,BenStiller,LeonardoDiCaprio,,,,,posfs_DanielCraig_im8.bmp,2.0992966999997407,
ROIS2212,_,posfs_RobertPattinson_im30.bmp,RobertPattinson,DanielRadcliffe,DanielRadcliffe,DanielCraig,BenAffleck,JustinTimberlake,,,,,posfs_RobertPattinson_im30.bmp,1.9403904999999213,
ROIS2212,_,posfs_HughJackman_im18.bmp,HughJackman,LeonardoDiCaprio,LeonardoDiCaprio,BradPitt,RyanGosling,DanielRadcliffe,,,,,posfs_HughJackman_im18.bmp,3.844882000000325,
ROIS2212,_,posfs_RyanReynolds_im16.bmp,RyanReynolds,OrlandoBloom,OrlandoBloom,RobertPattinson,RyanGosling,LeonardoDiCaprio,,,,,posfs_RyanReynolds_im16.bmp,1.5771051000001535,
ROIS2212,_,posfs_BenStiller_im7.bmp,BenStiller,LeonardoDiCaprio,LeonardoDiCaprio,RyanGosling,DanielCraig,PatrickDempsey,,,,,posfs_BenStiller_im7.bmp,4.1659991999999875,
ROIS2212,_,posfs_BradPitt_im8.bmp,BradPitt,BenStiller,BenStiller,BenAffleck,OrlandoBloom,RobertPattinson,,,,,posfs_BradPitt_im8.bmp,1.8514838999999483,
ROIS2212,_,posfs_LeonardoDiCaprio_im15.bmp,LeonardoDiCaprio,RobertPattinson,RobertPattinson,DanielCraig,BradPitt,DanielRadcliffe,,,,,posfs_LeonardoDiCaprio_im15.bmp,1.7429039000003286,
ROIS2212,_,posfs_KeanuReeves_im2.bmp,KeanuReeves,HughJackman,HughJackman,GeorgeClooney,RobertPattinson,BenStiller,,,,,posfs_KeanuReeves_im2.bmp,7.167305800000122,
ROIS2212,_,posfs_MattDamon_im24.bmp,MattDamon,RobertDowneyJr,RobertDowneyJr,BradPitt,HughJackman,RobertPattinson,,,,,posfs_MattDamon_im24.bmp,5.069674599999871,
ROIS2212,_,posfs_BradPitt_im17.bmp,BradPitt,PatrickDempsey,PatrickDempsey,LeonardoDiCaprio,JustinTimberlake,HughJackman,,,,,posfs_BradPitt_im17.bmp,1.799925499999972,
ROIS2212,_,posfs_KeanuReeves_im10.bmp,KeanuReeves,MattDamon,MattDamon,OrlandoBloom,PatrickDempsey,LeonardoDiCaprio,,,,,4,1.5814571000000797,
ROIS2212,_,posfs_DanielRadcliffe_im8.bmp,DanielRadcliffe,MattDamon,MattDamon,PatrickDempsey,RyanReynolds,RobertDowneyJr,,,,,posfs_DanielRadcliffe_im8.bmp,3.4275824999999713,
ROIS2212,_,posfs_RyanGosling_im25.bmp,RyanGosling,DanielCraig,DanielCraig,KeanuReeves,BradPitt,MattDamon,,,,,posfs_RyanGosling_im25.bmp,4.160163099999863,
ROIS2212,_,posfs_KeanuReeves_im8.bmp,KeanuReeves,BenAffleck,BenAffleck,LeonardoDiCaprio,RyanGosling,GeorgeClooney,,,,,posfs_KeanuReeves_im8.bmp,2.8473128000000543,
ROIS2212,_,posfs_BradPitt_im6.bmp,BradPitt,RyanGosling,RyanGosling,RobertDowneyJr,OrlandoBloom,HughJackman,,,,,posfs_BradPitt_im6.bmp,1.2431026999997812,
ROIS2212,_,posfs_MattDamon_im18.bmp,MattDamon,DanielCraig,DanielCraig,PatrickDempsey,DanielRadcliffe,ElijahWood,,,,,posfs_MattDamon_im18.bmp,1.8067135000001144,
ROIS2212,_,posfs_JustinTimberlake_im4.bmp,JustinTimberlake,BenStiller,BenStiller,RobertDowneyJr,OrlandoBloom,PatrickDempsey,,,,,posfs_JustinTimberlake_im4.bmp,1.5155240000003687,
ROIS2212,_,posfs_OrlandoBloom_im19.bmp,OrlandoBloom,ElijahWood,ElijahWood,DanielCraig,PatrickDempsey,LeonardoDiCaprio,,,,,posfs_OrlandoBloom_im19.bmp,1.6923442999996041,
ROIS2212,_,posfs_GeorgeClooney_im26.bmp,GeorgeClooney,LeonardoDiCaprio,LeonardoDiCaprio,RobertPattinson,BenAffleck,ElijahWood,,,,,posfs_GeorgeClooney_im26.bmp,0.9970149000000674,
ROIS2212,_,posfs_BenAffleck_im24.bmp,BenAffleck,OrlandoBloom,OrlandoBloom,DanielRadcliffe,MattDamon,GeorgeClooney,,,,,posfs_BenAffleck_im24.bmp,1.6360269000001608,
ROIS2212,_,posfs_BenAffleck_im8.bmp,BenAffleck,OrlandoBloom,OrlandoBloom,RobertPattinson,RyanReynolds,MattDamon,,,,,posfs_BenAffleck_im8.bmp,1.9837689000000864,
ROIS2212,_,posfs_OrlandoBloom_im3.bmp,OrlandoBloom,RobertPattinson,RobertPattinson,RyanReynolds,RyanGosling,RobertDowneyJr,,,,,posfs_OrlandoBloom_im3.bmp,1.1821224000000257,
ROIS2212,_,posfs_LeonardoDiCaprio_im29.bmp,LeonardoDiCaprio,RobertDowneyJr,RobertDowneyJr,PatrickDempsey,OrlandoBloom,DanielCraig,,,,,posfs_LeonardoDiCaprio_im29.bmp,1.5798534999998992,
ROIS2212,_,posfs_ElijahWood_im18.bmp,ElijahWood,PatrickDempsey,PatrickDempsey,JustinTimberlake,RobertPattinson,RobertDowneyJr,,,,,4,2.4333652999998776,
ROIS2212,_,posfs_JustinTimberlake_im1.bmp,JustinTimberlake,BenAffleck,BenAffleck,ElijahWood,PatrickDempsey,HughJackman,,,,,posfs_JustinTimberlake_im1.bmp,1.269538399999874,
ROIS2212,_,posfs_OrlandoBloom_im30.bmp,OrlandoBloom,JustinTimberlake,JustinTimberlake,BradPitt,KeanuReeves,RyanGosling,,,,,posfs_OrlandoBloom_im30.bmp,1.3607144000002336,
ROIS2212,_,posfs_DanielRadcliffe_im20.bmp,DanielRadcliffe,GeorgeClooney,GeorgeClooney,ElijahWood,RobertPattinson,KeanuReeves,,,,,posfs_DanielRadcliffe_im20.bmp,2.407525600000099,
ROIS2212,_,posfs_DanielRadcliffe_im10.bmp,DanielRadcliffe,LeonardoDiCaprio,LeonardoDiCaprio,KeanuReeves,ElijahWood,MattDamon,,,,,posfs_DanielRadcliffe_im10.bmp,2.5074531999998726,
ROIS2212,_,posfs_BradPitt_im14.bmp,BradPitt,MattDamon,MattDamon,DanielCraig,OrlandoBloom,LeonardoDiCaprio,,,,,posfs_BradPitt_im14.bmp,1.0125442999997176,
ROIS2212,_,posfs_DanielCraig_im20.bmp,DanielCraig,BenStiller,BenStiller,BradPitt,LeonardoDiCaprio,OrlandoBloom,,,,,posfs_DanielCraig_im20.bmp,2.43349199999966,
ROIS2212,_,posfs_MattDamon_im9.bmp,MattDamon,BradPitt,BradPitt,HughJackman,DanielCraig,LeonardoDiCaprio,,,,,posfs_MattDamon_im9.bmp,1.5165004999998928,
ROIS2212,_,posfs_HughJackman_im13.bmp,HughJackman,BradPitt,BradPitt,PatrickDempsey,MattDamon,RobertPattinson,,,,,posfs_HughJackman_im13.bmp,2.6614133000002766,
ROIS2212,_,posfs_RobertDowneyJr_im19.bmp,RobertDowneyJr,DanielRadcliffe,DanielRadcliffe,DanielCraig,PatrickDempsey,BenStiller,,,,,posfs_RobertDowneyJr_im19.bmp,4.120948899999803,
ROIS2212,_,posfs_JustinTimberlake_im18.bmp,JustinTimberlake,ElijahWood,ElijahWood,RyanGosling,DanielRadcliffe,LeonardoDiCaprio,,,,,posfs_JustinTimberlake_im18.bmp,2.4163848999996844,
ROIS2212,_,posfs_RyanGosling_im12.bmp,RyanGosling,PatrickDempsey,PatrickDempsey,RyanReynolds,BradPitt,DanielCraig,,,,,1,6.94937310000023,
ROIS2212,_,posfs_RyanReynolds_im3.bmp,RyanReynolds,BenAffleck,BenAffleck,DanielCraig,MattDamon,OrlandoBloom,,,,,posfs_RyanReynolds_im3.bmp,3.3487279000000854,
ROIS2212,_,posfs_DanielCraig_im15.bmp,DanielCraig,BenAffleck,BenAffleck,MattDamon,BenStiller,HughJackman,,,,,posfs_DanielCraig_im15.bmp,1.2752579000002697,
ROIS2212,_,posfs_MattDamon_im16.bmp,MattDamon,LeonardoDiCaprio,LeonardoDiCaprio,RyanGosling,KeanuReeves,BenStiller,,,,,0,0.9648940000001858,
ROIS2212,_,posfs_BenStiller_im3.bmp,BenStiller,ElijahWood,ElijahWood,JustinTimberlake,BradPitt,RobertDowneyJr,,,,,posfs_BenStiller_im3.bmp,7.939808699999958,
ROIS2212,_,posfs_LeonardoDiCaprio_im24.bmp,LeonardoDiCaprio,DanielCraig,DanielCraig,BradPitt,PatrickDempsey,RyanGosling,,,,,posfs_LeonardoDiCaprio_im24.bmp,1.3473684999999023,
ROIS2212,_,posfs_LeonardoDiCaprio_im10.bmp,LeonardoDiCaprio,BenStiller,BenStiller,RyanGosling,PatrickDempsey,RobertPattinson,,,,,posfs_LeonardoDiCaprio_im10.bmp,1.5078531999997722,
ROIS2212,_,posfs_ElijahWood_im23.bmp,ElijahWood,BenAffleck,BenAffleck,RyanGosling,BenStiller,RobertDowneyJr,,,,,4,1.7806386000002021,
ROIS2212,_,posfs_RobertPattinson_im27.bmp,RobertPattinson,RyanReynolds,RyanReynolds,OrlandoBloom,MattDamon,KeanuReeves,,,,,posfs_RobertPattinson_im27.bmp,1.4987722999999278,
ROIS2212,_,posfs_HughJackman_im20.bmp,HughJackman,JustinTimberlake,JustinTimberlake,RyanReynolds,DanielCraig,OrlandoBloom,,,,,posfs_HughJackman_im20.bmp,3.267875699999877,
ROIS2212,_,posfs_PatrickDempsey_im9.bmp,PatrickDempsey,HughJackman,HughJackman,RobertDowneyJr,KeanuReeves,BenAffleck,,,,,posfs_PatrickDempsey_im9.bmp,2.0705760000000737,
ROIS2212,_,posfs_JustinTimberlake_im17.bmp,JustinTimberlake,MattDamon,MattDamon,LeonardoDiCaprio,ElijahWood,GeorgeClooney,,,,,posfs_JustinTimberlake_im17.bmp,1.6566749000003256,
ROIS2212,train,pos,fs,posfs_id2_im16.bmp_posfs_id13_im10.bmp,['Im_HughJackman.png', 'Im_PatrickDempsey.png', 'Im_RyanReynolds.png', 'Im_BenStiller.png', 'Im_BenAffleck.png', 'Im_BradPitt.png', 'Im_RobertDowneyJr.png', 'Im_LeonardoDiCaprio.png', 'Im_GeorgeClooney.png', 'Im_OrlandoBloom.png'],diff,1,4.091565100000025,1,0,
ROIS2212,train,pos,fs,posfs_id16_im3.bmp_posfs_id16_im19.bmp,['Im_HughJackman.png', 'Im_PatrickDempsey.png', 'Im_RyanReynolds.png', 'Im_BenStiller.png', 'Im_BenAffleck.png', 'Im_BradPitt.png', 'Im_RobertDowneyJr.png', 'Im_LeonardoDiCaprio.png', 'Im_GeorgeClooney.png', 'Im_OrlandoBloom.png'],same,1,1.2665007000000514,2,0,
ROIS2212,train,pos,fs,posfs_id21_im22.bmp_posfs_id21_im16.bmp,['Im_HughJackman.png', 'Im_PatrickDempsey.png', 'Im_RyanReynolds.png', 'Im_BenStiller.png', 'Im_BenAffleck.png', 'Im_BradPitt.png', 'Im_RobertDowneyJr.png', 'Im_LeonardoDiCaprio.png', 'Im_GeorgeClooney.png', 'Im_OrlandoBloom.png'],same,1,1.1502109000002747,3,0,
ROIS2212,train,pos,fs,posfs_id17_im9.bmp_posfs_id8_im13.bmp,['Im_HughJackman.png', 'Im_PatrickDempsey.png', 'Im_RyanReynolds.png', 'Im_BenStiller.png', 'Im_BenAffleck.png', 'Im_BradPitt.png', 'Im_RobertDowneyJr.png', 'Im_LeonardoDiCaprio.png', 'Im_GeorgeClooney.png', 'Im_OrlandoBloom.png'],diff,1,1.1917481999998927,4,0,
ROIS2212,train,pos,fs,posfs_id3_im8.bmp_posfs_id3_im6.bmp,['Im_HughJackman.png', 'Im_PatrickDempsey.png', 'Im_RyanReynolds.png', 'Im_BenStiller.png', 'Im_BenAffleck.png', 'Im_BradPitt.png', 'Im_RobertDowneyJr.png', 'Im_LeonardoDiCaprio.png', 'Im_GeorgeClooney.png', 'Im_OrlandoBloom.png'],same,1,1.0332719999996698,5,0,
ROIS2212,train,pos,fs,posfs_id8_im20.bmp_posfs_id21_im16.bmp,['Im_HughJackman.png', 'Im_PatrickDempsey.png', 'Im_RyanReynolds.png', 'Im_BenStiller.png', 'Im_BenAffleck.png', 'Im_BradPitt.png', 'Im_RobertDowneyJr.png', 'Im_LeonardoDiCaprio.png', 'Im_GeorgeClooney.png', 'Im_OrlandoBloom.png'],diff,1,1.2334471999997731,6,0,
ROIS2212,train,pos,fs,posfs_id21_im17.bmp_posfs_id7_im26.bmp,['Im_HughJackman.png', 'Im_PatrickDempsey.png', 'Im_RyanReynolds.png', 'Im_BenStiller.png', 'Im_BenAffleck.png', 'Im_BradPitt.png', 'Im_RobertDowneyJr.png', 'Im_LeonardoDiCaprio.png', 'Im_GeorgeClooney.png', 'Im_OrlandoBloom.png'],diff,1,2.433313200000157,7,0,
ROIS2212,train,pos,fs,posfs_id17_im9.bmp_posfs_id17_im8.bmp,['Im_HughJackman.png', 'Im_PatrickDempsey.png', 'Im_RyanReynolds.png', 'Im_BenStiller.png', 'Im_BenAffleck.png', 'Im_BradPitt.png', 'Im_RobertDowneyJr.png', 'Im_LeonardoDiCaprio.png', 'Im_GeorgeClooney.png', 'Im_OrlandoBloom.png'],same,1,1.275322899999992,8,0,
ROIS2212,train,pos,fs,posfs_id16_im3.bmp_posfs_id16_im2.bmp,['Im_HughJackman.png', 'Im_PatrickDempsey.png', 'Im_RyanReynolds.png', 'Im_BenStiller.png', 'Im_BenAffleck.png', 'Im_BradPitt.png', 'Im_RobertDowneyJr.png', 'Im_LeonardoDiCaprio.png', 'Im_GeorgeClooney.png', 'Im_OrlandoBloom.png'],same,1,1.2834318000000167,9,0,
ROIS2212,train,pos,fs,posfs_id18_im11.bmp_posfs_id18_im18.bmp,['Im_HughJackman.png', 'Im_PatrickDempsey.png', 'Im_RyanReynolds.png', 'Im_BenStiller.png', 'Im_BenAffleck.png', 'Im_BradPitt.png', 'Im_RobertDowneyJr.png', 'Im_LeonardoDiCaprio.png', 'Im_GeorgeClooney.png', 'Im_OrlandoBloom.png'],same,1,1.1418862000000445,10,0,
ROIS2212,train,pos,fs,posfs_id1_im4.bmp_posfs_id17_im9.bmp,['Im_HughJackman.png', 'Im_PatrickDempsey.png', 'Im_RyanReynolds.png', 'Im_BenStiller.png', 'Im_BenAffleck.png', 'Im_BradPitt.png', 'Im_RobertDowneyJr.png', 'Im_LeonardoDiCaprio.png', 'Im_GeorgeClooney.png', 'Im_OrlandoBloom.png'],diff,1,1.0833401999998387,11,0,
ROIS2212,train,pos,fs,posfs_id2_im3.bmp_posfs_id18_im11.bmp,['Im_HughJackman.png', 'Im_PatrickDempsey.png', 'Im_RyanReynolds.png', 'Im_BenStiller.png', 'Im_BenAffleck.png', 'Im_BradPitt.png', 'Im_RobertDowneyJr.png', 'Im_LeonardoDiCaprio.png', 'Im_GeorgeClooney.png', 'Im_OrlandoBloom.png'],diff,1,1.941605299999992,12,0,
ROIS2212,train,pos,fs,posfs_id18_im18.bmp_posfs_id18_im19.bmp,['Im_HughJackman.png', 'Im_PatrickDempsey.png', 'Im_RyanReynolds.png', 'Im_BenStiller.png', 'Im_BenAffleck.png', 'Im_BradPitt.png', 'Im_RobertDowneyJr.png', 'Im_LeonardoDiCaprio.png', 'Im_GeorgeClooney.png', 'Im_OrlandoBloom.png'],same,1,1.9835723999999573,13,0,
ROIS2212,train,pos,fs,posfs_id7_im26.bmp_posfs_id7_im14.bmp,['Im_HughJackman.png', 'Im_PatrickDempsey.png', 'Im_RyanReynolds.png', 'Im_BenStiller.png', 'Im_BenAffleck.png', 'Im_BradPitt.png', 'Im_RobertDowneyJr.png', 'Im_LeonardoDiCaprio.png', 'Im_GeorgeClooney.png', 'Im_OrlandoBloom.png'],diff,0,2.491661799999747,13,0,
ROIS2212,train,pos,fs,posfs_id7_im26.bmp_posfs_id17_im14.bmp,['Im_HughJackman.png', 'Im_PatrickDempsey.png', 'Im_RyanReynolds.png', 'Im_BenStiller.png', 'Im_BenAffleck.png', 'Im_BradPitt.png', 'Im_RobertDowneyJr.png', 'Im_LeonardoDiCaprio.png', 'Im_GeorgeClooney.png', 'Im_OrlandoBloom.png'],diff,1,2.5335721999999805,14,0,
ROIS2212,train,pos,fs,posfs_id17_im8.bmp_posfs_id7_im15.bmp,['Im_HughJackman.png', 'Im_PatrickDempsey.png', 'Im_RyanReynolds.png', 'Im_BenStiller.png', 'Im_BenAffleck.png', 'Im_BradPitt.png', 'Im_RobertDowneyJr.png', 'Im_LeonardoDiCaprio.png', 'Im_GeorgeClooney.png', 'Im_OrlandoBloom.png'],diff,1,2.1415140000003703,15,0,
ROIS2212,train,pos,fs,posfs_id21_im17.bmp_posfs_id7_im15.bmp,['Im_HughJackman.png', 'Im_PatrickDempsey.png', 'Im_RyanReynolds.png', 'Im_BenStiller.png', 'Im_BenAffleck.png', 'Im_BradPitt.png', 'Im_RobertDowneyJr.png', 'Im_LeonardoDiCaprio.png', 'Im_GeorgeClooney.png', 'Im_OrlandoBloom.png'],diff,1,1.141596699999809,16,0,
ROIS2212,train,pos,fs,posfs_id8_im21.bmp_posfs_id2_im3.bmp,['Im_HughJackman.png', 'Im_PatrickDempsey.png', 'Im_RyanReynolds.png', 'Im_BenStiller.png', 'Im_BenAffleck.png', 'Im_BradPitt.png', 'Im_RobertDowneyJr.png', 'Im_LeonardoDiCaprio.png', 'Im_GeorgeClooney.png', 'Im_OrlandoBloom.png'],diff,1,1.1331780999998955,17,0,
ROIS2212,train,pos,fs,posfs_id3_im8.bmp_posfs_id18_im19.bmp,['Im_HughJackman.png', 'Im_PatrickDempsey.png', 'Im_RyanReynolds.png', 'Im_BenStiller.png', 'Im_BenAffleck.png', 'Im_BradPitt.png', 'Im_RobertDowneyJr.png', 'Im_LeonardoDiCaprio.png', 'Im_GeorgeClooney.png', 'Im_OrlandoBloom.png'],diff,1,1.000029899999845,18,0,
ROIS2212,train,pos,fs,posfs_id3_im17.bmp_posfs_id1_im21.bmp,['Im_HughJackman.png', 'Im_PatrickDempsey.png', 'Im_RyanReynolds.png', 'Im_BenStiller.png', 'Im_BenAffleck.png', 'Im_BradPitt.png', 'Im_RobertDowneyJr.png', 'Im_LeonardoDiCaprio.png', 'Im_GeorgeClooney.png', 'Im_OrlandoBloom.png'],diff,1,1.1083114000002752,19,0,
ROIS2212,train,pos,fs,posfs_id8_im13.bmp_posfs_id17_im9.bmp,['Im_HughJackman.png', 'Im_PatrickDempsey.png', 'Im_RyanReynolds.png', 'Im_BenStiller.png', 'Im_BenAffleck.png', 'Im_BradPitt.png', 'Im_RobertDowneyJr.png', 'Im_LeonardoDiCaprio.png', 'Im_GeorgeClooney.png', 'Im_OrlandoBloom.png'],diff,1,3.766907799999899,1,0,
ROIS2212,train,inv,fs,posfs_id1_im21.bmp_posfs_id1_im24.bmp,['Im_HughJackman.png', 'Im_PatrickDempsey.png', 'Im_RyanReynolds.png', 'Im_BenStiller.png', 'Im_BenAffleck.png', 'Im_BradPitt.png', 'Im_RobertDowneyJr.png', 'Im_LeonardoDiCaprio.png', 'Im_GeorgeClooney.png', 'Im_OrlandoBloom.png'],diff,0,1.0417947999999342,1,0,
ROIS2212,train,pos,fs,posfs_id1_im24.bmp_posfs_id8_im21.bmp,['Im_HughJackman.png', 'Im_PatrickDempsey.png', 'Im_RyanReynolds.png', 'Im_BenStiller.png', 'Im_BenAffleck.png', 'Im_BradPitt.png', 'Im_RobertDowneyJr.png', 'Im_LeonardoDiCaprio.png', 'Im_GeorgeClooney.png', 'Im_OrlandoBloom.png'],diff,1,1.541867899999943,2,0,
ROIS2212,train,inv,fs,posfs_id17_im8.bmp_posfs_id17_im9.bmp,['Im_HughJackman.png', 'Im_PatrickDempsey.png', 'Im_RyanReynolds.png', 'Im_BenStiller.png', 'Im_BenAffleck.png', 'Im_BradPitt.png', 'Im_RobertDowneyJr.png', 'Im_LeonardoDiCaprio.png', 'Im_GeorgeClooney.png', 'Im_OrlandoBloom.png'],same,1,1.0916645000002063,3,0,
ROIS2212,train,neg,fs,negfs_id8_im21.bmp_negfs_id1_im24.bmp,['Im_HughJackman.png', 'Im_PatrickDempsey.png', 'Im_RyanReynolds.png', 'Im_BenStiller.png', 'Im_BenAffleck.png', 'Im_BradPitt.png', 'Im_RobertDowneyJr.png', 'Im_LeonardoDiCaprio.png', 'Im_GeorgeClooney.png', 'Im_OrlandoBloom.png'],diff,1,0.9000522999999703,4,0,
ROIS2212,train,neg,fs,negfs_id16_im19.bmp_negfs_id17_im8.bmp,['Im_HughJackman.png', 'Im_PatrickDempsey.png', 'Im_RyanReynolds.png', 'Im_BenStiller.png', 'Im_BenAffleck.png', 'Im_BradPitt.png', 'Im_RobertDowneyJr.png', 'Im_LeonardoDiCaprio.png', 'Im_GeorgeClooney.png', 'Im_OrlandoBloom.png'],diff,1,0.8835272999999688,5,0,
ROIS2212,train,neg,fs,negfs_id13_im29.bmp_negfs_id21_im22.bmp,['Im_HughJackman.png', 'Im_PatrickDempsey.png', 'Im_RyanReynolds.png', 'Im_BenStiller.png', 'Im_BenAffleck.png', 'Im_BradPitt.png', 'Im_RobertDowneyJr.png', 'Im_LeonardoDiCaprio.png', 'Im_GeorgeClooney.png', 'Im_OrlandoBloom.png'],diff,1,0.9417469999998502,6,0,
ROIS2212,train,neg,fs,negfs_id3_im6.bmp_negfs_id21_im22.bmp,['Im_HughJackman.png', 'Im_PatrickDempsey.png', 'Im_RyanReynolds.png', 'Im_BenStiller.png', 'Im_BenAffleck.png', 'Im_BradPitt.png', 'Im_RobertDowneyJr.png', 'Im_LeonardoDiCaprio.png', 'Im_GeorgeClooney.png', 'Im_OrlandoBloom.png'],diff,1,1.2835058000000572,7,0,
ROIS2212,train,inv,fs,posfs_id18_im11.bmp_posfs_id2_im3.bmp,['Im_HughJackman.png', 'Im_PatrickDempsey.png', 'Im_RyanReynolds.png', 'Im_BenStiller.png', 'Im_BenAffleck.png', 'Im_BradPitt.png', 'Im_RobertDowneyJr.png', 'Im_LeonardoDiCaprio.png', 'Im_GeorgeClooney.png', 'Im_OrlandoBloom.png'],diff,1,0.6419084999997722,8,0,
ROIS2212,train,inv,fs,posfs_id17_im14.bmp_posfs_id21_im16.bmp,['Im_HughJackman.png', 'Im_PatrickDempsey.png', 'Im_RyanReynolds.png', 'Im_BenStiller.png', 'Im_BenAffleck.png', 'Im_BradPitt.png', 'Im_RobertDowneyJr.png', 'Im_LeonardoDiCaprio.png', 'Im_GeorgeClooney.png', 'Im_OrlandoBloom.png'],diff,1,0.7334914000002755,9,0,
ROIS2212,train,neg,fs,negfs_id3_im17.bmp_negfs_id1_im21.bmp,['Im_HughJackman.png', 'Im_PatrickDempsey.png', 'Im_RyanReynolds.png', 'Im_BenStiller.png', 'Im_BenAffleck.png', 'Im_BradPitt.png', 'Im_RobertDowneyJr.png', 'Im_LeonardoDiCaprio.png', 'Im_GeorgeClooney.png', 'Im_OrlandoBloom.png'],diff,1,1.0750839000002088,10,0,
ROIS2212,train,neg,fs,negfs_id21_im16.bmp_negfs_id21_im22.bmp,['Im_HughJackman.png', 'Im_PatrickDempsey.png', 'Im_RyanReynolds.png', 'Im_BenStiller.png', 'Im_BenAffleck.png', 'Im_BradPitt.png', 'Im_RobertDowneyJr.png', 'Im_LeonardoDiCaprio.png', 'Im_GeorgeClooney.png', 'Im_OrlandoBloom.png'],same,1,1.4418059000004178,11,0,
ROIS2212,train,pos,fs,posfs_id16_im2.bmp_posfs_id16_im19.bmp,['Im_HughJackman.png', 'Im_PatrickDempsey.png', 'Im_RyanReynolds.png', 'Im_BenStiller.png', 'Im_BenAffleck.png', 'Im_BradPitt.png', 'Im_RobertDowneyJr.png', 'Im_LeonardoDiCaprio.png', 'Im_GeorgeClooney.png', 'Im_OrlandoBloom.png'],same,1,1.2751845000002504,12,0,
ROIS2212,train,neg,fs,negfs_id7_im14.bmp_negfs_id3_im17.bmp,['Im_HughJackman.png', 'Im_PatrickDempsey.png', 'Im_RyanReynolds.png', 'Im_BenStiller.png', 'Im_BenAffleck.png', 'Im_BradPitt.png', 'Im_RobertDowneyJr.png', 'Im_LeonardoDiCaprio.png', 'Im_GeorgeClooney.png', 'Im_OrlandoBloom.png'],diff,1,0.891922500000419,13,0,
ROIS2212,train,pos,fs,posfs_id13_im15.bmp_posfs_id2_im2.bmp,['Im_HughJackman.png', 'Im_PatrickDempsey.png', 'Im_RyanReynolds.png', 'Im_BenStiller.png', 'Im_BenAffleck.png', 'Im_BradPitt.png', 'Im_RobertDowneyJr.png', 'Im_LeonardoDiCaprio.png', 'Im_GeorgeClooney.png', 'Im_OrlandoBloom.png'],diff,1,1.6586171999997532,14,0,
ROIS2212,train,pos,fs,posfs_id13_im15.bmp_posfs_id18_im18.bmp,['Im_HughJackman.png', 'Im_PatrickDempsey.png', 'Im_RyanReynolds.png', 'Im_BenStiller.png', 'Im_BenAffleck.png', 'Im_BradPitt.png', 'Im_RobertDowneyJr.png', 'Im_LeonardoDiCaprio.png', 'Im_GeorgeClooney.png', 'Im_OrlandoBloom.png'],diff,1,1.0170233999997436,15,0,
ROIS2212,train,neg,fs,negfs_id1_im4.bmp_negfs_id1_im24.bmp,['Im_HughJackman.png', 'Im_PatrickDempsey.png', 'Im_RyanReynolds.png', 'Im_BenStiller.png', 'Im_BenAffleck.png', 'Im_BradPitt.png', 'Im_RobertDowneyJr.png', 'Im_LeonardoDiCaprio.png', 'Im_GeorgeClooney.png', 'Im_OrlandoBloom.png'],same,1,0.8918280000002596,16,0,
ROIS2212,train,inv,fs,posfs_id7_im15.bmp_posfs_id7_im26.bmp,['Im_HughJackman.png', 'Im_PatrickDempsey.png', 'Im_RyanReynolds.png', 'Im_BenStiller.png', 'Im_BenAffleck.png', 'Im_BradPitt.png', 'Im_RobertDowneyJr.png', 'Im_LeonardoDiCaprio.png', 'Im_GeorgeClooney.png', 'Im_OrlandoBloom.png'],same,1,0.8752724999999373,17,0,
ROIS2212,train,pos,fs,posfs_id2_im3.bmp_posfs_id8_im21.bmp,['Im_HughJackman.png', 'Im_PatrickDempsey.png', 'Im_RyanReynolds.png', 'Im_BenStiller.png', 'Im_BenAffleck.png', 'Im_BradPitt.png', 'Im_RobertDowneyJr.png', 'Im_LeonardoDiCaprio.png', 'Im_GeorgeClooney.png', 'Im_OrlandoBloom.png'],diff,1,1.0753823000000011,18,0,
ROIS2212,train,inv,fs,posfs_id13_im10.bmp_posfs_id13_im15.bmp,['Im_HughJackman.png', 'Im_PatrickDempsey.png', 'Im_RyanReynolds.png', 'Im_BenStiller.png', 'Im_BenAffleck.png', 'Im_BradPitt.png', 'Im_RobertDowneyJr.png', 'Im_LeonardoDiCaprio.png', 'Im_GeorgeClooney.png', 'Im_OrlandoBloom.png'],same,1,1.2251828000003115,19,0,
ROIS2212,train,inv,60,pos60_id7_im26.bmp_pos60_id21_im17.bmp,['Im_HughJackman.png', 'Im_PatrickDempsey.png', 'Im_RyanReynolds.png', 'Im_BenStiller.png', 'Im_BenAffleck.png', 'Im_BradPitt.png', 'Im_RobertDowneyJr.png', 'Im_LeonardoDiCaprio.png', 'Im_GeorgeClooney.png', 'Im_OrlandoBloom.png'],same,0,0.9335466999996243,0,0,
ROIS2212,train,inv,0,pos0_id13_im29.bmp_pos0_id13_im10.bmp,['Im_HughJackman.png', 'Im_PatrickDempsey.png', 'Im_RyanReynolds.png', 'Im_BenStiller.png', 'Im_BenAffleck.png', 'Im_BradPitt.png', 'Im_RobertDowneyJr.png', 'Im_LeonardoDiCaprio.png', 'Im_GeorgeClooney.png', 'Im_OrlandoBloom.png'],same,1,0.799909899999875,1,0,
ROIS2212,train,inv,150,pos150_id2_im3.bmp_pos150_id2_im16.bmp,['Im_HughJackman.png', 'Im_PatrickDempsey.png', 'Im_RyanReynolds.png', 'Im_BenStiller.png', 'Im_BenAffleck.png', 'Im_BradPitt.png', 'Im_RobertDowneyJr.png', 'Im_LeonardoDiCaprio.png', 'Im_GeorgeClooney.png', 'Im_OrlandoBloom.png'],diff,0,0.6669279000002462,1,0,
ROIS2212,train,inv,150,pos150_id13_im10.bmp_pos150_id13_im15.bmp,['Im_HughJackman.png', 'Im_PatrickDempsey.png', 'Im_RyanReynolds.png', 'Im_BenStiller.png', 'Im_BenAffleck.png', 'Im_BradPitt.png', 'Im_RobertDowneyJr.png', 'Im_LeonardoDiCaprio.png', 'Im_GeorgeClooney.png', 'Im_OrlandoBloom.png'],same,1,0.7083480999999665,2,0,
ROIS2212,train,inv,fs,posfs_id21_im16.bmp_posfs_id21_im17.bmp,['Im_HughJackman.png', 'Im_PatrickDempsey.png', 'Im_RyanReynolds.png', 'Im_BenStiller.png', 'Im_BenAffleck.png', 'Im_BradPitt.png', 'Im_RobertDowneyJr.png', 'Im_LeonardoDiCaprio.png', 'Im_GeorgeClooney.png', 'Im_OrlandoBloom.png'],same,1,0.7169006999997691,3,0,
ROIS2212,train,inv,90,pos90_id17_im8.bmp_pos90_id17_im9.bmp,['Im_HughJackman.png', 'Im_PatrickDempsey.png', 'Im_RyanReynolds.png', 'Im_BenStiller.png', 'Im_BenAffleck.png', 'Im_BradPitt.png', 'Im_RobertDowneyJr.png', 'Im_LeonardoDiCaprio.png', 'Im_GeorgeClooney.png', 'Im_OrlandoBloom.png'],diff,0,2.5501297000000704,3,0,
ROIS2212,train,inv,120,pos120_id17_im9.bmp_pos120_id8_im13.bmp,['Im_HughJackman.png', 'Im_PatrickDempsey.png', 'Im_RyanReynolds.png', 'Im_BenStiller.png', 'Im_BenAffleck.png', 'Im_BradPitt.png', 'Im_RobertDowneyJr.png', 'Im_LeonardoDiCaprio.png', 'Im_GeorgeClooney.png', 'Im_OrlandoBloom.png'],diff,1,1.774936499999967,4,0,
ROIS2212,train,inv,60,pos60_id18_im18.bmp_pos60_id13_im15.bmp,['Im_HughJackman.png', 'Im_PatrickDempsey.png', 'Im_RyanReynolds.png', 'Im_BenStiller.png', 'Im_BenAffleck.png', 'Im_BradPitt.png', 'Im_RobertDowneyJr.png', 'Im_LeonardoDiCaprio.png', 'Im_GeorgeClooney.png', 'Im_OrlandoBloom.png'],diff,1,0.9166857000000164,5,0,
ROIS2212,train,inv,30,pos30_id3_im8.bmp_pos30_id3_im6.bmp,['Im_HughJackman.png', 'Im_PatrickDempsey.png', 'Im_RyanReynolds.png', 'Im_BenStiller.png', 'Im_BenAffleck.png', 'Im_BradPitt.png', 'Im_RobertDowneyJr.png', 'Im_LeonardoDiCaprio.png', 'Im_GeorgeClooney.png', 'Im_OrlandoBloom.png'],same,1,0.7166400999999496,6,0,
ROIS2212,train,inv,fs,posfs_id1_im4.bmp_posfs_id16_im19.bmp,['Im_HughJackman.png', 'Im_PatrickDempsey.png', 'Im_RyanReynolds.png', 'Im_BenStiller.png', 'Im_BenAffleck.png', 'Im_BradPitt.png', 'Im_RobertDowneyJr.png', 'Im_LeonardoDiCaprio.png', 'Im_GeorgeClooney.png', 'Im_OrlandoBloom.png'],diff,1,0.7752069000002848,7,0,
ROIS2212,train,inv,30,pos30_id8_im20.bmp_pos30_id8_im13.bmp,['Im_HughJackman.png', 'Im_PatrickDempsey.png', 'Im_RyanReynolds.png', 'Im_BenStiller.png', 'Im_BenAffleck.png', 'Im_BradPitt.png', 'Im_RobertDowneyJr.png', 'Im_LeonardoDiCaprio.png', 'Im_GeorgeClooney.png', 'Im_OrlandoBloom.png'],diff,0,2.3833213000002615,7,0,
ROIS2212,train,inv,90,pos90_id17_im14.bmp_pos90_id7_im26.bmp,['Im_HughJackman.png', 'Im_PatrickDempsey.png', 'Im_RyanReynolds.png', 'Im_BenStiller.png', 'Im_BenAffleck.png', 'Im_BradPitt.png', 'Im_RobertDowneyJr.png', 'Im_LeonardoDiCaprio.png', 'Im_GeorgeClooney.png', 'Im_OrlandoBloom.png'],diff,1,1.2665043000001788,8,0,
ROIS2212,train,inv,120,pos120_id1_im4.bmp_pos120_id17_im9.bmp,['Im_HughJackman.png', 'Im_PatrickDempsey.png', 'Im_RyanReynolds.png', 'Im_BenStiller.png', 'Im_BenAffleck.png', 'Im_BradPitt.png', 'Im_RobertDowneyJr.png', 'Im_LeonardoDiCaprio.png', 'Im_GeorgeClooney.png', 'Im_OrlandoBloom.png'],diff,1,3.700149599999804,9,0,
ROIS2212,train,inv,0,pos0_id8_im13.bmp_pos0_id17_im9.bmp,['Im_HughJackman.png', 'Im_PatrickDempsey.png', 'Im_RyanReynolds.png', 'Im_BenStiller.png', 'Im_BenAffleck.png', 'Im_BradPitt.png', 'Im_RobertDowneyJr.png', 'Im_LeonardoDiCaprio.png', 'Im_GeorgeClooney.png', 'Im_OrlandoBloom.png'],same,0,0.9582212000000254,9,0,
ROIS2212,train,pos,0,pos0_id17_im9.bmp_pos0_id17_im8.bmp,['Im_HughJackman.png', 'Im_PatrickDempsey.png', 'Im_RyanReynolds.png', 'Im_BenStiller.png', 'Im_BenAffleck.png', 'Im_BradPitt.png', 'Im_RobertDowneyJr.png', 'Im_LeonardoDiCaprio.png', 'Im_GeorgeClooney.png', 'Im_OrlandoBloom.png'],diff,0,1.4420442999999068,9,0,
ROIS2212,train,pos,60,pos60_id2_im16.bmp_pos60_id13_im10.bmp,['Im_HughJackman.png', 'Im_PatrickDempsey.png', 'Im_RyanReynolds.png', 'Im_BenStiller.png', 'Im_BenAffleck.png', 'Im_BradPitt.png', 'Im_RobertDowneyJr.png', 'Im_LeonardoDiCaprio.png', 'Im_GeorgeClooney.png', 'Im_OrlandoBloom.png'],diff,1,0.7332197000000633,10,0,
ROIS2212,train,pos,150,pos150_id16_im2.bmp_pos150_id1_im21.bmp,['Im_HughJackman.png', 'Im_PatrickDempsey.png', 'Im_RyanReynolds.png', 'Im_BenStiller.png', 'Im_BenAffleck.png', 'Im_BradPitt.png', 'Im_RobertDowneyJr.png', 'Im_LeonardoDiCaprio.png', 'Im_GeorgeClooney.png', 'Im_OrlandoBloom.png'],diff,1,0.4335171000002447,11,0,
ROIS2212,train,pos,fs,posfs_id7_im15.bmp_posfs_id21_im17.bmp,['Im_HughJackman.png', 'Im_PatrickDempsey.png', 'Im_RyanReynolds.png', 'Im_BenStiller.png', 'Im_BenAffleck.png', 'Im_BradPitt.png', 'Im_RobertDowneyJr.png', 'Im_LeonardoDiCaprio.png', 'Im_GeorgeClooney.png', 'Im_OrlandoBloom.png'],diff,1,0.7005027000000155,12,0,
ROIS2212,train,pos,90,pos90_id1_im21.bmp_pos90_id1_im24.bmp,['Im_HughJackman.png', 'Im_PatrickDempsey.png', 'Im_RyanReynolds.png', 'Im_BenStiller.png', 'Im_BenAffleck.png', 'Im_BradPitt.png', 'Im_RobertDowneyJr.png', 'Im_LeonardoDiCaprio.png', 'Im_GeorgeClooney.png', 'Im_OrlandoBloom.png'],diff,0,3.350104399999964,12,0,
ROIS2212,train,pos,30,pos30_id1_im24.bmp_pos30_id8_im20.bmp,['Im_HughJackman.png', 'Im_PatrickDempsey.png', 'Im_RyanReynolds.png', 'Im_BenStiller.png', 'Im_BenAffleck.png', 'Im_BradPitt.png', 'Im_RobertDowneyJr.png', 'Im_LeonardoDiCaprio.png', 'Im_GeorgeClooney.png', 'Im_OrlandoBloom.png'],diff,1,0.6832774999998037,13,0,
ROIS2212,train,pos,0,pos0_id3_im8.bmp_pos0_id3_im17.bmp,['Im_HughJackman.png', 'Im_PatrickDempsey.png', 'Im_RyanReynolds.png', 'Im_BenStiller.png', 'Im_BenAffleck.png', 'Im_BradPitt.png', 'Im_RobertDowneyJr.png', 'Im_LeonardoDiCaprio.png', 'Im_GeorgeClooney.png', 'Im_OrlandoBloom.png'],same,1,1.1753924999998162,14,0,
ROIS2212,train,pos,90,pos90_id2_im2.bmp_pos90_id13_im15.bmp,['Im_HughJackman.png', 'Im_PatrickDempsey.png', 'Im_RyanReynolds.png', 'Im_BenStiller.png', 'Im_BenAffleck.png', 'Im_BradPitt.png', 'Im_RobertDowneyJr.png', 'Im_LeonardoDiCaprio.png', 'Im_GeorgeClooney.png', 'Im_OrlandoBloom.png'],diff,1,0.7998783999996704,15,0,
ROIS2212,train,pos,fs,posfs_id2_im3.bmp_posfs_id8_im21.bmp,['Im_HughJackman.png', 'Im_PatrickDempsey.png', 'Im_RyanReynolds.png', 'Im_BenStiller.png', 'Im_BenAffleck.png', 'Im_BradPitt.png', 'Im_RobertDowneyJr.png', 'Im_LeonardoDiCaprio.png', 'Im_GeorgeClooney.png', 'Im_OrlandoBloom.png'],diff,1,1.6833728000001429,16,0,
ROIS2212,train,pos,150,pos150_id18_im18.bmp_pos150_id18_im11.bmp,['Im_HughJackman.png', 'Im_PatrickDempsey.png', 'Im_RyanReynolds.png', 'Im_BenStiller.png', 'Im_BenAffleck.png', 'Im_BradPitt.png', 'Im_RobertDowneyJr.png', 'Im_LeonardoDiCaprio.png', 'Im_GeorgeClooney.png', 'Im_OrlandoBloom.png'],same,1,1.6662747000000309,17,0,
ROIS2212,train,pos,120,pos120_id17_im14.bmp_pos120_id17_im9.bmp,['Im_HughJackman.png', 'Im_PatrickDempsey.png', 'Im_RyanReynolds.png', 'Im_BenStiller.png', 'Im_BenAffleck.png', 'Im_BradPitt.png', 'Im_RobertDowneyJr.png', 'Im_LeonardoDiCaprio.png', 'Im_GeorgeClooney.png', 'Im_OrlandoBloom.png'],same,1,0.6000782999999501,18,0,
ROIS2212,train,pos,60,pos60_id21_im17.bmp_pos60_id21_im16.bmp,['Im_HughJackman.png', 'Im_PatrickDempsey.png', 'Im_RyanReynolds.png', 'Im_BenStiller.png', 'Im_BenAffleck.png', 'Im_BradPitt.png', 'Im_RobertDowneyJr.png', 'Im_LeonardoDiCaprio.png', 'Im_GeorgeClooney.png', 'Im_OrlandoBloom.png'],same,1,0.4333204999998088,19,0,
ROIS2212,train,pos,30,pos30_id3_im6.bmp_pos30_id3_im17.bmp,['Im_HughJackman.png', 'Im_PatrickDempsey.png', 'Im_RyanReynolds.png', 'Im_BenStiller.png', 'Im_BenAffleck.png', 'Im_BradPitt.png', 'Im_RobertDowneyJr.png', 'Im_LeonardoDiCaprio.png', 'Im_GeorgeClooney.png', 'Im_OrlandoBloom.png'],same,1,0.5169716999998855,20,0,
ROIS2212,train,pos,120,pos120_id18_im11.bmp_pos120_id16_im2.bmp,['Im_HughJackman.png', 'Im_PatrickDempsey.png', 'Im_RyanReynolds.png', 'Im_BenStiller.png', 'Im_BenAffleck.png', 'Im_BradPitt.png', 'Im_RobertDowneyJr.png', 'Im_LeonardoDiCaprio.png', 'Im_GeorgeClooney.png', 'Im_OrlandoBloom.png'],diff,1,2.366525100000217,21,0,
ROIS2212,train,neg,120,neg120_id17_im8.bmp_neg120_id17_im14.bmp,['Im_HughJackman.png', 'Im_PatrickDempsey.png', 'Im_RyanReynolds.png', 'Im_BenStiller.png', 'Im_BenAffleck.png', 'Im_BradPitt.png', 'Im_RobertDowneyJr.png', 'Im_LeonardoDiCaprio.png', 'Im_GeorgeClooney.png', 'Im_OrlandoBloom.png'],same,1,1.1505383000003349,22,0,
ROIS2212,train,neg,60,neg60_id16_im2.bmp_neg60_id1_im21.bmp,['Im_HughJackman.png', 'Im_PatrickDempsey.png', 'Im_RyanReynolds.png', 'Im_BenStiller.png', 'Im_BenAffleck.png', 'Im_BradPitt.png', 'Im_RobertDowneyJr.png', 'Im_LeonardoDiCaprio.png', 'Im_GeorgeClooney.png', 'Im_OrlandoBloom.png'],diff,1,0.5586069999999381,23,0,
ROIS2212,train,neg,60,neg60_id8_im13.bmp_neg60_id17_im9.bmp,['Im_HughJackman.png', 'Im_PatrickDempsey.png', 'Im_RyanReynolds.png', 'Im_BenStiller.png', 'Im_BenAffleck.png', 'Im_BradPitt.png', 'Im_RobertDowneyJr.png', 'Im_LeonardoDiCaprio.png', 'Im_GeorgeClooney.png', 'Im_OrlandoBloom.png'],same,0,3.3334399000000303,23,0,
ROIS2212,train,neg,30,neg30_id3_im17.bmp_neg30_id3_im6.bmp,['Im_HughJackman.png', 'Im_PatrickDempsey.png', 'Im_RyanReynolds.png', 'Im_BenStiller.png', 'Im_BenAffleck.png', 'Im_BradPitt.png', 'Im_RobertDowneyJr.png', 'Im_LeonardoDiCaprio.png', 'Im_GeorgeClooney.png', 'Im_OrlandoBloom.png'],same,1,0.9836432000001878,24,0,
ROIS2212,train,neg,150,neg150_id16_im3.bmp_neg150_id13_im29.bmp,['Im_HughJackman.png', 'Im_PatrickDempsey.png', 'Im_RyanReynolds.png', 'Im_BenStiller.png', 'Im_BenAffleck.png', 'Im_BradPitt.png', 'Im_RobertDowneyJr.png', 'Im_LeonardoDiCaprio.png', 'Im_GeorgeClooney.png', 'Im_OrlandoBloom.png'],diff,1,0.7668128999998771,25,0,
ROIS2212,train,neg,150,neg150_id18_im19.bmp_neg150_id2_im2.bmp,['Im_HughJackman.png', 'Im_PatrickDempsey.png', 'Im_RyanReynolds.png', 'Im_BenStiller.png', 'Im_BenAffleck.png', 'Im_BradPitt.png', 'Im_RobertDowneyJr.png', 'Im_LeonardoDiCaprio.png', 'Im_GeorgeClooney.png', 'Im_OrlandoBloom.png'],same,0,0.8417183999999907,25,0,
ROIS2212,train,neg,90,neg90_id21_im22.bmp_neg90_id3_im6.bmp,['Im_HughJackman.png', 'Im_PatrickDempsey.png', 'Im_RyanReynolds.png', 'Im_BenStiller.png', 'Im_BenAffleck.png', 'Im_BradPitt.png', 'Im_RobertDowneyJr.png', 'Im_LeonardoDiCaprio.png', 'Im_GeorgeClooney.png', 'Im_OrlandoBloom.png'],diff,1,1.3585748999998941,26,0,
ROIS2212,train,neg,30,neg30_id21_im16.bmp_neg30_id21_im22.bmp,['Im_HughJackman.png', 'Im_PatrickDempsey.png', 'Im_RyanReynolds.png', 'Im_BenStiller.png', 'Im_BenAffleck.png', 'Im_BradPitt.png', 'Im_RobertDowneyJr.png', 'Im_LeonardoDiCaprio.png', 'Im_GeorgeClooney.png', 'Im_OrlandoBloom.png'],same,1,1.53323330000012,27,0,
ROIS2212,train,neg,0,neg0_id2_im16.bmp_neg0_id2_im3.bmp,['Im_HughJackman.png', 'Im_PatrickDempsey.png', 'Im_RyanReynolds.png', 'Im_BenStiller.png', 'Im_BenAffleck.png', 'Im_BradPitt.png', 'Im_RobertDowneyJr.png', 'Im_LeonardoDiCaprio.png', 'Im_GeorgeClooney.png', 'Im_OrlandoBloom.png'],same,1,0.7254061999997248,28,0,
ROIS2212,train,neg,fs,negfs_id1_im4.bmp_negfs_id17_im9.bmp,['Im_HughJackman.png', 'Im_PatrickDempsey.png', 'Im_RyanReynolds.png', 'Im_BenStiller.png', 'Im_BenAffleck.png', 'Im_BradPitt.png', 'Im_RobertDowneyJr.png', 'Im_LeonardoDiCaprio.png', 'Im_GeorgeClooney.png', 'Im_OrlandoBloom.png'],diff,1,0.80015289999983,29,0,
ROIS2212,train,neg,0,neg0_id2_im16.bmp_neg0_id16_im3.bmp,['Im_HughJackman.png', 'Im_PatrickDempsey.png', 'Im_RyanReynolds.png', 'Im_BenStiller.png', 'Im_BenAffleck.png', 'Im_BradPitt.png', 'Im_RobertDowneyJr.png', 'Im_LeonardoDiCaprio.png', 'Im_GeorgeClooney.png', 'Im_OrlandoBloom.png'],diff,1,2.8999072000001433,30,0,
ROIS2212,train,neg,90,neg90_id21_im17.bmp_neg90_id21_im22.bmp,['Im_HughJackman.png', 'Im_PatrickDempsey.png', 'Im_RyanReynolds.png', 'Im_BenStiller.png', 'Im_BenAffleck.png', 'Im_BradPitt.png', 'Im_RobertDowneyJr.png', 'Im_LeonardoDiCaprio.png', 'Im_GeorgeClooney.png', 'Im_OrlandoBloom.png'],same,1,0.9170649000002413,31,0,
ROIS2212,train,neg,fs,negfs_id3_im6.bmp_negfs_id3_im8.bmp,['Im_HughJackman.png', 'Im_PatrickDempsey.png', 'Im_RyanReynolds.png', 'Im_BenStiller.png', 'Im_BenAffleck.png', 'Im_BradPitt.png', 'Im_RobertDowneyJr.png', 'Im_LeonardoDiCaprio.png', 'Im_GeorgeClooney.png', 'Im_OrlandoBloom.png'],same,1,0.8668383999997786,32,0,
ROIS2212,train,neg,120,neg120_id21_im22.bmp_neg120_id3_im6.bmp,['Im_HughJackman.png', 'Im_PatrickDempsey.png', 'Im_RyanReynolds.png', 'Im_BenStiller.png', 'Im_BenAffleck.png', 'Im_BradPitt.png', 'Im_RobertDowneyJr.png', 'Im_LeonardoDiCaprio.png', 'Im_GeorgeClooney.png', 'Im_OrlandoBloom.png'],diff,1,3.7998553000002175,33,0,
ROIS2212,train,neg,150,neg150_id18_im11.bmp_neg150_id18_im19.bmp,['Im_HughJackman.png', 'Im_PatrickDempsey.png', 'Im_RyanReynolds.png', 'Im_BenStiller.png', 'Im_BenAffleck.png', 'Im_BradPitt.png', 'Im_RobertDowneyJr.png', 'Im_LeonardoDiCaprio.png', 'Im_GeorgeClooney.png', 'Im_OrlandoBloom.png'],diff,0,1.6502149000002646,0,78.57142857142857,
ROIS2212,train,neg,30,neg30_id21_im17.bmp_neg30_id7_im15.bmp,['Im_HughJackman.png', 'Im_PatrickDempsey.png', 'Im_RyanReynolds.png', 'Im_BenStiller.png', 'Im_BenAffleck.png', 'Im_BradPitt.png', 'Im_RobertDowneyJr.png', 'Im_LeonardoDiCaprio.png', 'Im_GeorgeClooney.png', 'Im_OrlandoBloom.png'],diff,1,1.4500890000003892,1,78.57142857142857,
ROIS2212,train,neg,150,neg150_id13_im15.bmp_neg150_id13_im10.bmp,['Im_HughJackman.png', 'Im_PatrickDempsey.png', 'Im_RyanReynolds.png', 'Im_BenStiller.png', 'Im_BenAffleck.png', 'Im_BradPitt.png', 'Im_RobertDowneyJr.png', 'Im_LeonardoDiCaprio.png', 'Im_GeorgeClooney.png', 'Im_OrlandoBloom.png'],same,1,0.6586427000002004,2,78.57142857142857,
ROIS2212,train,neg,fs,negfs_id16_im19.bmp_negfs_id1_im4.bmp,['Im_HughJackman.png', 'Im_PatrickDempsey.png', 'Im_RyanReynolds.png', 'Im_BenStiller.png', 'Im_BenAffleck.png', 'Im_BradPitt.png', 'Im_RobertDowneyJr.png', 'Im_LeonardoDiCaprio.png', 'Im_GeorgeClooney.png', 'Im_OrlandoBloom.png'],diff,1,0.5503116999998383,3,78.57142857142857,
ROIS2212,train,neg,90,neg90_id16_im2.bmp_neg90_id18_im11.bmp,['Im_HughJackman.png', 'Im_PatrickDempsey.png', 'Im_RyanReynolds.png', 'Im_BenStiller.png', 'Im_BenAffleck.png', 'Im_BradPitt.png', 'Im_RobertDowneyJr.png', 'Im_LeonardoDiCaprio.png', 'Im_GeorgeClooney.png', 'Im_OrlandoBloom.png'],diff,1,0.8753520000000208,4,78.57142857142857,
ROIS2212,train,neg,fs,negfs_id7_im26.bmp_negfs_id21_im17.bmp,['Im_HughJackman.png', 'Im_PatrickDempsey.png', 'Im_RyanReynolds.png', 'Im_BenStiller.png', 'Im_BenAffleck.png', 'Im_BradPitt.png', 'Im_RobertDowneyJr.png', 'Im_LeonardoDiCaprio.png', 'Im_GeorgeClooney.png', 'Im_OrlandoBloom.png'],diff,1,0.7335455999996157,5,78.57142857142857,
ROIS2212,train,neg,60,neg60_id16_im19.bmp_neg60_id16_im3.bmp,['Im_HughJackman.png', 'Im_PatrickDempsey.png', 'Im_RyanReynolds.png', 'Im_BenStiller.png', 'Im_BenAffleck.png', 'Im_BradPitt.png', 'Im_RobertDowneyJr.png', 'Im_LeonardoDiCaprio.png', 'Im_GeorgeClooney.png', 'Im_OrlandoBloom.png'],same,1,1.2166568999996343,6,78.57142857142857,
ROIS2212,train,neg,60,neg60_id3_im6.bmp_neg60_id3_im17.bmp,['Im_HughJackman.png', 'Im_PatrickDempsey.png', 'Im_RyanReynolds.png', 'Im_BenStiller.png', 'Im_BenAffleck.png', 'Im_BradPitt.png', 'Im_RobertDowneyJr.png', 'Im_LeonardoDiCaprio.png', 'Im_GeorgeClooney.png', 'Im_OrlandoBloom.png'],diff,0,0.7670573000000331,6,78.57142857142857,
ROIS2212,train,neg,0,neg0_id21_im22.bmp_neg0_id21_im16.bmp,['Im_HughJackman.png', 'Im_PatrickDempsey.png', 'Im_RyanReynolds.png', 'Im_BenStiller.png', 'Im_BenAffleck.png', 'Im_BradPitt.png', 'Im_RobertDowneyJr.png', 'Im_LeonardoDiCaprio.png', 'Im_GeorgeClooney.png', 'Im_OrlandoBloom.png'],same,1,0.7167023999995763,7,78.57142857142857,
ROIS2212,train,neg,120,neg120_id1_im21.bmp_neg120_id3_im17.bmp,['Im_HughJackman.png', 'Im_PatrickDempsey.png', 'Im_RyanReynolds.png', 'Im_BenStiller.png', 'Im_BenAffleck.png', 'Im_BradPitt.png', 'Im_RobertDowneyJr.png', 'Im_LeonardoDiCaprio.png', 'Im_GeorgeClooney.png', 'Im_OrlandoBloom.png'],diff,1,0.550266400000055,8,78.57142857142857,
ROIS2212,train,neg,120,neg120_id1_im24.bmp_neg120_id1_im4.bmp,['Im_HughJackman.png', 'Im_PatrickDempsey.png', 'Im_RyanReynolds.png', 'Im_BenStiller.png', 'Im_BenAffleck.png', 'Im_BradPitt.png', 'Im_RobertDowneyJr.png', 'Im_LeonardoDiCaprio.png', 'Im_GeorgeClooney.png', 'Im_OrlandoBloom.png'],same,1,0.8666438000000198,9,78.57142857142857,
ROIS2212,train,neg,30,neg30_id16_im19.bmp_neg30_id17_im8.bmp,['Im_HughJackman.png', 'Im_PatrickDempsey.png', 'Im_RyanReynolds.png', 'Im_BenStiller.png', 'Im_BenAffleck.png', 'Im_BradPitt.png', 'Im_RobertDowneyJr.png', 'Im_LeonardoDiCaprio.png', 'Im_GeorgeClooney.png', 'Im_OrlandoBloom.png'],diff,1,0.8667292999998608,10,78.57142857142857,
ROIS2212,train,neg,0,neg0_id18_im11.bmp_neg0_id18_im19.bmp,['Im_HughJackman.png', 'Im_PatrickDempsey.png', 'Im_RyanReynolds.png', 'Im_BenStiller.png', 'Im_BenAffleck.png', 'Im_BradPitt.png', 'Im_RobertDowneyJr.png', 'Im_LeonardoDiCaprio.png', 'Im_GeorgeClooney.png', 'Im_OrlandoBloom.png'],diff,0,3.0499371000000792,10,78.57142857142857,
ROIS2212,train,neg,90,neg90_id17_im8.bmp_neg90_id7_im15.bmp,['Im_HughJackman.png', 'Im_PatrickDempsey.png', 'Im_RyanReynolds.png', 'Im_BenStiller.png', 'Im_BenAffleck.png', 'Im_BradPitt.png', 'Im_RobertDowneyJr.png', 'Im_LeonardoDiCaprio.png', 'Im_GeorgeClooney.png', 'Im_OrlandoBloom.png'],same,0,1.2169004999996105,10,78.57142857142857,
ROIS2212,train,inv,30,pos30_id3_im17.bmp_pos30_id3_im8.bmp,['Im_HughJackman.png', 'Im_PatrickDempsey.png', 'Im_RyanReynolds.png', 'Im_BenStiller.png', 'Im_BenAffleck.png', 'Im_BradPitt.png', 'Im_RobertDowneyJr.png', 'Im_LeonardoDiCaprio.png', 'Im_GeorgeClooney.png', 'Im_OrlandoBloom.png'],same,1,1.383448000000044,11,78.57142857142857,
ROIS2212,train,inv,fs,posfs_id7_im26.bmp_posfs_id7_im15.bmp,['Im_HughJackman.png', 'Im_PatrickDempsey.png', 'Im_RyanReynolds.png', 'Im_BenStiller.png', 'Im_BenAffleck.png', 'Im_BradPitt.png', 'Im_RobertDowneyJr.png', 'Im_LeonardoDiCaprio.png', 'Im_GeorgeClooney.png', 'Im_OrlandoBloom.png'],same,1,0.7836027999996986,12,78.57142857142857,
ROIS2212,train,inv,120,pos120_id16_im19.bmp_pos120_id16_im2.bmp,['Im_HughJackman.png', 'Im_PatrickDempsey.png', 'Im_RyanReynolds.png', 'Im_BenStiller.png', 'Im_BenAffleck.png', 'Im_BradPitt.png', 'Im_RobertDowneyJr.png', 'Im_LeonardoDiCaprio.png', 'Im_GeorgeClooney.png', 'Im_OrlandoBloom.png'],same,1,1.6919428000001062,13,78.57142857142857,
ROIS2212,train,inv,120,pos120_id18_im11.bmp_pos120_id16_im2.bmp,['Im_HughJackman.png', 'Im_PatrickDempsey.png', 'Im_RyanReynolds.png', 'Im_BenStiller.png', 'Im_BenAffleck.png', 'Im_BradPitt.png', 'Im_RobertDowneyJr.png', 'Im_LeonardoDiCaprio.png', 'Im_GeorgeClooney.png', 'Im_OrlandoBloom.png'],same,0,2.7837129000004097,13,78.57142857142857,
ROIS2212,train,inv,0,pos0_id2_im3.bmp_pos0_id2_im2.bmp,['Im_HughJackman.png', 'Im_PatrickDempsey.png', 'Im_RyanReynolds.png', 'Im_BenStiller.png', 'Im_BenAffleck.png', 'Im_BradPitt.png', 'Im_RobertDowneyJr.png', 'Im_LeonardoDiCaprio.png', 'Im_GeorgeClooney.png', 'Im_OrlandoBloom.png'],none,0,4.416672600000311,13,78.57142857142857,
ROIS2212,train,inv,0,pos0_id8_im20.bmp_pos0_id8_im13.bmp,['Im_HughJackman.png', 'Im_PatrickDempsey.png', 'Im_RyanReynolds.png', 'Im_BenStiller.png', 'Im_BenAffleck.png', 'Im_BradPitt.png', 'Im_RobertDowneyJr.png', 'Im_LeonardoDiCaprio.png', 'Im_GeorgeClooney.png', 'Im_OrlandoBloom.png'],same,1,2.2583541000003606,14,78.57142857142857,
ROIS2212,train,inv,fs,posfs_id3_im6.bmp_posfs_id21_im22.bmp,['Im_HughJackman.png', 'Im_PatrickDempsey.png', 'Im_RyanReynolds.png', 'Im_BenStiller.png', 'Im_BenAffleck.png', 'Im_BradPitt.png', 'Im_RobertDowneyJr.png', 'Im_LeonardoDiCaprio.png', 'Im_GeorgeClooney.png', 'Im_OrlandoBloom.png'],diff,1,0.5834641999999803,15,78.57142857142857,
ROIS2212,train,inv,60,pos60_id8_im21.bmp_pos60_id1_im24.bmp,['Im_HughJackman.png', 'Im_PatrickDempsey.png', 'Im_RyanReynolds.png', 'Im_BenStiller.png', 'Im_BenAffleck.png', 'Im_BradPitt.png', 'Im_RobertDowneyJr.png', 'Im_LeonardoDiCaprio.png', 'Im_GeorgeClooney.png', 'Im_OrlandoBloom.png'],diff,1,0.7834885000002032,16,78.57142857142857,
ROIS2212,train,inv,150,pos150_id16_im3.bmp_pos150_id2_im16.bmp,['Im_HughJackman.png', 'Im_PatrickDempsey.png', 'Im_RyanReynolds.png', 'Im_BenStiller.png', 'Im_BenAffleck.png', 'Im_BradPitt.png', 'Im_RobertDowneyJr.png', 'Im_LeonardoDiCaprio.png', 'Im_GeorgeClooney.png', 'Im_OrlandoBloom.png'],diff,1,0.9919221000000107,17,78.57142857142857,
ROIS2212,train,inv,60,pos60_id18_im11.bmp_pos60_id18_im18.bmp,['Im_HughJackman.png', 'Im_PatrickDempsey.png', 'Im_RyanReynolds.png', 'Im_BenStiller.png', 'Im_BenAffleck.png', 'Im_BradPitt.png', 'Im_RobertDowneyJr.png', 'Im_LeonardoDiCaprio.png', 'Im_GeorgeClooney.png', 'Im_OrlandoBloom.png'],diff,0,2.4167065000001458,17,78.57142857142857,
ROIS2212,train,inv,150,pos150_id7_im26.bmp_pos150_id21_im17.bmp,['Im_HughJackman.png', 'Im_PatrickDempsey.png', 'Im_RyanReynolds.png', 'Im_BenStiller.png', 'Im_BenAffleck.png', 'Im_BradPitt.png', 'Im_RobertDowneyJr.png', 'Im_LeonardoDiCaprio.png', 'Im_GeorgeClooney.png', 'Im_OrlandoBloom.png'],diff,1,0.7416699999998855,18,78.57142857142857,
ROIS2212,train,inv,30,pos30_id7_im14.bmp_pos30_id7_im15.bmp,['Im_HughJackman.png', 'Im_PatrickDempsey.png', 'Im_RyanReynolds.png', 'Im_BenStiller.png', 'Im_BenAffleck.png', 'Im_BradPitt.png', 'Im_RobertDowneyJr.png', 'Im_LeonardoDiCaprio.png', 'Im_GeorgeClooney.png', 'Im_OrlandoBloom.png'],same,1,0.9583794000000125,19,78.57142857142857,
ROIS2212,train,inv,90,pos90_id2_im2.bmp_pos90_id2_im3.bmp,['Im_HughJackman.png', 'Im_PatrickDempsey.png', 'Im_RyanReynolds.png', 'Im_BenStiller.png', 'Im_BenAffleck.png', 'Im_BradPitt.png', 'Im_RobertDowneyJr.png', 'Im_LeonardoDiCaprio.png', 'Im_GeorgeClooney.png', 'Im_OrlandoBloom.png'],same,1,0.8249875000001339,20,78.57142857142857,
ROIS2212,train,inv,90,pos90_id3_im8.bmp_pos90_id18_im19.bmp,['Im_HughJackman.png', 'Im_PatrickDempsey.png', 'Im_RyanReynolds.png', 'Im_BenStiller.png', 'Im_BenAffleck.png', 'Im_BradPitt.png', 'Im_RobertDowneyJr.png', 'Im_LeonardoDiCaprio.png', 'Im_GeorgeClooney.png', 'Im_OrlandoBloom.png'],diff,1,0.8331667000002199,21,78.57142857142857,
ROIS2212,train,pos,60,pos60_id7_im14.bmp_pos60_id7_im15.bmp,['Im_HughJackman.png', 'Im_PatrickDempsey.png', 'Im_RyanReynolds.png', 'Im_BenStiller.png', 'Im_BenAffleck.png', 'Im_BradPitt.png', 'Im_RobertDowneyJr.png', 'Im_LeonardoDiCaprio.png', 'Im_GeorgeClooney.png', 'Im_OrlandoBloom.png'],same,1,0.6419582999997147,22,78.57142857142857,
ROIS2212,train,pos,60,pos60_id17_im9.bmp_pos60_id17_im14.bmp,['Im_HughJackman.png', 'Im_PatrickDempsey.png', 'Im_RyanReynolds.png', 'Im_BenStiller.png', 'Im_BenAffleck.png', 'Im_BradPitt.png', 'Im_RobertDowneyJr.png', 'Im_LeonardoDiCaprio.png', 'Im_GeorgeClooney.png', 'Im_OrlandoBloom.png'],same,1,2.558343199999854,23,78.57142857142857,
ROIS2212,train,pos,120,pos120_id3_im17.bmp_pos120_id7_im14.bmp,['Im_HughJackman.png', 'Im_PatrickDempsey.png', 'Im_RyanReynolds.png', 'Im_BenStiller.png', 'Im_BenAffleck.png', 'Im_BradPitt.png', 'Im_RobertDowneyJr.png', 'Im_LeonardoDiCaprio.png', 'Im_GeorgeClooney.png', 'Im_OrlandoBloom.png'],diff,1,2.6504064000000653,24,78.57142857142857,
ROIS2212,train,pos,0,pos0_id8_im20.bmp_pos0_id21_im16.bmp,['Im_HughJackman.png', 'Im_PatrickDempsey.png', 'Im_RyanReynolds.png', 'Im_BenStiller.png', 'Im_BenAffleck.png', 'Im_BradPitt.png', 'Im_RobertDowneyJr.png', 'Im_LeonardoDiCaprio.png', 'Im_GeorgeClooney.png', 'Im_OrlandoBloom.png'],none,1,4.416786700000102,24,78.57142857142857,
ROIS2212,train,pos,fs,posfs_id3_im17.bmp_posfs_id1_im21.bmp,['Im_HughJackman.png', 'Im_PatrickDempsey.png', 'Im_RyanReynolds.png', 'Im_BenStiller.png', 'Im_BenAffleck.png', 'Im_BradPitt.png', 'Im_RobertDowneyJr.png', 'Im_LeonardoDiCaprio.png', 'Im_GeorgeClooney.png', 'Im_OrlandoBloom.png'],diff,1,0.5833818000000974,25,78.57142857142857,
ROIS2212,train,pos,150,pos150_id1_im24.bmp_pos150_id8_im21.bmp,['Im_HughJackman.png', 'Im_PatrickDempsey.png', 'Im_RyanReynolds.png', 'Im_BenStiller.png', 'Im_BenAffleck.png', 'Im_BradPitt.png', 'Im_RobertDowneyJr.png', 'Im_LeonardoDiCaprio.png', 'Im_GeorgeClooney.png', 'Im_OrlandoBloom.png'],diff,1,1.025046199999906,26,78.57142857142857,
ROIS2212,train,pos,120,pos120_id18_im18.bmp_pos120_id18_im11.bmp,['Im_HughJackman.png', 'Im_PatrickDempsey.png', 'Im_RyanReynolds.png', 'Im_BenStiller.png', 'Im_BenAffleck.png', 'Im_BradPitt.png', 'Im_RobertDowneyJr.png', 'Im_LeonardoDiCaprio.png', 'Im_GeorgeClooney.png', 'Im_OrlandoBloom.png'],same,1,0.5002160999997614,27,78.57142857142857,
ROIS2212,train,pos,150,pos150_id13_im10.bmp_pos150_id7_im14.bmp,['Im_HughJackman.png', 'Im_PatrickDempsey.png', 'Im_RyanReynolds.png', 'Im_BenStiller.png', 'Im_BenAffleck.png', 'Im_BradPitt.png', 'Im_RobertDowneyJr.png', 'Im_LeonardoDiCaprio.png', 'Im_GeorgeClooney.png', 'Im_OrlandoBloom.png'],diff,1,0.5668931000000157,28,78.57142857142857,
ROIS2212,train,pos,30,pos30_id2_im2.bmp_pos30_id13_im15.bmp,['Im_HughJackman.png', 'Im_PatrickDempsey.png', 'Im_RyanReynolds.png', 'Im_BenStiller.png', 'Im_BenAffleck.png', 'Im_BradPitt.png', 'Im_RobertDowneyJr.png', 'Im_LeonardoDiCaprio.png', 'Im_GeorgeClooney.png', 'Im_OrlandoBloom.png'],diff,1,0.5585578999998688,29,78.57142857142857,
ROIS2212,train,pos,90,pos90_id3_im8.bmp_pos90_id18_im18.bmp,['Im_HughJackman.png', 'Im_PatrickDempsey.png', 'Im_RyanReynolds.png', 'Im_BenStiller.png', 'Im_BenAffleck.png', 'Im_BradPitt.png', 'Im_RobertDowneyJr.png', 'Im_LeonardoDiCaprio.png', 'Im_GeorgeClooney.png', 'Im_OrlandoBloom.png'],diff,1,1.0004409000002852,30,78.57142857142857,
ROIS2212,train,pos,90,pos90_id1_im4.bmp_pos90_id16_im19.bmp,['Im_HughJackman.png', 'Im_PatrickDempsey.png', 'Im_RyanReynolds.png', 'Im_BenStiller.png', 'Im_BenAffleck.png', 'Im_BradPitt.png', 'Im_RobertDowneyJr.png', 'Im_LeonardoDiCaprio.png', 'Im_GeorgeClooney.png', 'Im_OrlandoBloom.png'],same,0,1.20040199999994,30,78.57142857142857,
ROIS2212,train,pos,30,pos30_id21_im22.bmp_pos30_id3_im6.bmp,['Im_HughJackman.png', 'Im_PatrickDempsey.png', 'Im_RyanReynolds.png', 'Im_BenStiller.png', 'Im_BenAffleck.png', 'Im_BradPitt.png', 'Im_RobertDowneyJr.png', 'Im_LeonardoDiCaprio.png', 'Im_GeorgeClooney.png', 'Im_OrlandoBloom.png'],diff,1,0.5666910999998436,31,78.57142857142857,
ROIS2212,train,pos,fs,posfs_id18_im19.bmp_posfs_id3_im8.bmp,['Im_HughJackman.png', 'Im_PatrickDempsey.png', 'Im_RyanReynolds.png', 'Im_BenStiller.png', 'Im_BenAffleck.png', 'Im_BradPitt.png', 'Im_RobertDowneyJr.png', 'Im_LeonardoDiCaprio.png', 'Im_GeorgeClooney.png', 'Im_OrlandoBloom.png'],diff,1,1.5749175000000832,32,78.57142857142857,
ROIS2212,train,pos,0,pos0_id3_im8.bmp_pos0_id18_im19.bmp,['Im_HughJackman.png', 'Im_PatrickDempsey.png', 'Im_RyanReynolds.png', 'Im_BenStiller.png', 'Im_BenAffleck.png', 'Im_BradPitt.png', 'Im_RobertDowneyJr.png', 'Im_LeonardoDiCaprio.png', 'Im_GeorgeClooney.png', 'Im_OrlandoBloom.png'],diff,1,0.9833128000000215,33,78.57142857142857,
ROIS2212,0,pos,90,pos90_id7_im15.bmp_pos90_id17_im8.bmp,['Im_HughJackman.png', 'Im_PatrickDempsey.png', 'Im_RyanReynolds.png', 'Im_BenStiller.png', 'Im_BenAffleck.png', 'Im_BradPitt.png', 'Im_RobertDowneyJr.png', 'Im_LeonardoDiCaprio.png', 'Im_GeorgeClooney.png', 'Im_OrlandoBloom.png'],diff,1,1.7916955000000598,1,0,
ROIS2212,0,pos,90,pos90_id13_im15.bmp_pos90_id13_im29.bmp,['Im_HughJackman.png', 'Im_PatrickDempsey.png', 'Im_RyanReynolds.png', 'Im_BenStiller.png', 'Im_BenAffleck.png', 'Im_BradPitt.png', 'Im_RobertDowneyJr.png', 'Im_LeonardoDiCaprio.png', 'Im_GeorgeClooney.png', 'Im_OrlandoBloom.png'],diff,0,0.8586576000002424,1,0,
ROIS2212,0,pos,120,pos120_id13_im29.bmp_pos120_id16_im3.bmp,['Im_HughJackman.png', 'Im_PatrickDempsey.png', 'Im_RyanReynolds.png', 'Im_BenStiller.png', 'Im_BenAffleck.png', 'Im_BradPitt.png', 'Im_RobertDowneyJr.png', 'Im_LeonardoDiCaprio.png', 'Im_GeorgeClooney.png', 'Im_OrlandoBloom.png'],diff,1,0.5169684000002235,2,0,
ROIS2212,0,pos,fs,posfs_id13_im10.bmp_posfs_id2_im16.bmp,['Im_HughJackman.png', 'Im_PatrickDempsey.png', 'Im_RyanReynolds.png', 'Im_BenStiller.png', 'Im_BenAffleck.png', 'Im_BradPitt.png', 'Im_RobertDowneyJr.png', 'Im_LeonardoDiCaprio.png', 'Im_GeorgeClooney.png', 'Im_OrlandoBloom.png'],diff,1,0.4919068999997762,3,0,
ROIS2212,0,pos,0,pos0_id13_im29.bmp_pos0_id13_im15.bmp,['Im_HughJackman.png', 'Im_PatrickDempsey.png', 'Im_RyanReynolds.png', 'Im_BenStiller.png', 'Im_BenAffleck.png', 'Im_BradPitt.png', 'Im_RobertDowneyJr.png', 'Im_LeonardoDiCaprio.png', 'Im_GeorgeClooney.png', 'Im_OrlandoBloom.png'],same,1,2.041571700000077,4,0,
ROIS2212,0,pos,150,pos150_id21_im16.bmp_pos150_id21_im22.bmp,['Im_HughJackman.png', 'Im_PatrickDempsey.png', 'Im_RyanReynolds.png', 'Im_BenStiller.png', 'Im_BenAffleck.png', 'Im_BradPitt.png', 'Im_RobertDowneyJr.png', 'Im_LeonardoDiCaprio.png', 'Im_GeorgeClooney.png', 'Im_OrlandoBloom.png'],same,1,0.8083467999999812,5,0,
ROIS2212,0,pos,60,pos60_id18_im19.bmp_pos60_id18_im11.bmp,['Im_HughJackman.png', 'Im_PatrickDempsey.png', 'Im_RyanReynolds.png', 'Im_BenStiller.png', 'Im_BenAffleck.png', 'Im_BradPitt.png', 'Im_RobertDowneyJr.png', 'Im_LeonardoDiCaprio.png', 'Im_GeorgeClooney.png', 'Im_OrlandoBloom.png'],same,1,1.0002455999997437,6,0,
ROIS2212,0,pos,120,pos120_id13_im15.bmp_pos120_id2_im2.bmp,['Im_HughJackman.png', 'Im_PatrickDempsey.png', 'Im_RyanReynolds.png', 'Im_BenStiller.png', 'Im_BenAffleck.png', 'Im_BradPitt.png', 'Im_RobertDowneyJr.png', 'Im_LeonardoDiCaprio.png', 'Im_GeorgeClooney.png', 'Im_OrlandoBloom.png'],diff,1,0.9419380999997884,7,0,
ROIS2212,0,pos,30,pos30_id16_im2.bmp_pos30_id1_im21.bmp,['Im_HughJackman.png', 'Im_PatrickDempsey.png', 'Im_RyanReynolds.png', 'Im_BenStiller.png', 'Im_BenAffleck.png', 'Im_BradPitt.png', 'Im_RobertDowneyJr.png', 'Im_LeonardoDiCaprio.png', 'Im_GeorgeClooney.png', 'Im_OrlandoBloom.png'],diff,1,0.675322099999903,8,0,
ROIS2212,0,pos,30,pos30_id7_im15.bmp_pos30_id7_im14.bmp,['Im_HughJackman.png', 'Im_PatrickDempsey.png', 'Im_RyanReynolds.png', 'Im_BenStiller.png', 'Im_BenAffleck.png', 'Im_BradPitt.png', 'Im_RobertDowneyJr.png', 'Im_LeonardoDiCaprio.png', 'Im_GeorgeClooney.png', 'Im_OrlandoBloom.png'],same,1,0.9916730999998435,9,0,
ROIS2212,0,pos,fs,posfs_id16_im19.bmp_posfs_id16_im3.bmp,['Im_HughJackman.png', 'Im_PatrickDempsey.png', 'Im_RyanReynolds.png', 'Im_BenStiller.png', 'Im_BenAffleck.png', 'Im_BradPitt.png', 'Im_RobertDowneyJr.png', 'Im_LeonardoDiCaprio.png', 'Im_GeorgeClooney.png', 'Im_OrlandoBloom.png'],same,1,2.4249800000002324,10,0,
ROIS2212,0,pos,0,pos0_id8_im21.bmp_pos0_id1_im24.bmp,['Im_HughJackman.png', 'Im_PatrickDempsey.png', 'Im_RyanReynolds.png', 'Im_BenStiller.png', 'Im_BenAffleck.png', 'Im_BradPitt.png', 'Im_RobertDowneyJr.png', 'Im_LeonardoDiCaprio.png', 'Im_GeorgeClooney.png', 'Im_OrlandoBloom.png'],diff,1,0.5750832999997328,11,0,
ROIS2212,0,pos,150,pos150_id18_im11.bmp_pos150_id16_im2.bmp,['Im_HughJackman.png', 'Im_PatrickDempsey.png', 'Im_RyanReynolds.png', 'Im_BenStiller.png', 'Im_BenAffleck.png', 'Im_BradPitt.png', 'Im_RobertDowneyJr.png', 'Im_LeonardoDiCaprio.png', 'Im_GeorgeClooney.png', 'Im_OrlandoBloom.png'],diff,1,0.4752955999997539,12,0,
ROIS2212,0,pos,60,pos60_id2_im16.bmp_pos60_id16_im3.bmp,['Im_HughJackman.png', 'Im_PatrickDempsey.png', 'Im_RyanReynolds.png', 'Im_BenStiller.png', 'Im_BenAffleck.png', 'Im_BradPitt.png', 'Im_RobertDowneyJr.png', 'Im_LeonardoDiCaprio.png', 'Im_GeorgeClooney.png', 'Im_OrlandoBloom.png'],diff,1,0.5502003000001423,13,0,
ROIS2212,1,neg,0,neg0_id3_im8.bmp_neg0_id3_im6.bmp,['Im_HughJackman.png', 'Im_PatrickDempsey.png', 'Im_RyanReynolds.png', 'Im_BenStiller.png', 'Im_BenAffleck.png', 'Im_BradPitt.png', 'Im_RobertDowneyJr.png', 'Im_LeonardoDiCaprio.png', 'Im_GeorgeClooney.png', 'Im_OrlandoBloom.png'],same,1,0.6169170999996823,14,0,
ROIS2212,1,neg,0,neg0_id3_im8.bmp_neg0_id3_im17.bmp,['Im_HughJackman.png', 'Im_PatrickDempsey.png', 'Im_RyanReynolds.png', 'Im_BenStiller.png', 'Im_BenAffleck.png', 'Im_BradPitt.png', 'Im_RobertDowneyJr.png', 'Im_LeonardoDiCaprio.png', 'Im_GeorgeClooney.png', 'Im_OrlandoBloom.png'],same,1,0.9001385999999911,15,0,
ROIS2212,1,neg,30,neg30_id16_im2.bmp_neg30_id16_im3.bmp,['Im_HughJackman.png', 'Im_PatrickDempsey.png', 'Im_RyanReynolds.png', 'Im_BenStiller.png', 'Im_BenAffleck.png', 'Im_BradPitt.png', 'Im_RobertDowneyJr.png', 'Im_LeonardoDiCaprio.png', 'Im_GeorgeClooney.png', 'Im_OrlandoBloom.png'],same,1,0.5252833999998074,16,0,
ROIS2212,1,neg,120,neg120_id1_im4.bmp_neg120_id17_im9.bmp,['Im_HughJackman.png', 'Im_PatrickDempsey.png', 'Im_RyanReynolds.png', 'Im_BenStiller.png', 'Im_BenAffleck.png', 'Im_BradPitt.png', 'Im_RobertDowneyJr.png', 'Im_LeonardoDiCaprio.png', 'Im_GeorgeClooney.png', 'Im_OrlandoBloom.png'],same,0,1.0836169999997765,16,0,
ROIS2212,1,neg,60,neg60_id13_im10.bmp_neg60_id2_im16.bmp,['Im_HughJackman.png', 'Im_PatrickDempsey.png', 'Im_RyanReynolds.png', 'Im_BenStiller.png', 'Im_BenAffleck.png', 'Im_BradPitt.png', 'Im_RobertDowneyJr.png', 'Im_LeonardoDiCaprio.png', 'Im_GeorgeClooney.png', 'Im_OrlandoBloom.png'],diff,1,0.9002802999998494,17,0,
ROIS2212,1,neg,120,neg120_id13_im29.bmp_neg120_id13_im10.bmp,['Im_HughJackman.png', 'Im_PatrickDempsey.png', 'Im_RyanReynolds.png', 'Im_BenStiller.png', 'Im_BenAffleck.png', 'Im_BradPitt.png', 'Im_RobertDowneyJr.png', 'Im_LeonardoDiCaprio.png', 'Im_GeorgeClooney.png', 'Im_OrlandoBloom.png'],same,1,1.4085844999999608,18,0,
ROIS2212,1,neg,30,neg30_id13_im10.bmp_neg30_id13_im15.bmp,['Im_HughJackman.png', 'Im_PatrickDempsey.png', 'Im_RyanReynolds.png', 'Im_BenStiller.png', 'Im_BenAffleck.png', 'Im_BradPitt.png', 'Im_RobertDowneyJr.png', 'Im_LeonardoDiCaprio.png', 'Im_GeorgeClooney.png', 'Im_OrlandoBloom.png'],same,1,0.4920193999996627,19,0,
ROIS2212,1,neg,150,neg150_id1_im21.bmp_neg150_id1_im4.bmp,['Im_HughJackman.png', 'Im_PatrickDempsey.png', 'Im_RyanReynolds.png', 'Im_BenStiller.png', 'Im_BenAffleck.png', 'Im_BradPitt.png', 'Im_RobertDowneyJr.png', 'Im_LeonardoDiCaprio.png', 'Im_GeorgeClooney.png', 'Im_OrlandoBloom.png'],same,1,0.8336927000000287,20,0,
ROIS2212,1,neg,fs,negfs_id13_im15.bmp_negfs_id18_im18.bmp,['Im_HughJackman.png', 'Im_PatrickDempsey.png', 'Im_RyanReynolds.png', 'Im_BenStiller.png', 'Im_BenAffleck.png', 'Im_BradPitt.png', 'Im_RobertDowneyJr.png', 'Im_LeonardoDiCaprio.png', 'Im_GeorgeClooney.png', 'Im_OrlandoBloom.png'],diff,1,0.7834029999999075,21,0,
ROIS2212,1,neg,60,neg60_id8_im13.bmp_neg60_id8_im20.bmp,['Im_HughJackman.png', 'Im_PatrickDempsey.png', 'Im_RyanReynolds.png', 'Im_BenStiller.png', 'Im_BenAffleck.png', 'Im_BradPitt.png', 'Im_RobertDowneyJr.png', 'Im_LeonardoDiCaprio.png', 'Im_GeorgeClooney.png', 'Im_OrlandoBloom.png'],same,1,1.1832299000002422,22,0,
ROIS2212,1,neg,fs,negfs_id2_im16.bmp_negfs_id2_im2.bmp,['Im_HughJackman.png', 'Im_PatrickDempsey.png', 'Im_RyanReynolds.png', 'Im_BenStiller.png', 'Im_BenAffleck.png', 'Im_BradPitt.png', 'Im_RobertDowneyJr.png', 'Im_LeonardoDiCaprio.png', 'Im_GeorgeClooney.png', 'Im_OrlandoBloom.png'],same,1,1.7834121000000778,23,0,
ROIS2212,1,neg,90,neg90_id18_im18.bmp_neg90_id18_im19.bmp,['Im_HughJackman.png', 'Im_PatrickDempsey.png', 'Im_RyanReynolds.png', 'Im_BenStiller.png', 'Im_BenAffleck.png', 'Im_BradPitt.png', 'Im_RobertDowneyJr.png', 'Im_LeonardoDiCaprio.png', 'Im_GeorgeClooney.png', 'Im_OrlandoBloom.png'],same,1,1.416823900000054,24,0,
ROIS2212,1,neg,90,neg90_id7_im26.bmp_neg90_id21_im17.bmp,['Im_HughJackman.png', 'Im_PatrickDempsey.png', 'Im_RyanReynolds.png', 'Im_BenStiller.png', 'Im_BenAffleck.png', 'Im_BradPitt.png', 'Im_RobertDowneyJr.png', 'Im_LeonardoDiCaprio.png', 'Im_GeorgeClooney.png', 'Im_OrlandoBloom.png'],diff,1,0.47532920000003287,25,0,
ROIS2212,1,neg,150,neg150_id16_im19.bmp_neg150_id16_im3.bmp,['Im_HughJackman.png', 'Im_PatrickDempsey.png', 'Im_RyanReynolds.png', 'Im_BenStiller.png', 'Im_BenAffleck.png', 'Im_BradPitt.png', 'Im_RobertDowneyJr.png', 'Im_LeonardoDiCaprio.png', 'Im_GeorgeClooney.png', 'Im_OrlandoBloom.png'],same,1,1.1340328000001136,26,0,
ROIS2212,2,inv,60,pos60_id2_im3.bmp_pos60_id18_im11.bmp,['Im_HughJackman.png', 'Im_PatrickDempsey.png', 'Im_RyanReynolds.png', 'Im_BenStiller.png', 'Im_BenAffleck.png', 'Im_BradPitt.png', 'Im_RobertDowneyJr.png', 'Im_LeonardoDiCaprio.png', 'Im_GeorgeClooney.png', 'Im_OrlandoBloom.png'],diff,1,3.1833435999997164,27,0,
ROIS2212,2,inv,30,pos30_id18_im19.bmp_pos30_id3_im8.bmp,['Im_HughJackman.png', 'Im_PatrickDempsey.png', 'Im_RyanReynolds.png', 'Im_BenStiller.png', 'Im_BenAffleck.png', 'Im_BradPitt.png', 'Im_RobertDowneyJr.png', 'Im_LeonardoDiCaprio.png', 'Im_GeorgeClooney.png', 'Im_OrlandoBloom.png'],diff,1,0.43361109999978,28,0,
ROIS2212,2,inv,90,pos90_id13_im29.bmp_pos90_id16_im3.bmp,['Im_HughJackman.png', 'Im_PatrickDempsey.png', 'Im_RyanReynolds.png', 'Im_BenStiller.png', 'Im_BenAffleck.png', 'Im_BradPitt.png', 'Im_RobertDowneyJr.png', 'Im_LeonardoDiCaprio.png', 'Im_GeorgeClooney.png', 'Im_OrlandoBloom.png'],same,0,0.6500980999999229,28,0,
ROIS2212,2,inv,0,pos0_id3_im6.bmp_pos0_id8_im13.bmp,['Im_HughJackman.png', 'Im_PatrickDempsey.png', 'Im_RyanReynolds.png', 'Im_BenStiller.png', 'Im_BenAffleck.png', 'Im_BradPitt.png', 'Im_RobertDowneyJr.png', 'Im_LeonardoDiCaprio.png', 'Im_GeorgeClooney.png', 'Im_OrlandoBloom.png'],diff,1,1.4668486999999004,29,0,
ROIS2212,2,inv,90,pos90_id16_im2.bmp_pos90_id18_im11.bmp,['Im_HughJackman.png', 'Im_PatrickDempsey.png', 'Im_RyanReynolds.png', 'Im_BenStiller.png', 'Im_BenAffleck.png', 'Im_BradPitt.png', 'Im_RobertDowneyJr.png', 'Im_LeonardoDiCaprio.png', 'Im_GeorgeClooney.png', 'Im_OrlandoBloom.png'],diff,1,0.7666452999997091,30,0,
ROIS2212,2,inv,60,pos60_id21_im16.bmp_pos60_id17_im14.bmp,['Im_HughJackman.png', 'Im_PatrickDempsey.png', 'Im_RyanReynolds.png', 'Im_BenStiller.png', 'Im_BenAffleck.png', 'Im_BradPitt.png', 'Im_RobertDowneyJr.png', 'Im_LeonardoDiCaprio.png', 'Im_GeorgeClooney.png', 'Im_OrlandoBloom.png'],diff,1,1.7419906000000083,31,0,
ROIS2212,2,inv,150,pos150_id3_im17.bmp_pos150_id7_im14.bmp,['Im_HughJackman.png', 'Im_PatrickDempsey.png', 'Im_RyanReynolds.png', 'Im_BenStiller.png', 'Im_BenAffleck.png', 'Im_BradPitt.png', 'Im_RobertDowneyJr.png', 'Im_LeonardoDiCaprio.png', 'Im_GeorgeClooney.png', 'Im_OrlandoBloom.png'],diff,1,0.46697119999998904,32,0,
ROIS2212,2,inv,120,pos120_id13_im15.bmp_pos120_id2_im2.bmp,['Im_HughJackman.png', 'Im_PatrickDempsey.png', 'Im_RyanReynolds.png', 'Im_BenStiller.png', 'Im_BenAffleck.png', 'Im_BradPitt.png', 'Im_RobertDowneyJr.png', 'Im_LeonardoDiCaprio.png', 'Im_GeorgeClooney.png', 'Im_OrlandoBloom.png'],diff,1,0.4083818999997675,33,0,
ROIS2212,2,inv,fs,posfs_id8_im13.bmp_posfs_id8_im20.bmp,['Im_HughJackman.png', 'Im_PatrickDempsey.png', 'Im_RyanReynolds.png', 'Im_BenStiller.png', 'Im_BenAffleck.png', 'Im_BradPitt.png', 'Im_RobertDowneyJr.png', 'Im_LeonardoDiCaprio.png', 'Im_GeorgeClooney.png', 'Im_OrlandoBloom.png'],same,1,0.41657489999988684,34,0,
ROIS2212,2,inv,120,pos120_id2_im2.bmp_pos120_id2_im3.bmp,['Im_HughJackman.png', 'Im_PatrickDempsey.png', 'Im_RyanReynolds.png', 'Im_BenStiller.png', 'Im_BenAffleck.png', 'Im_BradPitt.png', 'Im_RobertDowneyJr.png', 'Im_LeonardoDiCaprio.png', 'Im_GeorgeClooney.png', 'Im_OrlandoBloom.png'],same,1,0.5086080999999467,35,0,
ROIS2212,2,inv,30,pos30_id8_im21.bmp_pos30_id2_im3.bmp,['Im_HughJackman.png', 'Im_PatrickDempsey.png', 'Im_RyanReynolds.png', 'Im_BenStiller.png', 'Im_BenAffleck.png', 'Im_BradPitt.png', 'Im_RobertDowneyJr.png', 'Im_LeonardoDiCaprio.png', 'Im_GeorgeClooney.png', 'Im_OrlandoBloom.png'],same,0,1.0415757000000667,35,0,
ROIS2212,2,inv,150,pos150_id8_im20.bmp_pos150_id8_im13.bmp,['Im_HughJackman.png', 'Im_PatrickDempsey.png', 'Im_RyanReynolds.png', 'Im_BenStiller.png', 'Im_BenAffleck.png', 'Im_BradPitt.png', 'Im_RobertDowneyJr.png', 'Im_LeonardoDiCaprio.png', 'Im_GeorgeClooney.png', 'Im_OrlandoBloom.png'],same,1,1.0333028000000013,36,0,
ROIS2212,2,inv,0,pos0_id8_im13.bmp_pos0_id8_im21.bmp,['Im_HughJackman.png', 'Im_PatrickDempsey.png', 'Im_RyanReynolds.png', 'Im_BenStiller.png', 'Im_BenAffleck.png', 'Im_BradPitt.png', 'Im_RobertDowneyJr.png', 'Im_LeonardoDiCaprio.png', 'Im_GeorgeClooney.png', 'Im_OrlandoBloom.png'],diff,0,1.2919424000001527,36,0,
ROIS2212,2,inv,fs,posfs_id17_im9.bmp_posfs_id8_im13.bmp,['Im_HughJackman.png', 'Im_PatrickDempsey.png', 'Im_RyanReynolds.png', 'Im_BenStiller.png', 'Im_BenAffleck.png', 'Im_BradPitt.png', 'Im_RobertDowneyJr.png', 'Im_LeonardoDiCaprio.png', 'Im_GeorgeClooney.png', 'Im_OrlandoBloom.png'],diff,1,0.9000754999997298,37,0,
ROIS2212,3,pos,fs,posfs_id8_im13.bmp_posfs_id17_im9.bmp,['Im_HughJackman.png', 'Im_PatrickDempsey.png', 'Im_RyanReynolds.png', 'Im_BenStiller.png', 'Im_BenAffleck.png', 'Im_BradPitt.png', 'Im_RobertDowneyJr.png', 'Im_LeonardoDiCaprio.png', 'Im_GeorgeClooney.png', 'Im_OrlandoBloom.png'],diff,1,0.41668509999999515,1,88.0952380952381,
ROIS2212,3,pos,150,pos150_id7_im26.bmp_pos150_id17_im14.bmp,['Im_HughJackman.png', 'Im_PatrickDempsey.png', 'Im_RyanReynolds.png', 'Im_BenStiller.png', 'Im_BenAffleck.png', 'Im_BradPitt.png', 'Im_RobertDowneyJr.png', 'Im_LeonardoDiCaprio.png', 'Im_GeorgeClooney.png', 'Im_OrlandoBloom.png'],diff,1,0.7751571000003423,2,88.0952380952381,
ROIS2212,3,pos,90,pos90_id13_im15.bmp_pos90_id13_im10.bmp,['Im_HughJackman.png', 'Im_PatrickDempsey.png', 'Im_RyanReynolds.png', 'Im_BenStiller.png', 'Im_BenAffleck.png', 'Im_BradPitt.png', 'Im_RobertDowneyJr.png', 'Im_LeonardoDiCaprio.png', 'Im_GeorgeClooney.png', 'Im_OrlandoBloom.png'],same,1,0.5332588999999643,3,88.0952380952381,
ROIS2212,3,pos,fs,posfs_id21_im16.bmp_posfs_id21_im22.bmp,['Im_HughJackman.png', 'Im_PatrickDempsey.png', 'Im_RyanReynolds.png', 'Im_BenStiller.png', 'Im_BenAffleck.png', 'Im_BradPitt.png', 'Im_RobertDowneyJr.png', 'Im_LeonardoDiCaprio.png', 'Im_GeorgeClooney.png', 'Im_OrlandoBloom.png'],same,1,0.5418100000001687,4,88.0952380952381,
ROIS2212,3,pos,120,pos120_id7_im15.bmp_pos120_id17_im8.bmp,['Im_HughJackman.png', 'Im_PatrickDempsey.png', 'Im_RyanReynolds.png', 'Im_BenStiller.png', 'Im_BenAffleck.png', 'Im_BradPitt.png', 'Im_RobertDowneyJr.png', 'Im_LeonardoDiCaprio.png', 'Im_GeorgeClooney.png', 'Im_OrlandoBloom.png'],diff,1,0.542114699999729,5,88.0952380952381,
ROIS2212,3,pos,60,pos60_id18_im11.bmp_pos60_id16_im2.bmp,['Im_HughJackman.png', 'Im_PatrickDempsey.png', 'Im_RyanReynolds.png', 'Im_BenStiller.png', 'Im_BenAffleck.png', 'Im_BradPitt.png', 'Im_RobertDowneyJr.png', 'Im_LeonardoDiCaprio.png', 'Im_GeorgeClooney.png', 'Im_OrlandoBloom.png'],diff,1,1.125207500000215,6,88.0952380952381,
ROIS2212,3,pos,0,pos0_id3_im6.bmp_pos0_id21_im22.bmp,['Im_HughJackman.png', 'Im_PatrickDempsey.png', 'Im_RyanReynolds.png', 'Im_BenStiller.png', 'Im_BenAffleck.png', 'Im_BradPitt.png', 'Im_RobertDowneyJr.png', 'Im_LeonardoDiCaprio.png', 'Im_GeorgeClooney.png', 'Im_OrlandoBloom.png'],diff,1,0.6667387000002236,7,88.0952380952381,
ROIS2212,3,pos,90,pos90_id13_im10.bmp_pos90_id13_im29.bmp,['Im_HughJackman.png', 'Im_PatrickDempsey.png', 'Im_RyanReynolds.png', 'Im_BenStiller.png', 'Im_BenAffleck.png', 'Im_BradPitt.png', 'Im_RobertDowneyJr.png', 'Im_LeonardoDiCaprio.png', 'Im_GeorgeClooney.png', 'Im_OrlandoBloom.png'],diff,0,1.4832514999998239,7,88.0952380952381,
ROIS2212,3,pos,0,pos0_id16_im2.bmp_pos0_id16_im3.bmp,['Im_HughJackman.png', 'Im_PatrickDempsey.png', 'Im_RyanReynolds.png', 'Im_BenStiller.png', 'Im_BenAffleck.png', 'Im_BradPitt.png', 'Im_RobertDowneyJr.png', 'Im_LeonardoDiCaprio.png', 'Im_GeorgeClooney.png', 'Im_OrlandoBloom.png'],same,1,0.7584349000003385,8,88.0952380952381,
ROIS2212,3,pos,150,pos150_id17_im9.bmp_pos150_id17_im14.bmp,['Im_HughJackman.png', 'Im_PatrickDempsey.png', 'Im_RyanReynolds.png', 'Im_BenStiller.png', 'Im_BenAffleck.png', 'Im_BradPitt.png', 'Im_RobertDowneyJr.png', 'Im_LeonardoDiCaprio.png', 'Im_GeorgeClooney.png', 'Im_OrlandoBloom.png'],same,1,0.891991599999983,9,88.0952380952381,
ROIS2212,3,pos,30,pos30_id8_im20.bmp_pos30_id8_im21.bmp,['Im_HughJackman.png', 'Im_PatrickDempsey.png', 'Im_RyanReynolds.png', 'Im_BenStiller.png', 'Im_BenAffleck.png', 'Im_BradPitt.png', 'Im_RobertDowneyJr.png', 'Im_LeonardoDiCaprio.png', 'Im_GeorgeClooney.png', 'Im_OrlandoBloom.png'],same,1,0.674969599999713,10,88.0952380952381,
ROIS2212,3,pos,30,pos30_id16_im3.bmp_pos30_id16_im2.bmp,['Im_HughJackman.png', 'Im_PatrickDempsey.png', 'Im_RyanReynolds.png', 'Im_BenStiller.png', 'Im_BenAffleck.png', 'Im_BradPitt.png', 'Im_RobertDowneyJr.png', 'Im_LeonardoDiCaprio.png', 'Im_GeorgeClooney.png', 'Im_OrlandoBloom.png'],none,1,4.408417199999803,10,88.0952380952381,
ROIS2212,3,pos,120,pos120_id7_im14.bmp_pos120_id7_im26.bmp,['Im_HughJackman.png', 'Im_PatrickDempsey.png', 'Im_RyanReynolds.png', 'Im_BenStiller.png', 'Im_BenAffleck.png', 'Im_BradPitt.png', 'Im_RobertDowneyJr.png', 'Im_LeonardoDiCaprio.png', 'Im_GeorgeClooney.png', 'Im_OrlandoBloom.png'],same,1,0.42511340000010023,11,88.0952380952381,
ROIS2212,3,pos,60,pos60_id8_im21.bmp_pos60_id8_im20.bmp,['Im_HughJackman.png', 'Im_PatrickDempsey.png', 'Im_RyanReynolds.png', 'Im_BenStiller.png', 'Im_BenAffleck.png', 'Im_BradPitt.png', 'Im_RobertDowneyJr.png', 'Im_LeonardoDiCaprio.png', 'Im_GeorgeClooney.png', 'Im_OrlandoBloom.png'],same,1,0.6167473000000427,12,88.0952380952381,
ROIS2212,4,inv,60,pos60_id2_im16.bmp_pos60_id13_im10.bmp,['Im_HughJackman.png', 'Im_PatrickDempsey.png', 'Im_RyanReynolds.png', 'Im_BenStiller.png', 'Im_BenAffleck.png', 'Im_BradPitt.png', 'Im_RobertDowneyJr.png', 'Im_LeonardoDiCaprio.png', 'Im_GeorgeClooney.png', 'Im_OrlandoBloom.png'],diff,1,0.41685050000023693,13,88.0952380952381,
ROIS2212,4,inv,0,pos0_id21_im22.bmp_pos0_id13_im29.bmp,['Im_HughJackman.png', 'Im_PatrickDempsey.png', 'Im_RyanReynolds.png', 'Im_BenStiller.png', 'Im_BenAffleck.png', 'Im_BradPitt.png', 'Im_RobertDowneyJr.png', 'Im_LeonardoDiCaprio.png', 'Im_GeorgeClooney.png', 'Im_OrlandoBloom.png'],diff,1,0.6918534999999792,14,88.0952380952381,
ROIS2212,4,inv,150,pos150_id16_im19.bmp_pos150_id17_im8.bmp,['Im_HughJackman.png', 'Im_PatrickDempsey.png', 'Im_RyanReynolds.png', 'Im_BenStiller.png', 'Im_BenAffleck.png', 'Im_BradPitt.png', 'Im_RobertDowneyJr.png', 'Im_LeonardoDiCaprio.png', 'Im_GeorgeClooney.png', 'Im_OrlandoBloom.png'],diff,1,1.6416627000003245,15,88.0952380952381,
ROIS2212,4,inv,60,pos60_id8_im21.bmp_pos60_id8_im20.bmp,['Im_HughJackman.png', 'Im_PatrickDempsey.png', 'Im_RyanReynolds.png', 'Im_BenStiller.png', 'Im_BenAffleck.png', 'Im_BradPitt.png', 'Im_RobertDowneyJr.png', 'Im_LeonardoDiCaprio.png', 'Im_GeorgeClooney.png', 'Im_OrlandoBloom.png'],diff,0,0.4999778999999762,15,88.0952380952381,
ROIS2212,4,inv,120,pos120_id18_im19.bmp_pos120_id2_im2.bmp,['Im_HughJackman.png', 'Im_PatrickDempsey.png', 'Im_RyanReynolds.png', 'Im_BenStiller.png', 'Im_BenAffleck.png', 'Im_BradPitt.png', 'Im_RobertDowneyJr.png', 'Im_LeonardoDiCaprio.png', 'Im_GeorgeClooney.png', 'Im_OrlandoBloom.png'],diff,1,0.5083036999999422,16,88.0952380952381,
ROIS2212,4,inv,90,pos90_id3_im8.bmp_pos90_id3_im6.bmp,['Im_HughJackman.png', 'Im_PatrickDempsey.png', 'Im_RyanReynolds.png', 'Im_BenStiller.png', 'Im_BenAffleck.png', 'Im_BradPitt.png', 'Im_RobertDowneyJr.png', 'Im_LeonardoDiCaprio.png', 'Im_GeorgeClooney.png', 'Im_OrlandoBloom.png'],same,1,0.45032450000007884,17,88.0952380952381,
ROIS2212,4,inv,30,pos30_id7_im15.bmp_pos30_id17_im8.bmp,['Im_HughJackman.png', 'Im_PatrickDempsey.png', 'Im_RyanReynolds.png', 'Im_BenStiller.png', 'Im_BenAffleck.png', 'Im_BradPitt.png', 'Im_RobertDowneyJr.png', 'Im_LeonardoDiCaprio.png', 'Im_GeorgeClooney.png', 'Im_OrlandoBloom.png'],diff,1,0.4504781999999068,18,88.0952380952381,
ROIS2212,4,inv,30,pos30_id18_im19.bmp_pos30_id2_im2.bmp,['Im_HughJackman.png', 'Im_PatrickDempsey.png', 'Im_RyanReynolds.png', 'Im_BenStiller.png', 'Im_BenAffleck.png', 'Im_BradPitt.png', 'Im_RobertDowneyJr.png', 'Im_LeonardoDiCaprio.png', 'Im_GeorgeClooney.png', 'Im_OrlandoBloom.png'],same,0,0.916647500000181,18,88.0952380952381,
ROIS2212,4,inv,0,pos0_id2_im2.bmp_pos0_id13_im15.bmp,['Im_HughJackman.png', 'Im_PatrickDempsey.png', 'Im_RyanReynolds.png', 'Im_BenStiller.png', 'Im_BenAffleck.png', 'Im_BradPitt.png', 'Im_RobertDowneyJr.png', 'Im_LeonardoDiCaprio.png', 'Im_GeorgeClooney.png', 'Im_OrlandoBloom.png'],diff,1,0.8417491999998674,19,88.0952380952381,
ROIS2212,4,inv,90,pos90_id1_im21.bmp_pos90_id3_im17.bmp,['Im_HughJackman.png', 'Im_PatrickDempsey.png', 'Im_RyanReynolds.png', 'Im_BenStiller.png', 'Im_BenAffleck.png', 'Im_BradPitt.png', 'Im_RobertDowneyJr.png', 'Im_LeonardoDiCaprio.png', 'Im_GeorgeClooney.png', 'Im_OrlandoBloom.png'],diff,1,0.5334100999998554,20,88.0952380952381,
ROIS2212,4,inv,120,pos120_id17_im8.bmp_pos120_id7_im15.bmp,['Im_HughJackman.png', 'Im_PatrickDempsey.png', 'Im_RyanReynolds.png', 'Im_BenStiller.png', 'Im_BenAffleck.png', 'Im_BradPitt.png', 'Im_RobertDowneyJr.png', 'Im_LeonardoDiCaprio.png', 'Im_GeorgeClooney.png', 'Im_OrlandoBloom.png'],diff,1,1.075105899999926,21,88.0952380952381,
ROIS2212,4,inv,fs,posfs_id17_im14.bmp_posfs_id17_im9.bmp,['Im_HughJackman.png', 'Im_PatrickDempsey.png', 'Im_RyanReynolds.png', 'Im_BenStiller.png', 'Im_BenAffleck.png', 'Im_BradPitt.png', 'Im_RobertDowneyJr.png', 'Im_LeonardoDiCaprio.png', 'Im_GeorgeClooney.png', 'Im_OrlandoBloom.png'],diff,0,1.8166172000001097,21,88.0952380952381,
ROIS2212,4,inv,150,pos150_id18_im11.bmp_pos150_id18_im19.bmp,['Im_HughJackman.png', 'Im_PatrickDempsey.png', 'Im_RyanReynolds.png', 'Im_BenStiller.png', 'Im_BenAffleck.png', 'Im_BradPitt.png', 'Im_RobertDowneyJr.png', 'Im_LeonardoDiCaprio.png', 'Im_GeorgeClooney.png', 'Im_OrlandoBloom.png'],same,1,0.6000606000002335,22,88.0952380952381,
ROIS2212,4,inv,fs,posfs_id1_im24.bmp_posfs_id8_im20.bmp,['Im_HughJackman.png', 'Im_PatrickDempsey.png', 'Im_RyanReynolds.png', 'Im_BenStiller.png', 'Im_BenAffleck.png', 'Im_BradPitt.png', 'Im_RobertDowneyJr.png', 'Im_LeonardoDiCaprio.png', 'Im_GeorgeClooney.png', 'Im_OrlandoBloom.png'],diff,1,1.3916269000001193,23,88.0952380952381,
ROIS2212,5,neg,60,neg60_id7_im14.bmp_neg60_id3_im17.bmp,['Im_HughJackman.png', 'Im_PatrickDempsey.png', 'Im_RyanReynolds.png', 'Im_BenStiller.png', 'Im_BenAffleck.png', 'Im_BradPitt.png', 'Im_RobertDowneyJr.png', 'Im_LeonardoDiCaprio.png', 'Im_GeorgeClooney.png', 'Im_OrlandoBloom.png'],diff,1,0.42508379999981116,24,88.0952380952381,
ROIS2212,5,neg,fs,negfs_id2_im16.bmp_negfs_id16_im3.bmp,['Im_HughJackman.png', 'Im_PatrickDempsey.png', 'Im_RyanReynolds.png', 'Im_BenStiller.png', 'Im_BenAffleck.png', 'Im_BradPitt.png', 'Im_RobertDowneyJr.png', 'Im_LeonardoDiCaprio.png', 'Im_GeorgeClooney.png', 'Im_OrlandoBloom.png'],diff,1,1.0499406999997518,25,88.0952380952381,
ROIS2212,5,neg,0,neg0_id2_im3.bmp_neg0_id2_im2.bmp,['Im_HughJackman.png', 'Im_PatrickDempsey.png', 'Im_RyanReynolds.png', 'Im_BenStiller.png', 'Im_BenAffleck.png', 'Im_BradPitt.png', 'Im_RobertDowneyJr.png', 'Im_LeonardoDiCaprio.png', 'Im_GeorgeClooney.png', 'Im_OrlandoBloom.png'],none,1,4.42500949999976,25,88.0952380952381,
ROIS2212,5,neg,30,neg30_id17_im9.bmp_neg30_id8_im13.bmp,['Im_HughJackman.png', 'Im_PatrickDempsey.png', 'Im_RyanReynolds.png', 'Im_BenStiller.png', 'Im_BenAffleck.png', 'Im_BradPitt.png', 'Im_RobertDowneyJr.png', 'Im_LeonardoDiCaprio.png', 'Im_GeorgeClooney.png', 'Im_OrlandoBloom.png'],same,0,1.2335699000000204,25,88.0952380952381,
ROIS2212,5,neg,120,neg120_id21_im16.bmp_neg120_id17_im14.bmp,['Im_HughJackman.png', 'Im_PatrickDempsey.png', 'Im_RyanReynolds.png', 'Im_BenStiller.png', 'Im_BenAffleck.png', 'Im_BradPitt.png', 'Im_RobertDowneyJr.png', 'Im_LeonardoDiCaprio.png', 'Im_GeorgeClooney.png', 'Im_OrlandoBloom.png'],same,0,0.8334279000000606,25,88.0952380952381,
ROIS2212,5,neg,150,neg150_id8_im21.bmp_neg150_id2_im3.bmp,['Im_HughJackman.png', 'Im_PatrickDempsey.png', 'Im_RyanReynolds.png', 'Im_BenStiller.png', 'Im_BenAffleck.png', 'Im_BradPitt.png', 'Im_RobertDowneyJr.png', 'Im_LeonardoDiCaprio.png', 'Im_GeorgeClooney.png', 'Im_OrlandoBloom.png'],diff,1,1.2166995000002316,26,88.0952380952381,
ROIS2212,5,neg,150,neg150_id1_im21.bmp_neg150_id16_im2.bmp,['Im_HughJackman.png', 'Im_PatrickDempsey.png', 'Im_RyanReynolds.png', 'Im_BenStiller.png', 'Im_BenAffleck.png', 'Im_BradPitt.png', 'Im_RobertDowneyJr.png', 'Im_LeonardoDiCaprio.png', 'Im_GeorgeClooney.png', 'Im_OrlandoBloom.png'],diff,1,0.5917073999999047,27,88.0952380952381,
ROIS2212,5,neg,90,neg90_id3_im8.bmp_neg90_id18_im19.bmp,['Im_HughJackman.png', 'Im_PatrickDempsey.png', 'Im_RyanReynolds.png', 'Im_BenStiller.png', 'Im_BenAffleck.png', 'Im_BradPitt.png', 'Im_RobertDowneyJr.png', 'Im_LeonardoDiCaprio.png', 'Im_GeorgeClooney.png', 'Im_OrlandoBloom.png'],diff,1,1.4837792999996964,28,88.0952380952381,
ROIS2212,5,neg,120,neg120_id16_im3.bmp_neg120_id16_im19.bmp,['Im_HughJackman.png', 'Im_PatrickDempsey.png', 'Im_RyanReynolds.png', 'Im_BenStiller.png', 'Im_BenAffleck.png', 'Im_BradPitt.png', 'Im_RobertDowneyJr.png', 'Im_LeonardoDiCaprio.png', 'Im_GeorgeClooney.png', 'Im_OrlandoBloom.png'],same,1,0.7667685999999776,29,88.0952380952381,
ROIS2212,5,neg,60,neg60_id13_im29.bmp_neg60_id21_im22.bmp,['Im_HughJackman.png', 'Im_PatrickDempsey.png', 'Im_RyanReynolds.png', 'Im_BenStiller.png', 'Im_BenAffleck.png', 'Im_BradPitt.png', 'Im_RobertDowneyJr.png', 'Im_LeonardoDiCaprio.png', 'Im_GeorgeClooney.png', 'Im_OrlandoBloom.png'],diff,1,1.0665748999999778,30,88.0952380952381,
ROIS2212,5,neg,90,neg90_id2_im2.bmp_neg90_id2_im16.bmp,['Im_HughJackman.png', 'Im_PatrickDempsey.png', 'Im_RyanReynolds.png', 'Im_BenStiller.png', 'Im_BenAffleck.png', 'Im_BradPitt.png', 'Im_RobertDowneyJr.png', 'Im_LeonardoDiCaprio.png', 'Im_GeorgeClooney.png', 'Im_OrlandoBloom.png'],same,1,1.3918124000001626,31,88.0952380952381,
ROIS2212,5,neg,30,neg30_id13_im29.bmp_neg30_id21_im22.bmp,['Im_HughJackman.png', 'Im_PatrickDempsey.png', 'Im_RyanReynolds.png', 'Im_BenStiller.png', 'Im_BenAffleck.png', 'Im_BradPitt.png', 'Im_RobertDowneyJr.png', 'Im_LeonardoDiCaprio.png', 'Im_GeorgeClooney.png', 'Im_OrlandoBloom.png'],diff,1,0.6684924999999566,32,88.0952380952381,
ROIS2212,5,neg,0,neg0_id18_im18.bmp_neg0_id18_im11.bmp,['Im_HughJackman.png', 'Im_PatrickDempsey.png', 'Im_RyanReynolds.png', 'Im_BenStiller.png', 'Im_BenAffleck.png', 'Im_BradPitt.png', 'Im_RobertDowneyJr.png', 'Im_LeonardoDiCaprio.png', 'Im_GeorgeClooney.png', 'Im_OrlandoBloom.png'],same,1,4.066817599999922,33,88.0952380952381,
ROIS2212,5,neg,fs,negfs_id13_im15.bmp_negfs_id2_im2.bmp,['Im_HughJackman.png', 'Im_PatrickDempsey.png', 'Im_RyanReynolds.png', 'Im_BenStiller.png', 'Im_BenAffleck.png', 'Im_BradPitt.png', 'Im_RobertDowneyJr.png', 'Im_LeonardoDiCaprio.png', 'Im_GeorgeClooney.png', 'Im_OrlandoBloom.png'],diff,1,1.8335022000001118,34,88.0952380952381,
ROIS2212,6,pos,0,pos0_id16_im19.bmp_pos0_id1_im4.bmp,['Im_HughJackman.png', 'Im_PatrickDempsey.png', 'Im_RyanReynolds.png', 'Im_BenStiller.png', 'Im_BenAffleck.png', 'Im_BradPitt.png', 'Im_RobertDowneyJr.png', 'Im_LeonardoDiCaprio.png', 'Im_GeorgeClooney.png', 'Im_OrlandoBloom.png'],diff,1,0.5748922000002494,1,80.95238095238095,
ROIS2212,6,pos,60,pos60_id17_im8.bmp_pos60_id7_im15.bmp,['Im_HughJackman.png', 'Im_PatrickDempsey.png', 'Im_RyanReynolds.png', 'Im_BenStiller.png', 'Im_BenAffleck.png', 'Im_BradPitt.png', 'Im_RobertDowneyJr.png', 'Im_LeonardoDiCaprio.png', 'Im_GeorgeClooney.png', 'Im_OrlandoBloom.png'],diff,1,0.6166936999998143,2,80.95238095238095,
ROIS2212,6,pos,150,pos150_id13_im15.bmp_pos150_id2_im2.bmp,['Im_HughJackman.png', 'Im_PatrickDempsey.png', 'Im_RyanReynolds.png', 'Im_BenStiller.png', 'Im_BenAffleck.png', 'Im_BradPitt.png', 'Im_RobertDowneyJr.png', 'Im_LeonardoDiCaprio.png', 'Im_GeorgeClooney.png', 'Im_OrlandoBloom.png'],diff,1,0.42538120000017443,3,80.95238095238095,
ROIS2212,6,pos,90,pos90_id7_im26.bmp_pos90_id21_im17.bmp,['Im_HughJackman.png', 'Im_PatrickDempsey.png', 'Im_RyanReynolds.png', 'Im_BenStiller.png', 'Im_BenAffleck.png', 'Im_BradPitt.png', 'Im_RobertDowneyJr.png', 'Im_LeonardoDiCaprio.png', 'Im_GeorgeClooney.png', 'Im_OrlandoBloom.png'],diff,1,0.42504390000021885,4,80.95238095238095,
ROIS2212,6,pos,fs,posfs_id3_im8.bmp_posfs_id3_im6.bmp,['Im_HughJackman.png', 'Im_PatrickDempsey.png', 'Im_RyanReynolds.png', 'Im_BenStiller.png', 'Im_BenAffleck.png', 'Im_BradPitt.png', 'Im_RobertDowneyJr.png', 'Im_LeonardoDiCaprio.png', 'Im_GeorgeClooney.png', 'Im_OrlandoBloom.png'],same,1,0.49174840000023323,5,80.95238095238095,
ROIS2212,6,pos,150,pos150_id1_im4.bmp_pos150_id16_im19.bmp,['Im_HughJackman.png', 'Im_PatrickDempsey.png', 'Im_RyanReynolds.png', 'Im_BenStiller.png', 'Im_BenAffleck.png', 'Im_BradPitt.png', 'Im_RobertDowneyJr.png', 'Im_LeonardoDiCaprio.png', 'Im_GeorgeClooney.png', 'Im_OrlandoBloom.png'],diff,1,0.9167002999997749,6,80.95238095238095,
ROIS2212,6,pos,60,pos60_id1_im24.bmp_pos60_id1_im21.bmp,['Im_HughJackman.png', 'Im_PatrickDempsey.png', 'Im_RyanReynolds.png', 'Im_BenStiller.png', 'Im_BenAffleck.png', 'Im_BradPitt.png', 'Im_RobertDowneyJr.png', 'Im_LeonardoDiCaprio.png', 'Im_GeorgeClooney.png', 'Im_OrlandoBloom.png'],diff,0,0.9249438999995618,6,80.95238095238095,
ROIS2212,6,pos,fs,posfs_id8_im20.bmp_posfs_id21_im16.bmp,['Im_HughJackman.png', 'Im_PatrickDempsey.png', 'Im_RyanReynolds.png', 'Im_BenStiller.png', 'Im_BenAffleck.png', 'Im_BradPitt.png', 'Im_RobertDowneyJr.png', 'Im_LeonardoDiCaprio.png', 'Im_GeorgeClooney.png', 'Im_OrlandoBloom.png'],diff,1,0.42526820000011867,7,80.95238095238095,
ROIS2212,6,pos,30,pos30_id17_im9.bmp_pos30_id1_im4.bmp,['Im_HughJackman.png', 'Im_PatrickDempsey.png', 'Im_RyanReynolds.png', 'Im_BenStiller.png', 'Im_BenAffleck.png', 'Im_BradPitt.png', 'Im_RobertDowneyJr.png', 'Im_LeonardoDiCaprio.png', 'Im_GeorgeClooney.png', 'Im_OrlandoBloom.png'],diff,1,0.5083773000001202,8,80.95238095238095,
ROIS2212,6,pos,30,pos30_id7_im14.bmp_pos30_id7_im26.bmp,['Im_HughJackman.png', 'Im_PatrickDempsey.png', 'Im_RyanReynolds.png', 'Im_BenStiller.png', 'Im_BenAffleck.png', 'Im_BradPitt.png', 'Im_RobertDowneyJr.png', 'Im_LeonardoDiCaprio.png', 'Im_GeorgeClooney.png', 'Im_OrlandoBloom.png'],same,1,0.9500883000000613,9,80.95238095238095,
ROIS2212,6,pos,0,pos0_id2_im16.bmp_pos0_id16_im3.bmp,['Im_HughJackman.png', 'Im_PatrickDempsey.png', 'Im_RyanReynolds.png', 'Im_BenStiller.png', 'Im_BenAffleck.png', 'Im_BradPitt.png', 'Im_RobertDowneyJr.png', 'Im_LeonardoDiCaprio.png', 'Im_GeorgeClooney.png', 'Im_OrlandoBloom.png'],diff,1,1.0584438000000773,10,80.95238095238095,
ROIS2212,6,pos,90,pos90_id7_im26.bmp_pos90_id17_im14.bmp,['Im_HughJackman.png', 'Im_PatrickDempsey.png', 'Im_RyanReynolds.png', 'Im_BenStiller.png', 'Im_BenAffleck.png', 'Im_BradPitt.png', 'Im_RobertDowneyJr.png', 'Im_LeonardoDiCaprio.png', 'Im_GeorgeClooney.png', 'Im_OrlandoBloom.png'],diff,1,1.583234000000175,11,80.95238095238095,
ROIS2212,6,pos,120,pos120_id1_im24.bmp_pos120_id8_im20.bmp,['Im_HughJackman.png', 'Im_PatrickDempsey.png', 'Im_RyanReynolds.png', 'Im_BenStiller.png', 'Im_BenAffleck.png', 'Im_BradPitt.png', 'Im_RobertDowneyJr.png', 'Im_LeonardoDiCaprio.png', 'Im_GeorgeClooney.png', 'Im_OrlandoBloom.png'],diff,1,1.5669410000000425,12,80.95238095238095,
ROIS2212,6,pos,120,pos120_id18_im19.bmp_pos120_id3_im8.bmp,['Im_HughJackman.png', 'Im_PatrickDempsey.png', 'Im_RyanReynolds.png', 'Im_BenStiller.png', 'Im_BenAffleck.png', 'Im_BradPitt.png', 'Im_RobertDowneyJr.png', 'Im_LeonardoDiCaprio.png', 'Im_GeorgeClooney.png', 'Im_OrlandoBloom.png'],diff,1,1.1087957999998252,13,80.95238095238095,
ROIS2212,7,neg,fs,negfs_id13_im15.bmp_negfs_id13_im10.bmp,['Im_HughJackman.png', 'Im_PatrickDempsey.png', 'Im_RyanReynolds.png', 'Im_BenStiller.png', 'Im_BenAffleck.png', 'Im_BradPitt.png', 'Im_RobertDowneyJr.png', 'Im_LeonardoDiCaprio.png', 'Im_GeorgeClooney.png', 'Im_OrlandoBloom.png'],same,1,0.5253983000002336,14,80.95238095238095,
ROIS2212,7,neg,30,neg30_id2_im3.bmp_neg30_id2_im16.bmp,['Im_HughJackman.png', 'Im_PatrickDempsey.png', 'Im_RyanReynolds.png', 'Im_BenStiller.png', 'Im_BenAffleck.png', 'Im_BradPitt.png', 'Im_RobertDowneyJr.png', 'Im_LeonardoDiCaprio.png', 'Im_GeorgeClooney.png', 'Im_OrlandoBloom.png'],same,1,0.4252974000000904,15,80.95238095238095,
ROIS2212,7,neg,120,neg120_id8_im13.bmp_neg120_id8_im21.bmp,['Im_HughJackman.png', 'Im_PatrickDempsey.png', 'Im_RyanReynolds.png', 'Im_BenStiller.png', 'Im_BenAffleck.png', 'Im_BradPitt.png', 'Im_RobertDowneyJr.png', 'Im_LeonardoDiCaprio.png', 'Im_GeorgeClooney.png', 'Im_OrlandoBloom.png'],diff,0,0.47519199999987904,15,80.95238095238095,
ROIS2212,7,neg,120,neg120_id16_im2.bmp_neg120_id16_im3.bmp,['Im_HughJackman.png', 'Im_PatrickDempsey.png', 'Im_RyanReynolds.png', 'Im_BenStiller.png', 'Im_BenAffleck.png', 'Im_BradPitt.png', 'Im_RobertDowneyJr.png', 'Im_LeonardoDiCaprio.png', 'Im_GeorgeClooney.png', 'Im_OrlandoBloom.png'],same,1,0.5831963000000542,16,80.95238095238095,
ROIS2212,7,neg,0,neg0_id8_im13.bmp_neg0_id8_im20.bmp,['Im_HughJackman.png', 'Im_PatrickDempsey.png', 'Im_RyanReynolds.png', 'Im_BenStiller.png', 'Im_BenAffleck.png', 'Im_BradPitt.png', 'Im_RobertDowneyJr.png', 'Im_LeonardoDiCaprio.png', 'Im_GeorgeClooney.png', 'Im_OrlandoBloom.png'],same,1,0.6670094999999492,17,80.95238095238095,
ROIS2212,7,neg,60,neg60_id13_im15.bmp_neg60_id2_im2.bmp,['Im_HughJackman.png', 'Im_PatrickDempsey.png', 'Im_RyanReynolds.png', 'Im_BenStiller.png', 'Im_BenAffleck.png', 'Im_BradPitt.png', 'Im_RobertDowneyJr.png', 'Im_LeonardoDiCaprio.png', 'Im_GeorgeClooney.png', 'Im_OrlandoBloom.png'],diff,1,0.5586397000001853,18,80.95238095238095,
ROIS2212,7,neg,150,neg150_id7_im26.bmp_neg150_id21_im17.bmp,['Im_HughJackman.png', 'Im_PatrickDempsey.png', 'Im_RyanReynolds.png', 'Im_BenStiller.png', 'Im_BenAffleck.png', 'Im_BradPitt.png', 'Im_RobertDowneyJr.png', 'Im_LeonardoDiCaprio.png', 'Im_GeorgeClooney.png', 'Im_OrlandoBloom.png'],diff,1,0.9167548000000352,19,80.95238095238095,
ROIS2212,7,neg,fs,negfs_id1_im4.bmp_negfs_id1_im24.bmp,['Im_HughJackman.png', 'Im_PatrickDempsey.png', 'Im_RyanReynolds.png', 'Im_BenStiller.png', 'Im_BenAffleck.png', 'Im_BradPitt.png', 'Im_RobertDowneyJr.png', 'Im_LeonardoDiCaprio.png', 'Im_GeorgeClooney.png', 'Im_OrlandoBloom.png'],none,1,4.425135299999965,19,80.95238095238095,
ROIS2212,7,neg,60,neg60_id21_im22.bmp_neg60_id21_im17.bmp,['Im_HughJackman.png', 'Im_PatrickDempsey.png', 'Im_RyanReynolds.png', 'Im_BenStiller.png', 'Im_BenAffleck.png', 'Im_BradPitt.png', 'Im_RobertDowneyJr.png', 'Im_LeonardoDiCaprio.png', 'Im_GeorgeClooney.png', 'Im_OrlandoBloom.png'],diff,0,1.2501158000000032,19,80.95238095238095,
ROIS2212,7,neg,30,neg30_id13_im10.bmp_neg30_id13_im29.bmp,['Im_HughJackman.png', 'Im_PatrickDempsey.png', 'Im_RyanReynolds.png', 'Im_BenStiller.png', 'Im_BenAffleck.png', 'Im_BradPitt.png', 'Im_RobertDowneyJr.png', 'Im_LeonardoDiCaprio.png', 'Im_GeorgeClooney.png', 'Im_OrlandoBloom.png'],same,1,0.42505490000030477,20,80.95238095238095,
ROIS2212,7,neg,90,neg90_id16_im19.bmp_neg90_id16_im3.bmp,['Im_HughJackman.png', 'Im_PatrickDempsey.png', 'Im_RyanReynolds.png', 'Im_BenStiller.png', 'Im_BenAffleck.png', 'Im_BradPitt.png', 'Im_RobertDowneyJr.png', 'Im_LeonardoDiCaprio.png', 'Im_GeorgeClooney.png', 'Im_OrlandoBloom.png'],same,1,0.4332662000001619,21,80.95238095238095,
ROIS2212,7,neg,90,neg90_id8_im21.bmp_neg90_id8_im13.bmp,['Im_HughJackman.png', 'Im_PatrickDempsey.png', 'Im_RyanReynolds.png', 'Im_BenStiller.png', 'Im_BenAffleck.png', 'Im_BradPitt.png', 'Im_RobertDowneyJr.png', 'Im_LeonardoDiCaprio.png', 'Im_GeorgeClooney.png', 'Im_OrlandoBloom.png'],same,1,1.1170492000001104,22,80.95238095238095,
ROIS2212,7,neg,150,neg150_id7_im14.bmp_neg150_id3_im17.bmp,['Im_HughJackman.png', 'Im_PatrickDempsey.png', 'Im_RyanReynolds.png', 'Im_BenStiller.png', 'Im_BenAffleck.png', 'Im_BradPitt.png', 'Im_RobertDowneyJr.png', 'Im_LeonardoDiCaprio.png', 'Im_GeorgeClooney.png', 'Im_OrlandoBloom.png'],none,1,4.408234500000162,22,80.95238095238095,
ROIS2212,7,neg,0,neg0_id13_im10.bmp_neg0_id7_im14.bmp,['Im_HughJackman.png', 'Im_PatrickDempsey.png', 'Im_RyanReynolds.png', 'Im_BenStiller.png', 'Im_BenAffleck.png', 'Im_BradPitt.png', 'Im_RobertDowneyJr.png', 'Im_LeonardoDiCaprio.png', 'Im_GeorgeClooney.png', 'Im_OrlandoBloom.png'],diff,1,1.4503371000000698,23,80.95238095238095,
ROIS2212,8,inv,120,pos120_id3_im6.bmp_pos120_id3_im8.bmp,['Im_HughJackman.png', 'Im_PatrickDempsey.png', 'Im_RyanReynolds.png', 'Im_BenStiller.png', 'Im_BenAffleck.png', 'Im_BradPitt.png', 'Im_RobertDowneyJr.png', 'Im_LeonardoDiCaprio.png', 'Im_GeorgeClooney.png', 'Im_OrlandoBloom.png'],diff,0,0.816962799999601,23,80.95238095238095,
ROIS2212,8,inv,0,pos0_id1_im4.bmp_pos0_id1_im21.bmp,['Im_HughJackman.png', 'Im_PatrickDempsey.png', 'Im_RyanReynolds.png', 'Im_BenStiller.png', 'Im_BenAffleck.png', 'Im_BradPitt.png', 'Im_RobertDowneyJr.png', 'Im_LeonardoDiCaprio.png', 'Im_GeorgeClooney.png', 'Im_OrlandoBloom.png'],same,1,0.4250285999996777,24,80.95238095238095,
ROIS2212,8,inv,60,pos60_id2_im3.bmp_pos60_id8_im21.bmp,['Im_HughJackman.png', 'Im_PatrickDempsey.png', 'Im_RyanReynolds.png', 'Im_BenStiller.png', 'Im_BenAffleck.png', 'Im_BradPitt.png', 'Im_RobertDowneyJr.png', 'Im_LeonardoDiCaprio.png', 'Im_GeorgeClooney.png', 'Im_OrlandoBloom.png'],diff,1,0.9337586999999985,25,80.95238095238095,
ROIS2212,8,inv,0,pos0_id3_im6.bmp_pos0_id21_im22.bmp,['Im_HughJackman.png', 'Im_PatrickDempsey.png', 'Im_RyanReynolds.png', 'Im_BenStiller.png', 'Im_BenAffleck.png', 'Im_BradPitt.png', 'Im_RobertDowneyJr.png', 'Im_LeonardoDiCaprio.png', 'Im_GeorgeClooney.png', 'Im_OrlandoBloom.png'],diff,1,1.8002607999997053,26,80.95238095238095,
ROIS2212,8,inv,90,pos90_id8_im21.bmp_pos90_id1_im24.bmp,['Im_HughJackman.png', 'Im_PatrickDempsey.png', 'Im_RyanReynolds.png', 'Im_BenStiller.png', 'Im_BenAffleck.png', 'Im_BradPitt.png', 'Im_RobertDowneyJr.png', 'Im_LeonardoDiCaprio.png', 'Im_GeorgeClooney.png', 'Im_OrlandoBloom.png'],diff,1,0.8583445000003849,27,80.95238095238095,
ROIS2212,8,inv,fs,posfs_id3_im8.bmp_posfs_id3_im6.bmp,['Im_HughJackman.png', 'Im_PatrickDempsey.png', 'Im_RyanReynolds.png', 'Im_BenStiller.png', 'Im_BenAffleck.png', 'Im_BradPitt.png', 'Im_RobertDowneyJr.png', 'Im_LeonardoDiCaprio.png', 'Im_GeorgeClooney.png', 'Im_OrlandoBloom.png'],same,1,0.4334406999996645,28,80.95238095238095,
ROIS2212,8,inv,150,pos150_id1_im24.bmp_pos150_id8_im21.bmp,['Im_HughJackman.png', 'Im_PatrickDempsey.png', 'Im_RyanReynolds.png', 'Im_BenStiller.png', 'Im_BenAffleck.png', 'Im_BradPitt.png', 'Im_RobertDowneyJr.png', 'Im_LeonardoDiCaprio.png', 'Im_GeorgeClooney.png', 'Im_OrlandoBloom.png'],none,1,4.40857700000015,28,80.95238095238095,
ROIS2212,8,inv,fs,posfs_id16_im19.bmp_posfs_id16_im3.bmp,['Im_HughJackman.png', 'Im_PatrickDempsey.png', 'Im_RyanReynolds.png', 'Im_BenStiller.png', 'Im_BenAffleck.png', 'Im_BradPitt.png', 'Im_RobertDowneyJr.png', 'Im_LeonardoDiCaprio.png', 'Im_GeorgeClooney.png', 'Im_OrlandoBloom.png'],same,1,0.8583684000004723,29,80.95238095238095,
ROIS2212,8,inv,120,pos120_id8_im13.bmp_pos120_id8_im20.bmp,['Im_HughJackman.png', 'Im_PatrickDempsey.png', 'Im_RyanReynolds.png', 'Im_BenStiller.png', 'Im_BenAffleck.png', 'Im_BradPitt.png', 'Im_RobertDowneyJr.png', 'Im_LeonardoDiCaprio.png', 'Im_GeorgeClooney.png', 'Im_OrlandoBloom.png'],none,1,4.408278099999734,29,80.95238095238095,
ROIS2212,8,inv,30,pos30_id21_im22.bmp_pos30_id13_im29.bmp,['Im_HughJackman.png', 'Im_PatrickDempsey.png', 'Im_RyanReynolds.png', 'Im_BenStiller.png', 'Im_BenAffleck.png', 'Im_BradPitt.png', 'Im_RobertDowneyJr.png', 'Im_LeonardoDiCaprio.png', 'Im_GeorgeClooney.png', 'Im_OrlandoBloom.png'],diff,1,0.6672321000005468,30,80.95238095238095,
ROIS2212,8,inv,30,pos30_id17_im9.bmp_pos30_id17_im14.bmp,['Im_HughJackman.png', 'Im_PatrickDempsey.png', 'Im_RyanReynolds.png', 'Im_BenStiller.png', 'Im_BenAffleck.png', 'Im_BradPitt.png', 'Im_RobertDowneyJr.png', 'Im_LeonardoDiCaprio.png', 'Im_GeorgeClooney.png', 'Im_OrlandoBloom.png'],diff,0,1.1336922000000413,30,80.95238095238095,
ROIS2212,8,inv,150,pos150_id8_im13.bmp_pos150_id17_im9.bmp,['Im_HughJackman.png', 'Im_PatrickDempsey.png', 'Im_RyanReynolds.png', 'Im_BenStiller.png', 'Im_BenAffleck.png', 'Im_BradPitt.png', 'Im_RobertDowneyJr.png', 'Im_LeonardoDiCaprio.png', 'Im_GeorgeClooney.png', 'Im_OrlandoBloom.png'],none,0,4.399910499999351,30,80.95238095238095,
ROIS2212,8,inv,60,pos60_id1_im24.bmp_pos60_id8_im20.bmp,['Im_HughJackman.png', 'Im_PatrickDempsey.png', 'Im_RyanReynolds.png', 'Im_BenStiller.png', 'Im_BenAffleck.png', 'Im_BradPitt.png', 'Im_RobertDowneyJr.png', 'Im_LeonardoDiCaprio.png', 'Im_GeorgeClooney.png', 'Im_OrlandoBloom.png'],same,0,0.4167719999995825,30,80.95238095238095,
ROIS2212,8,inv,90,pos90_id17_im14.bmp_pos90_id21_im16.bmp,['Im_HughJackman.png', 'Im_PatrickDempsey.png', 'Im_RyanReynolds.png', 'Im_BenStiller.png', 'Im_BenAffleck.png', 'Im_BradPitt.png', 'Im_RobertDowneyJr.png', 'Im_LeonardoDiCaprio.png', 'Im_GeorgeClooney.png', 'Im_OrlandoBloom.png'],diff,1,1.0670419999996739,31,80.95238095238095,
ROIS2212,9,neg,90,neg90_id2_im2.bmp_neg90_id13_im15.bmp,['Im_HughJackman.png', 'Im_PatrickDempsey.png', 'Im_RyanReynolds.png', 'Im_BenStiller.png', 'Im_BenAffleck.png', 'Im_BradPitt.png', 'Im_RobertDowneyJr.png', 'Im_LeonardoDiCaprio.png', 'Im_GeorgeClooney.png', 'Im_OrlandoBloom.png'],diff,1,0.4167256999999154,1,73.80952380952381,
ROIS2212,9,neg,120,neg120_id2_im16.bmp_neg120_id16_im3.bmp,['Im_HughJackman.png', 'Im_PatrickDempsey.png', 'Im_RyanReynolds.png', 'Im_BenStiller.png', 'Im_BenAffleck.png', 'Im_BradPitt.png', 'Im_RobertDowneyJr.png', 'Im_LeonardoDiCaprio.png', 'Im_GeorgeClooney.png', 'Im_OrlandoBloom.png'],diff,1,0.41670150000027206,2,73.80952380952381,
ROIS2212,9,neg,60,neg60_id13_im10.bmp_neg60_id13_im29.bmp,['Im_HughJackman.png', 'Im_PatrickDempsey.png', 'Im_RyanReynolds.png', 'Im_BenStiller.png', 'Im_BenAffleck.png', 'Im_BradPitt.png', 'Im_RobertDowneyJr.png', 'Im_LeonardoDiCaprio.png', 'Im_GeorgeClooney.png', 'Im_OrlandoBloom.png'],same,1,0.4249173999996856,3,73.80952380952381,
ROIS2212,9,neg,60,neg60_id2_im3.bmp_neg60_id8_im21.bmp,['Im_HughJackman.png', 'Im_PatrickDempsey.png', 'Im_RyanReynolds.png', 'Im_BenStiller.png', 'Im_BenAffleck.png', 'Im_BradPitt.png', 'Im_RobertDowneyJr.png', 'Im_LeonardoDiCaprio.png', 'Im_GeorgeClooney.png', 'Im_OrlandoBloom.png'],diff,1,0.5586141000003408,4,73.80952380952381,
ROIS2212,9,neg,fs,negfs_id8_im20.bmp_negfs_id1_im24.bmp,['Im_HughJackman.png', 'Im_PatrickDempsey.png', 'Im_RyanReynolds.png', 'Im_BenStiller.png', 'Im_BenAffleck.png', 'Im_BradPitt.png', 'Im_RobertDowneyJr.png', 'Im_LeonardoDiCaprio.png', 'Im_GeorgeClooney.png', 'Im_OrlandoBloom.png'],diff,1,0.96656719999919,5,73.80952380952381,
ROIS2212,9,neg,120,neg120_id18_im18.bmp_neg120_id13_im15.bmp,['Im_HughJackman.png', 'Im_PatrickDempsey.png', 'Im_RyanReynolds.png', 'Im_BenStiller.png', 'Im_BenAffleck.png', 'Im_BradPitt.png', 'Im_RobertDowneyJr.png', 'Im_LeonardoDiCaprio.png', 'Im_GeorgeClooney.png', 'Im_OrlandoBloom.png'],diff,1,0.42507730000033916,6,73.80952380952381,
ROIS2212,9,neg,90,neg90_id3_im6.bmp_neg90_id8_im13.bmp,['Im_HughJackman.png', 'Im_PatrickDempsey.png', 'Im_RyanReynolds.png', 'Im_BenStiller.png', 'Im_BenAffleck.png', 'Im_BradPitt.png', 'Im_RobertDowneyJr.png', 'Im_LeonardoDiCaprio.png', 'Im_GeorgeClooney.png', 'Im_OrlandoBloom.png'],same,0,0.6667004999999335,6,73.80952380952381,
ROIS2212,9,neg,150,neg150_id13_im10.bmp_neg150_id2_im16.bmp,['Im_HughJackman.png', 'Im_PatrickDempsey.png', 'Im_RyanReynolds.png', 'Im_BenStiller.png', 'Im_BenAffleck.png', 'Im_BradPitt.png', 'Im_RobertDowneyJr.png', 'Im_LeonardoDiCaprio.png', 'Im_GeorgeClooney.png', 'Im_OrlandoBloom.png'],diff,1,0.5003899000003003,7,73.80952380952381,
ROIS2212,9,neg,30,neg30_id21_im22.bmp_neg30_id21_im17.bmp,['Im_HughJackman.png', 'Im_PatrickDempsey.png', 'Im_RyanReynolds.png', 'Im_BenStiller.png', 'Im_BenAffleck.png', 'Im_BradPitt.png', 'Im_RobertDowneyJr.png', 'Im_LeonardoDiCaprio.png', 'Im_GeorgeClooney.png', 'Im_OrlandoBloom.png'],same,1,0.6167197999993732,8,73.80952380952381,
ROIS2212,9,neg,0,neg0_id8_im13.bmp_neg0_id3_im6.bmp,['Im_HughJackman.png', 'Im_PatrickDempsey.png', 'Im_RyanReynolds.png', 'Im_BenStiller.png', 'Im_BenAffleck.png', 'Im_BradPitt.png', 'Im_RobertDowneyJr.png', 'Im_LeonardoDiCaprio.png', 'Im_GeorgeClooney.png', 'Im_OrlandoBloom.png'],diff,1,1.1748789000002944,9,73.80952380952381,
ROIS2212,9,neg,30,neg30_id3_im8.bmp_neg30_id3_im17.bmp,['Im_HughJackman.png', 'Im_PatrickDempsey.png', 'Im_RyanReynolds.png', 'Im_BenStiller.png', 'Im_BenAffleck.png', 'Im_BradPitt.png', 'Im_RobertDowneyJr.png', 'Im_LeonardoDiCaprio.png', 'Im_GeorgeClooney.png', 'Im_OrlandoBloom.png'],same,1,0.6670376000001852,10,73.80952380952381,
ROIS2212,9,neg,fs,negfs_id21_im17.bmp_negfs_id21_im16.bmp,['Im_HughJackman.png', 'Im_PatrickDempsey.png', 'Im_RyanReynolds.png', 'Im_BenStiller.png', 'Im_BenAffleck.png', 'Im_BradPitt.png', 'Im_RobertDowneyJr.png', 'Im_LeonardoDiCaprio.png', 'Im_GeorgeClooney.png', 'Im_OrlandoBloom.png'],same,1,0.5749874999992244,11,73.80952380952381,
ROIS2212,9,neg,0,neg0_id13_im29.bmp_neg0_id16_im3.bmp,['Im_HughJackman.png', 'Im_PatrickDempsey.png', 'Im_RyanReynolds.png', 'Im_BenStiller.png', 'Im_BenAffleck.png', 'Im_BradPitt.png', 'Im_RobertDowneyJr.png', 'Im_LeonardoDiCaprio.png', 'Im_GeorgeClooney.png', 'Im_OrlandoBloom.png'],diff,1,0.5169681999996101,12,73.80952380952381,
ROIS2212,9,neg,150,neg150_id17_im14.bmp_neg150_id21_im16.bmp,['Im_HughJackman.png', 'Im_PatrickDempsey.png', 'Im_RyanReynolds.png', 'Im_BenStiller.png', 'Im_BenAffleck.png', 'Im_BradPitt.png', 'Im_RobertDowneyJr.png', 'Im_LeonardoDiCaprio.png', 'Im_GeorgeClooney.png', 'Im_OrlandoBloom.png'],diff,1,0.5918132000006153,13,73.80952380952381,
ROIS2212,10,pos,90,pos90_id21_im16.bmp_pos90_id8_im20.bmp,['Im_HughJackman.png', 'Im_PatrickDempsey.png', 'Im_RyanReynolds.png', 'Im_BenStiller.png', 'Im_BenAffleck.png', 'Im_BradPitt.png', 'Im_RobertDowneyJr.png', 'Im_LeonardoDiCaprio.png', 'Im_GeorgeClooney.png', 'Im_OrlandoBloom.png'],diff,1,0.5834177999995518,14,73.80952380952381,
