Sujet,Trial,Condition,Filter,Imname,Actor0,Actor1,Actor2,Actor3,Actor4,Actor5,Actor6,Actor7,Actor8,Actor9,Answer,Accu,RT,Score,Scoreperc, 
ROIS2212,train,neg,60,neg60_id16_im3.bmp_neg60_id2_im16.bmp,['Im_HughJackman.png', 'Im_BradPitt.png', 'Im_RyanReynolds.png', 'Im_OrlandoBloom.png', 'Im_BenStiller.png', 'Im_BenAffleck.png', 'Im_RobertDowneyJr.png', 'Im_LeonardoDiCaprio.png', 'Im_GeorgeClooney.png', 'Im_PatrickDempsey.png'],diff,1,1.425014700002066,1,0,
ROIS2212,train,neg,90,neg90_id21_im22.bmp_neg90_id21_im16.bmp,['Im_HughJackman.png', 'Im_BradPitt.png', 'Im_RyanReynolds.png', 'Im_OrlandoBloom.png', 'Im_BenStiller.png', 'Im_BenAffleck.png', 'Im_RobertDowneyJr.png', 'Im_LeonardoDiCaprio.png', 'Im_GeorgeClooney.png', 'Im_PatrickDempsey.png'],diff,0,0.8753023999997822,1,0,
ROIS2212,train,neg,120,neg120_id8_im13.bmp_neg120_id17_im9.bmp,['Im_HughJackman.png', 'Im_BradPitt.png', 'Im_RyanReynolds.png', 'Im_OrlandoBloom.png', 'Im_BenStiller.png', 'Im_BenAffleck.png', 'Im_RobertDowneyJr.png', 'Im_LeonardoDiCaprio.png', 'Im_GeorgeClooney.png', 'Im_PatrickDempsey.png'],diff,1,0.8750129000000015,2,0,
ROIS2212,train,neg,150,neg150_id18_im18.bmp_neg150_id18_im11.bmp,['Im_HughJackman.png', 'Im_BradPitt.png', 'Im_RyanReynolds.png', 'Im_OrlandoBloom.png', 'Im_BenStiller.png', 'Im_BenAffleck.png', 'Im_RobertDowneyJr.png', 'Im_LeonardoDiCaprio.png', 'Im_GeorgeClooney.png', 'Im_PatrickDempsey.png'],same,1,0.42525599999862607,3,0,
ROIS2212,train,neg,0,neg0_id18_im18.bmp_neg0_id18_im19.bmp,['Im_HughJackman.png', 'Im_BradPitt.png', 'Im_RyanReynolds.png', 'Im_OrlandoBloom.png', 'Im_BenStiller.png', 'Im_BenAffleck.png', 'Im_RobertDowneyJr.png', 'Im_LeonardoDiCaprio.png', 'Im_GeorgeClooney.png', 'Im_PatrickDempsey.png'],diff,0,0.6415792000007059,3,0,
ROIS2212,train,neg,30,neg30_id7_im15.bmp_neg30_id7_im26.bmp,['Im_HughJackman.png', 'Im_BradPitt.png', 'Im_RyanReynolds.png', 'Im_OrlandoBloom.png', 'Im_BenStiller.png', 'Im_BenAffleck.png', 'Im_RobertDowneyJr.png', 'Im_LeonardoDiCaprio.png', 'Im_GeorgeClooney.png', 'Im_PatrickDempsey.png'],same,1,0.741825199998857,4,0,
ROIS2212,train,neg,0,neg0_id16_im2.bmp_neg0_id18_im11.bmp,['Im_HughJackman.png', 'Im_BradPitt.png', 'Im_RyanReynolds.png', 'Im_OrlandoBloom.png', 'Im_BenStiller.png', 'Im_BenAffleck.png', 'Im_RobertDowneyJr.png', 'Im_LeonardoDiCaprio.png', 'Im_GeorgeClooney.png', 'Im_PatrickDempsey.png'],diff,1,0.8502485000026354,5,0,
ROIS2212,train,neg,60,neg60_id16_im3.bmp_neg60_id13_im29.bmp,['Im_HughJackman.png', 'Im_BradPitt.png', 'Im_RyanReynolds.png', 'Im_OrlandoBloom.png', 'Im_BenStiller.png', 'Im_BenAffleck.png', 'Im_RobertDowneyJr.png', 'Im_LeonardoDiCaprio.png', 'Im_GeorgeClooney.png', 'Im_PatrickDempsey.png'],diff,1,0.6998925999978383,6,0,
ROIS2212,train,neg,fs,negfs_id8_im20.bmp_negfs_id8_im21.bmp,['Im_HughJackman.png', 'Im_BradPitt.png', 'Im_RyanReynolds.png', 'Im_OrlandoBloom.png', 'Im_BenStiller.png', 'Im_BenAffleck.png', 'Im_RobertDowneyJr.png', 'Im_LeonardoDiCaprio.png', 'Im_GeorgeClooney.png', 'Im_PatrickDempsey.png'],same,1,0.42507169999953476,7,0,
ROIS2212,train,neg,30,neg30_id8_im21.bmp_neg30_id8_im13.bmp,['Im_HughJackman.png', 'Im_BradPitt.png', 'Im_RyanReynolds.png', 'Im_OrlandoBloom.png', 'Im_BenStiller.png', 'Im_BenAffleck.png', 'Im_RobertDowneyJr.png', 'Im_LeonardoDiCaprio.png', 'Im_GeorgeClooney.png', 'Im_PatrickDempsey.png'],same,1,0.6746408999970299,8,0,
ROIS2212,train,neg,fs,negfs_id16_im3.bmp_negfs_id16_im2.bmp,['Im_HughJackman.png', 'Im_BradPitt.png', 'Im_RyanReynolds.png', 'Im_OrlandoBloom.png', 'Im_BenStiller.png', 'Im_BenAffleck.png', 'Im_RobertDowneyJr.png', 'Im_LeonardoDiCaprio.png', 'Im_GeorgeClooney.png', 'Im_PatrickDempsey.png'],same,1,0.6419960999992327,9,0,
ROIS2212,train,neg,120,neg120_id2_im16.bmp_neg120_id2_im2.bmp,['Im_HughJackman.png', 'Im_BradPitt.png', 'Im_RyanReynolds.png', 'Im_OrlandoBloom.png', 'Im_BenStiller.png', 'Im_BenAffleck.png', 'Im_RobertDowneyJr.png', 'Im_LeonardoDiCaprio.png', 'Im_GeorgeClooney.png', 'Im_PatrickDempsey.png'],same,1,0.5751423000001523,10,0,
ROIS2212,train,neg,150,neg150_id7_im14.bmp_neg150_id7_im26.bmp,['Im_HughJackman.png', 'Im_BradPitt.png', 'Im_RyanReynolds.png', 'Im_OrlandoBloom.png', 'Im_BenStiller.png', 'Im_BenAffleck.png', 'Im_RobertDowneyJr.png', 'Im_LeonardoDiCaprio.png', 'Im_GeorgeClooney.png', 'Im_PatrickDempsey.png'],same,1,0.40840209999805666,11,0,
ROIS2212,train,neg,90,neg90_id3_im17.bmp_neg90_id1_im21.bmp,['Im_HughJackman.png', 'Im_BradPitt.png', 'Im_RyanReynolds.png', 'Im_OrlandoBloom.png', 'Im_BenStiller.png', 'Im_BenAffleck.png', 'Im_RobertDowneyJr.png', 'Im_LeonardoDiCaprio.png', 'Im_GeorgeClooney.png', 'Im_PatrickDempsey.png'],diff,1,0.4669586000018171,12,0,
ROIS2212,train,neg,30,neg30_id7_im15.bmp_neg30_id17_im8.bmp,['Im_HughJackman.png', 'Im_BradPitt.png', 'Im_RyanReynolds.png', 'Im_OrlandoBloom.png', 'Im_BenStiller.png', 'Im_BenAffleck.png', 'Im_RobertDowneyJr.png', 'Im_LeonardoDiCaprio.png', 'Im_GeorgeClooney.png', 'Im_PatrickDempsey.png'],same,0,1.0752184999983,12,0,
ROIS2212,train,neg,150,neg150_id1_im4.bmp_neg150_id1_im24.bmp,['Im_HughJackman.png', 'Im_BradPitt.png', 'Im_RyanReynolds.png', 'Im_OrlandoBloom.png', 'Im_BenStiller.png', 'Im_BenAffleck.png', 'Im_RobertDowneyJr.png', 'Im_LeonardoDiCaprio.png', 'Im_GeorgeClooney.png', 'Im_PatrickDempsey.png'],diff,0,0.7001589999999851,12,0,
ROIS2212,train,neg,120,neg120_id3_im6.bmp_neg120_id3_im17.bmp,['Im_HughJackman.png', 'Im_BradPitt.png', 'Im_RyanReynolds.png', 'Im_OrlandoBloom.png', 'Im_BenStiller.png', 'Im_BenAffleck.png', 'Im_RobertDowneyJr.png', 'Im_LeonardoDiCaprio.png', 'Im_GeorgeClooney.png', 'Im_PatrickDempsey.png'],same,1,0.42505720000190195,13,0,
ROIS2212,train,neg,0,neg0_id18_im18.bmp_neg0_id13_im15.bmp,['Im_HughJackman.png', 'Im_BradPitt.png', 'Im_RyanReynolds.png', 'Im_OrlandoBloom.png', 'Im_BenStiller.png', 'Im_BenAffleck.png', 'Im_RobertDowneyJr.png', 'Im_LeonardoDiCaprio.png', 'Im_GeorgeClooney.png', 'Im_PatrickDempsey.png'],none,1,4.416928100003133,13,0,
ROIS2212,train,neg,60,neg60_id3_im6.bmp_neg60_id8_im13.bmp,['Im_HughJackman.png', 'Im_BradPitt.png', 'Im_RyanReynolds.png', 'Im_OrlandoBloom.png', 'Im_BenStiller.png', 'Im_BenAffleck.png', 'Im_RobertDowneyJr.png', 'Im_LeonardoDiCaprio.png', 'Im_GeorgeClooney.png', 'Im_PatrickDempsey.png'],diff,1,0.5416526999979396,14,0,
ROIS2212,train,neg,60,neg60_id21_im17.bmp_neg60_id7_im15.bmp,['Im_HughJackman.png', 'Im_BradPitt.png', 'Im_RyanReynolds.png', 'Im_OrlandoBloom.png', 'Im_BenStiller.png', 'Im_BenAffleck.png', 'Im_RobertDowneyJr.png', 'Im_LeonardoDiCaprio.png', 'Im_GeorgeClooney.png', 'Im_PatrickDempsey.png'],diff,1,0.9917077000027348,15,0,
ROIS2212,train,neg,150,neg150_id13_im29.bmp_neg150_id13_im10.bmp,['Im_HughJackman.png', 'Im_BradPitt.png', 'Im_RyanReynolds.png', 'Im_OrlandoBloom.png', 'Im_BenStiller.png', 'Im_BenAffleck.png', 'Im_RobertDowneyJr.png', 'Im_LeonardoDiCaprio.png', 'Im_GeorgeClooney.png', 'Im_PatrickDempsey.png'],same,1,0.43335230000229785,16,0,
ROIS2212,train,neg,120,neg120_id1_im4.bmp_neg120_id16_im19.bmp,['Im_HughJackman.png', 'Im_BradPitt.png', 'Im_RyanReynolds.png', 'Im_OrlandoBloom.png', 'Im_BenStiller.png', 'Im_BenAffleck.png', 'Im_RobertDowneyJr.png', 'Im_LeonardoDiCaprio.png', 'Im_GeorgeClooney.png', 'Im_PatrickDempsey.png'],diff,1,0.9168985999967845,17,0,
ROIS2212,train,neg,fs,negfs_id18_im19.bmp_negfs_id18_im11.bmp,['Im_HughJackman.png', 'Im_BradPitt.png', 'Im_RyanReynolds.png', 'Im_OrlandoBloom.png', 'Im_BenStiller.png', 'Im_BenAffleck.png', 'Im_RobertDowneyJr.png', 'Im_LeonardoDiCaprio.png', 'Im_GeorgeClooney.png', 'Im_PatrickDempsey.png'],same,1,0.925260399999388,18,0,
ROIS2212,train,neg,30,neg30_id2_im2.bmp_neg30_id18_im19.bmp,['Im_HughJackman.png', 'Im_BradPitt.png', 'Im_RyanReynolds.png', 'Im_OrlandoBloom.png', 'Im_BenStiller.png', 'Im_BenAffleck.png', 'Im_RobertDowneyJr.png', 'Im_LeonardoDiCaprio.png', 'Im_GeorgeClooney.png', 'Im_PatrickDempsey.png'],same,0,0.6585969000007026,18,0,
ROIS2212,train,neg,0,neg0_id8_im21.bmp_neg0_id1_im24.bmp,['Im_HughJackman.png', 'Im_BradPitt.png', 'Im_RyanReynolds.png', 'Im_OrlandoBloom.png', 'Im_BenStiller.png', 'Im_BenAffleck.png', 'Im_RobertDowneyJr.png', 'Im_LeonardoDiCaprio.png', 'Im_GeorgeClooney.png', 'Im_PatrickDempsey.png'],diff,1,0.4585334999974293,19,0,
ROIS2212,train,neg,90,neg90_id16_im19.bmp_neg90_id17_im8.bmp,['Im_HughJackman.png', 'Im_BradPitt.png', 'Im_RyanReynolds.png', 'Im_OrlandoBloom.png', 'Im_BenStiller.png', 'Im_BenAffleck.png', 'Im_RobertDowneyJr.png', 'Im_LeonardoDiCaprio.png', 'Im_GeorgeClooney.png', 'Im_PatrickDempsey.png'],diff,1,0.6082831999992777,20,0,
ROIS2212,train,neg,90,neg90_id16_im19.bmp_neg90_id1_im4.bmp,['Im_HughJackman.png', 'Im_BradPitt.png', 'Im_RyanReynolds.png', 'Im_OrlandoBloom.png', 'Im_BenStiller.png', 'Im_BenAffleck.png', 'Im_RobertDowneyJr.png', 'Im_LeonardoDiCaprio.png', 'Im_GeorgeClooney.png', 'Im_PatrickDempsey.png'],diff,1,0.4084093000019493,21,0,
ROIS2212,train,neg,fs,negfs_id8_im21.bmp_negfs_id1_im24.bmp,['Im_HughJackman.png', 'Im_BradPitt.png', 'Im_RyanReynolds.png', 'Im_OrlandoBloom.png', 'Im_BenStiller.png', 'Im_BenAffleck.png', 'Im_RobertDowneyJr.png', 'Im_LeonardoDiCaprio.png', 'Im_GeorgeClooney.png', 'Im_PatrickDempsey.png'],diff,1,0.4082976999998209,22,0,
ROIS2212,train,inv,120,pos120_id21_im16.bmp_pos120_id21_im17.bmp,['Im_HughJackman.png', 'Im_BradPitt.png', 'Im_RyanReynolds.png', 'Im_OrlandoBloom.png', 'Im_BenStiller.png', 'Im_BenAffleck.png', 'Im_RobertDowneyJr.png', 'Im_LeonardoDiCaprio.png', 'Im_GeorgeClooney.png', 'Im_PatrickDempsey.png'],none,1,4.408207599997695,22,0,
ROIS2212,train,inv,30,pos30_id13_im15.bmp_pos30_id13_im10.bmp,['Im_HughJackman.png', 'Im_BradPitt.png', 'Im_RyanReynolds.png', 'Im_OrlandoBloom.png', 'Im_BenStiller.png', 'Im_BenAffleck.png', 'Im_RobertDowneyJr.png', 'Im_LeonardoDiCaprio.png', 'Im_GeorgeClooney.png', 'Im_PatrickDempsey.png'],same,1,0.4167230000020936,23,0,
ROIS2212,train,inv,150,pos150_id21_im22.bmp_pos150_id21_im16.bmp,['Im_HughJackman.png', 'Im_BradPitt.png', 'Im_RyanReynolds.png', 'Im_OrlandoBloom.png', 'Im_BenStiller.png', 'Im_BenAffleck.png', 'Im_RobertDowneyJr.png', 'Im_LeonardoDiCaprio.png', 'Im_GeorgeClooney.png', 'Im_PatrickDempsey.png'],same,1,1.1000825999981316,24,0,
ROIS2212,train,inv,0,pos0_id7_im26.bmp_pos0_id7_im15.bmp,['Im_HughJackman.png', 'Im_BradPitt.png', 'Im_RyanReynolds.png', 'Im_OrlandoBloom.png', 'Im_BenStiller.png', 'Im_BenAffleck.png', 'Im_RobertDowneyJr.png', 'Im_LeonardoDiCaprio.png', 'Im_GeorgeClooney.png', 'Im_PatrickDempsey.png'],same,1,0.4250476000015624,25,0,
ROIS2212,train,inv,0,pos0_id1_im24.bmp_pos0_id8_im20.bmp,['Im_HughJackman.png', 'Im_BradPitt.png', 'Im_RyanReynolds.png', 'Im_OrlandoBloom.png', 'Im_BenStiller.png', 'Im_BenAffleck.png', 'Im_RobertDowneyJr.png', 'Im_LeonardoDiCaprio.png', 'Im_GeorgeClooney.png', 'Im_PatrickDempsey.png'],diff,1,0.8916386999990209,26,0,
ROIS2212,train,inv,90,pos90_id17_im8.bmp_pos90_id17_im14.bmp,['Im_HughJackman.png', 'Im_BradPitt.png', 'Im_RyanReynolds.png', 'Im_OrlandoBloom.png', 'Im_BenStiller.png', 'Im_BenAffleck.png', 'Im_RobertDowneyJr.png', 'Im_LeonardoDiCaprio.png', 'Im_GeorgeClooney.png', 'Im_PatrickDempsey.png'],same,1,1.2251992999990762,27,0,
ROIS2212,train,inv,30,pos30_id17_im9.bmp_pos30_id1_im4.bmp,['Im_HughJackman.png', 'Im_BradPitt.png', 'Im_RyanReynolds.png', 'Im_OrlandoBloom.png', 'Im_BenStiller.png', 'Im_BenAffleck.png', 'Im_RobertDowneyJr.png', 'Im_LeonardoDiCaprio.png', 'Im_GeorgeClooney.png', 'Im_PatrickDempsey.png'],diff,1,0.5419217999988177,28,0,
ROIS2212,train,inv,120,pos120_id3_im17.bmp_pos120_id7_im14.bmp,['Im_HughJackman.png', 'Im_BradPitt.png', 'Im_RyanReynolds.png', 'Im_OrlandoBloom.png', 'Im_BenStiller.png', 'Im_BenAffleck.png', 'Im_RobertDowneyJr.png', 'Im_LeonardoDiCaprio.png', 'Im_GeorgeClooney.png', 'Im_PatrickDempsey.png'],diff,1,0.5750516999978572,29,0,
ROIS2212,train,inv,150,pos150_id16_im19.bmp_pos150_id1_im4.bmp,['Im_HughJackman.png', 'Im_BradPitt.png', 'Im_RyanReynolds.png', 'Im_OrlandoBloom.png', 'Im_BenStiller.png', 'Im_BenAffleck.png', 'Im_RobertDowneyJr.png', 'Im_LeonardoDiCaprio.png', 'Im_GeorgeClooney.png', 'Im_PatrickDempsey.png'],diff,1,0.5749729999988631,30,0,
ROIS2212,train,inv,60,pos60_id2_im2.bmp_pos60_id2_im16.bmp,['Im_HughJackman.png', 'Im_BradPitt.png', 'Im_RyanReynolds.png', 'Im_OrlandoBloom.png', 'Im_BenStiller.png', 'Im_BenAffleck.png', 'Im_RobertDowneyJr.png', 'Im_LeonardoDiCaprio.png', 'Im_GeorgeClooney.png', 'Im_PatrickDempsey.png'],same,1,0.42506659999708063,31,0,
ROIS2212,train,inv,fs,posfs_id13_im10.bmp_posfs_id13_im29.bmp,['Im_HughJackman.png', 'Im_BradPitt.png', 'Im_RyanReynolds.png', 'Im_OrlandoBloom.png', 'Im_BenStiller.png', 'Im_BenAffleck.png', 'Im_RobertDowneyJr.png', 'Im_LeonardoDiCaprio.png', 'Im_GeorgeClooney.png', 'Im_PatrickDempsey.png'],same,1,0.4916845000007015,32,0,
ROIS2212,train,inv,90,pos90_id8_im13.bmp_pos90_id8_im21.bmp,['Im_HughJackman.png', 'Im_BradPitt.png', 'Im_RyanReynolds.png', 'Im_OrlandoBloom.png', 'Im_BenStiller.png', 'Im_BenAffleck.png', 'Im_RobertDowneyJr.png', 'Im_LeonardoDiCaprio.png', 'Im_GeorgeClooney.png', 'Im_PatrickDempsey.png'],same,1,0.5750513999992108,33,0,
ROIS2212,train,inv,60,pos60_id17_im8.bmp_pos60_id7_im15.bmp,['Im_HughJackman.png', 'Im_BradPitt.png', 'Im_RyanReynolds.png', 'Im_OrlandoBloom.png', 'Im_BenStiller.png', 'Im_BenAffleck.png', 'Im_RobertDowneyJr.png', 'Im_LeonardoDiCaprio.png', 'Im_GeorgeClooney.png', 'Im_PatrickDempsey.png'],none,1,4.4249555000023975,33,0,
ROIS2212,train,inv,fs,posfs_id18_im19.bmp_posfs_id18_im18.bmp,['Im_HughJackman.png', 'Im_BradPitt.png', 'Im_RyanReynolds.png', 'Im_OrlandoBloom.png', 'Im_BenStiller.png', 'Im_BenAffleck.png', 'Im_RobertDowneyJr.png', 'Im_LeonardoDiCaprio.png', 'Im_GeorgeClooney.png', 'Im_PatrickDempsey.png'],same,1,0.5750441000018327,34,0,
ROIS2212,train,pos,150,pos150_id7_im14.bmp_pos150_id3_im17.bmp,['Im_HughJackman.png', 'Im_BradPitt.png', 'Im_RyanReynolds.png', 'Im_OrlandoBloom.png', 'Im_BenStiller.png', 'Im_BenAffleck.png', 'Im_RobertDowneyJr.png', 'Im_LeonardoDiCaprio.png', 'Im_GeorgeClooney.png', 'Im_PatrickDempsey.png'],none,1,4.416704100000061,0,80.95238095238095,
ROIS2212,train,pos,60,pos60_id1_im24.bmp_pos60_id1_im4.bmp,['Im_HughJackman.png', 'Im_BradPitt.png', 'Im_RyanReynolds.png', 'Im_OrlandoBloom.png', 'Im_BenStiller.png', 'Im_BenAffleck.png', 'Im_RobertDowneyJr.png', 'Im_LeonardoDiCaprio.png', 'Im_GeorgeClooney.png', 'Im_PatrickDempsey.png'],same,1,0.42509119999886025,1,80.95238095238095,
ROIS2212,train,pos,30,pos30_id18_im11.bmp_pos30_id18_im18.bmp,['Im_HughJackman.png', 'Im_BradPitt.png', 'Im_RyanReynolds.png', 'Im_OrlandoBloom.png', 'Im_BenStiller.png', 'Im_BenAffleck.png', 'Im_RobertDowneyJr.png', 'Im_LeonardoDiCaprio.png', 'Im_GeorgeClooney.png', 'Im_PatrickDempsey.png'],same,1,0.6666981999987911,2,80.95238095238095,
ROIS2212,train,pos,fs,posfs_id7_im15.bmp_posfs_id7_im26.bmp,['Im_HughJackman.png', 'Im_BradPitt.png', 'Im_RyanReynolds.png', 'Im_OrlandoBloom.png', 'Im_BenStiller.png', 'Im_BenAffleck.png', 'Im_RobertDowneyJr.png', 'Im_LeonardoDiCaprio.png', 'Im_GeorgeClooney.png', 'Im_PatrickDempsey.png'],same,1,0.4166944999997213,3,80.95238095238095,
ROIS2212,train,pos,90,pos90_id18_im19.bmp_pos90_id18_im18.bmp,['Im_HughJackman.png', 'Im_BradPitt.png', 'Im_RyanReynolds.png', 'Im_OrlandoBloom.png', 'Im_BenStiller.png', 'Im_BenAffleck.png', 'Im_RobertDowneyJr.png', 'Im_LeonardoDiCaprio.png', 'Im_GeorgeClooney.png', 'Im_PatrickDempsey.png'],same,1,0.42473679999966407,4,80.95238095238095,
ROIS2212,train,pos,90,pos90_id18_im11.bmp_pos90_id18_im18.bmp,['Im_HughJackman.png', 'Im_BradPitt.png', 'Im_RyanReynolds.png', 'Im_OrlandoBloom.png', 'Im_BenStiller.png', 'Im_BenAffleck.png', 'Im_RobertDowneyJr.png', 'Im_LeonardoDiCaprio.png', 'Im_GeorgeClooney.png', 'Im_PatrickDempsey.png'],same,1,0.4249312000029022,5,80.95238095238095,
ROIS2212,train,pos,120,pos120_id1_im4.bmp_pos120_id17_im9.bmp,['Im_HughJackman.png', 'Im_BradPitt.png', 'Im_RyanReynolds.png', 'Im_OrlandoBloom.png', 'Im_BenStiller.png', 'Im_BenAffleck.png', 'Im_RobertDowneyJr.png', 'Im_LeonardoDiCaprio.png', 'Im_GeorgeClooney.png', 'Im_PatrickDempsey.png'],diff,1,0.4500539000000572,6,80.95238095238095,
ROIS2212,train,pos,120,pos120_id18_im11.bmp_pos120_id2_im3.bmp,['Im_HughJackman.png', 'Im_BradPitt.png', 'Im_RyanReynolds.png', 'Im_OrlandoBloom.png', 'Im_BenStiller.png', 'Im_BenAffleck.png', 'Im_RobertDowneyJr.png', 'Im_LeonardoDiCaprio.png', 'Im_GeorgeClooney.png', 'Im_PatrickDempsey.png'],diff,1,0.4249950000012177,7,80.95238095238095,
ROIS2212,train,pos,150,pos150_id21_im16.bmp_pos150_id21_im17.bmp,['Im_HughJackman.png', 'Im_BradPitt.png', 'Im_RyanReynolds.png', 'Im_OrlandoBloom.png', 'Im_BenStiller.png', 'Im_BenAffleck.png', 'Im_RobertDowneyJr.png', 'Im_LeonardoDiCaprio.png', 'Im_GeorgeClooney.png', 'Im_PatrickDempsey.png'],same,1,0.41668660000141244,8,80.95238095238095,
ROIS2212,train,pos,0,pos0_id16_im19.bmp_pos0_id17_im8.bmp,['Im_HughJackman.png', 'Im_BradPitt.png', 'Im_RyanReynolds.png', 'Im_OrlandoBloom.png', 'Im_BenStiller.png', 'Im_BenAffleck.png', 'Im_RobertDowneyJr.png', 'Im_LeonardoDiCaprio.png', 'Im_GeorgeClooney.png', 'Im_PatrickDempsey.png'],diff,1,0.5833863000007113,9,80.95238095238095,
ROIS2212,train,pos,fs,posfs_id7_im14.bmp_posfs_id13_im10.bmp,['Im_HughJackman.png', 'Im_BradPitt.png', 'Im_RyanReynolds.png', 'Im_OrlandoBloom.png', 'Im_BenStiller.png', 'Im_BenAffleck.png', 'Im_RobertDowneyJr.png', 'Im_LeonardoDiCaprio.png', 'Im_GeorgeClooney.png', 'Im_PatrickDempsey.png'],diff,1,0.4332423999985622,10,80.95238095238095,
ROIS2212,train,pos,0,pos0_id16_im19.bmp_pos0_id16_im3.bmp,['Im_HughJackman.png', 'Im_BradPitt.png', 'Im_RyanReynolds.png', 'Im_OrlandoBloom.png', 'Im_BenStiller.png', 'Im_BenAffleck.png', 'Im_RobertDowneyJr.png', 'Im_LeonardoDiCaprio.png', 'Im_GeorgeClooney.png', 'Im_PatrickDempsey.png'],same,1,0.8500092000031145,11,80.95238095238095,
ROIS2212,train,pos,60,pos60_id16_im3.bmp_pos60_id16_im19.bmp,['Im_HughJackman.png', 'Im_BradPitt.png', 'Im_RyanReynolds.png', 'Im_OrlandoBloom.png', 'Im_BenStiller.png', 'Im_BenAffleck.png', 'Im_RobertDowneyJr.png', 'Im_LeonardoDiCaprio.png', 'Im_GeorgeClooney.png', 'Im_PatrickDempsey.png'],same,1,0.46672250000119675,12,80.95238095238095,
ROIS2212,train,pos,30,pos30_id13_im15.bmp_pos30_id18_im18.bmp,['Im_HughJackman.png', 'Im_BradPitt.png', 'Im_RyanReynolds.png', 'Im_OrlandoBloom.png', 'Im_BenStiller.png', 'Im_BenAffleck.png', 'Im_RobertDowneyJr.png', 'Im_LeonardoDiCaprio.png', 'Im_GeorgeClooney.png', 'Im_PatrickDempsey.png'],diff,1,0.5581783999987238,13,80.95238095238095,
ROIS2212,train,inv,120,pos120_id17_im8.bmp_pos120_id17_im9.bmp,['Im_HughJackman.png', 'Im_BradPitt.png', 'Im_RyanReynolds.png', 'Im_OrlandoBloom.png', 'Im_BenStiller.png', 'Im_BenAffleck.png', 'Im_RobertDowneyJr.png', 'Im_LeonardoDiCaprio.png', 'Im_GeorgeClooney.png', 'Im_PatrickDempsey.png'],same,1,0.866185899998527,14,80.95238095238095,
ROIS2212,train,inv,30,pos30_id17_im8.bmp_pos30_id16_im19.bmp,['Im_HughJackman.png', 'Im_BradPitt.png', 'Im_RyanReynolds.png', 'Im_OrlandoBloom.png', 'Im_BenStiller.png', 'Im_BenAffleck.png', 'Im_RobertDowneyJr.png', 'Im_LeonardoDiCaprio.png', 'Im_GeorgeClooney.png', 'Im_PatrickDempsey.png'],diff,1,0.6667566000032821,15,80.95238095238095,
ROIS2212,train,inv,fs,posfs_id21_im17.bmp_posfs_id7_im15.bmp,['Im_HughJackman.png', 'Im_BradPitt.png', 'Im_RyanReynolds.png', 'Im_OrlandoBloom.png', 'Im_BenStiller.png', 'Im_BenAffleck.png', 'Im_RobertDowneyJr.png', 'Im_LeonardoDiCaprio.png', 'Im_GeorgeClooney.png', 'Im_PatrickDempsey.png'],diff,1,0.408482400001958,16,80.95238095238095,
ROIS2212,train,inv,fs,posfs_id2_im2.bmp_posfs_id18_im19.bmp,['Im_HughJackman.png', 'Im_BradPitt.png', 'Im_RyanReynolds.png', 'Im_OrlandoBloom.png', 'Im_BenStiller.png', 'Im_BenAffleck.png', 'Im_RobertDowneyJr.png', 'Im_LeonardoDiCaprio.png', 'Im_GeorgeClooney.png', 'Im_PatrickDempsey.png'],diff,1,0.7751284000005398,17,80.95238095238095,
ROIS2212,train,inv,90,pos90_id7_im14.bmp_pos90_id7_im26.bmp,['Im_HughJackman.png', 'Im_BradPitt.png', 'Im_RyanReynolds.png', 'Im_OrlandoBloom.png', 'Im_BenStiller.png', 'Im_BenAffleck.png', 'Im_RobertDowneyJr.png', 'Im_LeonardoDiCaprio.png', 'Im_GeorgeClooney.png', 'Im_PatrickDempsey.png'],same,1,0.80838009999934,18,80.95238095238095,
ROIS2212,train,inv,0,pos0_id17_im8.bmp_pos0_id17_im14.bmp,['Im_HughJackman.png', 'Im_BradPitt.png', 'Im_RyanReynolds.png', 'Im_OrlandoBloom.png', 'Im_BenStiller.png', 'Im_BenAffleck.png', 'Im_RobertDowneyJr.png', 'Im_LeonardoDiCaprio.png', 'Im_GeorgeClooney.png', 'Im_PatrickDempsey.png'],none,1,4.4167210000014165,18,80.95238095238095,
ROIS2212,train,inv,120,pos120_id3_im17.bmp_pos120_id1_im21.bmp,['Im_HughJackman.png', 'Im_BradPitt.png', 'Im_RyanReynolds.png', 'Im_OrlandoBloom.png', 'Im_BenStiller.png', 'Im_BenAffleck.png', 'Im_RobertDowneyJr.png', 'Im_LeonardoDiCaprio.png', 'Im_GeorgeClooney.png', 'Im_PatrickDempsey.png'],diff,1,0.6752439000010781,19,80.95238095238095,
ROIS2212,train,inv,60,pos60_id7_im15.bmp_pos60_id7_im26.bmp,['Im_HughJackman.png', 'Im_BradPitt.png', 'Im_RyanReynolds.png', 'Im_OrlandoBloom.png', 'Im_BenStiller.png', 'Im_BenAffleck.png', 'Im_RobertDowneyJr.png', 'Im_LeonardoDiCaprio.png', 'Im_GeorgeClooney.png', 'Im_PatrickDempsey.png'],same,1,0.5167159000011452,20,80.95238095238095,
ROIS2212,train,inv,60,pos60_id17_im9.bmp_pos60_id17_im14.bmp,['Im_HughJackman.png', 'Im_BradPitt.png', 'Im_RyanReynolds.png', 'Im_OrlandoBloom.png', 'Im_BenStiller.png', 'Im_BenAffleck.png', 'Im_RobertDowneyJr.png', 'Im_LeonardoDiCaprio.png', 'Im_GeorgeClooney.png', 'Im_PatrickDempsey.png'],none,1,4.399604600002931,20,80.95238095238095,
ROIS2212,train,inv,90,pos90_id2_im2.bmp_pos90_id18_im19.bmp,['Im_HughJackman.png', 'Im_BradPitt.png', 'Im_RyanReynolds.png', 'Im_OrlandoBloom.png', 'Im_BenStiller.png', 'Im_BenAffleck.png', 'Im_RobertDowneyJr.png', 'Im_LeonardoDiCaprio.png', 'Im_GeorgeClooney.png', 'Im_PatrickDempsey.png'],diff,1,0.42552140000043437,21,80.95238095238095,
ROIS2212,train,inv,30,pos30_id16_im19.bmp_pos30_id16_im2.bmp,['Im_HughJackman.png', 'Im_BradPitt.png', 'Im_RyanReynolds.png', 'Im_OrlandoBloom.png', 'Im_BenStiller.png', 'Im_BenAffleck.png', 'Im_RobertDowneyJr.png', 'Im_LeonardoDiCaprio.png', 'Im_GeorgeClooney.png', 'Im_PatrickDempsey.png'],same,1,0.7332027000011294,22,80.95238095238095,
ROIS2212,train,inv,150,pos150_id2_im3.bmp_pos150_id18_im11.bmp,['Im_HughJackman.png', 'Im_BradPitt.png', 'Im_RyanReynolds.png', 'Im_OrlandoBloom.png', 'Im_BenStiller.png', 'Im_BenAffleck.png', 'Im_RobertDowneyJr.png', 'Im_LeonardoDiCaprio.png', 'Im_GeorgeClooney.png', 'Im_PatrickDempsey.png'],diff,1,0.741735300001892,23,80.95238095238095,
ROIS2212,train,inv,150,pos150_id8_im21.bmp_pos150_id2_im3.bmp,['Im_HughJackman.png', 'Im_BradPitt.png', 'Im_RyanReynolds.png', 'Im_OrlandoBloom.png', 'Im_BenStiller.png', 'Im_BenAffleck.png', 'Im_RobertDowneyJr.png', 'Im_LeonardoDiCaprio.png', 'Im_GeorgeClooney.png', 'Im_PatrickDempsey.png'],diff,1,1.5748257000013837,24,80.95238095238095,
ROIS2212,train,inv,0,pos0_id21_im16.bmp_pos0_id21_im22.bmp,['Im_HughJackman.png', 'Im_BradPitt.png', 'Im_RyanReynolds.png', 'Im_OrlandoBloom.png', 'Im_BenStiller.png', 'Im_BenAffleck.png', 'Im_RobertDowneyJr.png', 'Im_LeonardoDiCaprio.png', 'Im_GeorgeClooney.png', 'Im_PatrickDempsey.png'],same,1,0.4167520999981207,25,80.95238095238095,
ROIS2212,train,pos,90,pos90_id17_im9.bmp_pos90_id17_im8.bmp,['Im_HughJackman.png', 'Im_BradPitt.png', 'Im_RyanReynolds.png', 'Im_OrlandoBloom.png', 'Im_BenStiller.png', 'Im_BenAffleck.png', 'Im_RobertDowneyJr.png', 'Im_LeonardoDiCaprio.png', 'Im_GeorgeClooney.png', 'Im_PatrickDempsey.png'],same,1,0.6416734999984328,26,80.95238095238095,
ROIS2212,train,pos,150,pos150_id3_im17.bmp_pos150_id3_im8.bmp,['Im_HughJackman.png', 'Im_BradPitt.png', 'Im_RyanReynolds.png', 'Im_OrlandoBloom.png', 'Im_BenStiller.png', 'Im_BenAffleck.png', 'Im_RobertDowneyJr.png', 'Im_LeonardoDiCaprio.png', 'Im_GeorgeClooney.png', 'Im_PatrickDempsey.png'],same,1,0.675153300002421,27,80.95238095238095,
ROIS2212,train,pos,fs,posfs_id2_im16.bmp_posfs_id2_im3.bmp,['Im_HughJackman.png', 'Im_BradPitt.png', 'Im_RyanReynolds.png', 'Im_OrlandoBloom.png', 'Im_BenStiller.png', 'Im_BenAffleck.png', 'Im_RobertDowneyJr.png', 'Im_LeonardoDiCaprio.png', 'Im_GeorgeClooney.png', 'Im_PatrickDempsey.png'],same,1,0.5002171000014641,28,80.95238095238095,
ROIS2212,train,pos,120,pos120_id16_im3.bmp_pos120_id16_im19.bmp,['Im_HughJackman.png', 'Im_BradPitt.png', 'Im_RyanReynolds.png', 'Im_OrlandoBloom.png', 'Im_BenStiller.png', 'Im_BenAffleck.png', 'Im_RobertDowneyJr.png', 'Im_LeonardoDiCaprio.png', 'Im_GeorgeClooney.png', 'Im_PatrickDempsey.png'],same,1,0.8249799000004714,29,80.95238095238095,
ROIS2212,train,pos,fs,posfs_id13_im29.bmp_posfs_id13_im10.bmp,['Im_HughJackman.png', 'Im_BradPitt.png', 'Im_RyanReynolds.png', 'Im_OrlandoBloom.png', 'Im_BenStiller.png', 'Im_BenAffleck.png', 'Im_RobertDowneyJr.png', 'Im_LeonardoDiCaprio.png', 'Im_GeorgeClooney.png', 'Im_PatrickDempsey.png'],same,1,0.42519259999971837,30,80.95238095238095,
ROIS2212,train,pos,0,pos0_id2_im3.bmp_pos0_id18_im11.bmp,['Im_HughJackman.png', 'Im_BradPitt.png', 'Im_RyanReynolds.png', 'Im_OrlandoBloom.png', 'Im_BenStiller.png', 'Im_BenAffleck.png', 'Im_RobertDowneyJr.png', 'Im_LeonardoDiCaprio.png', 'Im_GeorgeClooney.png', 'Im_PatrickDempsey.png'],diff,1,0.5083509999967646,31,80.95238095238095,
ROIS2212,train,pos,90,pos90_id1_im4.bmp_pos90_id1_im24.bmp,['Im_HughJackman.png', 'Im_BradPitt.png', 'Im_RyanReynolds.png', 'Im_OrlandoBloom.png', 'Im_BenStiller.png', 'Im_BenAffleck.png', 'Im_RobertDowneyJr.png', 'Im_LeonardoDiCaprio.png', 'Im_GeorgeClooney.png', 'Im_PatrickDempsey.png'],same,1,0.883113100000628,32,80.95238095238095,
ROIS2212,train,pos,30,pos30_id16_im2.bmp_pos30_id18_im11.bmp,['Im_HughJackman.png', 'Im_BradPitt.png', 'Im_RyanReynolds.png', 'Im_OrlandoBloom.png', 'Im_BenStiller.png', 'Im_BenAffleck.png', 'Im_RobertDowneyJr.png', 'Im_LeonardoDiCaprio.png', 'Im_GeorgeClooney.png', 'Im_PatrickDempsey.png'],diff,1,0.6581229999974312,33,80.95238095238095,
ROIS2212,train,pos,150,pos150_id17_im8.bmp_pos150_id17_im9.bmp,['Im_HughJackman.png', 'Im_BradPitt.png', 'Im_RyanReynolds.png', 'Im_OrlandoBloom.png', 'Im_BenStiller.png', 'Im_BenAffleck.png', 'Im_RobertDowneyJr.png', 'Im_LeonardoDiCaprio.png', 'Im_GeorgeClooney.png', 'Im_PatrickDempsey.png'],same,1,1.158578700000362,34,80.95238095238095,
ROIS2212,train,pos,120,pos120_id17_im14.bmp_pos120_id17_im8.bmp,['Im_HughJackman.png', 'Im_BradPitt.png', 'Im_RyanReynolds.png', 'Im_OrlandoBloom.png', 'Im_BenStiller.png', 'Im_BenAffleck.png', 'Im_RobertDowneyJr.png', 'Im_LeonardoDiCaprio.png', 'Im_GeorgeClooney.png', 'Im_PatrickDempsey.png'],same,1,1.1250404000020353,35,80.95238095238095,
ROIS2212,train,pos,30,pos30_id3_im6.bmp_pos30_id8_im13.bmp,['Im_HughJackman.png', 'Im_BradPitt.png', 'Im_RyanReynolds.png', 'Im_OrlandoBloom.png', 'Im_BenStiller.png', 'Im_BenAffleck.png', 'Im_RobertDowneyJr.png', 'Im_LeonardoDiCaprio.png', 'Im_GeorgeClooney.png', 'Im_PatrickDempsey.png'],diff,1,0.45015309999871533,36,80.95238095238095,
ROIS2212,train,pos,60,pos60_id18_im18.bmp_pos60_id13_im15.bmp,['Im_HughJackman.png', 'Im_BradPitt.png', 'Im_RyanReynolds.png', 'Im_OrlandoBloom.png', 'Im_BenStiller.png', 'Im_BenAffleck.png', 'Im_RobertDowneyJr.png', 'Im_LeonardoDiCaprio.png', 'Im_GeorgeClooney.png', 'Im_PatrickDempsey.png'],diff,1,0.8250480999995489,37,80.95238095238095,
ROIS2212,train,pos,60,pos60_id7_im14.bmp_pos60_id7_im26.bmp,['Im_HughJackman.png', 'Im_BradPitt.png', 'Im_RyanReynolds.png', 'Im_OrlandoBloom.png', 'Im_BenStiller.png', 'Im_BenAffleck.png', 'Im_RobertDowneyJr.png', 'Im_LeonardoDiCaprio.png', 'Im_GeorgeClooney.png', 'Im_PatrickDempsey.png'],same,1,0.4084253000000899,38,80.95238095238095,
ROIS2212,train,pos,0,pos0_id13_im10.bmp_pos0_id13_im15.bmp,['Im_HughJackman.png', 'Im_BradPitt.png', 'Im_RyanReynolds.png', 'Im_OrlandoBloom.png', 'Im_BenStiller.png', 'Im_BenAffleck.png', 'Im_RobertDowneyJr.png', 'Im_LeonardoDiCaprio.png', 'Im_GeorgeClooney.png', 'Im_PatrickDempsey.png'],same,1,0.44167409999863594,39,80.95238095238095,
ROIS2212,0,inv,60,pos60_id3_im8.bmp_pos60_id3_im6.bmp,['Im_HughJackman.png', 'Im_BradPitt.png', 'Im_RyanReynolds.png', 'Im_OrlandoBloom.png', 'Im_BenStiller.png', 'Im_BenAffleck.png', 'Im_RobertDowneyJr.png', 'Im_LeonardoDiCaprio.png', 'Im_GeorgeClooney.png', 'Im_PatrickDempsey.png'],same,1,0.4669689999973343,1,0,
ROIS2212,0,inv,0,pos0_id16_im2.bmp_pos0_id16_im19.bmp,['Im_HughJackman.png', 'Im_BradPitt.png', 'Im_RyanReynolds.png', 'Im_OrlandoBloom.png', 'Im_BenStiller.png', 'Im_BenAffleck.png', 'Im_RobertDowneyJr.png', 'Im_LeonardoDiCaprio.png', 'Im_GeorgeClooney.png', 'Im_PatrickDempsey.png'],same,1,1.9081968999998935,2,0,
ROIS2212,0,inv,90,pos90_id21_im16.bmp_pos90_id21_im22.bmp,['Im_HughJackman.png', 'Im_BradPitt.png', 'Im_RyanReynolds.png', 'Im_OrlandoBloom.png', 'Im_BenStiller.png', 'Im_BenAffleck.png', 'Im_RobertDowneyJr.png', 'Im_LeonardoDiCaprio.png', 'Im_GeorgeClooney.png', 'Im_PatrickDempsey.png'],diff,0,0.8169266999975662,2,0,
ROIS2212,0,inv,30,pos30_id8_im13.bmp_pos30_id17_im9.bmp,['Im_HughJackman.png', 'Im_BradPitt.png', 'Im_RyanReynolds.png', 'Im_OrlandoBloom.png', 'Im_BenStiller.png', 'Im_BenAffleck.png', 'Im_RobertDowneyJr.png', 'Im_LeonardoDiCaprio.png', 'Im_GeorgeClooney.png', 'Im_PatrickDempsey.png'],diff,1,1.0167905999987852,3,0,
ROIS2212,0,inv,120,pos120_id8_im21.bmp_pos120_id8_im13.bmp,['Im_HughJackman.png', 'Im_BradPitt.png', 'Im_RyanReynolds.png', 'Im_OrlandoBloom.png', 'Im_BenStiller.png', 'Im_BenAffleck.png', 'Im_RobertDowneyJr.png', 'Im_LeonardoDiCaprio.png', 'Im_GeorgeClooney.png', 'Im_PatrickDempsey.png'],same,1,0.7249363000009907,4,0,
ROIS2212,0,inv,90,pos90_id2_im2.bmp_pos90_id2_im16.bmp,['Im_HughJackman.png', 'Im_BradPitt.png', 'Im_RyanReynolds.png', 'Im_OrlandoBloom.png', 'Im_BenStiller.png', 'Im_BenAffleck.png', 'Im_RobertDowneyJr.png', 'Im_LeonardoDiCaprio.png', 'Im_GeorgeClooney.png', 'Im_PatrickDempsey.png'],same,1,0.7836731999996118,5,0,
ROIS2212,0,inv,30,pos30_id17_im8.bmp_pos30_id17_im14.bmp,['Im_HughJackman.png', 'Im_BradPitt.png', 'Im_RyanReynolds.png', 'Im_OrlandoBloom.png', 'Im_BenStiller.png', 'Im_BenAffleck.png', 'Im_RobertDowneyJr.png', 'Im_LeonardoDiCaprio.png', 'Im_GeorgeClooney.png', 'Im_PatrickDempsey.png'],diff,0,0.4167497000016738,5,0,
ROIS2212,0,inv,60,pos60_id21_im17.bmp_pos60_id21_im16.bmp,['Im_HughJackman.png', 'Im_BradPitt.png', 'Im_RyanReynolds.png', 'Im_OrlandoBloom.png', 'Im_BenStiller.png', 'Im_BenAffleck.png', 'Im_RobertDowneyJr.png', 'Im_LeonardoDiCaprio.png', 'Im_GeorgeClooney.png', 'Im_PatrickDempsey.png'],same,1,1.1006104000007326,6,0,
ROIS2212,0,inv,fs,posfs_id13_im29.bmp_posfs_id13_im15.bmp,['Im_HughJackman.png', 'Im_BradPitt.png', 'Im_RyanReynolds.png', 'Im_OrlandoBloom.png', 'Im_BenStiller.png', 'Im_BenAffleck.png', 'Im_RobertDowneyJr.png', 'Im_LeonardoDiCaprio.png', 'Im_GeorgeClooney.png', 'Im_PatrickDempsey.png'],same,1,0.41663750000225264,7,0,
ROIS2212,0,inv,0,pos0_id2_im3.bmp_pos0_id2_im16.bmp,['Im_HughJackman.png', 'Im_BradPitt.png', 'Im_RyanReynolds.png', 'Im_OrlandoBloom.png', 'Im_BenStiller.png', 'Im_BenAffleck.png', 'Im_RobertDowneyJr.png', 'Im_LeonardoDiCaprio.png', 'Im_GeorgeClooney.png', 'Im_PatrickDempsey.png'],same,1,0.4167883999980404,8,0,
ROIS2212,0,inv,120,pos120_id21_im22.bmp_pos120_id3_im6.bmp,['Im_HughJackman.png', 'Im_BradPitt.png', 'Im_RyanReynolds.png', 'Im_OrlandoBloom.png', 'Im_BenStiller.png', 'Im_BenAffleck.png', 'Im_RobertDowneyJr.png', 'Im_LeonardoDiCaprio.png', 'Im_GeorgeClooney.png', 'Im_PatrickDempsey.png'],diff,1,0.5586759999969217,9,0,
ROIS2212,0,inv,fs,posfs_id17_im14.bmp_posfs_id17_im8.bmp,['Im_HughJackman.png', 'Im_BradPitt.png', 'Im_RyanReynolds.png', 'Im_OrlandoBloom.png', 'Im_BenStiller.png', 'Im_BenAffleck.png', 'Im_RobertDowneyJr.png', 'Im_LeonardoDiCaprio.png', 'Im_GeorgeClooney.png', 'Im_PatrickDempsey.png'],same,1,0.9417805999983102,10,0,
ROIS2212,0,inv,150,pos150_id1_im21.bmp_pos150_id1_im24.bmp,['Im_HughJackman.png', 'Im_BradPitt.png', 'Im_RyanReynolds.png', 'Im_OrlandoBloom.png', 'Im_BenStiller.png', 'Im_BenAffleck.png', 'Im_RobertDowneyJr.png', 'Im_LeonardoDiCaprio.png', 'Im_GeorgeClooney.png', 'Im_PatrickDempsey.png'],diff,0,0.916940600000089,10,0,
ROIS2212,0,inv,150,pos150_id2_im2.bmp_pos150_id13_im15.bmp,['Im_HughJackman.png', 'Im_BradPitt.png', 'Im_RyanReynolds.png', 'Im_OrlandoBloom.png', 'Im_BenStiller.png', 'Im_BenAffleck.png', 'Im_RobertDowneyJr.png', 'Im_LeonardoDiCaprio.png', 'Im_GeorgeClooney.png', 'Im_PatrickDempsey.png'],diff,1,0.4167111999995541,11,0,
ROIS2212,1,pos,90,pos90_id16_im2.bmp_pos90_id16_im19.bmp,['Im_HughJackman.png', 'Im_BradPitt.png', 'Im_RyanReynolds.png', 'Im_OrlandoBloom.png', 'Im_BenStiller.png', 'Im_BenAffleck.png', 'Im_RobertDowneyJr.png', 'Im_LeonardoDiCaprio.png', 'Im_GeorgeClooney.png', 'Im_PatrickDempsey.png'],same,1,0.4250008999988495,12,0,
ROIS2212,1,pos,120,pos120_id16_im3.bmp_pos120_id2_im16.bmp,['Im_HughJackman.png', 'Im_BradPitt.png', 'Im_RyanReynolds.png', 'Im_OrlandoBloom.png', 'Im_BenStiller.png', 'Im_BenAffleck.png', 'Im_RobertDowneyJr.png', 'Im_LeonardoDiCaprio.png', 'Im_GeorgeClooney.png', 'Im_PatrickDempsey.png'],diff,1,0.4251756000012392,13,0,
ROIS2212,1,pos,30,pos30_id16_im19.bmp_pos30_id17_im8.bmp,['Im_HughJackman.png', 'Im_BradPitt.png', 'Im_RyanReynolds.png', 'Im_OrlandoBloom.png', 'Im_BenStiller.png', 'Im_BenAffleck.png', 'Im_RobertDowneyJr.png', 'Im_LeonardoDiCaprio.png', 'Im_GeorgeClooney.png', 'Im_PatrickDempsey.png'],diff,1,0.8834381000015128,14,0,
ROIS2212,1,pos,90,pos90_id7_im15.bmp_pos90_id21_im17.bmp,['Im_HughJackman.png', 'Im_BradPitt.png', 'Im_RyanReynolds.png', 'Im_OrlandoBloom.png', 'Im_BenStiller.png', 'Im_BenAffleck.png', 'Im_RobertDowneyJr.png', 'Im_LeonardoDiCaprio.png', 'Im_GeorgeClooney.png', 'Im_PatrickDempsey.png'],diff,1,0.41670589999921503,15,0,
ROIS2212,1,pos,0,pos0_id17_im9.bmp_pos0_id1_im4.bmp,['Im_HughJackman.png', 'Im_BradPitt.png', 'Im_RyanReynolds.png', 'Im_OrlandoBloom.png', 'Im_BenStiller.png', 'Im_BenAffleck.png', 'Im_RobertDowneyJr.png', 'Im_LeonardoDiCaprio.png', 'Im_GeorgeClooney.png', 'Im_PatrickDempsey.png'],diff,1,0.9587659000026179,16,0,
ROIS2212,1,pos,fs,posfs_id17_im8.bmp_posfs_id7_im15.bmp,['Im_HughJackman.png', 'Im_BradPitt.png', 'Im_RyanReynolds.png', 'Im_OrlandoBloom.png', 'Im_BenStiller.png', 'Im_BenAffleck.png', 'Im_RobertDowneyJr.png', 'Im_LeonardoDiCaprio.png', 'Im_GeorgeClooney.png', 'Im_PatrickDempsey.png'],diff,1,0.4251260999990336,17,0,
ROIS2212,1,pos,30,pos30_id2_im16.bmp_pos30_id2_im2.bmp,['Im_HughJackman.png', 'Im_BradPitt.png', 'Im_RyanReynolds.png', 'Im_OrlandoBloom.png', 'Im_BenStiller.png', 'Im_BenAffleck.png', 'Im_RobertDowneyJr.png', 'Im_LeonardoDiCaprio.png', 'Im_GeorgeClooney.png', 'Im_PatrickDempsey.png'],same,1,0.4169079999992391,18,0,
ROIS2212,1,pos,0,pos0_id13_im10.bmp_pos0_id2_im16.bmp,['Im_HughJackman.png', 'Im_BradPitt.png', 'Im_RyanReynolds.png', 'Im_OrlandoBloom.png', 'Im_BenStiller.png', 'Im_BenAffleck.png', 'Im_RobertDowneyJr.png', 'Im_LeonardoDiCaprio.png', 'Im_GeorgeClooney.png', 'Im_PatrickDempsey.png'],diff,1,0.42507620000105817,19,0,
ROIS2212,1,pos,fs,posfs_id7_im26.bmp_posfs_id17_im14.bmp,['Im_HughJackman.png', 'Im_BradPitt.png', 'Im_RyanReynolds.png', 'Im_OrlandoBloom.png', 'Im_BenStiller.png', 'Im_BenAffleck.png', 'Im_RobertDowneyJr.png', 'Im_LeonardoDiCaprio.png', 'Im_GeorgeClooney.png', 'Im_PatrickDempsey.png'],diff,1,0.41685420000067097,20,0,
ROIS2212,1,pos,150,pos150_id16_im2.bmp_pos150_id16_im19.bmp,['Im_HughJackman.png', 'Im_BradPitt.png', 'Im_RyanReynolds.png', 'Im_OrlandoBloom.png', 'Im_BenStiller.png', 'Im_BenAffleck.png', 'Im_RobertDowneyJr.png', 'Im_LeonardoDiCaprio.png', 'Im_GeorgeClooney.png', 'Im_PatrickDempsey.png'],same,1,0.4250424000019848,21,0,
ROIS2212,1,pos,60,pos60_id1_im21.bmp_pos60_id3_im17.bmp,['Im_HughJackman.png', 'Im_BradPitt.png', 'Im_RyanReynolds.png', 'Im_OrlandoBloom.png', 'Im_BenStiller.png', 'Im_BenAffleck.png', 'Im_RobertDowneyJr.png', 'Im_LeonardoDiCaprio.png', 'Im_GeorgeClooney.png', 'Im_PatrickDempsey.png'],diff,1,0.5416839999998047,22,0,
ROIS2212,1,pos,120,pos120_id1_im21.bmp_pos120_id1_im4.bmp,['Im_HughJackman.png', 'Im_BradPitt.png', 'Im_RyanReynolds.png', 'Im_OrlandoBloom.png', 'Im_BenStiller.png', 'Im_BenAffleck.png', 'Im_RobertDowneyJr.png', 'Im_LeonardoDiCaprio.png', 'Im_GeorgeClooney.png', 'Im_PatrickDempsey.png'],same,1,2.0335135999994236,23,0,
ROIS2212,1,pos,150,pos150_id7_im15.bmp_pos150_id7_im26.bmp,['Im_HughJackman.png', 'Im_BradPitt.png', 'Im_RyanReynolds.png', 'Im_OrlandoBloom.png', 'Im_BenStiller.png', 'Im_BenAffleck.png', 'Im_RobertDowneyJr.png', 'Im_LeonardoDiCaprio.png', 'Im_GeorgeClooney.png', 'Im_PatrickDempsey.png'],same,1,0.8083861000013712,24,0,
ROIS2212,1,pos,60,pos60_id18_im11.bmp_pos60_id2_im3.bmp,['Im_HughJackman.png', 'Im_BradPitt.png', 'Im_RyanReynolds.png', 'Im_OrlandoBloom.png', 'Im_BenStiller.png', 'Im_BenAffleck.png', 'Im_RobertDowneyJr.png', 'Im_LeonardoDiCaprio.png', 'Im_GeorgeClooney.png', 'Im_PatrickDempsey.png'],diff,1,0.9500361000027624,25,0,
ROIS2212,2,inv,150,pos150_id2_im16.bmp_pos150_id2_im2.bmp,['Im_HughJackman.png', 'Im_BradPitt.png', 'Im_RyanReynolds.png', 'Im_OrlandoBloom.png', 'Im_BenStiller.png', 'Im_BenAffleck.png', 'Im_RobertDowneyJr.png', 'Im_LeonardoDiCaprio.png', 'Im_GeorgeClooney.png', 'Im_PatrickDempsey.png'],same,1,0.9586091999990458,26,0,
ROIS2212,2,inv,0,pos0_id16_im3.bmp_pos0_id2_im16.bmp,['Im_HughJackman.png', 'Im_BradPitt.png', 'Im_RyanReynolds.png', 'Im_OrlandoBloom.png', 'Im_BenStiller.png', 'Im_BenAffleck.png', 'Im_RobertDowneyJr.png', 'Im_LeonardoDiCaprio.png', 'Im_GeorgeClooney.png', 'Im_PatrickDempsey.png'],diff,1,0.4250828999975056,27,0,
ROIS2212,2,inv,fs,posfs_id13_im10.bmp_posfs_id7_im14.bmp,['Im_HughJackman.png', 'Im_BradPitt.png', 'Im_RyanReynolds.png', 'Im_OrlandoBloom.png', 'Im_BenStiller.png', 'Im_BenAffleck.png', 'Im_RobertDowneyJr.png', 'Im_LeonardoDiCaprio.png', 'Im_GeorgeClooney.png', 'Im_PatrickDempsey.png'],diff,1,0.4084534999965399,28,0,
ROIS2212,2,inv,0,pos0_id13_im15.bmp_pos0_id13_im10.bmp,['Im_HughJackman.png', 'Im_BradPitt.png', 'Im_RyanReynolds.png', 'Im_OrlandoBloom.png', 'Im_BenStiller.png', 'Im_BenAffleck.png', 'Im_RobertDowneyJr.png', 'Im_LeonardoDiCaprio.png', 'Im_GeorgeClooney.png', 'Im_PatrickDempsey.png'],same,1,0.4084000000002561,29,0,
ROIS2212,2,inv,90,pos90_id17_im8.bmp_pos90_id16_im19.bmp,['Im_HughJackman.png', 'Im_BradPitt.png', 'Im_RyanReynolds.png', 'Im_OrlandoBloom.png', 'Im_BenStiller.png', 'Im_BenAffleck.png', 'Im_RobertDowneyJr.png', 'Im_LeonardoDiCaprio.png', 'Im_GeorgeClooney.png', 'Im_PatrickDempsey.png'],diff,1,0.4169545999975526,30,0,
ROIS2212,2,inv,60,pos60_id1_im4.bmp_pos60_id1_im21.bmp,['Im_HughJackman.png', 'Im_BradPitt.png', 'Im_RyanReynolds.png', 'Im_OrlandoBloom.png', 'Im_BenStiller.png', 'Im_BenAffleck.png', 'Im_RobertDowneyJr.png', 'Im_LeonardoDiCaprio.png', 'Im_GeorgeClooney.png', 'Im_PatrickDempsey.png'],diff,0,1.6333732000020973,30,0,
ROIS2212,2,inv,30,pos30_id3_im6.bmp_pos30_id3_im17.bmp,['Im_HughJackman.png', 'Im_BradPitt.png', 'Im_RyanReynolds.png', 'Im_OrlandoBloom.png', 'Im_BenStiller.png', 'Im_BenAffleck.png', 'Im_RobertDowneyJr.png', 'Im_LeonardoDiCaprio.png', 'Im_GeorgeClooney.png', 'Im_PatrickDempsey.png'],same,1,0.45830609999757144,31,0,
ROIS2212,2,inv,120,pos120_id3_im8.bmp_pos120_id18_im19.bmp,['Im_HughJackman.png', 'Im_BradPitt.png', 'Im_RyanReynolds.png', 'Im_OrlandoBloom.png', 'Im_BenStiller.png', 'Im_BenAffleck.png', 'Im_RobertDowneyJr.png', 'Im_LeonardoDiCaprio.png', 'Im_GeorgeClooney.png', 'Im_PatrickDempsey.png'],diff,1,0.4084139000005962,32,0,
ROIS2212,2,inv,30,pos30_id7_im14.bmp_pos30_id3_im17.bmp,['Im_HughJackman.png', 'Im_BradPitt.png', 'Im_RyanReynolds.png', 'Im_OrlandoBloom.png', 'Im_BenStiller.png', 'Im_BenAffleck.png', 'Im_RobertDowneyJr.png', 'Im_LeonardoDiCaprio.png', 'Im_GeorgeClooney.png', 'Im_PatrickDempsey.png'],diff,1,0.41674330000023474,33,0,
ROIS2212,2,inv,120,pos120_id7_im26.bmp_pos120_id7_im14.bmp,['Im_HughJackman.png', 'Im_BradPitt.png', 'Im_RyanReynolds.png', 'Im_OrlandoBloom.png', 'Im_BenStiller.png', 'Im_BenAffleck.png', 'Im_RobertDowneyJr.png', 'Im_LeonardoDiCaprio.png', 'Im_GeorgeClooney.png', 'Im_PatrickDempsey.png'],same,1,1.4918563999999606,34,0,
ROIS2212,2,inv,90,pos90_id1_im21.bmp_pos90_id1_im4.bmp,['Im_HughJackman.png', 'Im_BradPitt.png', 'Im_RyanReynolds.png', 'Im_OrlandoBloom.png', 'Im_BenStiller.png', 'Im_BenAffleck.png', 'Im_RobertDowneyJr.png', 'Im_LeonardoDiCaprio.png', 'Im_GeorgeClooney.png', 'Im_PatrickDempsey.png'],diff,0,1.242021100002603,34,0,
ROIS2212,2,inv,60,pos60_id13_im15.bmp_pos60_id13_im29.bmp,['Im_HughJackman.png', 'Im_BradPitt.png', 'Im_RyanReynolds.png', 'Im_OrlandoBloom.png', 'Im_BenStiller.png', 'Im_BenAffleck.png', 'Im_RobertDowneyJr.png', 'Im_LeonardoDiCaprio.png', 'Im_GeorgeClooney.png', 'Im_PatrickDempsey.png'],same,1,0.42511129999911645,35,0,
ROIS2212,2,inv,fs,posfs_id13_im15.bmp_posfs_id13_im10.bmp,['Im_HughJackman.png', 'Im_BradPitt.png', 'Im_RyanReynolds.png', 'Im_OrlandoBloom.png', 'Im_BenStiller.png', 'Im_BenAffleck.png', 'Im_RobertDowneyJr.png', 'Im_LeonardoDiCaprio.png', 'Im_GeorgeClooney.png', 'Im_PatrickDempsey.png'],same,1,0.4333210999975563,36,0,
ROIS2212,2,inv,150,pos150_id2_im2.bmp_pos150_id2_im3.bmp,['Im_HughJackman.png', 'Im_BradPitt.png', 'Im_RyanReynolds.png', 'Im_OrlandoBloom.png', 'Im_BenStiller.png', 'Im_BenAffleck.png', 'Im_RobertDowneyJr.png', 'Im_LeonardoDiCaprio.png', 'Im_GeorgeClooney.png', 'Im_PatrickDempsey.png'],same,1,0.6167373000025691,37,0,
ROIS2212,3,neg,60,neg60_id3_im8.bmp_neg60_id18_im18.bmp,['Im_HughJackman.png', 'Im_BradPitt.png', 'Im_RyanReynolds.png', 'Im_OrlandoBloom.png', 'Im_BenStiller.png', 'Im_BenAffleck.png', 'Im_RobertDowneyJr.png', 'Im_LeonardoDiCaprio.png', 'Im_GeorgeClooney.png', 'Im_PatrickDempsey.png'],diff,1,0.7167447000028915,1,88.0952380952381,
ROIS2212,3,neg,120,neg120_id8_im20.bmp_neg120_id8_im13.bmp,['Im_HughJackman.png', 'Im_BradPitt.png', 'Im_RyanReynolds.png', 'Im_OrlandoBloom.png', 'Im_BenStiller.png', 'Im_BenAffleck.png', 'Im_RobertDowneyJr.png', 'Im_LeonardoDiCaprio.png', 'Im_GeorgeClooney.png', 'Im_PatrickDempsey.png'],same,1,0.5335654000009526,2,88.0952380952381,
ROIS2212,3,neg,150,neg150_id18_im19.bmp_neg150_id3_im8.bmp,['Im_HughJackman.png', 'Im_BradPitt.png', 'Im_RyanReynolds.png', 'Im_OrlandoBloom.png', 'Im_BenStiller.png', 'Im_BenAffleck.png', 'Im_RobertDowneyJr.png', 'Im_LeonardoDiCaprio.png', 'Im_GeorgeClooney.png', 'Im_PatrickDempsey.png'],diff,1,0.5751922999988892,3,88.0952380952381,
ROIS2212,3,neg,0,neg0_id7_im26.bmp_neg0_id21_im17.bmp,['Im_HughJackman.png', 'Im_BradPitt.png', 'Im_RyanReynolds.png', 'Im_OrlandoBloom.png', 'Im_BenStiller.png', 'Im_BenAffleck.png', 'Im_RobertDowneyJr.png', 'Im_LeonardoDiCaprio.png', 'Im_GeorgeClooney.png', 'Im_PatrickDempsey.png'],diff,1,0.975154299998394,4,88.0952380952381,
ROIS2212,3,neg,fs,negfs_id17_im8.bmp_negfs_id17_im9.bmp,['Im_HughJackman.png', 'Im_BradPitt.png', 'Im_RyanReynolds.png', 'Im_OrlandoBloom.png', 'Im_BenStiller.png', 'Im_BenAffleck.png', 'Im_RobertDowneyJr.png', 'Im_LeonardoDiCaprio.png', 'Im_GeorgeClooney.png', 'Im_PatrickDempsey.png'],diff,0,0.41667840000081924,4,88.0952380952381,
ROIS2212,3,neg,60,neg60_id1_im24.bmp_neg60_id8_im21.bmp,['Im_HughJackman.png', 'Im_BradPitt.png', 'Im_RyanReynolds.png', 'Im_OrlandoBloom.png', 'Im_BenStiller.png', 'Im_BenAffleck.png', 'Im_RobertDowneyJr.png', 'Im_LeonardoDiCaprio.png', 'Im_GeorgeClooney.png', 'Im_PatrickDempsey.png'],same,0,0.5584096999991743,4,88.0952380952381,
ROIS2212,3,neg,30,neg30_id18_im18.bmp_neg30_id3_im8.bmp,['Im_HughJackman.png', 'Im_BradPitt.png', 'Im_RyanReynolds.png', 'Im_OrlandoBloom.png', 'Im_BenStiller.png', 'Im_BenAffleck.png', 'Im_RobertDowneyJr.png', 'Im_LeonardoDiCaprio.png', 'Im_GeorgeClooney.png', 'Im_PatrickDempsey.png'],diff,1,0.41659980000258656,5,88.0952380952381,
ROIS2212,3,neg,0,neg0_id3_im8.bmp_neg0_id18_im19.bmp,['Im_HughJackman.png', 'Im_BradPitt.png', 'Im_RyanReynolds.png', 'Im_OrlandoBloom.png', 'Im_BenStiller.png', 'Im_BenAffleck.png', 'Im_RobertDowneyJr.png', 'Im_LeonardoDiCaprio.png', 'Im_GeorgeClooney.png', 'Im_PatrickDempsey.png'],diff,1,0.6249870999999985,6,88.0952380952381,
ROIS2212,3,neg,90,neg90_id21_im17.bmp_neg90_id7_im15.bmp,['Im_HughJackman.png', 'Im_BradPitt.png', 'Im_RyanReynolds.png', 'Im_OrlandoBloom.png', 'Im_BenStiller.png', 'Im_BenAffleck.png', 'Im_RobertDowneyJr.png', 'Im_LeonardoDiCaprio.png', 'Im_GeorgeClooney.png', 'Im_PatrickDempsey.png'],diff,1,1.2833049000000756,7,88.0952380952381,
ROIS2212,3,neg,fs,negfs_id3_im6.bmp_negfs_id8_im13.bmp,['Im_HughJackman.png', 'Im_BradPitt.png', 'Im_RyanReynolds.png', 'Im_OrlandoBloom.png', 'Im_BenStiller.png', 'Im_BenAffleck.png', 'Im_RobertDowneyJr.png', 'Im_LeonardoDiCaprio.png', 'Im_GeorgeClooney.png', 'Im_PatrickDempsey.png'],diff,1,0.9165563000024122,8,88.0952380952381,
ROIS2212,3,neg,120,neg120_id21_im17.bmp_neg120_id7_im15.bmp,['Im_HughJackman.png', 'Im_BradPitt.png', 'Im_RyanReynolds.png', 'Im_OrlandoBloom.png', 'Im_BenStiller.png', 'Im_BenAffleck.png', 'Im_RobertDowneyJr.png', 'Im_LeonardoDiCaprio.png', 'Im_GeorgeClooney.png', 'Im_PatrickDempsey.png'],diff,1,1.0587103000034404,9,88.0952380952381,
ROIS2212,3,neg,30,neg30_id18_im19.bmp_neg30_id18_im11.bmp,['Im_HughJackman.png', 'Im_BradPitt.png', 'Im_RyanReynolds.png', 'Im_OrlandoBloom.png', 'Im_BenStiller.png', 'Im_BenAffleck.png', 'Im_RobertDowneyJr.png', 'Im_LeonardoDiCaprio.png', 'Im_GeorgeClooney.png', 'Im_PatrickDempsey.png'],same,1,0.7665548000004492,10,88.0952380952381,
ROIS2212,3,neg,150,neg150_id8_im21.bmp_neg150_id1_im24.bmp,['Im_HughJackman.png', 'Im_BradPitt.png', 'Im_RyanReynolds.png', 'Im_OrlandoBloom.png', 'Im_BenStiller.png', 'Im_BenAffleck.png', 'Im_RobertDowneyJr.png', 'Im_LeonardoDiCaprio.png', 'Im_GeorgeClooney.png', 'Im_PatrickDempsey.png'],diff,1,0.45841179999843007,11,88.0952380952381,
ROIS2212,3,neg,90,neg90_id1_im21.bmp_neg90_id1_im24.bmp,['Im_HughJackman.png', 'Im_BradPitt.png', 'Im_RyanReynolds.png', 'Im_OrlandoBloom.png', 'Im_BenStiller.png', 'Im_BenAffleck.png', 'Im_RobertDowneyJr.png', 'Im_LeonardoDiCaprio.png', 'Im_GeorgeClooney.png', 'Im_PatrickDempsey.png'],same,1,0.6584070000026259,12,88.0952380952381,
ROIS2212,4,inv,60,pos60_id21_im17.bmp_pos60_id7_im26.bmp,['Im_HughJackman.png', 'Im_BradPitt.png', 'Im_RyanReynolds.png', 'Im_OrlandoBloom.png', 'Im_BenStiller.png', 'Im_BenAffleck.png', 'Im_RobertDowneyJr.png', 'Im_LeonardoDiCaprio.png', 'Im_GeorgeClooney.png', 'Im_PatrickDempsey.png'],diff,1,0.42506850000063423,13,88.0952380952381,
ROIS2212,4,inv,0,pos0_id13_im29.bmp_pos0_id13_im10.bmp,['Im_HughJackman.png', 'Im_BradPitt.png', 'Im_RyanReynolds.png', 'Im_OrlandoBloom.png', 'Im_BenStiller.png', 'Im_BenAffleck.png', 'Im_RobertDowneyJr.png', 'Im_LeonardoDiCaprio.png', 'Im_GeorgeClooney.png', 'Im_PatrickDempsey.png'],same,1,0.7752969000030134,14,88.0952380952381,
ROIS2212,4,inv,150,pos150_id2_im3.bmp_pos150_id2_im16.bmp,['Im_HughJackman.png', 'Im_BradPitt.png', 'Im_RyanReynolds.png', 'Im_OrlandoBloom.png', 'Im_BenStiller.png', 'Im_BenAffleck.png', 'Im_RobertDowneyJr.png', 'Im_LeonardoDiCaprio.png', 'Im_GeorgeClooney.png', 'Im_PatrickDempsey.png'],same,1,1.216973800001142,15,88.0952380952381,
ROIS2212,4,inv,150,pos150_id13_im10.bmp_pos150_id13_im15.bmp,['Im_HughJackman.png', 'Im_BradPitt.png', 'Im_RyanReynolds.png', 'Im_OrlandoBloom.png', 'Im_BenStiller.png', 'Im_BenAffleck.png', 'Im_RobertDowneyJr.png', 'Im_LeonardoDiCaprio.png', 'Im_GeorgeClooney.png', 'Im_PatrickDempsey.png'],same,1,0.4167651999996451,16,88.0952380952381,
ROIS2212,4,inv,fs,posfs_id21_im17.bmp_posfs_id21_im16.bmp,['Im_HughJackman.png', 'Im_BradPitt.png', 'Im_RyanReynolds.png', 'Im_OrlandoBloom.png', 'Im_BenStiller.png', 'Im_BenAffleck.png', 'Im_RobertDowneyJr.png', 'Im_LeonardoDiCaprio.png', 'Im_GeorgeClooney.png', 'Im_PatrickDempsey.png'],same,1,0.608473899999808,17,88.0952380952381,
ROIS2212,4,inv,90,pos90_id17_im9.bmp_pos90_id17_im8.bmp,['Im_HughJackman.png', 'Im_BradPitt.png', 'Im_RyanReynolds.png', 'Im_OrlandoBloom.png', 'Im_BenStiller.png', 'Im_BenAffleck.png', 'Im_RobertDowneyJr.png', 'Im_LeonardoDiCaprio.png', 'Im_GeorgeClooney.png', 'Im_PatrickDempsey.png'],same,1,0.4167197999995551,18,88.0952380952381,
ROIS2212,4,inv,120,pos120_id17_im9.bmp_pos120_id8_im13.bmp,['Im_HughJackman.png', 'Im_BradPitt.png', 'Im_RyanReynolds.png', 'Im_OrlandoBloom.png', 'Im_BenStiller.png', 'Im_BenAffleck.png', 'Im_RobertDowneyJr.png', 'Im_LeonardoDiCaprio.png', 'Im_GeorgeClooney.png', 'Im_PatrickDempsey.png'],same,0,0.6333322999998927,18,88.0952380952381,
ROIS2212,4,inv,60,pos60_id13_im15.bmp_pos60_id18_im18.bmp,['Im_HughJackman.png', 'Im_BradPitt.png', 'Im_RyanReynolds.png', 'Im_OrlandoBloom.png', 'Im_BenStiller.png', 'Im_BenAffleck.png', 'Im_RobertDowneyJr.png', 'Im_LeonardoDiCaprio.png', 'Im_GeorgeClooney.png', 'Im_PatrickDempsey.png'],diff,1,0.5750941000005696,19,88.0952380952381,
ROIS2212,4,inv,30,pos30_id3_im6.bmp_pos30_id3_im8.bmp,['Im_HughJackman.png', 'Im_BradPitt.png', 'Im_RyanReynolds.png', 'Im_OrlandoBloom.png', 'Im_BenStiller.png', 'Im_BenAffleck.png', 'Im_RobertDowneyJr.png', 'Im_LeonardoDiCaprio.png', 'Im_GeorgeClooney.png', 'Im_PatrickDempsey.png'],same,1,0.5169796000009228,20,88.0952380952381,
ROIS2212,4,inv,fs,posfs_id16_im19.bmp_posfs_id1_im4.bmp,['Im_HughJackman.png', 'Im_BradPitt.png', 'Im_RyanReynolds.png', 'Im_OrlandoBloom.png', 'Im_BenStiller.png', 'Im_BenAffleck.png', 'Im_RobertDowneyJr.png', 'Im_LeonardoDiCaprio.png', 'Im_GeorgeClooney.png', 'Im_PatrickDempsey.png'],diff,1,0.508385699999053,21,88.0952380952381,
ROIS2212,4,inv,30,pos30_id8_im13.bmp_pos30_id8_im20.bmp,['Im_HughJackman.png', 'Im_BradPitt.png', 'Im_RyanReynolds.png', 'Im_OrlandoBloom.png', 'Im_BenStiller.png', 'Im_BenAffleck.png', 'Im_RobertDowneyJr.png', 'Im_LeonardoDiCaprio.png', 'Im_GeorgeClooney.png', 'Im_PatrickDempsey.png'],same,1,0.416725499999302,22,88.0952380952381,
ROIS2212,4,inv,90,pos90_id17_im14.bmp_pos90_id7_im26.bmp,['Im_HughJackman.png', 'Im_BradPitt.png', 'Im_RyanReynolds.png', 'Im_OrlandoBloom.png', 'Im_BenStiller.png', 'Im_BenAffleck.png', 'Im_RobertDowneyJr.png', 'Im_LeonardoDiCaprio.png', 'Im_GeorgeClooney.png', 'Im_PatrickDempsey.png'],diff,1,0.9000818999993498,23,88.0952380952381,
ROIS2212,4,inv,120,pos120_id17_im9.bmp_pos120_id1_im4.bmp,['Im_HughJackman.png', 'Im_BradPitt.png', 'Im_RyanReynolds.png', 'Im_OrlandoBloom.png', 'Im_BenStiller.png', 'Im_BenAffleck.png', 'Im_RobertDowneyJr.png', 'Im_LeonardoDiCaprio.png', 'Im_GeorgeClooney.png', 'Im_PatrickDempsey.png'],diff,1,0.5251907000019855,24,88.0952380952381,
ROIS2212,4,inv,0,pos0_id17_im9.bmp_pos0_id8_im13.bmp,['Im_HughJackman.png', 'Im_BradPitt.png', 'Im_RyanReynolds.png', 'Im_OrlandoBloom.png', 'Im_BenStiller.png', 'Im_BenAffleck.png', 'Im_RobertDowneyJr.png', 'Im_LeonardoDiCaprio.png', 'Im_GeorgeClooney.png', 'Im_PatrickDempsey.png'],same,0,0.5585875999968266,24,88.0952380952381,
ROIS2212,5,pos,0,pos0_id17_im9.bmp_pos0_id17_im8.bmp,['Im_HughJackman.png', 'Im_BradPitt.png', 'Im_RyanReynolds.png', 'Im_OrlandoBloom.png', 'Im_BenStiller.png', 'Im_BenAffleck.png', 'Im_RobertDowneyJr.png', 'Im_LeonardoDiCaprio.png', 'Im_GeorgeClooney.png', 'Im_PatrickDempsey.png'],same,1,0.8665913000004366,25,88.0952380952381,
ROIS2212,5,pos,60,pos60_id2_im16.bmp_pos60_id13_im10.bmp,['Im_HughJackman.png', 'Im_BradPitt.png', 'Im_RyanReynolds.png', 'Im_OrlandoBloom.png', 'Im_BenStiller.png', 'Im_BenAffleck.png', 'Im_RobertDowneyJr.png', 'Im_LeonardoDiCaprio.png', 'Im_GeorgeClooney.png', 'Im_PatrickDempsey.png'],diff,1,0.42522870000175317,26,88.0952380952381,
ROIS2212,5,pos,150,pos150_id1_im21.bmp_pos150_id16_im2.bmp,['Im_HughJackman.png', 'Im_BradPitt.png', 'Im_RyanReynolds.png', 'Im_OrlandoBloom.png', 'Im_BenStiller.png', 'Im_BenAffleck.png', 'Im_RobertDowneyJr.png', 'Im_LeonardoDiCaprio.png', 'Im_GeorgeClooney.png', 'Im_PatrickDempsey.png'],diff,1,0.875220599999011,27,88.0952380952381,
ROIS2212,5,pos,fs,posfs_id7_im15.bmp_posfs_id21_im17.bmp,['Im_HughJackman.png', 'Im_BradPitt.png', 'Im_RyanReynolds.png', 'Im_OrlandoBloom.png', 'Im_BenStiller.png', 'Im_BenAffleck.png', 'Im_RobertDowneyJr.png', 'Im_LeonardoDiCaprio.png', 'Im_GeorgeClooney.png', 'Im_PatrickDempsey.png'],diff,1,0.4334314000006998,28,88.0952380952381,
ROIS2212,5,pos,90,pos90_id1_im24.bmp_pos90_id1_im21.bmp,['Im_HughJackman.png', 'Im_BradPitt.png', 'Im_RyanReynolds.png', 'Im_OrlandoBloom.png', 'Im_BenStiller.png', 'Im_BenAffleck.png', 'Im_RobertDowneyJr.png', 'Im_LeonardoDiCaprio.png', 'Im_GeorgeClooney.png', 'Im_PatrickDempsey.png'],same,1,0.41676759999973,29,88.0952380952381,
ROIS2212,5,pos,30,pos30_id1_im24.bmp_pos30_id8_im20.bmp,['Im_HughJackman.png', 'Im_BradPitt.png', 'Im_RyanReynolds.png', 'Im_OrlandoBloom.png', 'Im_BenStiller.png', 'Im_BenAffleck.png', 'Im_RobertDowneyJr.png', 'Im_LeonardoDiCaprio.png', 'Im_GeorgeClooney.png', 'Im_PatrickDempsey.png'],diff,1,0.9501466000001528,30,88.0952380952381,
ROIS2212,5,pos,0,pos0_id3_im17.bmp_pos0_id3_im8.bmp,['Im_HughJackman.png', 'Im_BradPitt.png', 'Im_RyanReynolds.png', 'Im_OrlandoBloom.png', 'Im_BenStiller.png', 'Im_BenAffleck.png', 'Im_RobertDowneyJr.png', 'Im_LeonardoDiCaprio.png', 'Im_GeorgeClooney.png', 'Im_PatrickDempsey.png'],diff,0,0.45019959999990533,30,88.0952380952381,
ROIS2212,5,pos,90,pos90_id2_im2.bmp_pos90_id13_im15.bmp,['Im_HughJackman.png', 'Im_BradPitt.png', 'Im_RyanReynolds.png', 'Im_OrlandoBloom.png', 'Im_BenStiller.png', 'Im_BenAffleck.png', 'Im_RobertDowneyJr.png', 'Im_LeonardoDiCaprio.png', 'Im_GeorgeClooney.png', 'Im_PatrickDempsey.png'],diff,1,0.6500472999978228,31,88.0952380952381,
ROIS2212,5,pos,fs,posfs_id8_im21.bmp_posfs_id2_im3.bmp,['Im_HughJackman.png', 'Im_BradPitt.png', 'Im_RyanReynolds.png', 'Im_OrlandoBloom.png', 'Im_BenStiller.png', 'Im_BenAffleck.png', 'Im_RobertDowneyJr.png', 'Im_LeonardoDiCaprio.png', 'Im_GeorgeClooney.png', 'Im_PatrickDempsey.png'],diff,1,0.5503991000005044,32,88.0952380952381,
ROIS2212,5,pos,150,pos150_id18_im18.bmp_pos150_id18_im11.bmp,['Im_HughJackman.png', 'Im_BradPitt.png', 'Im_RyanReynolds.png', 'Im_OrlandoBloom.png', 'Im_BenStiller.png', 'Im_BenAffleck.png', 'Im_RobertDowneyJr.png', 'Im_LeonardoDiCaprio.png', 'Im_GeorgeClooney.png', 'Im_PatrickDempsey.png'],diff,0,0.9671033999984502,32,88.0952380952381,
ROIS2212,5,pos,120,pos120_id17_im9.bmp_pos120_id17_im14.bmp,['Im_HughJackman.png', 'Im_BradPitt.png', 'Im_RyanReynolds.png', 'Im_OrlandoBloom.png', 'Im_BenStiller.png', 'Im_BenAffleck.png', 'Im_RobertDowneyJr.png', 'Im_LeonardoDiCaprio.png', 'Im_GeorgeClooney.png', 'Im_PatrickDempsey.png'],same,1,0.41674369999964256,33,88.0952380952381,
ROIS2212,5,pos,60,pos60_id21_im17.bmp_pos60_id21_im16.bmp,['Im_HughJackman.png', 'Im_BradPitt.png', 'Im_RyanReynolds.png', 'Im_OrlandoBloom.png', 'Im_BenStiller.png', 'Im_BenAffleck.png', 'Im_RobertDowneyJr.png', 'Im_LeonardoDiCaprio.png', 'Im_GeorgeClooney.png', 'Im_PatrickDempsey.png'],same,1,0.42508660000021337,34,88.0952380952381,
ROIS2212,5,pos,30,pos30_id3_im17.bmp_pos30_id3_im6.bmp,['Im_HughJackman.png', 'Im_BradPitt.png', 'Im_RyanReynolds.png', 'Im_OrlandoBloom.png', 'Im_BenStiller.png', 'Im_BenAffleck.png', 'Im_RobertDowneyJr.png', 'Im_LeonardoDiCaprio.png', 'Im_GeorgeClooney.png', 'Im_PatrickDempsey.png'],same,1,0.4250551000004634,35,88.0952380952381,
ROIS2212,5,pos,120,pos120_id16_im2.bmp_pos120_id18_im11.bmp,['Im_HughJackman.png', 'Im_BradPitt.png', 'Im_RyanReynolds.png', 'Im_OrlandoBloom.png', 'Im_BenStiller.png', 'Im_BenAffleck.png', 'Im_RobertDowneyJr.png', 'Im_LeonardoDiCaprio.png', 'Im_GeorgeClooney.png', 'Im_PatrickDempsey.png'],diff,1,0.8000336000004609,36,88.0952380952381,
ROIS2212,6,neg,120,neg120_id17_im14.bmp_neg120_id17_im8.bmp,['Im_HughJackman.png', 'Im_BradPitt.png', 'Im_RyanReynolds.png', 'Im_OrlandoBloom.png', 'Im_BenStiller.png', 'Im_BenAffleck.png', 'Im_RobertDowneyJr.png', 'Im_LeonardoDiCaprio.png', 'Im_GeorgeClooney.png', 'Im_PatrickDempsey.png'],same,1,0.5499968999974953,1,85.71428571428571,
ROIS2212,6,neg,60,neg60_id16_im2.bmp_neg60_id1_im21.bmp,['Im_HughJackman.png', 'Im_BradPitt.png', 'Im_RyanReynolds.png', 'Im_OrlandoBloom.png', 'Im_BenStiller.png', 'Im_BenAffleck.png', 'Im_RobertDowneyJr.png', 'Im_LeonardoDiCaprio.png', 'Im_GeorgeClooney.png', 'Im_PatrickDempsey.png'],diff,1,0.8834807999992336,2,85.71428571428571,
ROIS2212,6,neg,60,neg60_id17_im9.bmp_neg60_id8_im13.bmp,['Im_HughJackman.png', 'Im_BradPitt.png', 'Im_RyanReynolds.png', 'Im_OrlandoBloom.png', 'Im_BenStiller.png', 'Im_BenAffleck.png', 'Im_RobertDowneyJr.png', 'Im_LeonardoDiCaprio.png', 'Im_GeorgeClooney.png', 'Im_PatrickDempsey.png'],diff,1,0.6835195000021486,3,85.71428571428571,
ROIS2212,6,neg,30,neg30_id3_im6.bmp_neg30_id3_im17.bmp,['Im_HughJackman.png', 'Im_BradPitt.png', 'Im_RyanReynolds.png', 'Im_OrlandoBloom.png', 'Im_BenStiller.png', 'Im_BenAffleck.png', 'Im_RobertDowneyJr.png', 'Im_LeonardoDiCaprio.png', 'Im_GeorgeClooney.png', 'Im_PatrickDempsey.png'],same,1,0.44182139999975334,4,85.71428571428571,
ROIS2212,6,neg,150,neg150_id16_im3.bmp_neg150_id13_im29.bmp,['Im_HughJackman.png', 'Im_BradPitt.png', 'Im_RyanReynolds.png', 'Im_OrlandoBloom.png', 'Im_BenStiller.png', 'Im_BenAffleck.png', 'Im_RobertDowneyJr.png', 'Im_LeonardoDiCaprio.png', 'Im_GeorgeClooney.png', 'Im_PatrickDempsey.png'],diff,1,0.4250793000028352,5,85.71428571428571,
ROIS2212,6,neg,150,neg150_id2_im2.bmp_neg150_id18_im19.bmp,['Im_HughJackman.png', 'Im_BradPitt.png', 'Im_RyanReynolds.png', 'Im_OrlandoBloom.png', 'Im_BenStiller.png', 'Im_BenAffleck.png', 'Im_RobertDowneyJr.png', 'Im_LeonardoDiCaprio.png', 'Im_GeorgeClooney.png', 'Im_PatrickDempsey.png'],same,0,0.5419398000012734,5,85.71428571428571,
ROIS2212,6,neg,90,neg90_id21_im22.bmp_neg90_id3_im6.bmp,['Im_HughJackman.png', 'Im_BradPitt.png', 'Im_RyanReynolds.png', 'Im_OrlandoBloom.png', 'Im_BenStiller.png', 'Im_BenAffleck.png', 'Im_RobertDowneyJr.png', 'Im_LeonardoDiCaprio.png', 'Im_GeorgeClooney.png', 'Im_PatrickDempsey.png'],diff,1,0.608348499998101,6,85.71428571428571,
ROIS2212,6,neg,30,neg30_id21_im16.bmp_neg30_id21_im22.bmp,['Im_HughJackman.png', 'Im_BradPitt.png', 'Im_RyanReynolds.png', 'Im_OrlandoBloom.png', 'Im_BenStiller.png', 'Im_BenAffleck.png', 'Im_RobertDowneyJr.png', 'Im_LeonardoDiCaprio.png', 'Im_GeorgeClooney.png', 'Im_PatrickDempsey.png'],same,1,1.5834465000007185,7,85.71428571428571,
ROIS2212,6,neg,0,neg0_id2_im16.bmp_neg0_id2_im3.bmp,['Im_HughJackman.png', 'Im_BradPitt.png', 'Im_RyanReynolds.png', 'Im_OrlandoBloom.png', 'Im_BenStiller.png', 'Im_BenAffleck.png', 'Im_RobertDowneyJr.png', 'Im_LeonardoDiCaprio.png', 'Im_GeorgeClooney.png', 'Im_PatrickDempsey.png'],same,1,0.9417618000006769,8,85.71428571428571,
ROIS2212,6,neg,fs,negfs_id1_im4.bmp_negfs_id17_im9.bmp,['Im_HughJackman.png', 'Im_BradPitt.png', 'Im_RyanReynolds.png', 'Im_OrlandoBloom.png', 'Im_BenStiller.png', 'Im_BenAffleck.png', 'Im_RobertDowneyJr.png', 'Im_LeonardoDiCaprio.png', 'Im_GeorgeClooney.png', 'Im_PatrickDempsey.png'],diff,1,0.4167185000005702,9,85.71428571428571,
ROIS2212,6,neg,0,neg0_id2_im16.bmp_neg0_id16_im3.bmp,['Im_HughJackman.png', 'Im_BradPitt.png', 'Im_RyanReynolds.png', 'Im_OrlandoBloom.png', 'Im_BenStiller.png', 'Im_BenAffleck.png', 'Im_RobertDowneyJr.png', 'Im_LeonardoDiCaprio.png', 'Im_GeorgeClooney.png', 'Im_PatrickDempsey.png'],diff,1,0.43328919999839854,10,85.71428571428571,
ROIS2212,6,neg,90,neg90_id21_im17.bmp_neg90_id21_im22.bmp,['Im_HughJackman.png', 'Im_BradPitt.png', 'Im_RyanReynolds.png', 'Im_OrlandoBloom.png', 'Im_BenStiller.png', 'Im_BenAffleck.png', 'Im_RobertDowneyJr.png', 'Im_LeonardoDiCaprio.png', 'Im_GeorgeClooney.png', 'Im_PatrickDempsey.png'],same,1,0.8001919000016642,11,85.71428571428571,
ROIS2212,6,neg,fs,negfs_id3_im8.bmp_negfs_id3_im6.bmp,['Im_HughJackman.png', 'Im_BradPitt.png', 'Im_RyanReynolds.png', 'Im_OrlandoBloom.png', 'Im_BenStiller.png', 'Im_BenAffleck.png', 'Im_RobertDowneyJr.png', 'Im_LeonardoDiCaprio.png', 'Im_GeorgeClooney.png', 'Im_PatrickDempsey.png'],diff,0,0.41672319999997853,11,85.71428571428571,
ROIS2212,6,neg,120,neg120_id21_im22.bmp_neg120_id3_im6.bmp,['Im_HughJackman.png', 'Im_BradPitt.png', 'Im_RyanReynolds.png', 'Im_OrlandoBloom.png', 'Im_BenStiller.png', 'Im_BenAffleck.png', 'Im_RobertDowneyJr.png', 'Im_LeonardoDiCaprio.png', 'Im_GeorgeClooney.png', 'Im_PatrickDempsey.png'],diff,1,1.1000367000015103,12,85.71428571428571,
ROIS2212,7,neg,150,neg150_id18_im11.bmp_neg150_id18_im19.bmp,['Im_HughJackman.png', 'Im_BradPitt.png', 'Im_RyanReynolds.png', 'Im_OrlandoBloom.png', 'Im_BenStiller.png', 'Im_BenAffleck.png', 'Im_RobertDowneyJr.png', 'Im_LeonardoDiCaprio.png', 'Im_GeorgeClooney.png', 'Im_PatrickDempsey.png'],same,1,0.8751759000006132,13,85.71428571428571,
ROIS2212,7,neg,30,neg30_id21_im17.bmp_neg30_id7_im15.bmp,['Im_HughJackman.png', 'Im_BradPitt.png', 'Im_RyanReynolds.png', 'Im_OrlandoBloom.png', 'Im_BenStiller.png', 'Im_BenAffleck.png', 'Im_RobertDowneyJr.png', 'Im_LeonardoDiCaprio.png', 'Im_GeorgeClooney.png', 'Im_PatrickDempsey.png'],same,0,1.1501386000018101,13,85.71428571428571,
ROIS2212,7,neg,150,neg150_id13_im10.bmp_neg150_id13_im15.bmp,['Im_HughJackman.png', 'Im_BradPitt.png', 'Im_RyanReynolds.png', 'Im_OrlandoBloom.png', 'Im_BenStiller.png', 'Im_BenAffleck.png', 'Im_RobertDowneyJr.png', 'Im_LeonardoDiCaprio.png', 'Im_GeorgeClooney.png', 'Im_PatrickDempsey.png'],none,0,4.408439799997723,13,85.71428571428571,
ROIS2212,7,neg,fs,negfs_id1_im4.bmp_negfs_id16_im19.bmp,['Im_HughJackman.png', 'Im_BradPitt.png', 'Im_RyanReynolds.png', 'Im_OrlandoBloom.png', 'Im_BenStiller.png', 'Im_BenAffleck.png', 'Im_RobertDowneyJr.png', 'Im_LeonardoDiCaprio.png', 'Im_GeorgeClooney.png', 'Im_PatrickDempsey.png'],diff,1,0.508440800000244,14,85.71428571428571,
ROIS2212,7,neg,90,neg90_id18_im11.bmp_neg90_id16_im2.bmp,['Im_HughJackman.png', 'Im_BradPitt.png', 'Im_RyanReynolds.png', 'Im_OrlandoBloom.png', 'Im_BenStiller.png', 'Im_BenAffleck.png', 'Im_RobertDowneyJr.png', 'Im_LeonardoDiCaprio.png', 'Im_GeorgeClooney.png', 'Im_PatrickDempsey.png'],diff,1,0.8669816000001447,15,85.71428571428571,
ROIS2212,7,neg,fs,negfs_id21_im17.bmp_negfs_id7_im26.bmp,['Im_HughJackman.png', 'Im_BradPitt.png', 'Im_RyanReynolds.png', 'Im_OrlandoBloom.png', 'Im_BenStiller.png', 'Im_BenAffleck.png', 'Im_RobertDowneyJr.png', 'Im_LeonardoDiCaprio.png', 'Im_GeorgeClooney.png', 'Im_PatrickDempsey.png'],diff,1,0.6582963000000746,16,85.71428571428571,
ROIS2212,7,neg,60,neg60_id16_im3.bmp_neg60_id16_im19.bmp,['Im_HughJackman.png', 'Im_BradPitt.png', 'Im_RyanReynolds.png', 'Im_OrlandoBloom.png', 'Im_BenStiller.png', 'Im_BenAffleck.png', 'Im_RobertDowneyJr.png', 'Im_LeonardoDiCaprio.png', 'Im_GeorgeClooney.png', 'Im_PatrickDempsey.png'],same,1,0.7667046000024129,17,85.71428571428571,
ROIS2212,7,neg,60,neg60_id3_im17.bmp_neg60_id3_im6.bmp,['Im_HughJackman.png', 'Im_BradPitt.png', 'Im_RyanReynolds.png', 'Im_OrlandoBloom.png', 'Im_BenStiller.png', 'Im_BenAffleck.png', 'Im_RobertDowneyJr.png', 'Im_LeonardoDiCaprio.png', 'Im_GeorgeClooney.png', 'Im_PatrickDempsey.png'],same,1,0.6334184999977879,18,85.71428571428571,
ROIS2212,7,neg,0,neg0_id21_im16.bmp_neg0_id21_im22.bmp,['Im_HughJackman.png', 'Im_BradPitt.png', 'Im_RyanReynolds.png', 'Im_OrlandoBloom.png', 'Im_BenStiller.png', 'Im_BenAffleck.png', 'Im_RobertDowneyJr.png', 'Im_LeonardoDiCaprio.png', 'Im_GeorgeClooney.png', 'Im_PatrickDempsey.png'],same,1,0.9671419999976933,19,85.71428571428571,
ROIS2212,7,neg,120,neg120_id3_im17.bmp_neg120_id1_im21.bmp,['Im_HughJackman.png', 'Im_BradPitt.png', 'Im_RyanReynolds.png', 'Im_OrlandoBloom.png', 'Im_BenStiller.png', 'Im_BenAffleck.png', 'Im_RobertDowneyJr.png', 'Im_LeonardoDiCaprio.png', 'Im_GeorgeClooney.png', 'Im_PatrickDempsey.png'],diff,1,0.592094100000395,20,85.71428571428571,
ROIS2212,7,neg,120,neg120_id1_im4.bmp_neg120_id1_im24.bmp,['Im_HughJackman.png', 'Im_BradPitt.png', 'Im_RyanReynolds.png', 'Im_OrlandoBloom.png', 'Im_BenStiller.png', 'Im_BenAffleck.png', 'Im_RobertDowneyJr.png', 'Im_LeonardoDiCaprio.png', 'Im_GeorgeClooney.png', 'Im_PatrickDempsey.png'],same,1,0.5084526000027836,21,85.71428571428571,
ROIS2212,7,neg,30,neg30_id17_im8.bmp_neg30_id16_im19.bmp,['Im_HughJackman.png', 'Im_BradPitt.png', 'Im_RyanReynolds.png', 'Im_OrlandoBloom.png', 'Im_BenStiller.png', 'Im_BenAffleck.png', 'Im_RobertDowneyJr.png', 'Im_LeonardoDiCaprio.png', 'Im_GeorgeClooney.png', 'Im_PatrickDempsey.png'],diff,1,0.7094360999981291,22,85.71428571428571,
ROIS2212,7,neg,0,neg0_id18_im19.bmp_neg0_id18_im11.bmp,['Im_HughJackman.png', 'Im_BradPitt.png', 'Im_RyanReynolds.png', 'Im_OrlandoBloom.png', 'Im_BenStiller.png', 'Im_BenAffleck.png', 'Im_RobertDowneyJr.png', 'Im_LeonardoDiCaprio.png', 'Im_GeorgeClooney.png', 'Im_PatrickDempsey.png'],same,1,0.40840530000059516,23,85.71428571428571,
ROIS2212,7,neg,90,neg90_id7_im15.bmp_neg90_id17_im8.bmp,['Im_HughJackman.png', 'Im_BradPitt.png', 'Im_RyanReynolds.png', 'Im_OrlandoBloom.png', 'Im_BenStiller.png', 'Im_BenAffleck.png', 'Im_RobertDowneyJr.png', 'Im_LeonardoDiCaprio.png', 'Im_GeorgeClooney.png', 'Im_PatrickDempsey.png'],diff,1,0.7666372999992745,24,85.71428571428571,
ROIS2212,8,inv,30,pos30_id3_im8.bmp_pos30_id3_im17.bmp,['Im_HughJackman.png', 'Im_BradPitt.png', 'Im_RyanReynolds.png', 'Im_OrlandoBloom.png', 'Im_BenStiller.png', 'Im_BenAffleck.png', 'Im_RobertDowneyJr.png', 'Im_LeonardoDiCaprio.png', 'Im_GeorgeClooney.png', 'Im_PatrickDempsey.png'],same,1,0.41670479999811505,25,85.71428571428571,
ROIS2212,8,inv,fs,posfs_id7_im15.bmp_posfs_id7_im26.bmp,['Im_HughJackman.png', 'Im_BradPitt.png', 'Im_RyanReynolds.png', 'Im_OrlandoBloom.png', 'Im_BenStiller.png', 'Im_BenAffleck.png', 'Im_RobertDowneyJr.png', 'Im_LeonardoDiCaprio.png', 'Im_GeorgeClooney.png', 'Im_PatrickDempsey.png'],same,1,0.4250374999974156,26,85.71428571428571,
ROIS2212,8,inv,120,pos120_id16_im19.bmp_pos120_id16_im2.bmp,['Im_HughJackman.png', 'Im_BradPitt.png', 'Im_RyanReynolds.png', 'Im_OrlandoBloom.png', 'Im_BenStiller.png', 'Im_BenAffleck.png', 'Im_RobertDowneyJr.png', 'Im_LeonardoDiCaprio.png', 'Im_GeorgeClooney.png', 'Im_PatrickDempsey.png'],same,1,0.5334967999988294,27,85.71428571428571,
ROIS2212,8,inv,120,pos120_id16_im2.bmp_pos120_id18_im11.bmp,['Im_HughJackman.png', 'Im_BradPitt.png', 'Im_RyanReynolds.png', 'Im_OrlandoBloom.png', 'Im_BenStiller.png', 'Im_BenAffleck.png', 'Im_RobertDowneyJr.png', 'Im_LeonardoDiCaprio.png', 'Im_GeorgeClooney.png', 'Im_PatrickDempsey.png'],diff,1,0.733608099999401,28,85.71428571428571,
ROIS2212,8,inv,0,pos0_id2_im3.bmp_pos0_id2_im2.bmp,['Im_HughJackman.png', 'Im_BradPitt.png', 'Im_RyanReynolds.png', 'Im_OrlandoBloom.png', 'Im_BenStiller.png', 'Im_BenAffleck.png', 'Im_RobertDowneyJr.png', 'Im_LeonardoDiCaprio.png', 'Im_GeorgeClooney.png', 'Im_PatrickDempsey.png'],same,1,0.4251120000008086,29,85.71428571428571,
ROIS2212,8,inv,0,pos0_id8_im13.bmp_pos0_id8_im20.bmp,['Im_HughJackman.png', 'Im_BradPitt.png', 'Im_RyanReynolds.png', 'Im_OrlandoBloom.png', 'Im_BenStiller.png', 'Im_BenAffleck.png', 'Im_RobertDowneyJr.png', 'Im_LeonardoDiCaprio.png', 'Im_GeorgeClooney.png', 'Im_PatrickDempsey.png'],same,1,0.4167072000018379,30,85.71428571428571,
ROIS2212,8,inv,fs,posfs_id21_im22.bmp_posfs_id3_im6.bmp,['Im_HughJackman.png', 'Im_BradPitt.png', 'Im_RyanReynolds.png', 'Im_OrlandoBloom.png', 'Im_BenStiller.png', 'Im_BenAffleck.png', 'Im_RobertDowneyJr.png', 'Im_LeonardoDiCaprio.png', 'Im_GeorgeClooney.png', 'Im_PatrickDempsey.png'],diff,1,0.41662240000005113,31,85.71428571428571,
ROIS2212,8,inv,60,pos60_id8_im21.bmp_pos60_id1_im24.bmp,['Im_HughJackman.png', 'Im_BradPitt.png', 'Im_RyanReynolds.png', 'Im_OrlandoBloom.png', 'Im_BenStiller.png', 'Im_BenAffleck.png', 'Im_RobertDowneyJr.png', 'Im_LeonardoDiCaprio.png', 'Im_GeorgeClooney.png', 'Im_PatrickDempsey.png'],diff,1,0.599923800000397,32,85.71428571428571,
ROIS2212,8,inv,150,pos150_id2_im16.bmp_pos150_id16_im3.bmp,['Im_HughJackman.png', 'Im_BradPitt.png', 'Im_RyanReynolds.png', 'Im_OrlandoBloom.png', 'Im_BenStiller.png', 'Im_BenAffleck.png', 'Im_RobertDowneyJr.png', 'Im_LeonardoDiCaprio.png', 'Im_GeorgeClooney.png', 'Im_PatrickDempsey.png'],none,1,4.425033899999107,32,85.71428571428571,
ROIS2212,8,inv,60,pos60_id18_im18.bmp_pos60_id18_im11.bmp,['Im_HughJackman.png', 'Im_BradPitt.png', 'Im_RyanReynolds.png', 'Im_OrlandoBloom.png', 'Im_BenStiller.png', 'Im_BenAffleck.png', 'Im_RobertDowneyJr.png', 'Im_LeonardoDiCaprio.png', 'Im_GeorgeClooney.png', 'Im_PatrickDempsey.png'],same,1,0.41653080000105547,33,85.71428571428571,
ROIS2212,8,inv,150,pos150_id21_im17.bmp_pos150_id7_im26.bmp,['Im_HughJackman.png', 'Im_BradPitt.png', 'Im_RyanReynolds.png', 'Im_OrlandoBloom.png', 'Im_BenStiller.png', 'Im_BenAffleck.png', 'Im_RobertDowneyJr.png', 'Im_LeonardoDiCaprio.png', 'Im_GeorgeClooney.png', 'Im_PatrickDempsey.png'],same,0,0.41680540000015753,33,85.71428571428571,
ROIS2212,8,inv,30,pos30_id7_im14.bmp_pos30_id7_im15.bmp,['Im_HughJackman.png', 'Im_BradPitt.png', 'Im_RyanReynolds.png', 'Im_OrlandoBloom.png', 'Im_BenStiller.png', 'Im_BenAffleck.png', 'Im_RobertDowneyJr.png', 'Im_LeonardoDiCaprio.png', 'Im_GeorgeClooney.png', 'Im_PatrickDempsey.png'],none,0,4.408332699997118,33,85.71428571428571,
ROIS2212,8,inv,90,pos90_id2_im2.bmp_pos90_id2_im3.bmp,['Im_HughJackman.png', 'Im_BradPitt.png', 'Im_RyanReynolds.png', 'Im_OrlandoBloom.png', 'Im_BenStiller.png', 'Im_BenAffleck.png', 'Im_RobertDowneyJr.png', 'Im_LeonardoDiCaprio.png', 'Im_GeorgeClooney.png', 'Im_PatrickDempsey.png'],same,1,1.691723899999488,34,85.71428571428571,
ROIS2212,8,inv,90,pos90_id3_im8.bmp_pos90_id18_im19.bmp,['Im_HughJackman.png', 'Im_BradPitt.png', 'Im_RyanReynolds.png', 'Im_OrlandoBloom.png', 'Im_BenStiller.png', 'Im_BenAffleck.png', 'Im_RobertDowneyJr.png', 'Im_LeonardoDiCaprio.png', 'Im_GeorgeClooney.png', 'Im_PatrickDempsey.png'],diff,1,1.7584523999976227,35,85.71428571428571,
ROIS2212,9,pos,60,pos60_id7_im15.bmp_pos60_id7_im14.bmp,['Im_HughJackman.png', 'Im_BradPitt.png', 'Im_RyanReynolds.png', 'Im_OrlandoBloom.png', 'Im_BenStiller.png', 'Im_BenAffleck.png', 'Im_RobertDowneyJr.png', 'Im_LeonardoDiCaprio.png', 'Im_GeorgeClooney.png', 'Im_PatrickDempsey.png'],same,1,0.4250757000008889,1,83.33333333333333,
ROIS2212,9,pos,60,pos60_id17_im14.bmp_pos60_id17_im9.bmp,['Im_HughJackman.png', 'Im_BradPitt.png', 'Im_RyanReynolds.png', 'Im_OrlandoBloom.png', 'Im_BenStiller.png', 'Im_BenAffleck.png', 'Im_RobertDowneyJr.png', 'Im_LeonardoDiCaprio.png', 'Im_GeorgeClooney.png', 'Im_PatrickDempsey.png'],same,1,0.4169554000000062,2,83.33333333333333,
ROIS2212,9,pos,120,pos120_id3_im17.bmp_pos120_id7_im14.bmp,['Im_HughJackman.png', 'Im_BradPitt.png', 'Im_RyanReynolds.png', 'Im_OrlandoBloom.png', 'Im_BenStiller.png', 'Im_BenAffleck.png', 'Im_RobertDowneyJr.png', 'Im_LeonardoDiCaprio.png', 'Im_GeorgeClooney.png', 'Im_PatrickDempsey.png'],diff,1,0.43313580000176444,3,83.33333333333333,
ROIS2212,9,pos,0,pos0_id8_im20.bmp_pos0_id21_im16.bmp,['Im_HughJackman.png', 'Im_BradPitt.png', 'Im_RyanReynolds.png', 'Im_OrlandoBloom.png', 'Im_BenStiller.png', 'Im_BenAffleck.png', 'Im_RobertDowneyJr.png', 'Im_LeonardoDiCaprio.png', 'Im_GeorgeClooney.png', 'Im_PatrickDempsey.png'],diff,1,0.5667613000005076,4,83.33333333333333,
ROIS2212,9,pos,fs,posfs_id3_im17.bmp_posfs_id1_im21.bmp,['Im_HughJackman.png', 'Im_BradPitt.png', 'Im_RyanReynolds.png', 'Im_OrlandoBloom.png', 'Im_BenStiller.png', 'Im_BenAffleck.png', 'Im_RobertDowneyJr.png', 'Im_LeonardoDiCaprio.png', 'Im_GeorgeClooney.png', 'Im_PatrickDempsey.png'],diff,1,0.8083191000005172,5,83.33333333333333,
ROIS2212,9,pos,150,pos150_id1_im24.bmp_pos150_id8_im21.bmp,['Im_HughJackman.png', 'Im_BradPitt.png', 'Im_RyanReynolds.png', 'Im_OrlandoBloom.png', 'Im_BenStiller.png', 'Im_BenAffleck.png', 'Im_RobertDowneyJr.png', 'Im_LeonardoDiCaprio.png', 'Im_GeorgeClooney.png', 'Im_PatrickDempsey.png'],diff,1,0.8668470000011439,6,83.33333333333333,
ROIS2212,9,pos,120,pos120_id18_im11.bmp_pos120_id18_im18.bmp,['Im_HughJackman.png', 'Im_BradPitt.png', 'Im_RyanReynolds.png', 'Im_OrlandoBloom.png', 'Im_BenStiller.png', 'Im_BenAffleck.png', 'Im_RobertDowneyJr.png', 'Im_LeonardoDiCaprio.png', 'Im_GeorgeClooney.png', 'Im_PatrickDempsey.png'],same,1,0.42539380000016536,7,83.33333333333333,
ROIS2212,9,pos,150,pos150_id13_im10.bmp_pos150_id7_im14.bmp,['Im_HughJackman.png', 'Im_BradPitt.png', 'Im_RyanReynolds.png', 'Im_OrlandoBloom.png', 'Im_BenStiller.png', 'Im_BenAffleck.png', 'Im_RobertDowneyJr.png', 'Im_LeonardoDiCaprio.png', 'Im_GeorgeClooney.png', 'Im_PatrickDempsey.png'],diff,1,0.41678950000277837,8,83.33333333333333,
ROIS2212,9,pos,30,pos30_id13_im15.bmp_pos30_id2_im2.bmp,['Im_HughJackman.png', 'Im_BradPitt.png', 'Im_RyanReynolds.png', 'Im_OrlandoBloom.png', 'Im_BenStiller.png', 'Im_BenAffleck.png', 'Im_RobertDowneyJr.png', 'Im_LeonardoDiCaprio.png', 'Im_GeorgeClooney.png', 'Im_PatrickDempsey.png'],diff,1,0.408449999998993,9,83.33333333333333,
ROIS2212,9,pos,90,pos90_id18_im18.bmp_pos90_id3_im8.bmp,['Im_HughJackman.png', 'Im_BradPitt.png', 'Im_RyanReynolds.png', 'Im_OrlandoBloom.png', 'Im_BenStiller.png', 'Im_BenAffleck.png', 'Im_RobertDowneyJr.png', 'Im_LeonardoDiCaprio.png', 'Im_GeorgeClooney.png', 'Im_PatrickDempsey.png'],diff,1,0.43357380000088597,10,83.33333333333333,
ROIS2212,9,pos,90,pos90_id1_im4.bmp_pos90_id16_im19.bmp,['Im_HughJackman.png', 'Im_BradPitt.png', 'Im_RyanReynolds.png', 'Im_OrlandoBloom.png', 'Im_BenStiller.png', 'Im_BenAffleck.png', 'Im_RobertDowneyJr.png', 'Im_LeonardoDiCaprio.png', 'Im_GeorgeClooney.png', 'Im_PatrickDempsey.png'],diff,1,0.4250828999975056,11,83.33333333333333,
ROIS2212,9,pos,30,pos30_id21_im22.bmp_pos30_id3_im6.bmp,['Im_HughJackman.png', 'Im_BradPitt.png', 'Im_RyanReynolds.png', 'Im_OrlandoBloom.png', 'Im_BenStiller.png', 'Im_BenAffleck.png', 'Im_RobertDowneyJr.png', 'Im_LeonardoDiCaprio.png', 'Im_GeorgeClooney.png', 'Im_PatrickDempsey.png'],diff,1,0.41677250000066124,12,83.33333333333333,
ROIS2212,9,pos,fs,posfs_id18_im19.bmp_posfs_id3_im8.bmp,['Im_HughJackman.png', 'Im_BradPitt.png', 'Im_RyanReynolds.png', 'Im_OrlandoBloom.png', 'Im_BenStiller.png', 'Im_BenAffleck.png', 'Im_RobertDowneyJr.png', 'Im_LeonardoDiCaprio.png', 'Im_GeorgeClooney.png', 'Im_PatrickDempsey.png'],diff,1,0.7501936000007845,13,83.33333333333333,
ROIS2212,9,pos,0,pos0_id3_im8.bmp_pos0_id18_im19.bmp,['Im_HughJackman.png', 'Im_BradPitt.png', 'Im_RyanReynolds.png', 'Im_OrlandoBloom.png', 'Im_BenStiller.png', 'Im_BenAffleck.png', 'Im_RobertDowneyJr.png', 'Im_LeonardoDiCaprio.png', 'Im_GeorgeClooney.png', 'Im_PatrickDempsey.png'],diff,1,0.41667039999811095,14,83.33333333333333,
ROIS2212,10,inv,120,pos120_id13_im29.bmp_pos120_id21_im22.bmp,['Im_HughJackman.png', 'Im_BradPitt.png', 'Im_RyanReynolds.png', 'Im_OrlandoBloom.png', 'Im_BenStiller.png', 'Im_BenAffleck.png', 'Im_RobertDowneyJr.png', 'Im_LeonardoDiCaprio.png', 'Im_GeorgeClooney.png', 'Im_PatrickDempsey.png'],diff,1,2.2582712000003085,15,83.33333333333333,
ROIS2212,10,inv,150,pos150_id17_im14.bmp_pos150_id17_im8.bmp,['Im_HughJackman.png', 'Im_BradPitt.png', 'Im_RyanReynolds.png', 'Im_OrlandoBloom.png', 'Im_BenStiller.png', 'Im_BenAffleck.png', 'Im_RobertDowneyJr.png', 'Im_LeonardoDiCaprio.png', 'Im_GeorgeClooney.png', 'Im_PatrickDempsey.png'],same,1,0.7668524000000616,16,83.33333333333333,
ROIS2212,10,inv,fs,posfs_id3_im17.bmp_posfs_id3_im6.bmp,['Im_HughJackman.png', 'Im_BradPitt.png', 'Im_RyanReynolds.png', 'Im_OrlandoBloom.png', 'Im_BenStiller.png', 'Im_BenAffleck.png', 'Im_RobertDowneyJr.png', 'Im_LeonardoDiCaprio.png', 'Im_GeorgeClooney.png', 'Im_PatrickDempsey.png'],same,1,0.40872720000334084,17,83.33333333333333,
ROIS2212,10,inv,60,pos60_id17_im8.bmp_pos60_id17_im9.bmp,['Im_HughJackman.png', 'Im_BradPitt.png', 'Im_RyanReynolds.png', 'Im_OrlandoBloom.png', 'Im_BenStiller.png', 'Im_BenAffleck.png', 'Im_RobertDowneyJr.png', 'Im_LeonardoDiCaprio.png', 'Im_GeorgeClooney.png', 'Im_PatrickDempsey.png'],same,1,0.41684059999897727,18,83.33333333333333,
ROIS2212,10,inv,60,pos60_id21_im17.bmp_pos60_id21_im22.bmp,['Im_HughJackman.png', 'Im_BradPitt.png', 'Im_RyanReynolds.png', 'Im_OrlandoBloom.png', 'Im_BenStiller.png', 'Im_BenAffleck.png', 'Im_RobertDowneyJr.png', 'Im_LeonardoDiCaprio.png', 'Im_GeorgeClooney.png', 'Im_PatrickDempsey.png'],same,1,0.6248735999979544,19,83.33333333333333,
ROIS2212,10,inv,150,pos150_id3_im6.bmp_pos150_id21_im22.bmp,['Im_HughJackman.png', 'Im_BradPitt.png', 'Im_RyanReynolds.png', 'Im_OrlandoBloom.png', 'Im_BenStiller.png', 'Im_BenAffleck.png', 'Im_RobertDowneyJr.png', 'Im_LeonardoDiCaprio.png', 'Im_GeorgeClooney.png', 'Im_PatrickDempsey.png'],diff,1,0.4169395999997505,20,83.33333333333333,
ROIS2212,10,inv,fs,posfs_id17_im9.bmp_posfs_id17_im8.bmp,['Im_HughJackman.png', 'Im_BradPitt.png', 'Im_RyanReynolds.png', 'Im_OrlandoBloom.png', 'Im_BenStiller.png', 'Im_BenAffleck.png', 'Im_RobertDowneyJr.png', 'Im_LeonardoDiCaprio.png', 'Im_GeorgeClooney.png', 'Im_PatrickDempsey.png'],same,1,0.4089988000014273,21,83.33333333333333,
ROIS2212,10,inv,30,pos30_id1_im24.bmp_pos30_id8_im20.bmp,['Im_HughJackman.png', 'Im_BradPitt.png', 'Im_RyanReynolds.png', 'Im_OrlandoBloom.png', 'Im_BenStiller.png', 'Im_BenAffleck.png', 'Im_RobertDowneyJr.png', 'Im_LeonardoDiCaprio.png', 'Im_GeorgeClooney.png', 'Im_PatrickDempsey.png'],same,0,0.5004960999976902,21,83.33333333333333,
ROIS2212,10,inv,0,pos0_id7_im26.bmp_pos0_id7_im14.bmp,['Im_HughJackman.png', 'Im_BradPitt.png', 'Im_RyanReynolds.png', 'Im_OrlandoBloom.png', 'Im_BenStiller.png', 'Im_BenAffleck.png', 'Im_RobertDowneyJr.png', 'Im_LeonardoDiCaprio.png', 'Im_GeorgeClooney.png', 'Im_PatrickDempsey.png'],same,1,0.9002158000002964,22,83.33333333333333,
ROIS2212,10,inv,0,pos0_id1_im24.bmp_pos0_id8_im21.bmp,['Im_HughJackman.png', 'Im_BradPitt.png', 'Im_RyanReynolds.png', 'Im_OrlandoBloom.png', 'Im_BenStiller.png', 'Im_BenAffleck.png', 'Im_RobertDowneyJr.png', 'Im_LeonardoDiCaprio.png', 'Im_GeorgeClooney.png', 'Im_PatrickDempsey.png'],diff,1,0.50004429999899,23,83.33333333333333,
ROIS2212,10,inv,90,pos90_id7_im15.bmp_pos90_id7_im14.bmp,['Im_HughJackman.png', 'Im_BradPitt.png', 'Im_RyanReynolds.png', 'Im_OrlandoBloom.png', 'Im_BenStiller.png', 'Im_BenAffleck.png', 'Im_RobertDowneyJr.png', 'Im_LeonardoDiCaprio.png', 'Im_GeorgeClooney.png', 'Im_PatrickDempsey.png'],same,1,0.9168953000007605,24,83.33333333333333,
ROIS2212,10,inv,90,pos90_id18_im19.bmp_pos90_id18_im18.bmp,['Im_HughJackman.png', 'Im_BradPitt.png', 'Im_RyanReynolds.png', 'Im_OrlandoBloom.png', 'Im_BenStiller.png', 'Im_BenAffleck.png', 'Im_RobertDowneyJr.png', 'Im_LeonardoDiCaprio.png', 'Im_GeorgeClooney.png', 'Im_PatrickDempsey.png'],diff,0,1.3085873999989417,24,83.33333333333333,
ROIS2212,10,inv,120,pos120_id13_im10.bmp_pos120_id13_im15.bmp,['Im_HughJackman.png', 'Im_BradPitt.png', 'Im_RyanReynolds.png', 'Im_OrlandoBloom.png', 'Im_BenStiller.png', 'Im_BenAffleck.png', 'Im_RobertDowneyJr.png', 'Im_LeonardoDiCaprio.png', 'Im_GeorgeClooney.png', 'Im_PatrickDempsey.png'],same,1,0.4585750999976881,25,83.33333333333333,
ROIS2212,10,inv,30,pos30_id13_im10.bmp_pos30_id13_im29.bmp,['Im_HughJackman.png', 'Im_BradPitt.png', 'Im_RyanReynolds.png', 'Im_OrlandoBloom.png', 'Im_BenStiller.png', 'Im_BenAffleck.png', 'Im_RobertDowneyJr.png', 'Im_LeonardoDiCaprio.png', 'Im_GeorgeClooney.png', 'Im_PatrickDempsey.png'],same,1,2.108543700000155,26,83.33333333333333,
ROIS2212,11,neg,fs,negfs_id13_im29.bmp_negfs_id13_im15.bmp,['Im_HughJackman.png', 'Im_BradPitt.png', 'Im_RyanReynolds.png', 'Im_OrlandoBloom.png', 'Im_BenStiller.png', 'Im_BenAffleck.png', 'Im_RobertDowneyJr.png', 'Im_LeonardoDiCaprio.png', 'Im_GeorgeClooney.png', 'Im_PatrickDempsey.png'],same,1,1.0584194999973988,27,83.33333333333333,
ROIS2212,11,neg,0,neg0_id17_im14.bmp_neg0_id7_im26.bmp,['Im_HughJackman.png', 'Im_BradPitt.png', 'Im_RyanReynolds.png', 'Im_OrlandoBloom.png', 'Im_BenStiller.png', 'Im_BenAffleck.png', 'Im_RobertDowneyJr.png', 'Im_LeonardoDiCaprio.png', 'Im_GeorgeClooney.png', 'Im_PatrickDempsey.png'],diff,1,0.7083410999985063,28,83.33333333333333,
ROIS2212,11,neg,120,neg120_id3_im8.bmp_neg120_id18_im19.bmp,['Im_HughJackman.png', 'Im_BradPitt.png', 'Im_RyanReynolds.png', 'Im_OrlandoBloom.png', 'Im_BenStiller.png', 'Im_BenAffleck.png', 'Im_RobertDowneyJr.png', 'Im_LeonardoDiCaprio.png', 'Im_GeorgeClooney.png', 'Im_PatrickDempsey.png'],diff,1,0.5334731000002648,29,83.33333333333333,
ROIS2212,11,neg,0,neg0_id21_im17.bmp_neg0_id7_im15.bmp,['Im_HughJackman.png', 'Im_BradPitt.png', 'Im_RyanReynolds.png', 'Im_OrlandoBloom.png', 'Im_BenStiller.png', 'Im_BenAffleck.png', 'Im_RobertDowneyJr.png', 'Im_LeonardoDiCaprio.png', 'Im_GeorgeClooney.png', 'Im_PatrickDempsey.png'],diff,1,0.416695100000652,30,83.33333333333333,
ROIS2212,11,neg,30,neg30_id18_im11.bmp_neg30_id18_im18.bmp,['Im_HughJackman.png', 'Im_BradPitt.png', 'Im_RyanReynolds.png', 'Im_OrlandoBloom.png', 'Im_BenStiller.png', 'Im_BenAffleck.png', 'Im_RobertDowneyJr.png', 'Im_LeonardoDiCaprio.png', 'Im_GeorgeClooney.png', 'Im_PatrickDempsey.png'],same,1,0.6002297000013641,31,83.33333333333333,
ROIS2212,11,neg,fs,negfs_id3_im8.bmp_negfs_id18_im18.bmp,['Im_HughJackman.png', 'Im_BradPitt.png', 'Im_RyanReynolds.png', 'Im_OrlandoBloom.png', 'Im_BenStiller.png', 'Im_BenAffleck.png', 'Im_RobertDowneyJr.png', 'Im_LeonardoDiCaprio.png', 'Im_GeorgeClooney.png', 'Im_PatrickDempsey.png'],diff,1,0.4250705999984348,32,83.33333333333333,
ROIS2212,11,neg,90,neg90_id7_im14.bmp_neg90_id3_im17.bmp,['Im_HughJackman.png', 'Im_BradPitt.png', 'Im_RyanReynolds.png', 'Im_OrlandoBloom.png', 'Im_BenStiller.png', 'Im_BenAffleck.png', 'Im_RobertDowneyJr.png', 'Im_LeonardoDiCaprio.png', 'Im_GeorgeClooney.png', 'Im_PatrickDempsey.png'],diff,1,0.5336105999995198,33,83.33333333333333,
ROIS2212,11,neg,60,neg60_id3_im8.bmp_neg60_id3_im17.bmp,['Im_HughJackman.png', 'Im_BradPitt.png', 'Im_RyanReynolds.png', 'Im_OrlandoBloom.png', 'Im_BenStiller.png', 'Im_BenAffleck.png', 'Im_RobertDowneyJr.png', 'Im_LeonardoDiCaprio.png', 'Im_GeorgeClooney.png', 'Im_PatrickDempsey.png'],same,1,1.700173299999733,34,83.33333333333333,
ROIS2212,11,neg,150,neg150_id1_im24.bmp_neg150_id1_im21.bmp,['Im_HughJackman.png', 'Im_BradPitt.png', 'Im_RyanReynolds.png', 'Im_OrlandoBloom.png', 'Im_BenStiller.png', 'Im_BenAffleck.png', 'Im_RobertDowneyJr.png', 'Im_LeonardoDiCaprio.png', 'Im_GeorgeClooney.png', 'Im_PatrickDempsey.png'],same,1,1.0168577000004007,35,83.33333333333333,
ROIS2212,11,neg,90,neg90_id17_im9.bmp_neg90_id17_im14.bmp,['Im_HughJackman.png', 'Im_BradPitt.png', 'Im_RyanReynolds.png', 'Im_OrlandoBloom.png', 'Im_BenStiller.png', 'Im_BenAffleck.png', 'Im_RobertDowneyJr.png', 'Im_LeonardoDiCaprio.png', 'Im_GeorgeClooney.png', 'Im_PatrickDempsey.png'],same,1,0.5417670999995607,36,83.33333333333333,
ROIS2212,11,neg,30,neg30_id1_im4.bmp_neg30_id16_im19.bmp,['Im_HughJackman.png', 'Im_BradPitt.png', 'Im_RyanReynolds.png', 'Im_OrlandoBloom.png', 'Im_BenStiller.png', 'Im_BenAffleck.png', 'Im_RobertDowneyJr.png', 'Im_LeonardoDiCaprio.png', 'Im_GeorgeClooney.png', 'Im_PatrickDempsey.png'],diff,1,0.5919536000001244,37,83.33333333333333,
ROIS2212,11,neg,150,neg150_id8_im13.bmp_neg150_id8_im20.bmp,['Im_HughJackman.png', 'Im_BradPitt.png', 'Im_RyanReynolds.png', 'Im_OrlandoBloom.png', 'Im_BenStiller.png', 'Im_BenAffleck.png', 'Im_RobertDowneyJr.png', 'Im_LeonardoDiCaprio.png', 'Im_GeorgeClooney.png', 'Im_PatrickDempsey.png'],none,1,4.416615800000727,37,83.33333333333333,
ROIS2212,11,neg,120,neg120_id21_im16.bmp_neg120_id8_im20.bmp,['Im_HughJackman.png', 'Im_BradPitt.png', 'Im_RyanReynolds.png', 'Im_OrlandoBloom.png', 'Im_BenStiller.png', 'Im_BenAffleck.png', 'Im_RobertDowneyJr.png', 'Im_LeonardoDiCaprio.png', 'Im_GeorgeClooney.png', 'Im_PatrickDempsey.png'],none,1,4.424817399998574,37,83.33333333333333,
ROIS2212,11,neg,60,neg60_id2_im3.bmp_neg60_id18_im11.bmp,['Im_HughJackman.png', 'Im_BradPitt.png', 'Im_RyanReynolds.png', 'Im_OrlandoBloom.png', 'Im_BenStiller.png', 'Im_BenAffleck.png', 'Im_RobertDowneyJr.png', 'Im_LeonardoDiCaprio.png', 'Im_GeorgeClooney.png', 'Im_PatrickDempsey.png'],diff,1,0.4500152000000526,38,83.33333333333333,
ROIS2212,12,pos,0,pos0_id17_im8.bmp_pos0_id17_im14.bmp,['Im_HughJackman.png', 'Im_BradPitt.png', 'Im_RyanReynolds.png', 'Im_OrlandoBloom.png', 'Im_BenStiller.png', 'Im_BenAffleck.png', 'Im_RobertDowneyJr.png', 'Im_LeonardoDiCaprio.png', 'Im_GeorgeClooney.png', 'Im_PatrickDempsey.png'],same,1,0.42505270000037854,1,90.47619047619048,
ROIS2212,12,pos,30,pos30_id8_im13.bmp_pos30_id17_im9.bmp,['Im_HughJackman.png', 'Im_BradPitt.png', 'Im_RyanReynolds.png', 'Im_OrlandoBloom.png', 'Im_BenStiller.png', 'Im_BenAffleck.png', 'Im_RobertDowneyJr.png', 'Im_LeonardoDiCaprio.png', 'Im_GeorgeClooney.png', 'Im_PatrickDempsey.png'],diff,1,0.4750879999992321,2,90.47619047619048,
ROIS2212,12,pos,fs,posfs_id1_im21.bmp_posfs_id16_im2.bmp,['Im_HughJackman.png', 'Im_BradPitt.png', 'Im_RyanReynolds.png', 'Im_OrlandoBloom.png', 'Im_BenStiller.png', 'Im_BenAffleck.png', 'Im_RobertDowneyJr.png', 'Im_LeonardoDiCaprio.png', 'Im_GeorgeClooney.png', 'Im_PatrickDempsey.png'],diff,1,0.7665661999999429,3,90.47619047619048,
ROIS2212,12,pos,60,pos60_id3_im17.bmp_pos60_id7_im14.bmp,['Im_HughJackman.png', 'Im_BradPitt.png', 'Im_RyanReynolds.png', 'Im_OrlandoBloom.png', 'Im_BenStiller.png', 'Im_BenAffleck.png', 'Im_RobertDowneyJr.png', 'Im_LeonardoDiCaprio.png', 'Im_GeorgeClooney.png', 'Im_PatrickDempsey.png'],diff,1,0.42510590000165394,4,90.47619047619048,
ROIS2212,12,pos,90,pos90_id16_im2.bmp_pos90_id1_im21.bmp,['Im_HughJackman.png', 'Im_BradPitt.png', 'Im_RyanReynolds.png', 'Im_OrlandoBloom.png', 'Im_BenStiller.png', 'Im_BenAffleck.png', 'Im_RobertDowneyJr.png', 'Im_LeonardoDiCaprio.png', 'Im_GeorgeClooney.png', 'Im_PatrickDempsey.png'],diff,1,0.7416894000016327,5,90.47619047619048,
ROIS2212,12,pos,120,pos120_id2_im3.bmp_pos120_id2_im16.bmp,['Im_HughJackman.png', 'Im_BradPitt.png', 'Im_RyanReynolds.png', 'Im_OrlandoBloom.png', 'Im_BenStiller.png', 'Im_BenAffleck.png', 'Im_RobertDowneyJr.png', 'Im_LeonardoDiCaprio.png', 'Im_GeorgeClooney.png', 'Im_PatrickDempsey.png'],same,1,0.40871580000020913,6,90.47619047619048,
ROIS2212,12,pos,60,pos60_id3_im8.bmp_pos60_id18_im18.bmp,['Im_HughJackman.png', 'Im_BradPitt.png', 'Im_RyanReynolds.png', 'Im_OrlandoBloom.png', 'Im_BenStiller.png', 'Im_BenAffleck.png', 'Im_RobertDowneyJr.png', 'Im_LeonardoDiCaprio.png', 'Im_GeorgeClooney.png', 'Im_PatrickDempsey.png'],diff,1,0.41675340000074357,7,90.47619047619048,
ROIS2212,12,pos,150,pos150_id13_im15.bmp_pos150_id13_im10.bmp,['Im_HughJackman.png', 'Im_BradPitt.png', 'Im_RyanReynolds.png', 'Im_OrlandoBloom.png', 'Im_BenStiller.png', 'Im_BenAffleck.png', 'Im_RobertDowneyJr.png', 'Im_LeonardoDiCaprio.png', 'Im_GeorgeClooney.png', 'Im_PatrickDempsey.png'],same,1,0.4083697999994911,8,90.47619047619048,
ROIS2212,12,pos,120,pos120_id18_im18.bmp_pos120_id13_im15.bmp,['Im_HughJackman.png', 'Im_BradPitt.png', 'Im_RyanReynolds.png', 'Im_OrlandoBloom.png', 'Im_BenStiller.png', 'Im_BenAffleck.png', 'Im_RobertDowneyJr.png', 'Im_LeonardoDiCaprio.png', 'Im_GeorgeClooney.png', 'Im_PatrickDempsey.png'],diff,1,0.4251122000023315,9,90.47619047619048,
ROIS2212,12,pos,30,pos30_id21_im22.bmp_pos30_id13_im29.bmp,['Im_HughJackman.png', 'Im_BradPitt.png', 'Im_RyanReynolds.png', 'Im_OrlandoBloom.png', 'Im_BenStiller.png', 'Im_BenAffleck.png', 'Im_RobertDowneyJr.png', 'Im_LeonardoDiCaprio.png', 'Im_GeorgeClooney.png', 'Im_PatrickDempsey.png'],diff,1,0.5167822000003071,10,90.47619047619048,
ROIS2212,12,pos,0,pos0_id17_im14.bmp_pos0_id21_im16.bmp,['Im_HughJackman.png', 'Im_BradPitt.png', 'Im_RyanReynolds.png', 'Im_OrlandoBloom.png', 'Im_BenStiller.png', 'Im_BenAffleck.png', 'Im_RobertDowneyJr.png', 'Im_LeonardoDiCaprio.png', 'Im_GeorgeClooney.png', 'Im_PatrickDempsey.png'],diff,1,0.4249128999981622,11,90.47619047619048,
ROIS2212,12,pos,fs,posfs_id1_im24.bmp_posfs_id8_im21.bmp,['Im_HughJackman.png', 'Im_BradPitt.png', 'Im_RyanReynolds.png', 'Im_OrlandoBloom.png', 'Im_BenStiller.png', 'Im_BenAffleck.png', 'Im_RobertDowneyJr.png', 'Im_LeonardoDiCaprio.png', 'Im_GeorgeClooney.png', 'Im_PatrickDempsey.png'],diff,1,0.758607399999164,12,90.47619047619048,
ROIS2212,12,pos,150,pos150_id3_im17.bmp_pos150_id3_im6.bmp,['Im_HughJackman.png', 'Im_BradPitt.png', 'Im_RyanReynolds.png', 'Im_OrlandoBloom.png', 'Im_BenStiller.png', 'Im_BenAffleck.png', 'Im_RobertDowneyJr.png', 'Im_LeonardoDiCaprio.png', 'Im_GeorgeClooney.png', 'Im_PatrickDempsey.png'],diff,0,1.2333742000009806,12,90.47619047619048,
ROIS2212,12,pos,90,pos90_id18_im11.bmp_pos90_id16_im2.bmp,['Im_HughJackman.png', 'Im_BradPitt.png', 'Im_RyanReynolds.png', 'Im_OrlandoBloom.png', 'Im_BenStiller.png', 'Im_BenAffleck.png', 'Im_RobertDowneyJr.png', 'Im_LeonardoDiCaprio.png', 'Im_GeorgeClooney.png', 'Im_PatrickDempsey.png'],diff,1,0.5253645000011602,13,90.47619047619048,
ROIS2212,13,inv,120,pos120_id7_im15.bmp_pos120_id7_im26.bmp,['Im_HughJackman.png', 'Im_BradPitt.png', 'Im_RyanReynolds.png', 'Im_OrlandoBloom.png', 'Im_BenStiller.png', 'Im_BenAffleck.png', 'Im_RobertDowneyJr.png', 'Im_LeonardoDiCaprio.png', 'Im_GeorgeClooney.png', 'Im_PatrickDempsey.png'],same,1,0.5667665999972087,14,90.47619047619048,
ROIS2212,13,inv,60,pos60_id3_im8.bmp_pos60_id18_im19.bmp,['Im_HughJackman.png', 'Im_BradPitt.png', 'Im_RyanReynolds.png', 'Im_OrlandoBloom.png', 'Im_BenStiller.png', 'Im_BenAffleck.png', 'Im_RobertDowneyJr.png', 'Im_LeonardoDiCaprio.png', 'Im_GeorgeClooney.png', 'Im_PatrickDempsey.png'],diff,1,0.5500135000002047,15,90.47619047619048,
ROIS2212,13,inv,90,pos90_id16_im19.bmp_pos90_id16_im3.bmp,['Im_HughJackman.png', 'Im_BradPitt.png', 'Im_RyanReynolds.png', 'Im_OrlandoBloom.png', 'Im_BenStiller.png', 'Im_BenAffleck.png', 'Im_RobertDowneyJr.png', 'Im_LeonardoDiCaprio.png', 'Im_GeorgeClooney.png', 'Im_PatrickDempsey.png'],same,1,0.6169496000002255,16,90.47619047619048,
ROIS2212,13,inv,150,pos150_id17_im9.bmp_pos150_id17_im8.bmp,['Im_HughJackman.png', 'Im_BradPitt.png', 'Im_RyanReynolds.png', 'Im_OrlandoBloom.png', 'Im_BenStiller.png', 'Im_BenAffleck.png', 'Im_RobertDowneyJr.png', 'Im_LeonardoDiCaprio.png', 'Im_GeorgeClooney.png', 'Im_PatrickDempsey.png'],diff,0,1.1333884000014223,16,90.47619047619048,
ROIS2212,13,inv,150,pos150_id8_im21.bmp_pos150_id8_im13.bmp,['Im_HughJackman.png', 'Im_BradPitt.png', 'Im_RyanReynolds.png', 'Im_OrlandoBloom.png', 'Im_BenStiller.png', 'Im_BenAffleck.png', 'Im_RobertDowneyJr.png', 'Im_LeonardoDiCaprio.png', 'Im_GeorgeClooney.png', 'Im_PatrickDempsey.png'],same,1,0.6665814000007231,17,90.47619047619048,
ROIS2212,13,inv,90,pos90_id13_im10.bmp_pos90_id2_im16.bmp,['Im_HughJackman.png', 'Im_BradPitt.png', 'Im_RyanReynolds.png', 'Im_OrlandoBloom.png', 'Im_BenStiller.png', 'Im_BenAffleck.png', 'Im_RobertDowneyJr.png', 'Im_LeonardoDiCaprio.png', 'Im_GeorgeClooney.png', 'Im_PatrickDempsey.png'],none,1,4.416662299998279,17,90.47619047619048,
ROIS2212,13,inv,30,pos30_id7_im15.bmp_pos30_id7_im26.bmp,['Im_HughJackman.png', 'Im_BradPitt.png', 'Im_RyanReynolds.png', 'Im_OrlandoBloom.png', 'Im_BenStiller.png', 'Im_BenAffleck.png', 'Im_RobertDowneyJr.png', 'Im_LeonardoDiCaprio.png', 'Im_GeorgeClooney.png', 'Im_PatrickDempsey.png'],same,1,0.783585299999686,18,90.47619047619048,
ROIS2212,13,inv,fs,posfs_id8_im20.bmp_posfs_id21_im16.bmp,['Im_HughJackman.png', 'Im_BradPitt.png', 'Im_RyanReynolds.png', 'Im_OrlandoBloom.png', 'Im_BenStiller.png', 'Im_BenAffleck.png', 'Im_RobertDowneyJr.png', 'Im_LeonardoDiCaprio.png', 'Im_GeorgeClooney.png', 'Im_PatrickDempsey.png'],diff,1,0.41670460000023013,19,90.47619047619048,
ROIS2212,13,inv,60,pos60_id7_im14.bmp_pos60_id3_im17.bmp,['Im_HughJackman.png', 'Im_BradPitt.png', 'Im_RyanReynolds.png', 'Im_OrlandoBloom.png', 'Im_BenStiller.png', 'Im_BenAffleck.png', 'Im_RobertDowneyJr.png', 'Im_LeonardoDiCaprio.png', 'Im_GeorgeClooney.png', 'Im_PatrickDempsey.png'],diff,1,1.625372200000129,20,90.47619047619048,
ROIS2212,13,inv,30,pos30_id2_im3.bmp_pos30_id2_im16.bmp,['Im_HughJackman.png', 'Im_BradPitt.png', 'Im_RyanReynolds.png', 'Im_OrlandoBloom.png', 'Im_BenStiller.png', 'Im_BenAffleck.png', 'Im_RobertDowneyJr.png', 'Im_LeonardoDiCaprio.png', 'Im_GeorgeClooney.png', 'Im_PatrickDempsey.png'],same,1,1.566656499999226,21,90.47619047619048,
ROIS2212,13,inv,0,pos0_id13_im15.bmp_pos0_id13_im29.bmp,['Im_HughJackman.png', 'Im_BradPitt.png', 'Im_RyanReynolds.png', 'Im_OrlandoBloom.png', 'Im_BenStiller.png', 'Im_BenAffleck.png', 'Im_RobertDowneyJr.png', 'Im_LeonardoDiCaprio.png', 'Im_GeorgeClooney.png', 'Im_PatrickDempsey.png'],same,1,0.4250360999976692,22,90.47619047619048,
ROIS2212,13,inv,fs,posfs_id18_im11.bmp_posfs_id16_im2.bmp,['Im_HughJackman.png', 'Im_BradPitt.png', 'Im_RyanReynolds.png', 'Im_OrlandoBloom.png', 'Im_BenStiller.png', 'Im_BenAffleck.png', 'Im_RobertDowneyJr.png', 'Im_LeonardoDiCaprio.png', 'Im_GeorgeClooney.png', 'Im_PatrickDempsey.png'],diff,1,0.8248518000000331,23,90.47619047619048,
ROIS2212,13,inv,0,pos0_id18_im19.bmp_pos0_id18_im18.bmp,['Im_HughJackman.png', 'Im_BradPitt.png', 'Im_RyanReynolds.png', 'Im_OrlandoBloom.png', 'Im_BenStiller.png', 'Im_BenAffleck.png', 'Im_RobertDowneyJr.png', 'Im_LeonardoDiCaprio.png', 'Im_GeorgeClooney.png', 'Im_PatrickDempsey.png'],same,1,0.5582852999978059,24,90.47619047619048,
ROIS2212,13,inv,120,pos120_id8_im21.bmp_pos120_id2_im3.bmp,['Im_HughJackman.png', 'Im_BradPitt.png', 'Im_RyanReynolds.png', 'Im_OrlandoBloom.png', 'Im_BenStiller.png', 'Im_BenAffleck.png', 'Im_RobertDowneyJr.png', 'Im_LeonardoDiCaprio.png', 'Im_GeorgeClooney.png', 'Im_PatrickDempsey.png'],diff,1,0.42509159999826807,25,90.47619047619048,
ROIS2212,14,pos,60,pos60_id17_im8.bmp_pos60_id17_im9.bmp,['Im_HughJackman.png', 'Im_BradPitt.png', 'Im_RyanReynolds.png', 'Im_OrlandoBloom.png', 'Im_BenStiller.png', 'Im_BenAffleck.png', 'Im_RobertDowneyJr.png', 'Im_LeonardoDiCaprio.png', 'Im_GeorgeClooney.png', 'Im_PatrickDempsey.png'],none,1,4.425044600000547,25,90.47619047619048,
ROIS2212,14,pos,90,pos90_id3_im6.bmp_pos90_id3_im8.bmp,['Im_HughJackman.png', 'Im_BradPitt.png', 'Im_RyanReynolds.png', 'Im_OrlandoBloom.png', 'Im_BenStiller.png', 'Im_BenAffleck.png', 'Im_RobertDowneyJr.png', 'Im_LeonardoDiCaprio.png', 'Im_GeorgeClooney.png', 'Im_PatrickDempsey.png'],same,1,0.4251077000008081,26,90.47619047619048,
ROIS2212,14,pos,150,pos150_id16_im3.bmp_pos150_id16_im2.bmp,['Im_HughJackman.png', 'Im_BradPitt.png', 'Im_RyanReynolds.png', 'Im_OrlandoBloom.png', 'Im_BenStiller.png', 'Im_BenAffleck.png', 'Im_RobertDowneyJr.png', 'Im_LeonardoDiCaprio.png', 'Im_GeorgeClooney.png', 'Im_PatrickDempsey.png'],none,1,4.425147000001743,26,90.47619047619048,
ROIS2212,14,pos,60,pos60_id17_im14.bmp_pos60_id21_im16.bmp,['Im_HughJackman.png', 'Im_BradPitt.png', 'Im_RyanReynolds.png', 'Im_OrlandoBloom.png', 'Im_BenStiller.png', 'Im_BenAffleck.png', 'Im_RobertDowneyJr.png', 'Im_LeonardoDiCaprio.png', 'Im_GeorgeClooney.png', 'Im_PatrickDempsey.png'],diff,1,1.4915844999995898,27,90.47619047619048,
ROIS2212,14,pos,120,pos120_id17_im14.bmp_pos120_id7_im26.bmp,['Im_HughJackman.png', 'Im_BradPitt.png', 'Im_RyanReynolds.png', 'Im_OrlandoBloom.png', 'Im_BenStiller.png', 'Im_BenAffleck.png', 'Im_RobertDowneyJr.png', 'Im_LeonardoDiCaprio.png', 'Im_GeorgeClooney.png', 'Im_PatrickDempsey.png'],diff,1,1.266876300000149,28,90.47619047619048,
ROIS2212,14,pos,0,pos0_id2_im2.bmp_pos0_id18_im19.bmp,['Im_HughJackman.png', 'Im_BradPitt.png', 'Im_RyanReynolds.png', 'Im_OrlandoBloom.png', 'Im_BenStiller.png', 'Im_BenAffleck.png', 'Im_RobertDowneyJr.png', 'Im_LeonardoDiCaprio.png', 'Im_GeorgeClooney.png', 'Im_PatrickDempsey.png'],diff,1,0.40842040000279667,29,90.47619047619048,
ROIS2212,14,pos,30,pos30_id3_im17.bmp_pos30_id7_im14.bmp,['Im_HughJackman.png', 'Im_BradPitt.png', 'Im_RyanReynolds.png', 'Im_OrlandoBloom.png', 'Im_BenStiller.png', 'Im_BenAffleck.png', 'Im_RobertDowneyJr.png', 'Im_LeonardoDiCaprio.png', 'Im_GeorgeClooney.png', 'Im_PatrickDempsey.png'],diff,1,0.4084075999999186,30,90.47619047619048,
ROIS2212,14,pos,0,pos0_id18_im11.bmp_pos0_id16_im2.bmp,['Im_HughJackman.png', 'Im_BradPitt.png', 'Im_RyanReynolds.png', 'Im_OrlandoBloom.png', 'Im_BenStiller.png', 'Im_BenAffleck.png', 'Im_RobertDowneyJr.png', 'Im_LeonardoDiCaprio.png', 'Im_GeorgeClooney.png', 'Im_PatrickDempsey.png'],diff,1,0.4167157000010775,31,90.47619047619048,
ROIS2212,14,pos,fs,posfs_id2_im3.bmp_posfs_id2_im2.bmp,['Im_HughJackman.png', 'Im_BradPitt.png', 'Im_RyanReynolds.png', 'Im_OrlandoBloom.png', 'Im_BenStiller.png', 'Im_BenAffleck.png', 'Im_RobertDowneyJr.png', 'Im_LeonardoDiCaprio.png', 'Im_GeorgeClooney.png', 'Im_PatrickDempsey.png'],same,1,0.5918510000010428,32,90.47619047619048,
ROIS2212,14,pos,30,pos30_id1_im21.bmp_pos30_id1_im24.bmp,['Im_HughJackman.png', 'Im_BradPitt.png', 'Im_RyanReynolds.png', 'Im_OrlandoBloom.png', 'Im_BenStiller.png', 'Im_BenAffleck.png', 'Im_RobertDowneyJr.png', 'Im_LeonardoDiCaprio.png', 'Im_GeorgeClooney.png', 'Im_PatrickDempsey.png'],same,1,0.4333745000003546,33,90.47619047619048,
ROIS2212,14,pos,150,pos150_id17_im14.bmp_pos150_id17_im8.bmp,['Im_HughJackman.png', 'Im_BradPitt.png', 'Im_RyanReynolds.png', 'Im_OrlandoBloom.png', 'Im_BenStiller.png', 'Im_BenAffleck.png', 'Im_RobertDowneyJr.png', 'Im_LeonardoDiCaprio.png', 'Im_GeorgeClooney.png', 'Im_PatrickDempsey.png'],same,1,1.1336790999994264,34,90.47619047619048,
ROIS2212,14,pos,fs,posfs_id3_im17.bmp_posfs_id7_im14.bmp,['Im_HughJackman.png', 'Im_BradPitt.png', 'Im_RyanReynolds.png', 'Im_OrlandoBloom.png', 'Im_BenStiller.png', 'Im_BenAffleck.png', 'Im_RobertDowneyJr.png', 'Im_LeonardoDiCaprio.png', 'Im_GeorgeClooney.png', 'Im_PatrickDempsey.png'],same,0,0.45009899999786285,34,90.47619047619048,
ROIS2212,14,pos,120,pos120_id8_im13.bmp_pos120_id8_im21.bmp,['Im_HughJackman.png', 'Im_BradPitt.png', 'Im_RyanReynolds.png', 'Im_OrlandoBloom.png', 'Im_BenStiller.png', 'Im_BenAffleck.png', 'Im_RobertDowneyJr.png', 'Im_LeonardoDiCaprio.png', 'Im_GeorgeClooney.png', 'Im_PatrickDempsey.png'],same,1,0.41676319999896805,35,90.47619047619048,
ROIS2212,14,pos,90,pos90_id2_im16.bmp_pos90_id2_im3.bmp,['Im_HughJackman.png', 'Im_BradPitt.png', 'Im_RyanReynolds.png', 'Im_OrlandoBloom.png', 'Im_BenStiller.png', 'Im_BenAffleck.png', 'Im_RobertDowneyJr.png', 'Im_LeonardoDiCaprio.png', 'Im_GeorgeClooney.png', 'Im_PatrickDempsey.png'],same,1,0.42519820000234176,36,90.47619047619048,
ROIS2212,15,neg,fs,negfs_id8_im13.bmp_negfs_id8_im21.bmp,['Im_HughJackman.png', 'Im_BradPitt.png', 'Im_RyanReynolds.png', 'Im_OrlandoBloom.png', 'Im_BenStiller.png', 'Im_BenAffleck.png', 'Im_RobertDowneyJr.png', 'Im_LeonardoDiCaprio.png', 'Im_GeorgeClooney.png', 'Im_PatrickDempsey.png'],same,1,0.7999859000010474,1,85.71428571428571,
ROIS2212,15,neg,150,neg150_id21_im17.bmp_neg150_id7_im15.bmp,['Im_HughJackman.png', 'Im_BradPitt.png', 'Im_RyanReynolds.png', 'Im_OrlandoBloom.png', 'Im_BenStiller.png', 'Im_BenAffleck.png', 'Im_RobertDowneyJr.png', 'Im_LeonardoDiCaprio.png', 'Im_GeorgeClooney.png', 'Im_PatrickDempsey.png'],diff,1,0.8339680999997654,2,85.71428571428571,
ROIS2212,15,neg,60,neg60_id3_im17.bmp_neg60_id1_im21.bmp,['Im_HughJackman.png', 'Im_BradPitt.png', 'Im_RyanReynolds.png', 'Im_OrlandoBloom.png', 'Im_BenStiller.png', 'Im_BenAffleck.png', 'Im_RobertDowneyJr.png', 'Im_LeonardoDiCaprio.png', 'Im_GeorgeClooney.png', 'Im_PatrickDempsey.png'],diff,1,0.4085254999990866,3,85.71428571428571,
ROIS2212,15,neg,120,neg120_id18_im18.bmp_neg120_id18_im19.bmp,['Im_HughJackman.png', 'Im_BradPitt.png', 'Im_RyanReynolds.png', 'Im_OrlandoBloom.png', 'Im_BenStiller.png', 'Im_BenAffleck.png', 'Im_RobertDowneyJr.png', 'Im_LeonardoDiCaprio.png', 'Im_GeorgeClooney.png', 'Im_PatrickDempsey.png'],same,1,0.8917600999993738,4,85.71428571428571,
ROIS2212,15,neg,90,neg90_id13_im29.bmp_neg90_id13_im15.bmp,['Im_HughJackman.png', 'Im_BradPitt.png', 'Im_RyanReynolds.png', 'Im_OrlandoBloom.png', 'Im_BenStiller.png', 'Im_BenAffleck.png', 'Im_RobertDowneyJr.png', 'Im_LeonardoDiCaprio.png', 'Im_GeorgeClooney.png', 'Im_PatrickDempsey.png'],same,1,0.8083024000006844,5,85.71428571428571,
