Sujet,Trial,Condition,Filter,Imname,Actor0,Actor1,Actor2,Actor3,Actor4,Actor5,Actor6,Actor7,Actor8,Actor9,Answer,Accu,RT,Score,Scoreperc, 
ROIS2212,train,neg,fs,negfs_id8_im13.bmp_negfs_id8_im21.bmp,['Im_LeonardoDiCaprio.png', 'Im_HughJackman.png', 'Im_PatrickDempsey.png', 'Im_BenStiller.png', 'Im_RyanReynolds.png', 'Im_BradPitt.png', 'Im_BenAffleck.png', 'Im_OrlandoBloom.png', 'Im_RobertDowneyJr.png', 'Im_GeorgeClooney.png'],same,1,1.0334127000000422,1,0,
ROIS2212,train,neg,150,neg150_id21_im17.bmp_neg150_id7_im15.bmp,['Im_LeonardoDiCaprio.png', 'Im_HughJackman.png', 'Im_PatrickDempsey.png', 'Im_BenStiller.png', 'Im_RyanReynolds.png', 'Im_BradPitt.png', 'Im_BenAffleck.png', 'Im_OrlandoBloom.png', 'Im_RobertDowneyJr.png', 'Im_GeorgeClooney.png'],diff,1,0.5337549000000195,2,0,
ROIS2212,train,neg,60,neg60_id3_im17.bmp_neg60_id1_im21.bmp,['Im_LeonardoDiCaprio.png', 'Im_HughJackman.png', 'Im_PatrickDempsey.png', 'Im_BenStiller.png', 'Im_RyanReynolds.png', 'Im_BradPitt.png', 'Im_BenAffleck.png', 'Im_OrlandoBloom.png', 'Im_RobertDowneyJr.png', 'Im_GeorgeClooney.png'],diff,1,0.41668359999999893,3,0,
ROIS2212,train,neg,120,neg120_id18_im19.bmp_neg120_id18_im18.bmp,['Im_LeonardoDiCaprio.png', 'Im_HughJackman.png', 'Im_PatrickDempsey.png', 'Im_BenStiller.png', 'Im_RyanReynolds.png', 'Im_BradPitt.png', 'Im_BenAffleck.png', 'Im_OrlandoBloom.png', 'Im_RobertDowneyJr.png', 'Im_GeorgeClooney.png'],diff,0,1.2834823000000029,3,0,
ROIS2212,train,neg,90,neg90_id13_im15.bmp_neg90_id13_im29.bmp,['Im_LeonardoDiCaprio.png', 'Im_HughJackman.png', 'Im_PatrickDempsey.png', 'Im_BenStiller.png', 'Im_RyanReynolds.png', 'Im_BradPitt.png', 'Im_BenAffleck.png', 'Im_OrlandoBloom.png', 'Im_RobertDowneyJr.png', 'Im_GeorgeClooney.png'],same,1,0.5419385000000148,4,0,
ROIS2212,train,neg,30,neg30_id3_im6.bmp_neg30_id3_im8.bmp,['Im_LeonardoDiCaprio.png', 'Im_HughJackman.png', 'Im_PatrickDempsey.png', 'Im_BenStiller.png', 'Im_RyanReynolds.png', 'Im_BradPitt.png', 'Im_BenAffleck.png', 'Im_OrlandoBloom.png', 'Im_RobertDowneyJr.png', 'Im_GeorgeClooney.png'],same,1,0.8500418999999511,5,0,
ROIS2212,train,neg,fs,negfs_id17_im9.bmp_negfs_id8_im13.bmp,['Im_LeonardoDiCaprio.png', 'Im_HughJackman.png', 'Im_PatrickDempsey.png', 'Im_BenStiller.png', 'Im_RyanReynolds.png', 'Im_BradPitt.png', 'Im_BenAffleck.png', 'Im_OrlandoBloom.png', 'Im_RobertDowneyJr.png', 'Im_GeorgeClooney.png'],same,0,1.7168289999999615,5,0,
ROIS2212,train,neg,0,neg0_id2_im2.bmp_neg0_id18_im19.bmp,['Im_LeonardoDiCaprio.png', 'Im_HughJackman.png', 'Im_PatrickDempsey.png', 'Im_BenStiller.png', 'Im_RyanReynolds.png', 'Im_BradPitt.png', 'Im_BenAffleck.png', 'Im_OrlandoBloom.png', 'Im_RobertDowneyJr.png', 'Im_GeorgeClooney.png'],diff,1,0.9749135999999794,6,0,
ROIS2212,train,neg,30,neg30_id17_im14.bmp_neg30_id7_im26.bmp,['Im_LeonardoDiCaprio.png', 'Im_HughJackman.png', 'Im_PatrickDempsey.png', 'Im_BenStiller.png', 'Im_RyanReynolds.png', 'Im_BradPitt.png', 'Im_BenAffleck.png', 'Im_OrlandoBloom.png', 'Im_RobertDowneyJr.png', 'Im_GeorgeClooney.png'],diff,1,1.1669021000000157,7,0,
ROIS2212,train,neg,90,neg90_id17_im9.bmp_neg90_id8_im13.bmp,['Im_LeonardoDiCaprio.png', 'Im_HughJackman.png', 'Im_PatrickDempsey.png', 'Im_BenStiller.png', 'Im_RyanReynolds.png', 'Im_BradPitt.png', 'Im_BenAffleck.png', 'Im_OrlandoBloom.png', 'Im_RobertDowneyJr.png', 'Im_GeorgeClooney.png'],diff,1,1.5337299999999914,8,0,
ROIS2212,train,neg,120,neg120_id18_im19.bmp_neg120_id2_im2.bmp,['Im_LeonardoDiCaprio.png', 'Im_HughJackman.png', 'Im_PatrickDempsey.png', 'Im_BenStiller.png', 'Im_RyanReynolds.png', 'Im_BradPitt.png', 'Im_BenAffleck.png', 'Im_OrlandoBloom.png', 'Im_RobertDowneyJr.png', 'Im_GeorgeClooney.png'],diff,1,1.0833284999999933,9,0,
ROIS2212,train,neg,150,neg150_id17_im8.bmp_neg150_id16_im19.bmp,['Im_LeonardoDiCaprio.png', 'Im_HughJackman.png', 'Im_PatrickDempsey.png', 'Im_BenStiller.png', 'Im_RyanReynolds.png', 'Im_BradPitt.png', 'Im_BenAffleck.png', 'Im_OrlandoBloom.png', 'Im_RobertDowneyJr.png', 'Im_GeorgeClooney.png'],diff,1,0.5169305999999665,10,0,
ROIS2212,train,neg,60,neg60_id13_im10.bmp_neg60_id7_im14.bmp,['Im_LeonardoDiCaprio.png', 'Im_HughJackman.png', 'Im_PatrickDempsey.png', 'Im_BenStiller.png', 'Im_RyanReynolds.png', 'Im_BradPitt.png', 'Im_BenAffleck.png', 'Im_OrlandoBloom.png', 'Im_RobertDowneyJr.png', 'Im_GeorgeClooney.png'],diff,1,1.100090200000011,11,0,
ROIS2212,train,neg,0,neg0_id8_im21.bmp_neg0_id2_im3.bmp,['Im_LeonardoDiCaprio.png', 'Im_HughJackman.png', 'Im_PatrickDempsey.png', 'Im_BenStiller.png', 'Im_RyanReynolds.png', 'Im_BradPitt.png', 'Im_BenAffleck.png', 'Im_OrlandoBloom.png', 'Im_RobertDowneyJr.png', 'Im_GeorgeClooney.png'],diff,1,0.8416793000000098,12,0,
ROIS2212,train,inv,60,pos60_id13_im29.bmp_pos60_id13_im10.bmp,['Im_LeonardoDiCaprio.png', 'Im_HughJackman.png', 'Im_PatrickDempsey.png', 'Im_BenStiller.png', 'Im_RyanReynolds.png', 'Im_BradPitt.png', 'Im_BenAffleck.png', 'Im_OrlandoBloom.png', 'Im_RobertDowneyJr.png', 'Im_GeorgeClooney.png'],same,1,0.5168484000000149,13,0,
ROIS2212,train,inv,0,pos0_id3_im17.bmp_pos0_id3_im6.bmp,['Im_LeonardoDiCaprio.png', 'Im_HughJackman.png', 'Im_PatrickDempsey.png', 'Im_BenStiller.png', 'Im_RyanReynolds.png', 'Im_BradPitt.png', 'Im_BenAffleck.png', 'Im_OrlandoBloom.png', 'Im_RobertDowneyJr.png', 'Im_GeorgeClooney.png'],same,1,0.4512037999999734,14,0,
ROIS2212,train,inv,30,pos30_id8_im13.bmp_pos30_id3_im6.bmp,['Im_LeonardoDiCaprio.png', 'Im_HughJackman.png', 'Im_PatrickDempsey.png', 'Im_BenStiller.png', 'Im_RyanReynolds.png', 'Im_BradPitt.png', 'Im_BenAffleck.png', 'Im_OrlandoBloom.png', 'Im_RobertDowneyJr.png', 'Im_GeorgeClooney.png'],diff,1,0.6250837999999703,15,0,
ROIS2212,train,inv,150,pos150_id17_im9.bmp_pos150_id1_im4.bmp,['Im_LeonardoDiCaprio.png', 'Im_HughJackman.png', 'Im_PatrickDempsey.png', 'Im_BenStiller.png', 'Im_RyanReynolds.png', 'Im_BradPitt.png', 'Im_BenAffleck.png', 'Im_OrlandoBloom.png', 'Im_RobertDowneyJr.png', 'Im_GeorgeClooney.png'],diff,1,0.8833033999999884,16,0,
ROIS2212,train,inv,120,pos120_id8_im20.bmp_pos120_id21_im16.bmp,['Im_LeonardoDiCaprio.png', 'Im_HughJackman.png', 'Im_PatrickDempsey.png', 'Im_BenStiller.png', 'Im_RyanReynolds.png', 'Im_BradPitt.png', 'Im_BenAffleck.png', 'Im_OrlandoBloom.png', 'Im_RobertDowneyJr.png', 'Im_GeorgeClooney.png'],diff,1,0.6000556000000188,17,0,
ROIS2212,train,inv,150,pos150_id1_im24.bmp_pos150_id1_im4.bmp,['Im_LeonardoDiCaprio.png', 'Im_HughJackman.png', 'Im_PatrickDempsey.png', 'Im_BenStiller.png', 'Im_RyanReynolds.png', 'Im_BradPitt.png', 'Im_BenAffleck.png', 'Im_OrlandoBloom.png', 'Im_RobertDowneyJr.png', 'Im_GeorgeClooney.png'],same,1,0.5415808000000197,18,0,
ROIS2212,train,inv,120,pos120_id16_im3.bmp_pos120_id16_im19.bmp,['Im_LeonardoDiCaprio.png', 'Im_HughJackman.png', 'Im_PatrickDempsey.png', 'Im_BenStiller.png', 'Im_RyanReynolds.png', 'Im_BradPitt.png', 'Im_BenAffleck.png', 'Im_OrlandoBloom.png', 'Im_RobertDowneyJr.png', 'Im_GeorgeClooney.png'],diff,0,0.9835158000000206,18,0,
ROIS2212,train,inv,60,pos60_id13_im10.bmp_pos60_id7_im14.bmp,['Im_LeonardoDiCaprio.png', 'Im_HughJackman.png', 'Im_PatrickDempsey.png', 'Im_BenStiller.png', 'Im_RyanReynolds.png', 'Im_BradPitt.png', 'Im_BenAffleck.png', 'Im_OrlandoBloom.png', 'Im_RobertDowneyJr.png', 'Im_GeorgeClooney.png'],diff,1,0.9667520000000422,19,0,
ROIS2212,train,inv,30,pos30_id21_im16.bmp_pos30_id21_im22.bmp,['Im_LeonardoDiCaprio.png', 'Im_HughJackman.png', 'Im_PatrickDempsey.png', 'Im_BenStiller.png', 'Im_RyanReynolds.png', 'Im_BradPitt.png', 'Im_BenAffleck.png', 'Im_OrlandoBloom.png', 'Im_RobertDowneyJr.png', 'Im_GeorgeClooney.png'],same,1,1.1584248000000343,20,0,
ROIS2212,train,inv,90,pos90_id7_im26.bmp_pos90_id7_im15.bmp,['Im_LeonardoDiCaprio.png', 'Im_HughJackman.png', 'Im_PatrickDempsey.png', 'Im_BenStiller.png', 'Im_RyanReynolds.png', 'Im_BradPitt.png', 'Im_BenAffleck.png', 'Im_OrlandoBloom.png', 'Im_RobertDowneyJr.png', 'Im_GeorgeClooney.png'],same,1,0.6833502999999723,21,0,
ROIS2212,train,inv,90,pos90_id3_im6.bmp_pos90_id21_im22.bmp,['Im_LeonardoDiCaprio.png', 'Im_HughJackman.png', 'Im_PatrickDempsey.png', 'Im_BenStiller.png', 'Im_RyanReynolds.png', 'Im_BradPitt.png', 'Im_BenAffleck.png', 'Im_OrlandoBloom.png', 'Im_RobertDowneyJr.png', 'Im_GeorgeClooney.png'],none,1,4.408580299999983,21,0,
ROIS2212,train,inv,fs,posfs_id2_im2.bmp_posfs_id13_im15.bmp,['Im_LeonardoDiCaprio.png', 'Im_HughJackman.png', 'Im_PatrickDempsey.png', 'Im_BenStiller.png', 'Im_RyanReynolds.png', 'Im_BradPitt.png', 'Im_BenAffleck.png', 'Im_OrlandoBloom.png', 'Im_RobertDowneyJr.png', 'Im_GeorgeClooney.png'],diff,1,0.5250374000000306,22,0,
ROIS2212,train,inv,0,pos0_id1_im21.bmp_pos0_id1_im24.bmp,['Im_LeonardoDiCaprio.png', 'Im_HughJackman.png', 'Im_PatrickDempsey.png', 'Im_BenStiller.png', 'Im_RyanReynolds.png', 'Im_BradPitt.png', 'Im_BenAffleck.png', 'Im_OrlandoBloom.png', 'Im_RobertDowneyJr.png', 'Im_GeorgeClooney.png'],diff,0,0.8084683999999811,22,0,
ROIS2212,train,inv,fs,posfs_id8_im21.bmp_posfs_id2_im3.bmp,['Im_LeonardoDiCaprio.png', 'Im_HughJackman.png', 'Im_PatrickDempsey.png', 'Im_BenStiller.png', 'Im_RyanReynolds.png', 'Im_BradPitt.png', 'Im_BenAffleck.png', 'Im_OrlandoBloom.png', 'Im_RobertDowneyJr.png', 'Im_GeorgeClooney.png'],diff,1,0.6335022999999751,23,0,
ROIS2212,train,neg,90,neg90_id17_im9.bmp_neg90_id1_im4.bmp,['Im_LeonardoDiCaprio.png', 'Im_HughJackman.png', 'Im_PatrickDempsey.png', 'Im_BenStiller.png', 'Im_RyanReynolds.png', 'Im_BradPitt.png', 'Im_BenAffleck.png', 'Im_OrlandoBloom.png', 'Im_RobertDowneyJr.png', 'Im_GeorgeClooney.png'],diff,1,0.4585877000000096,24,0,
ROIS2212,train,neg,60,neg60_id7_im14.bmp_neg60_id7_im15.bmp,['Im_LeonardoDiCaprio.png', 'Im_HughJackman.png', 'Im_PatrickDempsey.png', 'Im_BenStiller.png', 'Im_RyanReynolds.png', 'Im_BradPitt.png', 'Im_BenAffleck.png', 'Im_OrlandoBloom.png', 'Im_RobertDowneyJr.png', 'Im_GeorgeClooney.png'],same,1,0.866720799999996,25,0,
ROIS2212,train,neg,0,neg0_id17_im9.bmp_neg0_id8_im13.bmp,['Im_LeonardoDiCaprio.png', 'Im_HughJackman.png', 'Im_PatrickDempsey.png', 'Im_BenStiller.png', 'Im_RyanReynolds.png', 'Im_BradPitt.png', 'Im_BenAffleck.png', 'Im_OrlandoBloom.png', 'Im_RobertDowneyJr.png', 'Im_GeorgeClooney.png'],diff,1,1.433284399999991,26,0,
ROIS2212,train,neg,150,neg150_id17_im8.bmp_neg150_id17_im14.bmp,['Im_LeonardoDiCaprio.png', 'Im_HughJackman.png', 'Im_PatrickDempsey.png', 'Im_BenStiller.png', 'Im_RyanReynolds.png', 'Im_BradPitt.png', 'Im_BenAffleck.png', 'Im_OrlandoBloom.png', 'Im_RobertDowneyJr.png', 'Im_GeorgeClooney.png'],none,1,4.41685259999997,26,0,
ROIS2212,train,neg,120,neg120_id1_im24.bmp_neg120_id8_im21.bmp,['Im_LeonardoDiCaprio.png', 'Im_HughJackman.png', 'Im_PatrickDempsey.png', 'Im_BenStiller.png', 'Im_RyanReynolds.png', 'Im_BradPitt.png', 'Im_BenAffleck.png', 'Im_OrlandoBloom.png', 'Im_RobertDowneyJr.png', 'Im_GeorgeClooney.png'],diff,1,0.44164409999996224,27,0,
ROIS2212,train,neg,60,neg60_id3_im6.bmp_neg60_id21_im22.bmp,['Im_LeonardoDiCaprio.png', 'Im_HughJackman.png', 'Im_PatrickDempsey.png', 'Im_BenStiller.png', 'Im_RyanReynolds.png', 'Im_BradPitt.png', 'Im_BenAffleck.png', 'Im_OrlandoBloom.png', 'Im_RobertDowneyJr.png', 'Im_GeorgeClooney.png'],diff,1,0.49995349999994687,28,0,
ROIS2212,train,neg,90,neg90_id16_im2.bmp_neg90_id1_im21.bmp,['Im_LeonardoDiCaprio.png', 'Im_HughJackman.png', 'Im_PatrickDempsey.png', 'Im_BenStiller.png', 'Im_RyanReynolds.png', 'Im_BradPitt.png', 'Im_BenAffleck.png', 'Im_OrlandoBloom.png', 'Im_RobertDowneyJr.png', 'Im_GeorgeClooney.png'],diff,1,0.8418383000000631,29,0,
ROIS2212,train,neg,fs,negfs_id17_im9.bmp_negfs_id17_im14.bmp,['Im_LeonardoDiCaprio.png', 'Im_HughJackman.png', 'Im_PatrickDempsey.png', 'Im_BenStiller.png', 'Im_RyanReynolds.png', 'Im_BradPitt.png', 'Im_BenAffleck.png', 'Im_OrlandoBloom.png', 'Im_RobertDowneyJr.png', 'Im_GeorgeClooney.png'],diff,0,0.6499122999999827,29,0,
ROIS2212,train,neg,30,neg30_id8_im13.bmp_neg30_id3_im6.bmp,['Im_LeonardoDiCaprio.png', 'Im_HughJackman.png', 'Im_PatrickDempsey.png', 'Im_BenStiller.png', 'Im_RyanReynolds.png', 'Im_BradPitt.png', 'Im_BenAffleck.png', 'Im_OrlandoBloom.png', 'Im_RobertDowneyJr.png', 'Im_GeorgeClooney.png'],diff,1,0.5668981999999687,30,0,
ROIS2212,train,neg,fs,negfs_id1_im24.bmp_negfs_id1_im21.bmp,['Im_LeonardoDiCaprio.png', 'Im_HughJackman.png', 'Im_PatrickDempsey.png', 'Im_BenStiller.png', 'Im_RyanReynolds.png', 'Im_BradPitt.png', 'Im_BenAffleck.png', 'Im_OrlandoBloom.png', 'Im_RobertDowneyJr.png', 'Im_GeorgeClooney.png'],diff,0,0.6164603999999372,30,0,
ROIS2212,train,neg,0,neg0_id7_im15.bmp_neg0_id17_im8.bmp,['Im_LeonardoDiCaprio.png', 'Im_HughJackman.png', 'Im_PatrickDempsey.png', 'Im_BenStiller.png', 'Im_RyanReynolds.png', 'Im_BradPitt.png', 'Im_BenAffleck.png', 'Im_OrlandoBloom.png', 'Im_RobertDowneyJr.png', 'Im_GeorgeClooney.png'],diff,1,0.6332789000000503,31,0,
ROIS2212,train,neg,30,neg30_id8_im20.bmp_neg30_id8_im21.bmp,['Im_LeonardoDiCaprio.png', 'Im_HughJackman.png', 'Im_PatrickDempsey.png', 'Im_BenStiller.png', 'Im_RyanReynolds.png', 'Im_BradPitt.png', 'Im_BenAffleck.png', 'Im_OrlandoBloom.png', 'Im_RobertDowneyJr.png', 'Im_GeorgeClooney.png'],same,1,0.5998555000001033,32,0,
ROIS2212,train,neg,120,neg120_id13_im29.bmp_neg120_id16_im3.bmp,['Im_LeonardoDiCaprio.png', 'Im_HughJackman.png', 'Im_PatrickDempsey.png', 'Im_BenStiller.png', 'Im_RyanReynolds.png', 'Im_BradPitt.png', 'Im_BenAffleck.png', 'Im_OrlandoBloom.png', 'Im_RobertDowneyJr.png', 'Im_GeorgeClooney.png'],diff,1,0.9836566000000175,33,0,
ROIS2212,train,neg,150,neg150_id1_im24.bmp_neg150_id8_im20.bmp,['Im_LeonardoDiCaprio.png', 'Im_HughJackman.png', 'Im_PatrickDempsey.png', 'Im_BenStiller.png', 'Im_RyanReynolds.png', 'Im_BradPitt.png', 'Im_BenAffleck.png', 'Im_OrlandoBloom.png', 'Im_RobertDowneyJr.png', 'Im_GeorgeClooney.png'],diff,1,2.7835733999999093,34,0,
ROIS2212,train,pos,150,pos150_id3_im8.bmp_pos150_id18_im19.bmp,['Im_LeonardoDiCaprio.png', 'Im_HughJackman.png', 'Im_PatrickDempsey.png', 'Im_BenStiller.png', 'Im_RyanReynolds.png', 'Im_BradPitt.png', 'Im_BenAffleck.png', 'Im_OrlandoBloom.png', 'Im_RobertDowneyJr.png', 'Im_GeorgeClooney.png'],diff,1,0.47502559999998084,1,80.95238095238095,
ROIS2212,train,pos,60,pos60_id8_im13.bmp_pos60_id3_im6.bmp,['Im_LeonardoDiCaprio.png', 'Im_HughJackman.png', 'Im_PatrickDempsey.png', 'Im_BenStiller.png', 'Im_RyanReynolds.png', 'Im_BradPitt.png', 'Im_BenAffleck.png', 'Im_OrlandoBloom.png', 'Im_RobertDowneyJr.png', 'Im_GeorgeClooney.png'],diff,1,0.6586154999999962,2,80.95238095238095,
ROIS2212,train,pos,30,pos30_id2_im2.bmp_pos30_id2_im3.bmp,['Im_LeonardoDiCaprio.png', 'Im_HughJackman.png', 'Im_PatrickDempsey.png', 'Im_BenStiller.png', 'Im_RyanReynolds.png', 'Im_BradPitt.png', 'Im_BenAffleck.png', 'Im_OrlandoBloom.png', 'Im_RobertDowneyJr.png', 'Im_GeorgeClooney.png'],same,1,0.5835907999999108,3,80.95238095238095,
ROIS2212,train,pos,120,pos120_id2_im16.bmp_pos120_id13_im10.bmp,['Im_LeonardoDiCaprio.png', 'Im_HughJackman.png', 'Im_PatrickDempsey.png', 'Im_BenStiller.png', 'Im_RyanReynolds.png', 'Im_BradPitt.png', 'Im_BenAffleck.png', 'Im_OrlandoBloom.png', 'Im_RobertDowneyJr.png', 'Im_GeorgeClooney.png'],diff,1,2.075227199999972,4,80.95238095238095,
ROIS2212,train,pos,120,pos120_id13_im10.bmp_pos120_id13_im15.bmp,['Im_LeonardoDiCaprio.png', 'Im_HughJackman.png', 'Im_PatrickDempsey.png', 'Im_BenStiller.png', 'Im_RyanReynolds.png', 'Im_BradPitt.png', 'Im_BenAffleck.png', 'Im_OrlandoBloom.png', 'Im_RobertDowneyJr.png', 'Im_GeorgeClooney.png'],same,1,0.708481699999993,5,80.95238095238095,
ROIS2212,train,pos,90,pos90_id2_im16.bmp_pos90_id16_im3.bmp,['Im_LeonardoDiCaprio.png', 'Im_HughJackman.png', 'Im_PatrickDempsey.png', 'Im_BenStiller.png', 'Im_RyanReynolds.png', 'Im_BradPitt.png', 'Im_BenAffleck.png', 'Im_OrlandoBloom.png', 'Im_RobertDowneyJr.png', 'Im_GeorgeClooney.png'],diff,1,0.725262100000009,6,80.95238095238095,
ROIS2212,train,pos,0,pos0_id8_im21.bmp_pos0_id8_im20.bmp,['Im_LeonardoDiCaprio.png', 'Im_HughJackman.png', 'Im_PatrickDempsey.png', 'Im_BenStiller.png', 'Im_RyanReynolds.png', 'Im_BradPitt.png', 'Im_BenAffleck.png', 'Im_OrlandoBloom.png', 'Im_RobertDowneyJr.png', 'Im_GeorgeClooney.png'],same,1,1.216566299999954,7,80.95238095238095,
ROIS2212,train,pos,60,pos60_id8_im20.bmp_pos60_id21_im16.bmp,['Im_LeonardoDiCaprio.png', 'Im_HughJackman.png', 'Im_PatrickDempsey.png', 'Im_BenStiller.png', 'Im_RyanReynolds.png', 'Im_BradPitt.png', 'Im_BenAffleck.png', 'Im_OrlandoBloom.png', 'Im_RobertDowneyJr.png', 'Im_GeorgeClooney.png'],diff,1,0.5335704999999962,8,80.95238095238095,
ROIS2212,train,pos,fs,posfs_id8_im20.bmp_posfs_id8_im21.bmp,['Im_LeonardoDiCaprio.png', 'Im_HughJackman.png', 'Im_PatrickDempsey.png', 'Im_BenStiller.png', 'Im_RyanReynolds.png', 'Im_BradPitt.png', 'Im_BenAffleck.png', 'Im_OrlandoBloom.png', 'Im_RobertDowneyJr.png', 'Im_GeorgeClooney.png'],same,1,0.700119099999938,9,80.95238095238095,
ROIS2212,train,pos,30,pos30_id7_im26.bmp_pos30_id7_im15.bmp,['Im_LeonardoDiCaprio.png', 'Im_HughJackman.png', 'Im_PatrickDempsey.png', 'Im_BenStiller.png', 'Im_RyanReynolds.png', 'Im_BradPitt.png', 'Im_BenAffleck.png', 'Im_OrlandoBloom.png', 'Im_RobertDowneyJr.png', 'Im_GeorgeClooney.png'],same,1,0.8249949999999444,10,80.95238095238095,
ROIS2212,train,pos,0,pos0_id8_im13.bmp_pos0_id8_im21.bmp,['Im_LeonardoDiCaprio.png', 'Im_HughJackman.png', 'Im_PatrickDempsey.png', 'Im_BenStiller.png', 'Im_RyanReynolds.png', 'Im_BradPitt.png', 'Im_BenAffleck.png', 'Im_OrlandoBloom.png', 'Im_RobertDowneyJr.png', 'Im_GeorgeClooney.png'],same,1,0.6169749000000593,11,80.95238095238095,
ROIS2212,train,pos,150,pos150_id13_im29.bmp_pos150_id13_im15.bmp,['Im_LeonardoDiCaprio.png', 'Im_HughJackman.png', 'Im_PatrickDempsey.png', 'Im_BenStiller.png', 'Im_RyanReynolds.png', 'Im_BradPitt.png', 'Im_BenAffleck.png', 'Im_OrlandoBloom.png', 'Im_RobertDowneyJr.png', 'Im_GeorgeClooney.png'],same,1,1.3170564999999215,12,80.95238095238095,
ROIS2212,train,pos,90,pos90_id8_im20.bmp_pos90_id8_im13.bmp,['Im_LeonardoDiCaprio.png', 'Im_HughJackman.png', 'Im_PatrickDempsey.png', 'Im_BenStiller.png', 'Im_RyanReynolds.png', 'Im_BradPitt.png', 'Im_BenAffleck.png', 'Im_OrlandoBloom.png', 'Im_RobertDowneyJr.png', 'Im_GeorgeClooney.png'],diff,0,0.41684190000000854,12,80.95238095238095,
ROIS2212,train,pos,fs,posfs_id16_im19.bmp_posfs_id1_im4.bmp,['Im_LeonardoDiCaprio.png', 'Im_HughJackman.png', 'Im_PatrickDempsey.png', 'Im_BenStiller.png', 'Im_RyanReynolds.png', 'Im_BradPitt.png', 'Im_BenAffleck.png', 'Im_OrlandoBloom.png', 'Im_RobertDowneyJr.png', 'Im_GeorgeClooney.png'],diff,1,0.5835954000000356,13,80.95238095238095,
ROIS2212,train,neg,30,neg30_id17_im8.bmp_neg30_id17_im14.bmp,['Im_LeonardoDiCaprio.png', 'Im_HughJackman.png', 'Im_PatrickDempsey.png', 'Im_BenStiller.png', 'Im_RyanReynolds.png', 'Im_BradPitt.png', 'Im_BenAffleck.png', 'Im_OrlandoBloom.png', 'Im_RobertDowneyJr.png', 'Im_GeorgeClooney.png'],diff,0,0.8669197000000395,13,80.95238095238095,
ROIS2212,train,neg,90,neg90_id13_im10.bmp_neg90_id13_im15.bmp,['Im_LeonardoDiCaprio.png', 'Im_HughJackman.png', 'Im_PatrickDempsey.png', 'Im_BenStiller.png', 'Im_RyanReynolds.png', 'Im_BradPitt.png', 'Im_BenAffleck.png', 'Im_OrlandoBloom.png', 'Im_RobertDowneyJr.png', 'Im_GeorgeClooney.png'],same,1,0.6333444000000554,14,80.95238095238095,
ROIS2212,train,neg,120,neg120_id21_im17.bmp_neg120_id21_im22.bmp,['Im_LeonardoDiCaprio.png', 'Im_HughJackman.png', 'Im_PatrickDempsey.png', 'Im_BenStiller.png', 'Im_RyanReynolds.png', 'Im_BradPitt.png', 'Im_BenAffleck.png', 'Im_OrlandoBloom.png', 'Im_RobertDowneyJr.png', 'Im_GeorgeClooney.png'],diff,0,0.6333646000000499,14,80.95238095238095,
ROIS2212,train,neg,150,neg150_id13_im10.bmp_neg150_id7_im14.bmp,['Im_LeonardoDiCaprio.png', 'Im_HughJackman.png', 'Im_PatrickDempsey.png', 'Im_BenStiller.png', 'Im_RyanReynolds.png', 'Im_BradPitt.png', 'Im_BenAffleck.png', 'Im_OrlandoBloom.png', 'Im_RobertDowneyJr.png', 'Im_GeorgeClooney.png'],diff,1,0.6415412999999717,15,80.95238095238095,
ROIS2212,train,neg,120,neg120_id2_im3.bmp_neg120_id18_im11.bmp,['Im_LeonardoDiCaprio.png', 'Im_HughJackman.png', 'Im_PatrickDempsey.png', 'Im_BenStiller.png', 'Im_RyanReynolds.png', 'Im_BradPitt.png', 'Im_BenAffleck.png', 'Im_OrlandoBloom.png', 'Im_RobertDowneyJr.png', 'Im_GeorgeClooney.png'],diff,1,1.0667775000000574,16,80.95238095238095,
ROIS2212,train,neg,60,neg60_id18_im19.bmp_neg60_id3_im8.bmp,['Im_LeonardoDiCaprio.png', 'Im_HughJackman.png', 'Im_PatrickDempsey.png', 'Im_BenStiller.png', 'Im_RyanReynolds.png', 'Im_BradPitt.png', 'Im_BenAffleck.png', 'Im_OrlandoBloom.png', 'Im_RobertDowneyJr.png', 'Im_GeorgeClooney.png'],diff,1,0.48356490000003305,17,80.95238095238095,
ROIS2212,train,neg,150,neg150_id3_im8.bmp_neg150_id3_im17.bmp,['Im_LeonardoDiCaprio.png', 'Im_HughJackman.png', 'Im_PatrickDempsey.png', 'Im_BenStiller.png', 'Im_RyanReynolds.png', 'Im_BradPitt.png', 'Im_BenAffleck.png', 'Im_OrlandoBloom.png', 'Im_RobertDowneyJr.png', 'Im_GeorgeClooney.png'],same,1,0.5165944000000309,18,80.95238095238095,
ROIS2212,train,neg,0,neg0_id8_im20.bmp_neg0_id1_im24.bmp,['Im_LeonardoDiCaprio.png', 'Im_HughJackman.png', 'Im_PatrickDempsey.png', 'Im_BenStiller.png', 'Im_RyanReynolds.png', 'Im_BradPitt.png', 'Im_BenAffleck.png', 'Im_OrlandoBloom.png', 'Im_RobertDowneyJr.png', 'Im_GeorgeClooney.png'],diff,1,0.5752141000000393,19,80.95238095238095,
ROIS2212,train,neg,30,neg30_id17_im8.bmp_neg30_id17_im9.bmp,['Im_LeonardoDiCaprio.png', 'Im_HughJackman.png', 'Im_PatrickDempsey.png', 'Im_BenStiller.png', 'Im_RyanReynolds.png', 'Im_BradPitt.png', 'Im_BenAffleck.png', 'Im_OrlandoBloom.png', 'Im_RobertDowneyJr.png', 'Im_GeorgeClooney.png'],same,1,2.3501406000000316,20,80.95238095238095,
ROIS2212,train,neg,0,neg0_id17_im14.bmp_neg0_id21_im16.bmp,['Im_LeonardoDiCaprio.png', 'Im_HughJackman.png', 'Im_PatrickDempsey.png', 'Im_BenStiller.png', 'Im_RyanReynolds.png', 'Im_BradPitt.png', 'Im_BenAffleck.png', 'Im_OrlandoBloom.png', 'Im_RobertDowneyJr.png', 'Im_GeorgeClooney.png'],diff,1,1.4503854000000729,21,80.95238095238095,
ROIS2212,train,neg,90,neg90_id7_im15.bmp_neg90_id7_im26.bmp,['Im_LeonardoDiCaprio.png', 'Im_HughJackman.png', 'Im_PatrickDempsey.png', 'Im_BenStiller.png', 'Im_RyanReynolds.png', 'Im_BradPitt.png', 'Im_BenAffleck.png', 'Im_OrlandoBloom.png', 'Im_RobertDowneyJr.png', 'Im_GeorgeClooney.png'],diff,0,1.5670336999999108,21,80.95238095238095,
ROIS2212,train,neg,60,neg60_id18_im18.bmp_neg60_id18_im11.bmp,['Im_LeonardoDiCaprio.png', 'Im_HughJackman.png', 'Im_PatrickDempsey.png', 'Im_BenStiller.png', 'Im_RyanReynolds.png', 'Im_BradPitt.png', 'Im_BenAffleck.png', 'Im_OrlandoBloom.png', 'Im_RobertDowneyJr.png', 'Im_GeorgeClooney.png'],diff,0,0.766995100000031,21,80.95238095238095,
ROIS2212,train,neg,fs,negfs_id3_im6.bmp_negfs_id3_im17.bmp,['Im_LeonardoDiCaprio.png', 'Im_HughJackman.png', 'Im_PatrickDempsey.png', 'Im_BenStiller.png', 'Im_RyanReynolds.png', 'Im_BradPitt.png', 'Im_BenAffleck.png', 'Im_OrlandoBloom.png', 'Im_RobertDowneyJr.png', 'Im_GeorgeClooney.png'],same,1,0.5167024999999512,22,80.95238095238095,
ROIS2212,train,neg,fs,negfs_id7_im14.bmp_negfs_id3_im17.bmp,['Im_LeonardoDiCaprio.png', 'Im_HughJackman.png', 'Im_PatrickDempsey.png', 'Im_BenStiller.png', 'Im_RyanReynolds.png', 'Im_BradPitt.png', 'Im_BenAffleck.png', 'Im_OrlandoBloom.png', 'Im_RobertDowneyJr.png', 'Im_GeorgeClooney.png'],diff,1,0.7751117000000249,23,80.95238095238095,
ROIS2212,train,pos,90,pos90_id1_im4.bmp_pos90_id17_im9.bmp,['Im_LeonardoDiCaprio.png', 'Im_HughJackman.png', 'Im_PatrickDempsey.png', 'Im_BenStiller.png', 'Im_RyanReynolds.png', 'Im_BradPitt.png', 'Im_BenAffleck.png', 'Im_OrlandoBloom.png', 'Im_RobertDowneyJr.png', 'Im_GeorgeClooney.png'],diff,1,1.5833587999999281,24,80.95238095238095,
ROIS2212,train,pos,0,pos0_id2_im16.bmp_pos0_id2_im2.bmp,['Im_LeonardoDiCaprio.png', 'Im_HughJackman.png', 'Im_PatrickDempsey.png', 'Im_BenStiller.png', 'Im_RyanReynolds.png', 'Im_BradPitt.png', 'Im_BenAffleck.png', 'Im_OrlandoBloom.png', 'Im_RobertDowneyJr.png', 'Im_GeorgeClooney.png'],same,1,1.6503304000000298,25,80.95238095238095,
ROIS2212,train,pos,150,pos150_id2_im3.bmp_pos150_id18_im11.bmp,['Im_LeonardoDiCaprio.png', 'Im_HughJackman.png', 'Im_PatrickDempsey.png', 'Im_BenStiller.png', 'Im_RyanReynolds.png', 'Im_BradPitt.png', 'Im_BenAffleck.png', 'Im_OrlandoBloom.png', 'Im_RobertDowneyJr.png', 'Im_GeorgeClooney.png'],diff,1,0.8000501000000213,26,80.95238095238095,
ROIS2212,train,pos,30,pos30_id8_im13.bmp_pos30_id8_im21.bmp,['Im_LeonardoDiCaprio.png', 'Im_HughJackman.png', 'Im_PatrickDempsey.png', 'Im_BenStiller.png', 'Im_RyanReynolds.png', 'Im_BradPitt.png', 'Im_BenAffleck.png', 'Im_OrlandoBloom.png', 'Im_RobertDowneyJr.png', 'Im_GeorgeClooney.png'],same,1,0.5501921000000038,27,80.95238095238095,
ROIS2212,train,pos,30,pos30_id1_im21.bmp_pos30_id1_im4.bmp,['Im_LeonardoDiCaprio.png', 'Im_HughJackman.png', 'Im_PatrickDempsey.png', 'Im_BenStiller.png', 'Im_RyanReynolds.png', 'Im_BradPitt.png', 'Im_BenAffleck.png', 'Im_OrlandoBloom.png', 'Im_RobertDowneyJr.png', 'Im_GeorgeClooney.png'],same,1,0.6836308000000599,28,80.95238095238095,
ROIS2212,train,pos,120,pos120_id1_im4.bmp_pos120_id16_im19.bmp,['Im_LeonardoDiCaprio.png', 'Im_HughJackman.png', 'Im_PatrickDempsey.png', 'Im_BenStiller.png', 'Im_RyanReynolds.png', 'Im_BradPitt.png', 'Im_BenAffleck.png', 'Im_OrlandoBloom.png', 'Im_RobertDowneyJr.png', 'Im_GeorgeClooney.png'],diff,1,1.4000094000000445,29,80.95238095238095,
ROIS2212,train,pos,60,pos60_id13_im29.bmp_pos60_id13_im10.bmp,['Im_LeonardoDiCaprio.png', 'Im_HughJackman.png', 'Im_PatrickDempsey.png', 'Im_BenStiller.png', 'Im_RyanReynolds.png', 'Im_BradPitt.png', 'Im_BenAffleck.png', 'Im_OrlandoBloom.png', 'Im_RobertDowneyJr.png', 'Im_GeorgeClooney.png'],same,1,0.48302220000005036,30,80.95238095238095,
ROIS2212,train,pos,150,pos150_id13_im29.bmp_pos150_id13_im10.bmp,['Im_LeonardoDiCaprio.png', 'Im_HughJackman.png', 'Im_PatrickDempsey.png', 'Im_BenStiller.png', 'Im_RyanReynolds.png', 'Im_BradPitt.png', 'Im_BenAffleck.png', 'Im_OrlandoBloom.png', 'Im_RobertDowneyJr.png', 'Im_GeorgeClooney.png'],diff,0,0.9336771000000681,30,80.95238095238095,
ROIS2212,train,pos,90,pos90_id3_im17.bmp_pos90_id7_im14.bmp,['Im_LeonardoDiCaprio.png', 'Im_HughJackman.png', 'Im_PatrickDempsey.png', 'Im_BenStiller.png', 'Im_RyanReynolds.png', 'Im_BradPitt.png', 'Im_BenAffleck.png', 'Im_OrlandoBloom.png', 'Im_RobertDowneyJr.png', 'Im_GeorgeClooney.png'],diff,1,1.0000409000000445,31,80.95238095238095,
ROIS2212,train,pos,120,pos120_id3_im6.bmp_pos120_id21_im22.bmp,['Im_LeonardoDiCaprio.png', 'Im_HughJackman.png', 'Im_PatrickDempsey.png', 'Im_BenStiller.png', 'Im_RyanReynolds.png', 'Im_BradPitt.png', 'Im_BenAffleck.png', 'Im_OrlandoBloom.png', 'Im_RobertDowneyJr.png', 'Im_GeorgeClooney.png'],diff,1,0.42546870000001036,32,80.95238095238095,
ROIS2212,train,pos,fs,posfs_id8_im13.bmp_posfs_id8_im21.bmp,['Im_LeonardoDiCaprio.png', 'Im_HughJackman.png', 'Im_PatrickDempsey.png', 'Im_BenStiller.png', 'Im_RyanReynolds.png', 'Im_BradPitt.png', 'Im_BenAffleck.png', 'Im_OrlandoBloom.png', 'Im_RobertDowneyJr.png', 'Im_GeorgeClooney.png'],same,1,0.4166785999999547,33,80.95238095238095,
ROIS2212,train,pos,60,pos60_id8_im20.bmp_pos60_id8_im13.bmp,['Im_LeonardoDiCaprio.png', 'Im_HughJackman.png', 'Im_PatrickDempsey.png', 'Im_BenStiller.png', 'Im_RyanReynolds.png', 'Im_BradPitt.png', 'Im_BenAffleck.png', 'Im_OrlandoBloom.png', 'Im_RobertDowneyJr.png', 'Im_GeorgeClooney.png'],same,1,1.0338011999999708,34,80.95238095238095,
ROIS2212,train,pos,0,pos0_id7_im26.bmp_pos0_id7_im15.bmp,['Im_LeonardoDiCaprio.png', 'Im_HughJackman.png', 'Im_PatrickDempsey.png', 'Im_BenStiller.png', 'Im_RyanReynolds.png', 'Im_BradPitt.png', 'Im_BenAffleck.png', 'Im_OrlandoBloom.png', 'Im_RobertDowneyJr.png', 'Im_GeorgeClooney.png'],same,1,0.8335147000000234,35,80.95238095238095,
ROIS2212,train,pos,fs,posfs_id21_im17.bmp_posfs_id21_im22.bmp,['Im_LeonardoDiCaprio.png', 'Im_HughJackman.png', 'Im_PatrickDempsey.png', 'Im_BenStiller.png', 'Im_RyanReynolds.png', 'Im_BradPitt.png', 'Im_BenAffleck.png', 'Im_OrlandoBloom.png', 'Im_RobertDowneyJr.png', 'Im_GeorgeClooney.png'],same,1,0.5169058999999834,36,80.95238095238095,
ROIS2212,0,inv,120,pos120_id3_im8.bmp_pos120_id3_im17.bmp,['Im_LeonardoDiCaprio.png', 'Im_HughJackman.png', 'Im_PatrickDempsey.png', 'Im_BenStiller.png', 'Im_RyanReynolds.png', 'Im_BradPitt.png', 'Im_BenAffleck.png', 'Im_OrlandoBloom.png', 'Im_RobertDowneyJr.png', 'Im_GeorgeClooney.png'],none,1,4.391810299999861,0,0,
ROIS2212,0,inv,90,pos90_id21_im17.bmp_pos90_id7_im26.bmp,['Im_LeonardoDiCaprio.png', 'Im_HughJackman.png', 'Im_PatrickDempsey.png', 'Im_BenStiller.png', 'Im_RyanReynolds.png', 'Im_BradPitt.png', 'Im_BenAffleck.png', 'Im_OrlandoBloom.png', 'Im_RobertDowneyJr.png', 'Im_GeorgeClooney.png'],diff,1,0.8668741999999838,1,0,
ROIS2212,0,inv,90,pos90_id8_im20.bmp_pos90_id8_im13.bmp,['Im_LeonardoDiCaprio.png', 'Im_HughJackman.png', 'Im_PatrickDempsey.png', 'Im_BenStiller.png', 'Im_RyanReynolds.png', 'Im_BradPitt.png', 'Im_BenAffleck.png', 'Im_OrlandoBloom.png', 'Im_RobertDowneyJr.png', 'Im_GeorgeClooney.png'],same,1,0.6834819000000607,2,0,
ROIS2212,0,inv,0,pos0_id17_im8.bmp_pos0_id16_im19.bmp,['Im_LeonardoDiCaprio.png', 'Im_HughJackman.png', 'Im_PatrickDempsey.png', 'Im_BenStiller.png', 'Im_RyanReynolds.png', 'Im_BradPitt.png', 'Im_BenAffleck.png', 'Im_OrlandoBloom.png', 'Im_RobertDowneyJr.png', 'Im_GeorgeClooney.png'],diff,1,1.0916131999999834,3,0,
ROIS2212,0,inv,0,pos0_id18_im11.bmp_pos0_id18_im18.bmp,['Im_LeonardoDiCaprio.png', 'Im_HughJackman.png', 'Im_PatrickDempsey.png', 'Im_BenStiller.png', 'Im_RyanReynolds.png', 'Im_BradPitt.png', 'Im_BenAffleck.png', 'Im_OrlandoBloom.png', 'Im_RobertDowneyJr.png', 'Im_GeorgeClooney.png'],diff,0,1.4251889999998184,3,0,
ROIS2212,0,inv,120,pos120_id16_im2.bmp_pos120_id16_im3.bmp,['Im_LeonardoDiCaprio.png', 'Im_HughJackman.png', 'Im_PatrickDempsey.png', 'Im_BenStiller.png', 'Im_RyanReynolds.png', 'Im_BradPitt.png', 'Im_BenAffleck.png', 'Im_OrlandoBloom.png', 'Im_RobertDowneyJr.png', 'Im_GeorgeClooney.png'],same,1,0.7251180000000659,4,0,
ROIS2212,0,inv,30,pos30_id1_im4.bmp_pos30_id1_im21.bmp,['Im_LeonardoDiCaprio.png', 'Im_HughJackman.png', 'Im_PatrickDempsey.png', 'Im_BenStiller.png', 'Im_RyanReynolds.png', 'Im_BradPitt.png', 'Im_BenAffleck.png', 'Im_OrlandoBloom.png', 'Im_RobertDowneyJr.png', 'Im_GeorgeClooney.png'],same,1,0.6503064999999424,5,0,
ROIS2212,0,inv,fs,posfs_id17_im14.bmp_posfs_id7_im26.bmp,['Im_LeonardoDiCaprio.png', 'Im_HughJackman.png', 'Im_PatrickDempsey.png', 'Im_BenStiller.png', 'Im_RyanReynolds.png', 'Im_BradPitt.png', 'Im_BenAffleck.png', 'Im_OrlandoBloom.png', 'Im_RobertDowneyJr.png', 'Im_GeorgeClooney.png'],diff,1,1.6502986999998939,6,0,
ROIS2212,0,inv,60,pos60_id16_im19.bmp_pos60_id1_im4.bmp,['Im_LeonardoDiCaprio.png', 'Im_HughJackman.png', 'Im_PatrickDempsey.png', 'Im_BenStiller.png', 'Im_RyanReynolds.png', 'Im_BradPitt.png', 'Im_BenAffleck.png', 'Im_OrlandoBloom.png', 'Im_RobertDowneyJr.png', 'Im_GeorgeClooney.png'],same,0,1.9750706999998329,6,0,
ROIS2212,0,inv,150,pos150_id21_im22.bmp_pos150_id21_im17.bmp,['Im_LeonardoDiCaprio.png', 'Im_HughJackman.png', 'Im_PatrickDempsey.png', 'Im_BenStiller.png', 'Im_RyanReynolds.png', 'Im_BradPitt.png', 'Im_BenAffleck.png', 'Im_OrlandoBloom.png', 'Im_RobertDowneyJr.png', 'Im_GeorgeClooney.png'],diff,0,0.8583928000000469,6,0,
ROIS2212,0,inv,fs,posfs_id3_im8.bmp_posfs_id18_im19.bmp,['Im_LeonardoDiCaprio.png', 'Im_HughJackman.png', 'Im_PatrickDempsey.png', 'Im_BenStiller.png', 'Im_RyanReynolds.png', 'Im_BradPitt.png', 'Im_BenAffleck.png', 'Im_OrlandoBloom.png', 'Im_RobertDowneyJr.png', 'Im_GeorgeClooney.png'],diff,1,1.0917587999999796,7,0,
ROIS2212,0,inv,60,pos60_id17_im8.bmp_pos60_id16_im19.bmp,['Im_LeonardoDiCaprio.png', 'Im_HughJackman.png', 'Im_PatrickDempsey.png', 'Im_BenStiller.png', 'Im_RyanReynolds.png', 'Im_BradPitt.png', 'Im_BenAffleck.png', 'Im_OrlandoBloom.png', 'Im_RobertDowneyJr.png', 'Im_GeorgeClooney.png'],none,1,4.3917533999999705,7,0,
ROIS2212,0,inv,30,pos30_id1_im21.bmp_pos30_id16_im2.bmp,['Im_LeonardoDiCaprio.png', 'Im_HughJackman.png', 'Im_PatrickDempsey.png', 'Im_BenStiller.png', 'Im_RyanReynolds.png', 'Im_BradPitt.png', 'Im_BenAffleck.png', 'Im_OrlandoBloom.png', 'Im_RobertDowneyJr.png', 'Im_GeorgeClooney.png'],diff,1,0.7085256999998819,8,0,
ROIS2212,0,inv,150,pos150_id18_im18.bmp_pos150_id18_im11.bmp,['Im_LeonardoDiCaprio.png', 'Im_HughJackman.png', 'Im_PatrickDempsey.png', 'Im_BenStiller.png', 'Im_RyanReynolds.png', 'Im_BradPitt.png', 'Im_BenAffleck.png', 'Im_OrlandoBloom.png', 'Im_RobertDowneyJr.png', 'Im_GeorgeClooney.png'],diff,0,1.1998918000001595,8,0,
ROIS2212,1,inv,60,pos60_id2_im16.bmp_pos60_id2_im3.bmp,['Im_LeonardoDiCaprio.png', 'Im_HughJackman.png', 'Im_PatrickDempsey.png', 'Im_BenStiller.png', 'Im_RyanReynolds.png', 'Im_BradPitt.png', 'Im_BenAffleck.png', 'Im_OrlandoBloom.png', 'Im_RobertDowneyJr.png', 'Im_GeorgeClooney.png'],same,1,0.4667366999999558,9,0,
ROIS2212,1,inv,150,pos150_id16_im3.bmp_pos150_id16_im19.bmp,['Im_LeonardoDiCaprio.png', 'Im_HughJackman.png', 'Im_PatrickDempsey.png', 'Im_BenStiller.png', 'Im_RyanReynolds.png', 'Im_BradPitt.png', 'Im_BenAffleck.png', 'Im_OrlandoBloom.png', 'Im_RobertDowneyJr.png', 'Im_GeorgeClooney.png'],diff,0,0.8416773999999805,9,0,
ROIS2212,1,inv,60,pos60_id1_im4.bmp_pos60_id1_im24.bmp,['Im_LeonardoDiCaprio.png', 'Im_HughJackman.png', 'Im_PatrickDempsey.png', 'Im_BenStiller.png', 'Im_RyanReynolds.png', 'Im_BradPitt.png', 'Im_BenAffleck.png', 'Im_OrlandoBloom.png', 'Im_RobertDowneyJr.png', 'Im_GeorgeClooney.png'],same,1,1.025054199999886,10,0,
ROIS2212,1,inv,30,pos30_id18_im11.bmp_pos30_id18_im18.bmp,['Im_LeonardoDiCaprio.png', 'Im_HughJackman.png', 'Im_PatrickDempsey.png', 'Im_BenStiller.png', 'Im_RyanReynolds.png', 'Im_BradPitt.png', 'Im_BenAffleck.png', 'Im_OrlandoBloom.png', 'Im_RobertDowneyJr.png', 'Im_GeorgeClooney.png'],same,1,1.1421084000000974,11,0,
ROIS2212,1,inv,0,pos0_id13_im15.bmp_pos0_id18_im18.bmp,['Im_LeonardoDiCaprio.png', 'Im_HughJackman.png', 'Im_PatrickDempsey.png', 'Im_BenStiller.png', 'Im_RyanReynolds.png', 'Im_BradPitt.png', 'Im_BenAffleck.png', 'Im_OrlandoBloom.png', 'Im_RobertDowneyJr.png', 'Im_GeorgeClooney.png'],diff,1,1.9752122999998392,12,0,
ROIS2212,1,inv,90,pos90_id21_im17.bmp_pos90_id21_im16.bmp,['Im_LeonardoDiCaprio.png', 'Im_HughJackman.png', 'Im_PatrickDempsey.png', 'Im_BenStiller.png', 'Im_RyanReynolds.png', 'Im_BradPitt.png', 'Im_BenAffleck.png', 'Im_OrlandoBloom.png', 'Im_RobertDowneyJr.png', 'Im_GeorgeClooney.png'],same,1,1.1001263999999082,13,0,
ROIS2212,1,inv,150,pos150_id8_im21.bmp_pos150_id8_im20.bmp,['Im_LeonardoDiCaprio.png', 'Im_HughJackman.png', 'Im_PatrickDempsey.png', 'Im_BenStiller.png', 'Im_RyanReynolds.png', 'Im_BradPitt.png', 'Im_BenAffleck.png', 'Im_OrlandoBloom.png', 'Im_RobertDowneyJr.png', 'Im_GeorgeClooney.png'],same,1,0.5586883999999372,14,0,
ROIS2212,1,inv,90,pos90_id17_im9.bmp_pos90_id1_im4.bmp,['Im_LeonardoDiCaprio.png', 'Im_HughJackman.png', 'Im_PatrickDempsey.png', 'Im_BenStiller.png', 'Im_RyanReynolds.png', 'Im_BradPitt.png', 'Im_BenAffleck.png', 'Im_OrlandoBloom.png', 'Im_RobertDowneyJr.png', 'Im_GeorgeClooney.png'],same,0,2.4167191000001367,14,0,
ROIS2212,1,inv,0,pos0_id17_im9.bmp_pos0_id1_im4.bmp,['Im_LeonardoDiCaprio.png', 'Im_HughJackman.png', 'Im_PatrickDempsey.png', 'Im_BenStiller.png', 'Im_RyanReynolds.png', 'Im_BradPitt.png', 'Im_BenAffleck.png', 'Im_OrlandoBloom.png', 'Im_RobertDowneyJr.png', 'Im_GeorgeClooney.png'],diff,1,0.82506699999999,15,0,
ROIS2212,1,inv,fs,posfs_id8_im13.bmp_posfs_id3_im6.bmp,['Im_LeonardoDiCaprio.png', 'Im_HughJackman.png', 'Im_PatrickDempsey.png', 'Im_BenStiller.png', 'Im_RyanReynolds.png', 'Im_BradPitt.png', 'Im_BenAffleck.png', 'Im_OrlandoBloom.png', 'Im_RobertDowneyJr.png', 'Im_GeorgeClooney.png'],diff,1,0.9416980000000876,16,0,
ROIS2212,1,inv,120,pos120_id7_im14.bmp_pos120_id13_im10.bmp,['Im_LeonardoDiCaprio.png', 'Im_HughJackman.png', 'Im_PatrickDempsey.png', 'Im_BenStiller.png', 'Im_RyanReynolds.png', 'Im_BradPitt.png', 'Im_BenAffleck.png', 'Im_OrlandoBloom.png', 'Im_RobertDowneyJr.png', 'Im_GeorgeClooney.png'],diff,1,0.516758100000061,17,0,
ROIS2212,1,inv,30,pos30_id13_im10.bmp_pos30_id2_im16.bmp,['Im_LeonardoDiCaprio.png', 'Im_HughJackman.png', 'Im_PatrickDempsey.png', 'Im_BenStiller.png', 'Im_RyanReynolds.png', 'Im_BradPitt.png', 'Im_BenAffleck.png', 'Im_OrlandoBloom.png', 'Im_RobertDowneyJr.png', 'Im_GeorgeClooney.png'],diff,1,0.4167472000001453,18,0,
ROIS2212,1,inv,120,pos120_id18_im18.bmp_pos120_id3_im8.bmp,['Im_LeonardoDiCaprio.png', 'Im_HughJackman.png', 'Im_PatrickDempsey.png', 'Im_BenStiller.png', 'Im_RyanReynolds.png', 'Im_BradPitt.png', 'Im_BenAffleck.png', 'Im_OrlandoBloom.png', 'Im_RobertDowneyJr.png', 'Im_GeorgeClooney.png'],diff,1,0.6084847999998146,19,0,
ROIS2212,1,inv,fs,posfs_id21_im22.bmp_posfs_id13_im29.bmp,['Im_LeonardoDiCaprio.png', 'Im_HughJackman.png', 'Im_PatrickDempsey.png', 'Im_BenStiller.png', 'Im_RyanReynolds.png', 'Im_BradPitt.png', 'Im_BenAffleck.png', 'Im_OrlandoBloom.png', 'Im_RobertDowneyJr.png', 'Im_GeorgeClooney.png'],diff,1,0.41671519999999873,20,0,
ROIS2212,2,neg,60,neg60_id1_im21.bmp_neg60_id1_im4.bmp,['Im_LeonardoDiCaprio.png', 'Im_HughJackman.png', 'Im_PatrickDempsey.png', 'Im_BenStiller.png', 'Im_RyanReynolds.png', 'Im_BradPitt.png', 'Im_BenAffleck.png', 'Im_OrlandoBloom.png', 'Im_RobertDowneyJr.png', 'Im_GeorgeClooney.png'],same,1,0.7667920999999751,21,0,
ROIS2212,2,neg,fs,negfs_id17_im8.bmp_negfs_id17_im14.bmp,['Im_LeonardoDiCaprio.png', 'Im_HughJackman.png', 'Im_PatrickDempsey.png', 'Im_BenStiller.png', 'Im_RyanReynolds.png', 'Im_BradPitt.png', 'Im_BenAffleck.png', 'Im_OrlandoBloom.png', 'Im_RobertDowneyJr.png', 'Im_GeorgeClooney.png'],same,1,0.8581661999999142,22,0,
ROIS2212,2,neg,30,neg30_id1_im21.bmp_neg30_id3_im17.bmp,['Im_LeonardoDiCaprio.png', 'Im_HughJackman.png', 'Im_PatrickDempsey.png', 'Im_BenStiller.png', 'Im_RyanReynolds.png', 'Im_BradPitt.png', 'Im_BenAffleck.png', 'Im_OrlandoBloom.png', 'Im_RobertDowneyJr.png', 'Im_GeorgeClooney.png'],diff,1,2.000018700000055,23,0,
ROIS2212,2,neg,150,neg150_id16_im2.bmp_neg150_id16_im19.bmp,['Im_LeonardoDiCaprio.png', 'Im_HughJackman.png', 'Im_PatrickDempsey.png', 'Im_BenStiller.png', 'Im_RyanReynolds.png', 'Im_BradPitt.png', 'Im_BenAffleck.png', 'Im_OrlandoBloom.png', 'Im_RobertDowneyJr.png', 'Im_GeorgeClooney.png'],same,1,0.6588624999999411,24,0,
ROIS2212,2,neg,0,neg0_id2_im16.bmp_neg0_id13_im10.bmp,['Im_LeonardoDiCaprio.png', 'Im_HughJackman.png', 'Im_PatrickDempsey.png', 'Im_BenStiller.png', 'Im_RyanReynolds.png', 'Im_BradPitt.png', 'Im_BenAffleck.png', 'Im_OrlandoBloom.png', 'Im_RobertDowneyJr.png', 'Im_GeorgeClooney.png'],diff,1,1.008559699999978,25,0,
ROIS2212,2,neg,120,neg120_id2_im3.bmp_neg120_id2_im2.bmp,['Im_LeonardoDiCaprio.png', 'Im_HughJackman.png', 'Im_PatrickDempsey.png', 'Im_BenStiller.png', 'Im_RyanReynolds.png', 'Im_BradPitt.png', 'Im_BenAffleck.png', 'Im_OrlandoBloom.png', 'Im_RobertDowneyJr.png', 'Im_GeorgeClooney.png'],diff,0,1.9336125000002085,25,0,
ROIS2212,2,neg,150,neg150_id2_im16.bmp_neg150_id16_im3.bmp,['Im_LeonardoDiCaprio.png', 'Im_HughJackman.png', 'Im_PatrickDempsey.png', 'Im_BenStiller.png', 'Im_RyanReynolds.png', 'Im_BradPitt.png', 'Im_BenAffleck.png', 'Im_OrlandoBloom.png', 'Im_RobertDowneyJr.png', 'Im_GeorgeClooney.png'],diff,1,1.151263500000141,26,0,
ROIS2212,2,neg,120,neg120_id1_im24.bmp_neg120_id1_im21.bmp,['Im_LeonardoDiCaprio.png', 'Im_HughJackman.png', 'Im_PatrickDempsey.png', 'Im_BenStiller.png', 'Im_RyanReynolds.png', 'Im_BradPitt.png', 'Im_BenAffleck.png', 'Im_OrlandoBloom.png', 'Im_RobertDowneyJr.png', 'Im_GeorgeClooney.png'],same,1,0.8336775000000216,27,0,
ROIS2212,2,neg,30,neg30_id17_im14.bmp_neg30_id17_im9.bmp,['Im_LeonardoDiCaprio.png', 'Im_HughJackman.png', 'Im_PatrickDempsey.png', 'Im_BenStiller.png', 'Im_RyanReynolds.png', 'Im_BradPitt.png', 'Im_BenAffleck.png', 'Im_OrlandoBloom.png', 'Im_RobertDowneyJr.png', 'Im_GeorgeClooney.png'],diff,0,2.058278599999994,27,0,
ROIS2212,2,neg,60,neg60_id17_im9.bmp_neg60_id1_im4.bmp,['Im_LeonardoDiCaprio.png', 'Im_HughJackman.png', 'Im_PatrickDempsey.png', 'Im_BenStiller.png', 'Im_RyanReynolds.png', 'Im_BradPitt.png', 'Im_BenAffleck.png', 'Im_OrlandoBloom.png', 'Im_RobertDowneyJr.png', 'Im_GeorgeClooney.png'],same,0,1.5919971999999234,27,0,
ROIS2212,2,neg,0,neg0_id3_im6.bmp_neg0_id3_im17.bmp,['Im_LeonardoDiCaprio.png', 'Im_HughJackman.png', 'Im_PatrickDempsey.png', 'Im_BenStiller.png', 'Im_RyanReynolds.png', 'Im_BradPitt.png', 'Im_BenAffleck.png', 'Im_OrlandoBloom.png', 'Im_RobertDowneyJr.png', 'Im_GeorgeClooney.png'],same,1,0.5921381000000565,28,0,
ROIS2212,2,neg,90,neg90_id1_im4.bmp_neg90_id1_im24.bmp,['Im_LeonardoDiCaprio.png', 'Im_HughJackman.png', 'Im_PatrickDempsey.png', 'Im_BenStiller.png', 'Im_RyanReynolds.png', 'Im_BradPitt.png', 'Im_BenAffleck.png', 'Im_OrlandoBloom.png', 'Im_RobertDowneyJr.png', 'Im_GeorgeClooney.png'],diff,0,1.183531099999982,28,0,
ROIS2212,2,neg,90,neg90_id17_im14.bmp_neg90_id17_im8.bmp,['Im_LeonardoDiCaprio.png', 'Im_HughJackman.png', 'Im_PatrickDempsey.png', 'Im_BenStiller.png', 'Im_RyanReynolds.png', 'Im_BradPitt.png', 'Im_BenAffleck.png', 'Im_OrlandoBloom.png', 'Im_RobertDowneyJr.png', 'Im_GeorgeClooney.png'],same,1,0.8167363000000023,29,0,
ROIS2212,2,neg,fs,negfs_id2_im2.bmp_negfs_id18_im19.bmp,['Im_LeonardoDiCaprio.png', 'Im_HughJackman.png', 'Im_PatrickDempsey.png', 'Im_BenStiller.png', 'Im_RyanReynolds.png', 'Im_BradPitt.png', 'Im_BenAffleck.png', 'Im_OrlandoBloom.png', 'Im_RobertDowneyJr.png', 'Im_GeorgeClooney.png'],diff,1,1.1671005000000605,30,0,
ROIS2212,3,pos,120,pos120_id8_im20.bmp_pos120_id8_im21.bmp,['Im_LeonardoDiCaprio.png', 'Im_HughJackman.png', 'Im_PatrickDempsey.png', 'Im_BenStiller.png', 'Im_RyanReynolds.png', 'Im_BradPitt.png', 'Im_BenAffleck.png', 'Im_OrlandoBloom.png', 'Im_RobertDowneyJr.png', 'Im_GeorgeClooney.png'],same,1,1.0915529999999762,1,71.42857142857143,
ROIS2212,3,pos,0,pos0_id1_im21.bmp_pos0_id1_im4.bmp,['Im_LeonardoDiCaprio.png', 'Im_HughJackman.png', 'Im_PatrickDempsey.png', 'Im_BenStiller.png', 'Im_RyanReynolds.png', 'Im_BradPitt.png', 'Im_BenAffleck.png', 'Im_OrlandoBloom.png', 'Im_RobertDowneyJr.png', 'Im_GeorgeClooney.png'],same,1,0.6667116000000988,2,71.42857142857143,
ROIS2212,3,pos,30,pos30_id17_im14.bmp_pos30_id21_im16.bmp,['Im_LeonardoDiCaprio.png', 'Im_HughJackman.png', 'Im_PatrickDempsey.png', 'Im_BenStiller.png', 'Im_RyanReynolds.png', 'Im_BradPitt.png', 'Im_BenAffleck.png', 'Im_OrlandoBloom.png', 'Im_RobertDowneyJr.png', 'Im_GeorgeClooney.png'],diff,1,0.4333623999998508,3,71.42857142857143,
ROIS2212,3,pos,60,pos60_id21_im22.bmp_pos60_id21_im17.bmp,['Im_LeonardoDiCaprio.png', 'Im_HughJackman.png', 'Im_PatrickDempsey.png', 'Im_BenStiller.png', 'Im_RyanReynolds.png', 'Im_BradPitt.png', 'Im_BenAffleck.png', 'Im_OrlandoBloom.png', 'Im_RobertDowneyJr.png', 'Im_GeorgeClooney.png'],same,1,1.5336158000000069,4,71.42857142857143,
ROIS2212,3,pos,60,pos60_id17_im9.bmp_pos60_id1_im4.bmp,['Im_LeonardoDiCaprio.png', 'Im_HughJackman.png', 'Im_PatrickDempsey.png', 'Im_BenStiller.png', 'Im_RyanReynolds.png', 'Im_BradPitt.png', 'Im_BenAffleck.png', 'Im_OrlandoBloom.png', 'Im_RobertDowneyJr.png', 'Im_GeorgeClooney.png'],diff,1,1.0337081999998645,5,71.42857142857143,
ROIS2212,3,pos,90,pos90_id2_im3.bmp_pos90_id8_im21.bmp,['Im_LeonardoDiCaprio.png', 'Im_HughJackman.png', 'Im_PatrickDempsey.png', 'Im_BenStiller.png', 'Im_RyanReynolds.png', 'Im_BradPitt.png', 'Im_BenAffleck.png', 'Im_OrlandoBloom.png', 'Im_RobertDowneyJr.png', 'Im_GeorgeClooney.png'],diff,1,1.8003071999999065,6,71.42857142857143,
ROIS2212,3,pos,0,pos0_id16_im19.bmp_pos0_id16_im2.bmp,['Im_LeonardoDiCaprio.png', 'Im_HughJackman.png', 'Im_PatrickDempsey.png', 'Im_BenStiller.png', 'Im_RyanReynolds.png', 'Im_BradPitt.png', 'Im_BenAffleck.png', 'Im_OrlandoBloom.png', 'Im_RobertDowneyJr.png', 'Im_GeorgeClooney.png'],same,1,1.3582122000000254,7,71.42857142857143,
ROIS2212,3,pos,fs,posfs_id16_im2.bmp_posfs_id16_im3.bmp,['Im_LeonardoDiCaprio.png', 'Im_HughJackman.png', 'Im_PatrickDempsey.png', 'Im_BenStiller.png', 'Im_RyanReynolds.png', 'Im_BradPitt.png', 'Im_BenAffleck.png', 'Im_OrlandoBloom.png', 'Im_RobertDowneyJr.png', 'Im_GeorgeClooney.png'],same,1,1.6502588000000742,8,71.42857142857143,
ROIS2212,3,pos,150,pos150_id21_im17.bmp_pos150_id21_im22.bmp,['Im_LeonardoDiCaprio.png', 'Im_HughJackman.png', 'Im_PatrickDempsey.png', 'Im_BenStiller.png', 'Im_RyanReynolds.png', 'Im_BradPitt.png', 'Im_BenAffleck.png', 'Im_OrlandoBloom.png', 'Im_RobertDowneyJr.png', 'Im_GeorgeClooney.png'],same,1,0.5000554999999167,9,71.42857142857143,
ROIS2212,3,pos,120,pos120_id16_im2.bmp_pos120_id16_im19.bmp,['Im_LeonardoDiCaprio.png', 'Im_HughJackman.png', 'Im_PatrickDempsey.png', 'Im_BenStiller.png', 'Im_RyanReynolds.png', 'Im_BradPitt.png', 'Im_BenAffleck.png', 'Im_OrlandoBloom.png', 'Im_RobertDowneyJr.png', 'Im_GeorgeClooney.png'],same,1,0.41675869999994575,10,71.42857142857143,
ROIS2212,3,pos,150,pos150_id7_im14.bmp_pos150_id7_im15.bmp,['Im_LeonardoDiCaprio.png', 'Im_HughJackman.png', 'Im_PatrickDempsey.png', 'Im_BenStiller.png', 'Im_RyanReynolds.png', 'Im_BradPitt.png', 'Im_BenAffleck.png', 'Im_OrlandoBloom.png', 'Im_RobertDowneyJr.png', 'Im_GeorgeClooney.png'],same,1,0.4250728999998046,11,71.42857142857143,
ROIS2212,3,pos,90,pos90_id7_im14.bmp_pos90_id13_im10.bmp,['Im_LeonardoDiCaprio.png', 'Im_HughJackman.png', 'Im_PatrickDempsey.png', 'Im_BenStiller.png', 'Im_RyanReynolds.png', 'Im_BradPitt.png', 'Im_BenAffleck.png', 'Im_OrlandoBloom.png', 'Im_RobertDowneyJr.png', 'Im_GeorgeClooney.png'],diff,1,0.5500535000001037,12,71.42857142857143,
ROIS2212,3,pos,30,pos30_id17_im14.bmp_pos30_id17_im9.bmp,['Im_LeonardoDiCaprio.png', 'Im_HughJackman.png', 'Im_PatrickDempsey.png', 'Im_BenStiller.png', 'Im_RyanReynolds.png', 'Im_BradPitt.png', 'Im_BenAffleck.png', 'Im_OrlandoBloom.png', 'Im_RobertDowneyJr.png', 'Im_GeorgeClooney.png'],same,1,0.45816070000000764,13,71.42857142857143,
ROIS2212,3,pos,fs,posfs_id18_im18.bmp_posfs_id18_im11.bmp,['Im_LeonardoDiCaprio.png', 'Im_HughJackman.png', 'Im_PatrickDempsey.png', 'Im_BenStiller.png', 'Im_RyanReynolds.png', 'Im_BradPitt.png', 'Im_BenAffleck.png', 'Im_OrlandoBloom.png', 'Im_RobertDowneyJr.png', 'Im_GeorgeClooney.png'],same,1,1.5835486999999375,14,71.42857142857143,
ROIS2212,4,neg,90,neg90_id18_im19.bmp_neg90_id18_im11.bmp,['Im_LeonardoDiCaprio.png', 'Im_HughJackman.png', 'Im_PatrickDempsey.png', 'Im_BenStiller.png', 'Im_RyanReynolds.png', 'Im_BradPitt.png', 'Im_BenAffleck.png', 'Im_OrlandoBloom.png', 'Im_RobertDowneyJr.png', 'Im_GeorgeClooney.png'],diff,0,2.216897599999811,14,71.42857142857143,
ROIS2212,4,neg,120,neg120_id1_im24.bmp_neg120_id8_im20.bmp,['Im_LeonardoDiCaprio.png', 'Im_HughJackman.png', 'Im_PatrickDempsey.png', 'Im_BenStiller.png', 'Im_RyanReynolds.png', 'Im_BradPitt.png', 'Im_BenAffleck.png', 'Im_OrlandoBloom.png', 'Im_RobertDowneyJr.png', 'Im_GeorgeClooney.png'],diff,1,1.1835406000000148,15,71.42857142857143,
ROIS2212,4,neg,0,neg0_id7_im14.bmp_neg0_id3_im17.bmp,['Im_LeonardoDiCaprio.png', 'Im_HughJackman.png', 'Im_PatrickDempsey.png', 'Im_BenStiller.png', 'Im_RyanReynolds.png', 'Im_BradPitt.png', 'Im_BenAffleck.png', 'Im_OrlandoBloom.png', 'Im_RobertDowneyJr.png', 'Im_GeorgeClooney.png'],diff,1,0.658585500000072,16,71.42857142857143,
ROIS2212,4,neg,fs,negfs_id13_im29.bmp_negfs_id16_im3.bmp,['Im_LeonardoDiCaprio.png', 'Im_HughJackman.png', 'Im_PatrickDempsey.png', 'Im_BenStiller.png', 'Im_RyanReynolds.png', 'Im_BradPitt.png', 'Im_BenAffleck.png', 'Im_OrlandoBloom.png', 'Im_RobertDowneyJr.png', 'Im_GeorgeClooney.png'],diff,1,0.6083983999999418,17,71.42857142857143,
ROIS2212,4,neg,90,neg90_id3_im6.bmp_neg90_id3_im17.bmp,['Im_LeonardoDiCaprio.png', 'Im_HughJackman.png', 'Im_PatrickDempsey.png', 'Im_BenStiller.png', 'Im_RyanReynolds.png', 'Im_BradPitt.png', 'Im_BenAffleck.png', 'Im_OrlandoBloom.png', 'Im_RobertDowneyJr.png', 'Im_GeorgeClooney.png'],diff,0,0.9833565000001272,17,71.42857142857143,
ROIS2212,4,neg,120,neg120_id3_im6.bmp_neg120_id8_im13.bmp,['Im_LeonardoDiCaprio.png', 'Im_HughJackman.png', 'Im_PatrickDempsey.png', 'Im_BenStiller.png', 'Im_RyanReynolds.png', 'Im_BradPitt.png', 'Im_BenAffleck.png', 'Im_OrlandoBloom.png', 'Im_RobertDowneyJr.png', 'Im_GeorgeClooney.png'],diff,1,0.6916999000000033,18,71.42857142857143,
ROIS2212,4,neg,150,neg150_id8_im20.bmp_neg150_id21_im16.bmp,['Im_LeonardoDiCaprio.png', 'Im_HughJackman.png', 'Im_PatrickDempsey.png', 'Im_BenStiller.png', 'Im_RyanReynolds.png', 'Im_BradPitt.png', 'Im_BenAffleck.png', 'Im_OrlandoBloom.png', 'Im_RobertDowneyJr.png', 'Im_GeorgeClooney.png'],diff,1,1.4584303999999975,19,71.42857142857143,
ROIS2212,4,neg,30,neg30_id7_im14.bmp_neg30_id3_im17.bmp,['Im_LeonardoDiCaprio.png', 'Im_HughJackman.png', 'Im_PatrickDempsey.png', 'Im_BenStiller.png', 'Im_RyanReynolds.png', 'Im_BradPitt.png', 'Im_BenAffleck.png', 'Im_OrlandoBloom.png', 'Im_RobertDowneyJr.png', 'Im_GeorgeClooney.png'],diff,1,0.7836240000001453,20,71.42857142857143,
ROIS2212,4,neg,60,neg60_id16_im19.bmp_neg60_id16_im2.bmp,['Im_LeonardoDiCaprio.png', 'Im_HughJackman.png', 'Im_PatrickDempsey.png', 'Im_BenStiller.png', 'Im_RyanReynolds.png', 'Im_BradPitt.png', 'Im_BenAffleck.png', 'Im_OrlandoBloom.png', 'Im_RobertDowneyJr.png', 'Im_GeorgeClooney.png'],same,1,0.8417622000001757,21,71.42857142857143,
ROIS2212,4,neg,fs,negfs_id18_im19.bmp_negfs_id3_im8.bmp,['Im_LeonardoDiCaprio.png', 'Im_HughJackman.png', 'Im_PatrickDempsey.png', 'Im_BenStiller.png', 'Im_RyanReynolds.png', 'Im_BradPitt.png', 'Im_BenAffleck.png', 'Im_OrlandoBloom.png', 'Im_RobertDowneyJr.png', 'Im_GeorgeClooney.png'],diff,1,0.408325399999967,22,71.42857142857143,
ROIS2212,4,neg,150,neg150_id16_im2.bmp_neg150_id16_im3.bmp,['Im_LeonardoDiCaprio.png', 'Im_HughJackman.png', 'Im_PatrickDempsey.png', 'Im_BenStiller.png', 'Im_RyanReynolds.png', 'Im_BradPitt.png', 'Im_BenAffleck.png', 'Im_OrlandoBloom.png', 'Im_RobertDowneyJr.png', 'Im_GeorgeClooney.png'],same,1,0.5750748000000385,23,71.42857142857143,
ROIS2212,4,neg,30,neg30_id2_im2.bmp_neg30_id13_im15.bmp,['Im_LeonardoDiCaprio.png', 'Im_HughJackman.png', 'Im_PatrickDempsey.png', 'Im_BenStiller.png', 'Im_RyanReynolds.png', 'Im_BradPitt.png', 'Im_BenAffleck.png', 'Im_OrlandoBloom.png', 'Im_RobertDowneyJr.png', 'Im_GeorgeClooney.png'],diff,1,0.5250863999999638,24,71.42857142857143,
ROIS2212,4,neg,60,neg60_id2_im2.bmp_neg60_id2_im3.bmp,['Im_LeonardoDiCaprio.png', 'Im_HughJackman.png', 'Im_PatrickDempsey.png', 'Im_BenStiller.png', 'Im_RyanReynolds.png', 'Im_BradPitt.png', 'Im_BenAffleck.png', 'Im_OrlandoBloom.png', 'Im_RobertDowneyJr.png', 'Im_GeorgeClooney.png'],diff,0,0.8250528000000941,24,71.42857142857143,
ROIS2212,4,neg,0,neg0_id1_im24.bmp_neg0_id1_im21.bmp,['Im_LeonardoDiCaprio.png', 'Im_HughJackman.png', 'Im_PatrickDempsey.png', 'Im_BenStiller.png', 'Im_RyanReynolds.png', 'Im_BradPitt.png', 'Im_BenAffleck.png', 'Im_OrlandoBloom.png', 'Im_RobertDowneyJr.png', 'Im_GeorgeClooney.png'],same,1,0.5667166000000634,25,71.42857142857143,
ROIS2212,5,inv,90,pos90_id18_im18.bmp_pos90_id3_im8.bmp,['Im_LeonardoDiCaprio.png', 'Im_HughJackman.png', 'Im_PatrickDempsey.png', 'Im_BenStiller.png', 'Im_RyanReynolds.png', 'Im_BradPitt.png', 'Im_BenAffleck.png', 'Im_OrlandoBloom.png', 'Im_RobertDowneyJr.png', 'Im_GeorgeClooney.png'],diff,1,1.325318599999946,26,71.42857142857143,
ROIS2212,5,inv,0,pos0_id2_im3.bmp_pos0_id18_im11.bmp,['Im_LeonardoDiCaprio.png', 'Im_HughJackman.png', 'Im_PatrickDempsey.png', 'Im_BenStiller.png', 'Im_RyanReynolds.png', 'Im_BradPitt.png', 'Im_BenAffleck.png', 'Im_OrlandoBloom.png', 'Im_RobertDowneyJr.png', 'Im_GeorgeClooney.png'],diff,1,1.0419408000000203,27,71.42857142857143,
ROIS2212,5,inv,120,pos120_id13_im15.bmp_pos120_id18_im18.bmp,['Im_LeonardoDiCaprio.png', 'Im_HughJackman.png', 'Im_PatrickDempsey.png', 'Im_BenStiller.png', 'Im_RyanReynolds.png', 'Im_BradPitt.png', 'Im_BenAffleck.png', 'Im_OrlandoBloom.png', 'Im_RobertDowneyJr.png', 'Im_GeorgeClooney.png'],diff,1,0.7417786000000888,28,71.42857142857143,
ROIS2212,5,inv,120,pos120_id2_im3.bmp_pos120_id18_im11.bmp,['Im_LeonardoDiCaprio.png', 'Im_HughJackman.png', 'Im_PatrickDempsey.png', 'Im_BenStiller.png', 'Im_RyanReynolds.png', 'Im_BradPitt.png', 'Im_BenAffleck.png', 'Im_OrlandoBloom.png', 'Im_RobertDowneyJr.png', 'Im_GeorgeClooney.png'],diff,1,0.47514269999987846,29,71.42857142857143,
ROIS2212,5,inv,0,pos0_id18_im19.bmp_pos0_id18_im11.bmp,['Im_LeonardoDiCaprio.png', 'Im_HughJackman.png', 'Im_PatrickDempsey.png', 'Im_BenStiller.png', 'Im_RyanReynolds.png', 'Im_BradPitt.png', 'Im_BenAffleck.png', 'Im_OrlandoBloom.png', 'Im_RobertDowneyJr.png', 'Im_GeorgeClooney.png'],same,1,1.0919029000001501,30,71.42857142857143,
ROIS2212,5,inv,150,pos150_id21_im17.bmp_pos150_id21_im16.bmp,['Im_LeonardoDiCaprio.png', 'Im_HughJackman.png', 'Im_PatrickDempsey.png', 'Im_BenStiller.png', 'Im_RyanReynolds.png', 'Im_BradPitt.png', 'Im_BenAffleck.png', 'Im_OrlandoBloom.png', 'Im_RobertDowneyJr.png', 'Im_GeorgeClooney.png'],none,1,4.416586800000005,30,71.42857142857143,
ROIS2212,5,inv,30,pos30_id2_im16.bmp_pos30_id2_im2.bmp,['Im_LeonardoDiCaprio.png', 'Im_HughJackman.png', 'Im_PatrickDempsey.png', 'Im_BenStiller.png', 'Im_RyanReynolds.png', 'Im_BradPitt.png', 'Im_BenAffleck.png', 'Im_OrlandoBloom.png', 'Im_RobertDowneyJr.png', 'Im_GeorgeClooney.png'],same,1,1.1416658000000552,31,71.42857142857143,
ROIS2212,5,inv,60,pos60_id18_im11.bmp_pos60_id16_im2.bmp,['Im_LeonardoDiCaprio.png', 'Im_HughJackman.png', 'Im_PatrickDempsey.png', 'Im_BenStiller.png', 'Im_RyanReynolds.png', 'Im_BradPitt.png', 'Im_BenAffleck.png', 'Im_OrlandoBloom.png', 'Im_RobertDowneyJr.png', 'Im_GeorgeClooney.png'],diff,1,0.9753120999998828,32,71.42857142857143,
ROIS2212,5,inv,30,pos30_id2_im3.bmp_pos30_id18_im11.bmp,['Im_LeonardoDiCaprio.png', 'Im_HughJackman.png', 'Im_PatrickDempsey.png', 'Im_BenStiller.png', 'Im_RyanReynolds.png', 'Im_BradPitt.png', 'Im_BenAffleck.png', 'Im_OrlandoBloom.png', 'Im_RobertDowneyJr.png', 'Im_GeorgeClooney.png'],diff,1,1.7169703000001846,33,71.42857142857143,
ROIS2212,5,inv,fs,posfs_id16_im3.bmp_posfs_id16_im2.bmp,['Im_LeonardoDiCaprio.png', 'Im_HughJackman.png', 'Im_PatrickDempsey.png', 'Im_BenStiller.png', 'Im_RyanReynolds.png', 'Im_BradPitt.png', 'Im_BenAffleck.png', 'Im_OrlandoBloom.png', 'Im_RobertDowneyJr.png', 'Im_GeorgeClooney.png'],none,1,4.416619299999866,33,71.42857142857143,
ROIS2212,5,inv,90,pos90_id13_im15.bmp_pos90_id2_im2.bmp,['Im_LeonardoDiCaprio.png', 'Im_HughJackman.png', 'Im_PatrickDempsey.png', 'Im_BenStiller.png', 'Im_RyanReynolds.png', 'Im_BradPitt.png', 'Im_BenAffleck.png', 'Im_OrlandoBloom.png', 'Im_RobertDowneyJr.png', 'Im_GeorgeClooney.png'],none,1,4.4250262000000475,33,71.42857142857143,
ROIS2212,5,inv,60,pos60_id3_im6.bmp_pos60_id8_im13.bmp,['Im_LeonardoDiCaprio.png', 'Im_HughJackman.png', 'Im_PatrickDempsey.png', 'Im_BenStiller.png', 'Im_RyanReynolds.png', 'Im_BradPitt.png', 'Im_BenAffleck.png', 'Im_OrlandoBloom.png', 'Im_RobertDowneyJr.png', 'Im_GeorgeClooney.png'],diff,1,0.5341470000000754,34,71.42857142857143,
ROIS2212,5,inv,150,pos150_id13_im29.bmp_pos150_id16_im3.bmp,['Im_LeonardoDiCaprio.png', 'Im_HughJackman.png', 'Im_PatrickDempsey.png', 'Im_BenStiller.png', 'Im_RyanReynolds.png', 'Im_BradPitt.png', 'Im_BenAffleck.png', 'Im_OrlandoBloom.png', 'Im_RobertDowneyJr.png', 'Im_GeorgeClooney.png'],none,1,4.416570099999944,34,71.42857142857143,
ROIS2212,5,inv,fs,posfs_id3_im17.bmp_posfs_id1_im21.bmp,['Im_LeonardoDiCaprio.png', 'Im_HughJackman.png', 'Im_PatrickDempsey.png', 'Im_BenStiller.png', 'Im_RyanReynolds.png', 'Im_BradPitt.png', 'Im_BenAffleck.png', 'Im_OrlandoBloom.png', 'Im_RobertDowneyJr.png', 'Im_GeorgeClooney.png'],diff,1,0.9835155999999188,35,71.42857142857143,
ROIS2212,6,pos,120,pos120_id1_im21.bmp_pos120_id3_im17.bmp,['Im_LeonardoDiCaprio.png', 'Im_HughJackman.png', 'Im_PatrickDempsey.png', 'Im_BenStiller.png', 'Im_RyanReynolds.png', 'Im_BradPitt.png', 'Im_BenAffleck.png', 'Im_OrlandoBloom.png', 'Im_RobertDowneyJr.png', 'Im_GeorgeClooney.png'],diff,1,1.5165603000000374,1,83.33333333333333,
ROIS2212,6,pos,150,pos150_id13_im10.bmp_pos150_id2_im16.bmp,['Im_LeonardoDiCaprio.png', 'Im_HughJackman.png', 'Im_PatrickDempsey.png', 'Im_BenStiller.png', 'Im_RyanReynolds.png', 'Im_BradPitt.png', 'Im_BenAffleck.png', 'Im_OrlandoBloom.png', 'Im_RobertDowneyJr.png', 'Im_GeorgeClooney.png'],diff,1,1.3751200000001518,2,83.33333333333333,
ROIS2212,6,pos,90,pos90_id1_im24.bmp_pos90_id8_im20.bmp,['Im_LeonardoDiCaprio.png', 'Im_HughJackman.png', 'Im_PatrickDempsey.png', 'Im_BenStiller.png', 'Im_RyanReynolds.png', 'Im_BradPitt.png', 'Im_BenAffleck.png', 'Im_OrlandoBloom.png', 'Im_RobertDowneyJr.png', 'Im_GeorgeClooney.png'],diff,1,1.2919243999999708,3,83.33333333333333,
ROIS2212,6,pos,fs,posfs_id2_im3.bmp_posfs_id18_im11.bmp,['Im_LeonardoDiCaprio.png', 'Im_HughJackman.png', 'Im_PatrickDempsey.png', 'Im_BenStiller.png', 'Im_RyanReynolds.png', 'Im_BradPitt.png', 'Im_BenAffleck.png', 'Im_OrlandoBloom.png', 'Im_RobertDowneyJr.png', 'Im_GeorgeClooney.png'],diff,1,0.4250372999999854,4,83.33333333333333,
ROIS2212,6,pos,0,pos0_id7_im14.bmp_pos0_id13_im10.bmp,['Im_LeonardoDiCaprio.png', 'Im_HughJackman.png', 'Im_PatrickDempsey.png', 'Im_BenStiller.png', 'Im_RyanReynolds.png', 'Im_BradPitt.png', 'Im_BenAffleck.png', 'Im_OrlandoBloom.png', 'Im_RobertDowneyJr.png', 'Im_GeorgeClooney.png'],diff,1,1.3417174000001069,5,83.33333333333333,
ROIS2212,6,pos,120,pos120_id17_im8.bmp_pos120_id16_im19.bmp,['Im_LeonardoDiCaprio.png', 'Im_HughJackman.png', 'Im_PatrickDempsey.png', 'Im_BenStiller.png', 'Im_RyanReynolds.png', 'Im_BradPitt.png', 'Im_BenAffleck.png', 'Im_OrlandoBloom.png', 'Im_RobertDowneyJr.png', 'Im_GeorgeClooney.png'],diff,1,0.4166359000000739,6,83.33333333333333,
ROIS2212,6,pos,60,pos60_id2_im2.bmp_pos60_id13_im15.bmp,['Im_LeonardoDiCaprio.png', 'Im_HughJackman.png', 'Im_PatrickDempsey.png', 'Im_BenStiller.png', 'Im_RyanReynolds.png', 'Im_BradPitt.png', 'Im_BenAffleck.png', 'Im_OrlandoBloom.png', 'Im_RobertDowneyJr.png', 'Im_GeorgeClooney.png'],diff,1,0.42494639999995343,7,83.33333333333333,
ROIS2212,6,pos,30,pos30_id16_im3.bmp_pos30_id13_im29.bmp,['Im_LeonardoDiCaprio.png', 'Im_HughJackman.png', 'Im_PatrickDempsey.png', 'Im_BenStiller.png', 'Im_RyanReynolds.png', 'Im_BradPitt.png', 'Im_BenAffleck.png', 'Im_OrlandoBloom.png', 'Im_RobertDowneyJr.png', 'Im_GeorgeClooney.png'],diff,1,1.4333787999999004,8,83.33333333333333,
ROIS2212,6,pos,30,pos30_id21_im17.bmp_pos30_id21_im22.bmp,['Im_LeonardoDiCaprio.png', 'Im_HughJackman.png', 'Im_PatrickDempsey.png', 'Im_BenStiller.png', 'Im_RyanReynolds.png', 'Im_BradPitt.png', 'Im_BenAffleck.png', 'Im_OrlandoBloom.png', 'Im_RobertDowneyJr.png', 'Im_GeorgeClooney.png'],same,1,0.5501297999999224,9,83.33333333333333,
ROIS2212,6,pos,0,pos0_id8_im21.bmp_pos0_id2_im3.bmp,['Im_LeonardoDiCaprio.png', 'Im_HughJackman.png', 'Im_PatrickDempsey.png', 'Im_BenStiller.png', 'Im_RyanReynolds.png', 'Im_BradPitt.png', 'Im_BenAffleck.png', 'Im_OrlandoBloom.png', 'Im_RobertDowneyJr.png', 'Im_GeorgeClooney.png'],diff,1,0.7086300000000847,10,83.33333333333333,
ROIS2212,6,pos,fs,posfs_id1_im4.bmp_posfs_id17_im9.bmp,['Im_LeonardoDiCaprio.png', 'Im_HughJackman.png', 'Im_PatrickDempsey.png', 'Im_BenStiller.png', 'Im_RyanReynolds.png', 'Im_BradPitt.png', 'Im_BenAffleck.png', 'Im_OrlandoBloom.png', 'Im_RobertDowneyJr.png', 'Im_GeorgeClooney.png'],diff,1,1.9000437999998212,11,83.33333333333333,
ROIS2212,6,pos,90,pos90_id2_im2.bmp_pos90_id18_im19.bmp,['Im_LeonardoDiCaprio.png', 'Im_HughJackman.png', 'Im_PatrickDempsey.png', 'Im_BenStiller.png', 'Im_RyanReynolds.png', 'Im_BradPitt.png', 'Im_BenAffleck.png', 'Im_OrlandoBloom.png', 'Im_RobertDowneyJr.png', 'Im_GeorgeClooney.png'],diff,1,1.3418010000000322,12,83.33333333333333,
ROIS2212,6,pos,150,pos150_id2_im3.bmp_pos150_id2_im2.bmp,['Im_LeonardoDiCaprio.png', 'Im_HughJackman.png', 'Im_PatrickDempsey.png', 'Im_BenStiller.png', 'Im_RyanReynolds.png', 'Im_BradPitt.png', 'Im_BenAffleck.png', 'Im_OrlandoBloom.png', 'Im_RobertDowneyJr.png', 'Im_GeorgeClooney.png'],diff,0,2.091701499999999,12,83.33333333333333,
ROIS2212,6,pos,60,pos60_id2_im16.bmp_pos60_id2_im3.bmp,['Im_LeonardoDiCaprio.png', 'Im_HughJackman.png', 'Im_PatrickDempsey.png', 'Im_BenStiller.png', 'Im_RyanReynolds.png', 'Im_BradPitt.png', 'Im_BenAffleck.png', 'Im_OrlandoBloom.png', 'Im_RobertDowneyJr.png', 'Im_GeorgeClooney.png'],same,1,0.4750865999999405,13,83.33333333333333,
ROIS2212,7,pos,30,pos30_id13_im10.bmp_pos30_id13_im15.bmp,['Im_LeonardoDiCaprio.png', 'Im_HughJackman.png', 'Im_PatrickDempsey.png', 'Im_BenStiller.png', 'Im_RyanReynolds.png', 'Im_BradPitt.png', 'Im_BenAffleck.png', 'Im_OrlandoBloom.png', 'Im_RobertDowneyJr.png', 'Im_GeorgeClooney.png'],same,1,0.6500106999997115,14,83.33333333333333,
ROIS2212,7,pos,60,pos60_id7_im14.bmp_pos60_id13_im10.bmp,['Im_LeonardoDiCaprio.png', 'Im_HughJackman.png', 'Im_PatrickDempsey.png', 'Im_BenStiller.png', 'Im_RyanReynolds.png', 'Im_BradPitt.png', 'Im_BenAffleck.png', 'Im_OrlandoBloom.png', 'Im_RobertDowneyJr.png', 'Im_GeorgeClooney.png'],diff,1,0.8667084999997314,15,83.33333333333333,
ROIS2212,7,pos,90,pos90_id3_im6.bmp_pos90_id21_im22.bmp,['Im_LeonardoDiCaprio.png', 'Im_HughJackman.png', 'Im_PatrickDempsey.png', 'Im_BenStiller.png', 'Im_RyanReynolds.png', 'Im_BradPitt.png', 'Im_BenAffleck.png', 'Im_OrlandoBloom.png', 'Im_RobertDowneyJr.png', 'Im_GeorgeClooney.png'],diff,1,1.6340316000000712,16,83.33333333333333,
ROIS2212,7,pos,fs,posfs_id18_im18.bmp_posfs_id18_im19.bmp,['Im_LeonardoDiCaprio.png', 'Im_HughJackman.png', 'Im_PatrickDempsey.png', 'Im_BenStiller.png', 'Im_RyanReynolds.png', 'Im_BradPitt.png', 'Im_BenAffleck.png', 'Im_OrlandoBloom.png', 'Im_RobertDowneyJr.png', 'Im_GeorgeClooney.png'],same,1,0.7251164999997854,17,83.33333333333333,
ROIS2212,7,pos,150,pos150_id18_im18.bmp_pos150_id13_im15.bmp,['Im_LeonardoDiCaprio.png', 'Im_HughJackman.png', 'Im_PatrickDempsey.png', 'Im_BenStiller.png', 'Im_RyanReynolds.png', 'Im_BradPitt.png', 'Im_BenAffleck.png', 'Im_OrlandoBloom.png', 'Im_RobertDowneyJr.png', 'Im_GeorgeClooney.png'],diff,1,1.1416070999998738,18,83.33333333333333,
ROIS2212,7,pos,120,pos120_id13_im29.bmp_pos120_id13_im10.bmp,['Im_LeonardoDiCaprio.png', 'Im_HughJackman.png', 'Im_PatrickDempsey.png', 'Im_BenStiller.png', 'Im_RyanReynolds.png', 'Im_BradPitt.png', 'Im_BenAffleck.png', 'Im_OrlandoBloom.png', 'Im_RobertDowneyJr.png', 'Im_GeorgeClooney.png'],same,1,1.5169525999999678,19,83.33333333333333,
ROIS2212,7,pos,60,pos60_id2_im3.bmp_pos60_id8_im21.bmp,['Im_LeonardoDiCaprio.png', 'Im_HughJackman.png', 'Im_PatrickDempsey.png', 'Im_BenStiller.png', 'Im_RyanReynolds.png', 'Im_BradPitt.png', 'Im_BenAffleck.png', 'Im_OrlandoBloom.png', 'Im_RobertDowneyJr.png', 'Im_GeorgeClooney.png'],diff,1,1.0586060999999063,20,83.33333333333333,
ROIS2212,7,pos,0,pos0_id18_im19.bmp_pos0_id18_im18.bmp,['Im_LeonardoDiCaprio.png', 'Im_HughJackman.png', 'Im_PatrickDempsey.png', 'Im_BenStiller.png', 'Im_RyanReynolds.png', 'Im_BradPitt.png', 'Im_BenAffleck.png', 'Im_OrlandoBloom.png', 'Im_RobertDowneyJr.png', 'Im_GeorgeClooney.png'],same,1,0.5418475999999828,21,83.33333333333333,
ROIS2212,7,pos,0,pos0_id1_im24.bmp_pos0_id1_im21.bmp,['Im_LeonardoDiCaprio.png', 'Im_HughJackman.png', 'Im_PatrickDempsey.png', 'Im_BenStiller.png', 'Im_RyanReynolds.png', 'Im_BradPitt.png', 'Im_BenAffleck.png', 'Im_OrlandoBloom.png', 'Im_RobertDowneyJr.png', 'Im_GeorgeClooney.png'],same,1,0.4501677000002928,22,83.33333333333333,
ROIS2212,7,pos,30,pos30_id3_im8.bmp_pos30_id3_im17.bmp,['Im_LeonardoDiCaprio.png', 'Im_HughJackman.png', 'Im_PatrickDempsey.png', 'Im_BenStiller.png', 'Im_RyanReynolds.png', 'Im_BradPitt.png', 'Im_BenAffleck.png', 'Im_OrlandoBloom.png', 'Im_RobertDowneyJr.png', 'Im_GeorgeClooney.png'],same,1,0.5001352999997835,23,83.33333333333333,
ROIS2212,7,pos,fs,posfs_id7_im26.bmp_posfs_id7_im14.bmp,['Im_LeonardoDiCaprio.png', 'Im_HughJackman.png', 'Im_PatrickDempsey.png', 'Im_BenStiller.png', 'Im_RyanReynolds.png', 'Im_BradPitt.png', 'Im_BenAffleck.png', 'Im_OrlandoBloom.png', 'Im_RobertDowneyJr.png', 'Im_GeorgeClooney.png'],same,1,0.4500938999999562,24,83.33333333333333,
ROIS2212,7,pos,120,pos120_id21_im16.bmp_pos120_id21_im22.bmp,['Im_LeonardoDiCaprio.png', 'Im_HughJackman.png', 'Im_PatrickDempsey.png', 'Im_BenStiller.png', 'Im_RyanReynolds.png', 'Im_BradPitt.png', 'Im_BenAffleck.png', 'Im_OrlandoBloom.png', 'Im_RobertDowneyJr.png', 'Im_GeorgeClooney.png'],same,1,0.6083703000003879,25,83.33333333333333,
ROIS2212,7,pos,150,pos150_id16_im19.bmp_pos150_id17_im8.bmp,['Im_LeonardoDiCaprio.png', 'Im_HughJackman.png', 'Im_PatrickDempsey.png', 'Im_BenStiller.png', 'Im_RyanReynolds.png', 'Im_BradPitt.png', 'Im_BenAffleck.png', 'Im_OrlandoBloom.png', 'Im_RobertDowneyJr.png', 'Im_GeorgeClooney.png'],diff,1,1.683548200000132,26,83.33333333333333,
ROIS2212,7,pos,90,pos90_id21_im22.bmp_pos90_id21_im17.bmp,['Im_LeonardoDiCaprio.png', 'Im_HughJackman.png', 'Im_PatrickDempsey.png', 'Im_BenStiller.png', 'Im_RyanReynolds.png', 'Im_BradPitt.png', 'Im_BenAffleck.png', 'Im_OrlandoBloom.png', 'Im_RobertDowneyJr.png', 'Im_GeorgeClooney.png'],diff,0,1.3420737000001282,26,83.33333333333333,
ROIS2212,8,neg,30,neg30_id7_im26.bmp_neg30_id21_im17.bmp,['Im_LeonardoDiCaprio.png', 'Im_HughJackman.png', 'Im_PatrickDempsey.png', 'Im_BenStiller.png', 'Im_RyanReynolds.png', 'Im_BradPitt.png', 'Im_BenAffleck.png', 'Im_OrlandoBloom.png', 'Im_RobertDowneyJr.png', 'Im_GeorgeClooney.png'],diff,1,1.3833297999999559,27,83.33333333333333,
ROIS2212,8,neg,fs,negfs_id3_im8.bmp_negfs_id3_im17.bmp,['Im_LeonardoDiCaprio.png', 'Im_HughJackman.png', 'Im_PatrickDempsey.png', 'Im_BenStiller.png', 'Im_RyanReynolds.png', 'Im_BradPitt.png', 'Im_BenAffleck.png', 'Im_OrlandoBloom.png', 'Im_RobertDowneyJr.png', 'Im_GeorgeClooney.png'],same,1,1.1249450000000252,28,83.33333333333333,
ROIS2212,8,neg,150,neg150_id13_im29.bmp_neg150_id21_im22.bmp,['Im_LeonardoDiCaprio.png', 'Im_HughJackman.png', 'Im_PatrickDempsey.png', 'Im_BenStiller.png', 'Im_RyanReynolds.png', 'Im_BradPitt.png', 'Im_BenAffleck.png', 'Im_OrlandoBloom.png', 'Im_RobertDowneyJr.png', 'Im_GeorgeClooney.png'],diff,1,1.5668437999997877,29,83.33333333333333,
ROIS2212,8,neg,30,neg30_id8_im13.bmp_neg30_id8_im20.bmp,['Im_LeonardoDiCaprio.png', 'Im_HughJackman.png', 'Im_PatrickDempsey.png', 'Im_BenStiller.png', 'Im_RyanReynolds.png', 'Im_BradPitt.png', 'Im_BenAffleck.png', 'Im_OrlandoBloom.png', 'Im_RobertDowneyJr.png', 'Im_GeorgeClooney.png'],same,1,0.5332689999995637,30,83.33333333333333,
ROIS2212,8,neg,90,neg90_id16_im3.bmp_neg90_id2_im16.bmp,['Im_LeonardoDiCaprio.png', 'Im_HughJackman.png', 'Im_PatrickDempsey.png', 'Im_BenStiller.png', 'Im_RyanReynolds.png', 'Im_BradPitt.png', 'Im_BenAffleck.png', 'Im_OrlandoBloom.png', 'Im_RobertDowneyJr.png', 'Im_GeorgeClooney.png'],diff,1,0.6504302000003008,31,83.33333333333333,
ROIS2212,8,neg,60,neg60_id8_im21.bmp_neg60_id8_im13.bmp,['Im_LeonardoDiCaprio.png', 'Im_HughJackman.png', 'Im_PatrickDempsey.png', 'Im_BenStiller.png', 'Im_RyanReynolds.png', 'Im_BradPitt.png', 'Im_BenAffleck.png', 'Im_OrlandoBloom.png', 'Im_RobertDowneyJr.png', 'Im_GeorgeClooney.png'],diff,0,0.5583949000001667,31,83.33333333333333,
ROIS2212,8,neg,120,neg120_id16_im2.bmp_neg120_id18_im11.bmp,['Im_LeonardoDiCaprio.png', 'Im_HughJackman.png', 'Im_PatrickDempsey.png', 'Im_BenStiller.png', 'Im_RyanReynolds.png', 'Im_BradPitt.png', 'Im_BenAffleck.png', 'Im_OrlandoBloom.png', 'Im_RobertDowneyJr.png', 'Im_GeorgeClooney.png'],same,0,0.43349480000006224,31,83.33333333333333,
ROIS2212,8,neg,90,neg90_id13_im15.bmp_neg90_id18_im18.bmp,['Im_LeonardoDiCaprio.png', 'Im_HughJackman.png', 'Im_PatrickDempsey.png', 'Im_BenStiller.png', 'Im_RyanReynolds.png', 'Im_BradPitt.png', 'Im_BenAffleck.png', 'Im_OrlandoBloom.png', 'Im_RobertDowneyJr.png', 'Im_GeorgeClooney.png'],diff,1,0.4583607999998094,32,83.33333333333333,
ROIS2212,8,neg,fs,negfs_id3_im6.bmp_negfs_id21_im22.bmp,['Im_LeonardoDiCaprio.png', 'Im_HughJackman.png', 'Im_PatrickDempsey.png', 'Im_BenStiller.png', 'Im_RyanReynolds.png', 'Im_BradPitt.png', 'Im_BenAffleck.png', 'Im_OrlandoBloom.png', 'Im_RobertDowneyJr.png', 'Im_GeorgeClooney.png'],diff,1,1.6833993000000191,33,83.33333333333333,
ROIS2212,8,neg,0,neg0_id16_im19.bmp_neg0_id16_im2.bmp,['Im_LeonardoDiCaprio.png', 'Im_HughJackman.png', 'Im_PatrickDempsey.png', 'Im_BenStiller.png', 'Im_RyanReynolds.png', 'Im_BradPitt.png', 'Im_BenAffleck.png', 'Im_OrlandoBloom.png', 'Im_RobertDowneyJr.png', 'Im_GeorgeClooney.png'],same,1,0.8834874000003765,34,83.33333333333333,
ROIS2212,8,neg,120,neg120_id17_im8.bmp_neg120_id17_im9.bmp,['Im_LeonardoDiCaprio.png', 'Im_HughJackman.png', 'Im_PatrickDempsey.png', 'Im_BenStiller.png', 'Im_RyanReynolds.png', 'Im_BradPitt.png', 'Im_BenAffleck.png', 'Im_OrlandoBloom.png', 'Im_RobertDowneyJr.png', 'Im_GeorgeClooney.png'],same,1,0.42500380000001314,35,83.33333333333333,
ROIS2212,8,neg,60,neg60_id8_im21.bmp_neg60_id8_im20.bmp,['Im_LeonardoDiCaprio.png', 'Im_HughJackman.png', 'Im_PatrickDempsey.png', 'Im_BenStiller.png', 'Im_RyanReynolds.png', 'Im_BradPitt.png', 'Im_BenAffleck.png', 'Im_OrlandoBloom.png', 'Im_RobertDowneyJr.png', 'Im_GeorgeClooney.png'],same,1,0.7584492999999384,36,83.33333333333333,
ROIS2212,8,neg,150,neg150_id21_im22.bmp_neg150_id3_im6.bmp,['Im_LeonardoDiCaprio.png', 'Im_HughJackman.png', 'Im_PatrickDempsey.png', 'Im_BenStiller.png', 'Im_RyanReynolds.png', 'Im_BradPitt.png', 'Im_BenAffleck.png', 'Im_OrlandoBloom.png', 'Im_RobertDowneyJr.png', 'Im_GeorgeClooney.png'],diff,1,0.5000933999999688,37,83.33333333333333,
ROIS2212,8,neg,0,neg0_id17_im14.bmp_neg0_id17_im9.bmp,['Im_LeonardoDiCaprio.png', 'Im_HughJackman.png', 'Im_PatrickDempsey.png', 'Im_BenStiller.png', 'Im_RyanReynolds.png', 'Im_BradPitt.png', 'Im_BenAffleck.png', 'Im_OrlandoBloom.png', 'Im_RobertDowneyJr.png', 'Im_GeorgeClooney.png'],same,1,0.6418155000001207,38,83.33333333333333,
ROIS2212,9,inv,60,pos60_id3_im8.bmp_pos60_id3_im6.bmp,['Im_LeonardoDiCaprio.png', 'Im_HughJackman.png', 'Im_PatrickDempsey.png', 'Im_BenStiller.png', 'Im_RyanReynolds.png', 'Im_BradPitt.png', 'Im_BenAffleck.png', 'Im_OrlandoBloom.png', 'Im_RobertDowneyJr.png', 'Im_GeorgeClooney.png'],same,1,0.8586180000002059,1,90.47619047619048,
ROIS2212,9,inv,0,pos0_id16_im2.bmp_pos0_id16_im19.bmp,['Im_LeonardoDiCaprio.png', 'Im_HughJackman.png', 'Im_PatrickDempsey.png', 'Im_BenStiller.png', 'Im_RyanReynolds.png', 'Im_BradPitt.png', 'Im_BenAffleck.png', 'Im_OrlandoBloom.png', 'Im_RobertDowneyJr.png', 'Im_GeorgeClooney.png'],same,1,0.5336565000002338,2,90.47619047619048,
ROIS2212,9,inv,90,pos90_id21_im22.bmp_pos90_id21_im16.bmp,['Im_LeonardoDiCaprio.png', 'Im_HughJackman.png', 'Im_PatrickDempsey.png', 'Im_BenStiller.png', 'Im_RyanReynolds.png', 'Im_BradPitt.png', 'Im_BenAffleck.png', 'Im_OrlandoBloom.png', 'Im_RobertDowneyJr.png', 'Im_GeorgeClooney.png'],same,1,1.0665890000000218,3,90.47619047619048,
ROIS2212,9,inv,30,pos30_id8_im13.bmp_pos30_id17_im9.bmp,['Im_LeonardoDiCaprio.png', 'Im_HughJackman.png', 'Im_PatrickDempsey.png', 'Im_BenStiller.png', 'Im_RyanReynolds.png', 'Im_BradPitt.png', 'Im_BenAffleck.png', 'Im_OrlandoBloom.png', 'Im_RobertDowneyJr.png', 'Im_GeorgeClooney.png'],same,0,1.4332360000003064,3,90.47619047619048,
ROIS2212,9,inv,120,pos120_id8_im21.bmp_pos120_id8_im13.bmp,['Im_LeonardoDiCaprio.png', 'Im_HughJackman.png', 'Im_PatrickDempsey.png', 'Im_BenStiller.png', 'Im_RyanReynolds.png', 'Im_BradPitt.png', 'Im_BenAffleck.png', 'Im_OrlandoBloom.png', 'Im_RobertDowneyJr.png', 'Im_GeorgeClooney.png'],same,1,0.7417332999998507,4,90.47619047619048,
ROIS2212,9,inv,90,pos90_id2_im16.bmp_pos90_id2_im2.bmp,['Im_LeonardoDiCaprio.png', 'Im_HughJackman.png', 'Im_PatrickDempsey.png', 'Im_BenStiller.png', 'Im_RyanReynolds.png', 'Im_BradPitt.png', 'Im_BenAffleck.png', 'Im_OrlandoBloom.png', 'Im_RobertDowneyJr.png', 'Im_GeorgeClooney.png'],diff,0,0.5670184000000518,4,90.47619047619048,
ROIS2212,9,inv,30,pos30_id17_im8.bmp_pos30_id17_im14.bmp,['Im_LeonardoDiCaprio.png', 'Im_HughJackman.png', 'Im_PatrickDempsey.png', 'Im_BenStiller.png', 'Im_RyanReynolds.png', 'Im_BradPitt.png', 'Im_BenAffleck.png', 'Im_OrlandoBloom.png', 'Im_RobertDowneyJr.png', 'Im_GeorgeClooney.png'],none,0,4.408369600000242,4,90.47619047619048,
ROIS2212,9,inv,60,pos60_id21_im16.bmp_pos60_id21_im17.bmp,['Im_LeonardoDiCaprio.png', 'Im_HughJackman.png', 'Im_PatrickDempsey.png', 'Im_BenStiller.png', 'Im_RyanReynolds.png', 'Im_BradPitt.png', 'Im_BenAffleck.png', 'Im_OrlandoBloom.png', 'Im_RobertDowneyJr.png', 'Im_GeorgeClooney.png'],same,1,0.4416435000002821,5,90.47619047619048,
ROIS2212,9,inv,fs,posfs_id13_im29.bmp_posfs_id13_im15.bmp,['Im_LeonardoDiCaprio.png', 'Im_HughJackman.png', 'Im_PatrickDempsey.png', 'Im_BenStiller.png', 'Im_RyanReynolds.png', 'Im_BradPitt.png', 'Im_BenAffleck.png', 'Im_OrlandoBloom.png', 'Im_RobertDowneyJr.png', 'Im_GeorgeClooney.png'],same,1,0.43360960000018167,6,90.47619047619048,
ROIS2212,9,inv,0,pos0_id2_im3.bmp_pos0_id2_im16.bmp,['Im_LeonardoDiCaprio.png', 'Im_HughJackman.png', 'Im_PatrickDempsey.png', 'Im_BenStiller.png', 'Im_RyanReynolds.png', 'Im_BradPitt.png', 'Im_BenAffleck.png', 'Im_OrlandoBloom.png', 'Im_RobertDowneyJr.png', 'Im_GeorgeClooney.png'],same,1,0.900067399999898,7,90.47619047619048,
ROIS2212,9,inv,120,pos120_id3_im6.bmp_pos120_id21_im22.bmp,['Im_LeonardoDiCaprio.png', 'Im_HughJackman.png', 'Im_PatrickDempsey.png', 'Im_BenStiller.png', 'Im_RyanReynolds.png', 'Im_BradPitt.png', 'Im_BenAffleck.png', 'Im_OrlandoBloom.png', 'Im_RobertDowneyJr.png', 'Im_GeorgeClooney.png'],diff,1,1.1500530000002982,8,90.47619047619048,
ROIS2212,9,inv,fs,posfs_id17_im8.bmp_posfs_id17_im14.bmp,['Im_LeonardoDiCaprio.png', 'Im_HughJackman.png', 'Im_PatrickDempsey.png', 'Im_BenStiller.png', 'Im_RyanReynolds.png', 'Im_BradPitt.png', 'Im_BenAffleck.png', 'Im_OrlandoBloom.png', 'Im_RobertDowneyJr.png', 'Im_GeorgeClooney.png'],same,1,0.4169283000001087,9,90.47619047619048,
ROIS2212,9,inv,150,pos150_id1_im24.bmp_pos150_id1_im21.bmp,['Im_LeonardoDiCaprio.png', 'Im_HughJackman.png', 'Im_PatrickDempsey.png', 'Im_BenStiller.png', 'Im_RyanReynolds.png', 'Im_BradPitt.png', 'Im_BenAffleck.png', 'Im_OrlandoBloom.png', 'Im_RobertDowneyJr.png', 'Im_GeorgeClooney.png'],same,1,0.4249913999997261,10,90.47619047619048,
ROIS2212,9,inv,150,pos150_id13_im15.bmp_pos150_id2_im2.bmp,['Im_LeonardoDiCaprio.png', 'Im_HughJackman.png', 'Im_PatrickDempsey.png', 'Im_BenStiller.png', 'Im_RyanReynolds.png', 'Im_BradPitt.png', 'Im_BenAffleck.png', 'Im_OrlandoBloom.png', 'Im_RobertDowneyJr.png', 'Im_GeorgeClooney.png'],diff,1,0.5167577000001984,11,90.47619047619048,
ROIS2212,10,pos,90,pos90_id16_im2.bmp_pos90_id16_im19.bmp,['Im_LeonardoDiCaprio.png', 'Im_HughJackman.png', 'Im_PatrickDempsey.png', 'Im_BenStiller.png', 'Im_RyanReynolds.png', 'Im_BradPitt.png', 'Im_BenAffleck.png', 'Im_OrlandoBloom.png', 'Im_RobertDowneyJr.png', 'Im_GeorgeClooney.png'],same,1,0.5248599999999897,12,90.47619047619048,
ROIS2212,10,pos,120,pos120_id16_im3.bmp_pos120_id2_im16.bmp,['Im_LeonardoDiCaprio.png', 'Im_HughJackman.png', 'Im_PatrickDempsey.png', 'Im_BenStiller.png', 'Im_RyanReynolds.png', 'Im_BradPitt.png', 'Im_BenAffleck.png', 'Im_OrlandoBloom.png', 'Im_RobertDowneyJr.png', 'Im_GeorgeClooney.png'],diff,1,0.4084008999998332,13,90.47619047619048,
ROIS2212,10,pos,30,pos30_id16_im19.bmp_pos30_id17_im8.bmp,['Im_LeonardoDiCaprio.png', 'Im_HughJackman.png', 'Im_PatrickDempsey.png', 'Im_BenStiller.png', 'Im_RyanReynolds.png', 'Im_BradPitt.png', 'Im_BenAffleck.png', 'Im_OrlandoBloom.png', 'Im_RobertDowneyJr.png', 'Im_GeorgeClooney.png'],diff,1,0.7084220000001551,14,90.47619047619048,
ROIS2212,10,pos,90,pos90_id7_im15.bmp_pos90_id21_im17.bmp,['Im_LeonardoDiCaprio.png', 'Im_HughJackman.png', 'Im_PatrickDempsey.png', 'Im_BenStiller.png', 'Im_RyanReynolds.png', 'Im_BradPitt.png', 'Im_BenAffleck.png', 'Im_OrlandoBloom.png', 'Im_RobertDowneyJr.png', 'Im_GeorgeClooney.png'],diff,1,0.44169160000001284,15,90.47619047619048,
ROIS2212,10,pos,0,pos0_id17_im9.bmp_pos0_id1_im4.bmp,['Im_LeonardoDiCaprio.png', 'Im_HughJackman.png', 'Im_PatrickDempsey.png', 'Im_BenStiller.png', 'Im_RyanReynolds.png', 'Im_BradPitt.png', 'Im_BenAffleck.png', 'Im_OrlandoBloom.png', 'Im_RobertDowneyJr.png', 'Im_GeorgeClooney.png'],diff,1,0.7585971999997128,16,90.47619047619048,
ROIS2212,10,pos,fs,posfs_id17_im8.bmp_posfs_id7_im15.bmp,['Im_LeonardoDiCaprio.png', 'Im_HughJackman.png', 'Im_PatrickDempsey.png', 'Im_BenStiller.png', 'Im_RyanReynolds.png', 'Im_BradPitt.png', 'Im_BenAffleck.png', 'Im_OrlandoBloom.png', 'Im_RobertDowneyJr.png', 'Im_GeorgeClooney.png'],diff,1,0.5666109000003416,17,90.47619047619048,
ROIS2212,10,pos,30,pos30_id2_im2.bmp_pos30_id2_im16.bmp,['Im_LeonardoDiCaprio.png', 'Im_HughJackman.png', 'Im_PatrickDempsey.png', 'Im_BenStiller.png', 'Im_RyanReynolds.png', 'Im_BradPitt.png', 'Im_BenAffleck.png', 'Im_OrlandoBloom.png', 'Im_RobertDowneyJr.png', 'Im_GeorgeClooney.png'],same,1,0.4418265000003885,18,90.47619047619048,
ROIS2212,10,pos,0,pos0_id13_im10.bmp_pos0_id2_im16.bmp,['Im_LeonardoDiCaprio.png', 'Im_HughJackman.png', 'Im_PatrickDempsey.png', 'Im_BenStiller.png', 'Im_RyanReynolds.png', 'Im_BradPitt.png', 'Im_BenAffleck.png', 'Im_OrlandoBloom.png', 'Im_RobertDowneyJr.png', 'Im_GeorgeClooney.png'],diff,1,0.4082610999998906,19,90.47619047619048,
ROIS2212,10,pos,fs,posfs_id7_im26.bmp_posfs_id17_im14.bmp,['Im_LeonardoDiCaprio.png', 'Im_HughJackman.png', 'Im_PatrickDempsey.png', 'Im_BenStiller.png', 'Im_RyanReynolds.png', 'Im_BradPitt.png', 'Im_BenAffleck.png', 'Im_OrlandoBloom.png', 'Im_RobertDowneyJr.png', 'Im_GeorgeClooney.png'],diff,1,1.2083462999999028,20,90.47619047619048,
ROIS2212,10,pos,150,pos150_id16_im2.bmp_pos150_id16_im19.bmp,['Im_LeonardoDiCaprio.png', 'Im_HughJackman.png', 'Im_PatrickDempsey.png', 'Im_BenStiller.png', 'Im_RyanReynolds.png', 'Im_BradPitt.png', 'Im_BenAffleck.png', 'Im_OrlandoBloom.png', 'Im_RobertDowneyJr.png', 'Im_GeorgeClooney.png'],same,1,0.4167149999998401,21,90.47619047619048,
ROIS2212,10,pos,60,pos60_id1_im21.bmp_pos60_id3_im17.bmp,['Im_LeonardoDiCaprio.png', 'Im_HughJackman.png', 'Im_PatrickDempsey.png', 'Im_BenStiller.png', 'Im_RyanReynolds.png', 'Im_BradPitt.png', 'Im_BenAffleck.png', 'Im_OrlandoBloom.png', 'Im_RobertDowneyJr.png', 'Im_GeorgeClooney.png'],diff,1,0.4252291999996487,22,90.47619047619048,
ROIS2212,10,pos,120,pos120_id1_im21.bmp_pos120_id1_im4.bmp,['Im_LeonardoDiCaprio.png', 'Im_HughJackman.png', 'Im_PatrickDempsey.png', 'Im_BenStiller.png', 'Im_RyanReynolds.png', 'Im_BradPitt.png', 'Im_BenAffleck.png', 'Im_OrlandoBloom.png', 'Im_RobertDowneyJr.png', 'Im_GeorgeClooney.png'],same,1,0.4418187000001126,23,90.47619047619048,
ROIS2212,10,pos,150,pos150_id7_im15.bmp_pos150_id7_im26.bmp,['Im_LeonardoDiCaprio.png', 'Im_HughJackman.png', 'Im_PatrickDempsey.png', 'Im_BenStiller.png', 'Im_RyanReynolds.png', 'Im_BradPitt.png', 'Im_BenAffleck.png', 'Im_OrlandoBloom.png', 'Im_RobertDowneyJr.png', 'Im_GeorgeClooney.png'],same,1,1.3835988000000725,24,90.47619047619048,
ROIS2212,10,pos,60,pos60_id18_im11.bmp_pos60_id2_im3.bmp,['Im_LeonardoDiCaprio.png', 'Im_HughJackman.png', 'Im_PatrickDempsey.png', 'Im_BenStiller.png', 'Im_RyanReynolds.png', 'Im_BradPitt.png', 'Im_BenAffleck.png', 'Im_OrlandoBloom.png', 'Im_RobertDowneyJr.png', 'Im_GeorgeClooney.png'],diff,1,0.41685389999975087,25,90.47619047619048,
ROIS2212,11,inv,150,pos150_id2_im16.bmp_pos150_id2_im2.bmp,['Im_LeonardoDiCaprio.png', 'Im_HughJackman.png', 'Im_PatrickDempsey.png', 'Im_BenStiller.png', 'Im_RyanReynolds.png', 'Im_BradPitt.png', 'Im_BenAffleck.png', 'Im_OrlandoBloom.png', 'Im_RobertDowneyJr.png', 'Im_GeorgeClooney.png'],same,1,0.4172433999997338,26,90.47619047619048,
ROIS2212,11,inv,0,pos0_id16_im3.bmp_pos0_id2_im16.bmp,['Im_LeonardoDiCaprio.png', 'Im_HughJackman.png', 'Im_PatrickDempsey.png', 'Im_BenStiller.png', 'Im_RyanReynolds.png', 'Im_BradPitt.png', 'Im_BenAffleck.png', 'Im_OrlandoBloom.png', 'Im_RobertDowneyJr.png', 'Im_GeorgeClooney.png'],diff,1,1.7919394000000466,27,90.47619047619048,
ROIS2212,11,inv,fs,posfs_id13_im10.bmp_posfs_id7_im14.bmp,['Im_LeonardoDiCaprio.png', 'Im_HughJackman.png', 'Im_PatrickDempsey.png', 'Im_BenStiller.png', 'Im_RyanReynolds.png', 'Im_BradPitt.png', 'Im_BenAffleck.png', 'Im_OrlandoBloom.png', 'Im_RobertDowneyJr.png', 'Im_GeorgeClooney.png'],diff,1,0.7168950999998742,28,90.47619047619048,
ROIS2212,11,inv,0,pos0_id13_im15.bmp_pos0_id13_im10.bmp,['Im_LeonardoDiCaprio.png', 'Im_HughJackman.png', 'Im_PatrickDempsey.png', 'Im_BenStiller.png', 'Im_RyanReynolds.png', 'Im_BradPitt.png', 'Im_BenAffleck.png', 'Im_OrlandoBloom.png', 'Im_RobertDowneyJr.png', 'Im_GeorgeClooney.png'],same,1,1.0252676999998585,29,90.47619047619048,
ROIS2212,11,inv,90,pos90_id17_im8.bmp_pos90_id16_im19.bmp,['Im_LeonardoDiCaprio.png', 'Im_HughJackman.png', 'Im_PatrickDempsey.png', 'Im_BenStiller.png', 'Im_RyanReynolds.png', 'Im_BradPitt.png', 'Im_BenAffleck.png', 'Im_OrlandoBloom.png', 'Im_RobertDowneyJr.png', 'Im_GeorgeClooney.png'],diff,1,0.7421543000000383,30,90.47619047619048,
ROIS2212,11,inv,60,pos60_id1_im21.bmp_pos60_id1_im4.bmp,['Im_LeonardoDiCaprio.png', 'Im_HughJackman.png', 'Im_PatrickDempsey.png', 'Im_BenStiller.png', 'Im_RyanReynolds.png', 'Im_BradPitt.png', 'Im_BenAffleck.png', 'Im_OrlandoBloom.png', 'Im_RobertDowneyJr.png', 'Im_GeorgeClooney.png'],diff,0,1.0500765000001593,30,90.47619047619048,
ROIS2212,11,inv,30,pos30_id3_im17.bmp_pos30_id3_im6.bmp,['Im_LeonardoDiCaprio.png', 'Im_HughJackman.png', 'Im_PatrickDempsey.png', 'Im_BenStiller.png', 'Im_RyanReynolds.png', 'Im_BradPitt.png', 'Im_BenAffleck.png', 'Im_OrlandoBloom.png', 'Im_RobertDowneyJr.png', 'Im_GeorgeClooney.png'],same,1,0.441774599999917,31,90.47619047619048,
ROIS2212,11,inv,120,pos120_id3_im8.bmp_pos120_id18_im19.bmp,['Im_LeonardoDiCaprio.png', 'Im_HughJackman.png', 'Im_PatrickDempsey.png', 'Im_BenStiller.png', 'Im_RyanReynolds.png', 'Im_BradPitt.png', 'Im_BenAffleck.png', 'Im_OrlandoBloom.png', 'Im_RobertDowneyJr.png', 'Im_GeorgeClooney.png'],diff,1,0.49176049999960014,32,90.47619047619048,
ROIS2212,11,inv,30,pos30_id7_im14.bmp_pos30_id3_im17.bmp,['Im_LeonardoDiCaprio.png', 'Im_HughJackman.png', 'Im_PatrickDempsey.png', 'Im_BenStiller.png', 'Im_RyanReynolds.png', 'Im_BradPitt.png', 'Im_BenAffleck.png', 'Im_OrlandoBloom.png', 'Im_RobertDowneyJr.png', 'Im_GeorgeClooney.png'],diff,1,0.6167536000002656,33,90.47619047619048,
ROIS2212,11,inv,120,pos120_id7_im26.bmp_pos120_id7_im14.bmp,['Im_LeonardoDiCaprio.png', 'Im_HughJackman.png', 'Im_PatrickDempsey.png', 'Im_BenStiller.png', 'Im_RyanReynolds.png', 'Im_BradPitt.png', 'Im_BenAffleck.png', 'Im_OrlandoBloom.png', 'Im_RobertDowneyJr.png', 'Im_GeorgeClooney.png'],diff,0,1.5252732000003562,33,90.47619047619048,
ROIS2212,11,inv,90,pos90_id1_im4.bmp_pos90_id1_im21.bmp,['Im_LeonardoDiCaprio.png', 'Im_HughJackman.png', 'Im_PatrickDempsey.png', 'Im_BenStiller.png', 'Im_RyanReynolds.png', 'Im_BradPitt.png', 'Im_BenAffleck.png', 'Im_OrlandoBloom.png', 'Im_RobertDowneyJr.png', 'Im_GeorgeClooney.png'],diff,0,0.5666618999998718,33,90.47619047619048,
ROIS2212,11,inv,60,pos60_id13_im29.bmp_pos60_id13_im15.bmp,['Im_LeonardoDiCaprio.png', 'Im_HughJackman.png', 'Im_PatrickDempsey.png', 'Im_BenStiller.png', 'Im_RyanReynolds.png', 'Im_BradPitt.png', 'Im_BenAffleck.png', 'Im_OrlandoBloom.png', 'Im_RobertDowneyJr.png', 'Im_GeorgeClooney.png'],same,1,0.44173860000000786,34,90.47619047619048,
ROIS2212,11,inv,fs,posfs_id13_im15.bmp_posfs_id13_im10.bmp,['Im_LeonardoDiCaprio.png', 'Im_HughJackman.png', 'Im_PatrickDempsey.png', 'Im_BenStiller.png', 'Im_RyanReynolds.png', 'Im_BradPitt.png', 'Im_BenAffleck.png', 'Im_OrlandoBloom.png', 'Im_RobertDowneyJr.png', 'Im_GeorgeClooney.png'],same,1,0.4250195999998141,35,90.47619047619048,
ROIS2212,11,inv,150,pos150_id2_im2.bmp_pos150_id2_im3.bmp,['Im_LeonardoDiCaprio.png', 'Im_HughJackman.png', 'Im_PatrickDempsey.png', 'Im_BenStiller.png', 'Im_RyanReynolds.png', 'Im_BradPitt.png', 'Im_BenAffleck.png', 'Im_OrlandoBloom.png', 'Im_RobertDowneyJr.png', 'Im_GeorgeClooney.png'],same,1,0.4748442000000068,36,90.47619047619048,
ROIS2212,12,neg,60,neg60_id3_im8.bmp_neg60_id18_im18.bmp,['Im_LeonardoDiCaprio.png', 'Im_HughJackman.png', 'Im_PatrickDempsey.png', 'Im_BenStiller.png', 'Im_RyanReynolds.png', 'Im_BradPitt.png', 'Im_BenAffleck.png', 'Im_OrlandoBloom.png', 'Im_RobertDowneyJr.png', 'Im_GeorgeClooney.png'],same,0,1.166943899999751,0,85.71428571428571,
ROIS2212,12,neg,120,neg120_id8_im20.bmp_neg120_id8_im13.bmp,['Im_LeonardoDiCaprio.png', 'Im_HughJackman.png', 'Im_PatrickDempsey.png', 'Im_BenStiller.png', 'Im_RyanReynolds.png', 'Im_BradPitt.png', 'Im_BenAffleck.png', 'Im_OrlandoBloom.png', 'Im_RobertDowneyJr.png', 'Im_GeorgeClooney.png'],diff,0,1.6171189000001505,0,85.71428571428571,
ROIS2212,12,neg,150,neg150_id3_im8.bmp_neg150_id18_im19.bmp,['Im_LeonardoDiCaprio.png', 'Im_HughJackman.png', 'Im_PatrickDempsey.png', 'Im_BenStiller.png', 'Im_RyanReynolds.png', 'Im_BradPitt.png', 'Im_BenAffleck.png', 'Im_OrlandoBloom.png', 'Im_RobertDowneyJr.png', 'Im_GeorgeClooney.png'],diff,1,1.2082413000002816,1,85.71428571428571,
ROIS2212,12,neg,0,neg0_id21_im17.bmp_neg0_id7_im26.bmp,['Im_LeonardoDiCaprio.png', 'Im_HughJackman.png', 'Im_PatrickDempsey.png', 'Im_BenStiller.png', 'Im_RyanReynolds.png', 'Im_BradPitt.png', 'Im_BenAffleck.png', 'Im_OrlandoBloom.png', 'Im_RobertDowneyJr.png', 'Im_GeorgeClooney.png'],diff,1,1.3916088000000855,2,85.71428571428571,
ROIS2212,12,neg,fs,negfs_id17_im9.bmp_negfs_id17_im8.bmp,['Im_LeonardoDiCaprio.png', 'Im_HughJackman.png', 'Im_PatrickDempsey.png', 'Im_BenStiller.png', 'Im_RyanReynolds.png', 'Im_BradPitt.png', 'Im_BenAffleck.png', 'Im_OrlandoBloom.png', 'Im_RobertDowneyJr.png', 'Im_GeorgeClooney.png'],same,1,0.9668707999999242,3,85.71428571428571,
ROIS2212,12,neg,60,neg60_id8_im21.bmp_neg60_id1_im24.bmp,['Im_LeonardoDiCaprio.png', 'Im_HughJackman.png', 'Im_PatrickDempsey.png', 'Im_BenStiller.png', 'Im_RyanReynolds.png', 'Im_BradPitt.png', 'Im_BenAffleck.png', 'Im_OrlandoBloom.png', 'Im_RobertDowneyJr.png', 'Im_GeorgeClooney.png'],diff,1,1.4750745000001189,4,85.71428571428571,
ROIS2212,12,neg,30,neg30_id18_im18.bmp_neg30_id3_im8.bmp,['Im_LeonardoDiCaprio.png', 'Im_HughJackman.png', 'Im_PatrickDempsey.png', 'Im_BenStiller.png', 'Im_RyanReynolds.png', 'Im_BradPitt.png', 'Im_BenAffleck.png', 'Im_OrlandoBloom.png', 'Im_RobertDowneyJr.png', 'Im_GeorgeClooney.png'],diff,1,1.3501181999999972,5,85.71428571428571,
ROIS2212,12,neg,0,neg0_id3_im8.bmp_neg0_id18_im19.bmp,['Im_LeonardoDiCaprio.png', 'Im_HughJackman.png', 'Im_PatrickDempsey.png', 'Im_BenStiller.png', 'Im_RyanReynolds.png', 'Im_BradPitt.png', 'Im_BenAffleck.png', 'Im_OrlandoBloom.png', 'Im_RobertDowneyJr.png', 'Im_GeorgeClooney.png'],diff,1,2.1752016000000367,6,85.71428571428571,
ROIS2212,12,neg,90,neg90_id7_im15.bmp_neg90_id21_im17.bmp,['Im_LeonardoDiCaprio.png', 'Im_HughJackman.png', 'Im_PatrickDempsey.png', 'Im_BenStiller.png', 'Im_RyanReynolds.png', 'Im_BradPitt.png', 'Im_BenAffleck.png', 'Im_OrlandoBloom.png', 'Im_RobertDowneyJr.png', 'Im_GeorgeClooney.png'],diff,1,0.5753205999999409,7,85.71428571428571,
ROIS2212,12,neg,fs,negfs_id3_im6.bmp_negfs_id8_im13.bmp,['Im_LeonardoDiCaprio.png', 'Im_HughJackman.png', 'Im_PatrickDempsey.png', 'Im_BenStiller.png', 'Im_RyanReynolds.png', 'Im_BradPitt.png', 'Im_BenAffleck.png', 'Im_OrlandoBloom.png', 'Im_RobertDowneyJr.png', 'Im_GeorgeClooney.png'],diff,1,0.43342159999974683,8,85.71428571428571,
ROIS2212,12,neg,120,neg120_id7_im15.bmp_neg120_id21_im17.bmp,['Im_LeonardoDiCaprio.png', 'Im_HughJackman.png', 'Im_PatrickDempsey.png', 'Im_BenStiller.png', 'Im_RyanReynolds.png', 'Im_BradPitt.png', 'Im_BenAffleck.png', 'Im_OrlandoBloom.png', 'Im_RobertDowneyJr.png', 'Im_GeorgeClooney.png'],diff,1,0.5332690999998704,9,85.71428571428571,
ROIS2212,12,neg,30,neg30_id18_im11.bmp_neg30_id18_im19.bmp,['Im_LeonardoDiCaprio.png', 'Im_HughJackman.png', 'Im_PatrickDempsey.png', 'Im_BenStiller.png', 'Im_RyanReynolds.png', 'Im_BradPitt.png', 'Im_BenAffleck.png', 'Im_OrlandoBloom.png', 'Im_RobertDowneyJr.png', 'Im_GeorgeClooney.png'],diff,0,0.41662129999986064,9,85.71428571428571,
ROIS2212,12,neg,150,neg150_id1_im24.bmp_neg150_id8_im21.bmp,['Im_LeonardoDiCaprio.png', 'Im_HughJackman.png', 'Im_PatrickDempsey.png', 'Im_BenStiller.png', 'Im_RyanReynolds.png', 'Im_BradPitt.png', 'Im_BenAffleck.png', 'Im_OrlandoBloom.png', 'Im_RobertDowneyJr.png', 'Im_GeorgeClooney.png'],diff,1,0.7338616999995793,10,85.71428571428571,
ROIS2212,12,neg,90,neg90_id1_im21.bmp_neg90_id1_im24.bmp,['Im_LeonardoDiCaprio.png', 'Im_HughJackman.png', 'Im_PatrickDempsey.png', 'Im_BenStiller.png', 'Im_RyanReynolds.png', 'Im_BradPitt.png', 'Im_BenAffleck.png', 'Im_OrlandoBloom.png', 'Im_RobertDowneyJr.png', 'Im_GeorgeClooney.png'],diff,0,0.6916443999998592,10,85.71428571428571,
ROIS2212,13,inv,60,pos60_id21_im17.bmp_pos60_id7_im26.bmp,['Im_LeonardoDiCaprio.png', 'Im_HughJackman.png', 'Im_PatrickDempsey.png', 'Im_BenStiller.png', 'Im_RyanReynolds.png', 'Im_BradPitt.png', 'Im_BenAffleck.png', 'Im_OrlandoBloom.png', 'Im_RobertDowneyJr.png', 'Im_GeorgeClooney.png'],diff,1,0.650341600000047,11,85.71428571428571,
ROIS2212,13,inv,0,pos0_id13_im29.bmp_pos0_id13_im10.bmp,['Im_LeonardoDiCaprio.png', 'Im_HughJackman.png', 'Im_PatrickDempsey.png', 'Im_BenStiller.png', 'Im_RyanReynolds.png', 'Im_BradPitt.png', 'Im_BenAffleck.png', 'Im_OrlandoBloom.png', 'Im_RobertDowneyJr.png', 'Im_GeorgeClooney.png'],same,1,0.5334313999996994,12,85.71428571428571,
ROIS2212,13,inv,150,pos150_id2_im3.bmp_pos150_id2_im16.bmp,['Im_LeonardoDiCaprio.png', 'Im_HughJackman.png', 'Im_PatrickDempsey.png', 'Im_BenStiller.png', 'Im_RyanReynolds.png', 'Im_BradPitt.png', 'Im_BenAffleck.png', 'Im_OrlandoBloom.png', 'Im_RobertDowneyJr.png', 'Im_GeorgeClooney.png'],diff,0,0.6835983000000851,12,85.71428571428571,
ROIS2212,13,inv,150,pos150_id13_im10.bmp_pos150_id13_im15.bmp,['Im_LeonardoDiCaprio.png', 'Im_HughJackman.png', 'Im_PatrickDempsey.png', 'Im_BenStiller.png', 'Im_RyanReynolds.png', 'Im_BradPitt.png', 'Im_BenAffleck.png', 'Im_OrlandoBloom.png', 'Im_RobertDowneyJr.png', 'Im_GeorgeClooney.png'],same,1,0.4167197000001579,13,85.71428571428571,
ROIS2212,13,inv,fs,posfs_id21_im17.bmp_posfs_id21_im16.bmp,['Im_LeonardoDiCaprio.png', 'Im_HughJackman.png', 'Im_PatrickDempsey.png', 'Im_BenStiller.png', 'Im_RyanReynolds.png', 'Im_BradPitt.png', 'Im_BenAffleck.png', 'Im_OrlandoBloom.png', 'Im_RobertDowneyJr.png', 'Im_GeorgeClooney.png'],same,1,0.6917594000001372,14,85.71428571428571,
ROIS2212,13,inv,90,pos90_id17_im9.bmp_pos90_id17_im8.bmp,['Im_LeonardoDiCaprio.png', 'Im_HughJackman.png', 'Im_PatrickDempsey.png', 'Im_BenStiller.png', 'Im_RyanReynolds.png', 'Im_BradPitt.png', 'Im_BenAffleck.png', 'Im_OrlandoBloom.png', 'Im_RobertDowneyJr.png', 'Im_GeorgeClooney.png'],same,1,1.0668743999999606,15,85.71428571428571,
ROIS2212,13,inv,120,pos120_id17_im9.bmp_pos120_id8_im13.bmp,['Im_LeonardoDiCaprio.png', 'Im_HughJackman.png', 'Im_PatrickDempsey.png', 'Im_BenStiller.png', 'Im_RyanReynolds.png', 'Im_BradPitt.png', 'Im_BenAffleck.png', 'Im_OrlandoBloom.png', 'Im_RobertDowneyJr.png', 'Im_GeorgeClooney.png'],same,0,0.7084679999998116,15,85.71428571428571,
ROIS2212,13,inv,60,pos60_id18_im18.bmp_pos60_id13_im15.bmp,['Im_LeonardoDiCaprio.png', 'Im_HughJackman.png', 'Im_PatrickDempsey.png', 'Im_BenStiller.png', 'Im_RyanReynolds.png', 'Im_BradPitt.png', 'Im_BenAffleck.png', 'Im_OrlandoBloom.png', 'Im_RobertDowneyJr.png', 'Im_GeorgeClooney.png'],diff,1,0.5083927999999105,16,85.71428571428571,
ROIS2212,13,inv,30,pos30_id3_im6.bmp_pos30_id3_im8.bmp,['Im_LeonardoDiCaprio.png', 'Im_HughJackman.png', 'Im_PatrickDempsey.png', 'Im_BenStiller.png', 'Im_RyanReynolds.png', 'Im_BradPitt.png', 'Im_BenAffleck.png', 'Im_OrlandoBloom.png', 'Im_RobertDowneyJr.png', 'Im_GeorgeClooney.png'],same,1,0.5755702999999812,17,85.71428571428571,
ROIS2212,13,inv,fs,posfs_id16_im19.bmp_posfs_id1_im4.bmp,['Im_LeonardoDiCaprio.png', 'Im_HughJackman.png', 'Im_PatrickDempsey.png', 'Im_BenStiller.png', 'Im_RyanReynolds.png', 'Im_BradPitt.png', 'Im_BenAffleck.png', 'Im_OrlandoBloom.png', 'Im_RobertDowneyJr.png', 'Im_GeorgeClooney.png'],diff,1,1.092044800000167,18,85.71428571428571,
ROIS2212,13,inv,30,pos30_id8_im13.bmp_pos30_id8_im20.bmp,['Im_LeonardoDiCaprio.png', 'Im_HughJackman.png', 'Im_PatrickDempsey.png', 'Im_BenStiller.png', 'Im_RyanReynolds.png', 'Im_BradPitt.png', 'Im_BenAffleck.png', 'Im_OrlandoBloom.png', 'Im_RobertDowneyJr.png', 'Im_GeorgeClooney.png'],same,1,0.5417821999999433,19,85.71428571428571,
ROIS2212,13,inv,90,pos90_id7_im26.bmp_pos90_id17_im14.bmp,['Im_LeonardoDiCaprio.png', 'Im_HughJackman.png', 'Im_PatrickDempsey.png', 'Im_BenStiller.png', 'Im_RyanReynolds.png', 'Im_BradPitt.png', 'Im_BenAffleck.png', 'Im_OrlandoBloom.png', 'Im_RobertDowneyJr.png', 'Im_GeorgeClooney.png'],diff,1,1.9334828999999445,20,85.71428571428571,
ROIS2212,13,inv,120,pos120_id1_im4.bmp_pos120_id17_im9.bmp,['Im_LeonardoDiCaprio.png', 'Im_HughJackman.png', 'Im_PatrickDempsey.png', 'Im_BenStiller.png', 'Im_RyanReynolds.png', 'Im_BradPitt.png', 'Im_BenAffleck.png', 'Im_OrlandoBloom.png', 'Im_RobertDowneyJr.png', 'Im_GeorgeClooney.png'],diff,1,0.7672225000001163,21,85.71428571428571,
ROIS2212,13,inv,0,pos0_id17_im9.bmp_pos0_id8_im13.bmp,['Im_LeonardoDiCaprio.png', 'Im_HughJackman.png', 'Im_PatrickDempsey.png', 'Im_BenStiller.png', 'Im_RyanReynolds.png', 'Im_BradPitt.png', 'Im_BenAffleck.png', 'Im_OrlandoBloom.png', 'Im_RobertDowneyJr.png', 'Im_GeorgeClooney.png'],same,0,0.8253087000002779,21,85.71428571428571,
ROIS2212,14,pos,0,pos0_id17_im8.bmp_pos0_id17_im9.bmp,['Im_LeonardoDiCaprio.png', 'Im_HughJackman.png', 'Im_PatrickDempsey.png', 'Im_BenStiller.png', 'Im_RyanReynolds.png', 'Im_BradPitt.png', 'Im_BenAffleck.png', 'Im_OrlandoBloom.png', 'Im_RobertDowneyJr.png', 'Im_GeorgeClooney.png'],same,1,1.1586096000000907,22,85.71428571428571,
ROIS2212,14,pos,60,pos60_id13_im10.bmp_pos60_id2_im16.bmp,['Im_LeonardoDiCaprio.png', 'Im_HughJackman.png', 'Im_PatrickDempsey.png', 'Im_BenStiller.png', 'Im_RyanReynolds.png', 'Im_BradPitt.png', 'Im_BenAffleck.png', 'Im_OrlandoBloom.png', 'Im_RobertDowneyJr.png', 'Im_GeorgeClooney.png'],diff,1,0.7166898999998921,23,85.71428571428571,
ROIS2212,14,pos,150,pos150_id1_im21.bmp_pos150_id16_im2.bmp,['Im_LeonardoDiCaprio.png', 'Im_HughJackman.png', 'Im_PatrickDempsey.png', 'Im_BenStiller.png', 'Im_RyanReynolds.png', 'Im_BradPitt.png', 'Im_BenAffleck.png', 'Im_OrlandoBloom.png', 'Im_RobertDowneyJr.png', 'Im_GeorgeClooney.png'],diff,1,0.8834404999997787,24,85.71428571428571,
ROIS2212,14,pos,fs,posfs_id21_im17.bmp_posfs_id7_im15.bmp,['Im_LeonardoDiCaprio.png', 'Im_HughJackman.png', 'Im_PatrickDempsey.png', 'Im_BenStiller.png', 'Im_RyanReynolds.png', 'Im_BradPitt.png', 'Im_BenAffleck.png', 'Im_OrlandoBloom.png', 'Im_RobertDowneyJr.png', 'Im_GeorgeClooney.png'],diff,1,0.5167741000000206,25,85.71428571428571,
ROIS2212,14,pos,90,pos90_id1_im21.bmp_pos90_id1_im24.bmp,['Im_LeonardoDiCaprio.png', 'Im_HughJackman.png', 'Im_PatrickDempsey.png', 'Im_BenStiller.png', 'Im_RyanReynolds.png', 'Im_BradPitt.png', 'Im_BenAffleck.png', 'Im_OrlandoBloom.png', 'Im_RobertDowneyJr.png', 'Im_GeorgeClooney.png'],same,1,1.425165499999821,26,85.71428571428571,
ROIS2212,14,pos,30,pos30_id1_im24.bmp_pos30_id8_im20.bmp,['Im_LeonardoDiCaprio.png', 'Im_HughJackman.png', 'Im_PatrickDempsey.png', 'Im_BenStiller.png', 'Im_RyanReynolds.png', 'Im_BradPitt.png', 'Im_BenAffleck.png', 'Im_OrlandoBloom.png', 'Im_RobertDowneyJr.png', 'Im_GeorgeClooney.png'],diff,1,0.4751925000000483,27,85.71428571428571,
ROIS2212,14,pos,0,pos0_id3_im17.bmp_pos0_id3_im8.bmp,['Im_LeonardoDiCaprio.png', 'Im_HughJackman.png', 'Im_PatrickDempsey.png', 'Im_BenStiller.png', 'Im_RyanReynolds.png', 'Im_BradPitt.png', 'Im_BenAffleck.png', 'Im_OrlandoBloom.png', 'Im_RobertDowneyJr.png', 'Im_GeorgeClooney.png'],same,1,1.2837465999996311,28,85.71428571428571,
ROIS2212,14,pos,90,pos90_id2_im2.bmp_pos90_id13_im15.bmp,['Im_LeonardoDiCaprio.png', 'Im_HughJackman.png', 'Im_PatrickDempsey.png', 'Im_BenStiller.png', 'Im_RyanReynolds.png', 'Im_BradPitt.png', 'Im_BenAffleck.png', 'Im_OrlandoBloom.png', 'Im_RobertDowneyJr.png', 'Im_GeorgeClooney.png'],diff,1,1.2667395999997098,29,85.71428571428571,
ROIS2212,14,pos,fs,posfs_id8_im21.bmp_posfs_id2_im3.bmp,['Im_LeonardoDiCaprio.png', 'Im_HughJackman.png', 'Im_PatrickDempsey.png', 'Im_BenStiller.png', 'Im_RyanReynolds.png', 'Im_BradPitt.png', 'Im_BenAffleck.png', 'Im_OrlandoBloom.png', 'Im_RobertDowneyJr.png', 'Im_GeorgeClooney.png'],diff,1,0.8503216999997676,30,85.71428571428571,
ROIS2212,14,pos,150,pos150_id18_im18.bmp_pos150_id18_im11.bmp,['Im_LeonardoDiCaprio.png', 'Im_HughJackman.png', 'Im_PatrickDempsey.png', 'Im_BenStiller.png', 'Im_RyanReynolds.png', 'Im_BradPitt.png', 'Im_BenAffleck.png', 'Im_OrlandoBloom.png', 'Im_RobertDowneyJr.png', 'Im_GeorgeClooney.png'],same,1,0.8085253000003831,31,85.71428571428571,
ROIS2212,14,pos,120,pos120_id17_im14.bmp_pos120_id17_im9.bmp,['Im_LeonardoDiCaprio.png', 'Im_HughJackman.png', 'Im_PatrickDempsey.png', 'Im_BenStiller.png', 'Im_RyanReynolds.png', 'Im_BradPitt.png', 'Im_BenAffleck.png', 'Im_OrlandoBloom.png', 'Im_RobertDowneyJr.png', 'Im_GeorgeClooney.png'],same,1,0.5832815999997365,32,85.71428571428571,
ROIS2212,14,pos,60,pos60_id21_im16.bmp_pos60_id21_im17.bmp,['Im_LeonardoDiCaprio.png', 'Im_HughJackman.png', 'Im_PatrickDempsey.png', 'Im_BenStiller.png', 'Im_RyanReynolds.png', 'Im_BradPitt.png', 'Im_BenAffleck.png', 'Im_OrlandoBloom.png', 'Im_RobertDowneyJr.png', 'Im_GeorgeClooney.png'],same,1,0.6917877000000772,33,85.71428571428571,
ROIS2212,14,pos,30,pos30_id3_im6.bmp_pos30_id3_im17.bmp,['Im_LeonardoDiCaprio.png', 'Im_HughJackman.png', 'Im_PatrickDempsey.png', 'Im_BenStiller.png', 'Im_RyanReynolds.png', 'Im_BradPitt.png', 'Im_BenAffleck.png', 'Im_OrlandoBloom.png', 'Im_RobertDowneyJr.png', 'Im_GeorgeClooney.png'],same,1,0.6334242000002632,34,85.71428571428571,
ROIS2212,14,pos,120,pos120_id16_im2.bmp_pos120_id18_im11.bmp,['Im_LeonardoDiCaprio.png', 'Im_HughJackman.png', 'Im_PatrickDempsey.png', 'Im_BenStiller.png', 'Im_RyanReynolds.png', 'Im_BradPitt.png', 'Im_BenAffleck.png', 'Im_OrlandoBloom.png', 'Im_RobertDowneyJr.png', 'Im_GeorgeClooney.png'],same,0,0.9582929000002878,34,85.71428571428571,
ROIS2212,15,neg,120,neg120_id17_im8.bmp_neg120_id17_im14.bmp,['Im_LeonardoDiCaprio.png', 'Im_HughJackman.png', 'Im_PatrickDempsey.png', 'Im_BenStiller.png', 'Im_RyanReynolds.png', 'Im_BradPitt.png', 'Im_BenAffleck.png', 'Im_OrlandoBloom.png', 'Im_RobertDowneyJr.png', 'Im_GeorgeClooney.png'],diff,0,1.3500798000000032,0,80.95238095238095,
ROIS2212,15,neg,60,neg60_id16_im2.bmp_neg60_id1_im21.bmp,['Im_LeonardoDiCaprio.png', 'Im_HughJackman.png', 'Im_PatrickDempsey.png', 'Im_BenStiller.png', 'Im_RyanReynolds.png', 'Im_BradPitt.png', 'Im_BenAffleck.png', 'Im_OrlandoBloom.png', 'Im_RobertDowneyJr.png', 'Im_GeorgeClooney.png'],diff,1,0.599913000000015,1,80.95238095238095,
ROIS2212,15,neg,60,neg60_id8_im13.bmp_neg60_id17_im9.bmp,['Im_LeonardoDiCaprio.png', 'Im_HughJackman.png', 'Im_PatrickDempsey.png', 'Im_BenStiller.png', 'Im_RyanReynolds.png', 'Im_BradPitt.png', 'Im_BenAffleck.png', 'Im_OrlandoBloom.png', 'Im_RobertDowneyJr.png', 'Im_GeorgeClooney.png'],same,0,0.5419653999997536,1,80.95238095238095,
ROIS2212,15,neg,30,neg30_id3_im6.bmp_neg30_id3_im17.bmp,['Im_LeonardoDiCaprio.png', 'Im_HughJackman.png', 'Im_PatrickDempsey.png', 'Im_BenStiller.png', 'Im_RyanReynolds.png', 'Im_BradPitt.png', 'Im_BenAffleck.png', 'Im_OrlandoBloom.png', 'Im_RobertDowneyJr.png', 'Im_GeorgeClooney.png'],same,1,0.574875300000258,2,80.95238095238095,
ROIS2212,15,neg,150,neg150_id16_im3.bmp_neg150_id13_im29.bmp,['Im_LeonardoDiCaprio.png', 'Im_HughJackman.png', 'Im_PatrickDempsey.png', 'Im_BenStiller.png', 'Im_RyanReynolds.png', 'Im_BradPitt.png', 'Im_BenAffleck.png', 'Im_OrlandoBloom.png', 'Im_RobertDowneyJr.png', 'Im_GeorgeClooney.png'],same,0,1.5667915999997604,2,80.95238095238095,
