Sujet,Trial,Condition,Filter,Imname,Actor0,Actor1,Actor2,Actor3,Actor4,Actor5,Actor6,Actor7,Actor8,Actor9,Answer,Accu,RT,Score,Scoreperc, 
SAAY1407,train,inv,90,pos90_id13_im15.bmp_pos90_id18_im18.bmp,['Im_BradPitt.png', 'Im_RyanReynolds.png', 'Im_LeonardoDiCaprio.png', 'Im_RobertPattinson.png', 'Im_BenStiller.png', 'Im_PatrickDempsey.png', 'Im_ElijahWood.png', 'Im_RobertDowneyJr.png', 'Im_GeorgeClooney.png', 'Im_MattDamon.png'],same,0,2.550188100000014,0,0,
SAAY1407,train,inv,0,pos0_id14_im16.bmp_pos0_id19_im8.bmp,['Im_BradPitt.png', 'Im_RyanReynolds.png', 'Im_LeonardoDiCaprio.png', 'Im_RobertPattinson.png', 'Im_BenStiller.png', 'Im_PatrickDempsey.png', 'Im_ElijahWood.png', 'Im_RobertDowneyJr.png', 'Im_GeorgeClooney.png', 'Im_MattDamon.png'],same,0,0.575053300000036,0,0,
SAAY1407,train,inv,120,pos120_id3_im6.bmp_pos120_id21_im22.bmp,['Im_BradPitt.png', 'Im_RyanReynolds.png', 'Im_LeonardoDiCaprio.png', 'Im_RobertPattinson.png', 'Im_BenStiller.png', 'Im_PatrickDempsey.png', 'Im_ElijahWood.png', 'Im_RobertDowneyJr.png', 'Im_GeorgeClooney.png', 'Im_MattDamon.png'],diff,1,0.41666739999982383,1,0,
SAAY1407,train,inv,30,pos30_id13_im15.bmp_pos30_id13_im10.bmp,['Im_BradPitt.png', 'Im_RyanReynolds.png', 'Im_LeonardoDiCaprio.png', 'Im_RobertPattinson.png', 'Im_BenStiller.png', 'Im_PatrickDempsey.png', 'Im_ElijahWood.png', 'Im_RobertDowneyJr.png', 'Im_GeorgeClooney.png', 'Im_MattDamon.png'],same,1,0.4250645000001896,2,0,
SAAY1407,train,inv,60,pos60_id21_im22.bmp_pos60_id21_im17.bmp,['Im_BradPitt.png', 'Im_RyanReynolds.png', 'Im_LeonardoDiCaprio.png', 'Im_RobertPattinson.png', 'Im_BenStiller.png', 'Im_PatrickDempsey.png', 'Im_ElijahWood.png', 'Im_RobertDowneyJr.png', 'Im_GeorgeClooney.png', 'Im_MattDamon.png'],same,1,0.43338149999999587,3,0,
SAAY1407,train,inv,90,pos90_id2_im3.bmp_pos90_id7_im26.bmp,['Im_BradPitt.png', 'Im_RyanReynolds.png', 'Im_LeonardoDiCaprio.png', 'Im_RobertPattinson.png', 'Im_BenStiller.png', 'Im_PatrickDempsey.png', 'Im_ElijahWood.png', 'Im_RobertDowneyJr.png', 'Im_GeorgeClooney.png', 'Im_MattDamon.png'],same,0,0.5666975999993156,3,0,
SAAY1407,train,inv,fs,posfs_id18_im19.bmp_posfs_id18_im18.bmp,['Im_BradPitt.png', 'Im_RyanReynolds.png', 'Im_LeonardoDiCaprio.png', 'Im_RobertPattinson.png', 'Im_BenStiller.png', 'Im_PatrickDempsey.png', 'Im_ElijahWood.png', 'Im_RobertDowneyJr.png', 'Im_GeorgeClooney.png', 'Im_MattDamon.png'],same,1,0.4166840999996566,4,0,
SAAY1407,train,inv,30,pos30_id21_im22.bmp_pos30_id21_im16.bmp,['Im_BradPitt.png', 'Im_RyanReynolds.png', 'Im_LeonardoDiCaprio.png', 'Im_RobertPattinson.png', 'Im_BenStiller.png', 'Im_PatrickDempsey.png', 'Im_ElijahWood.png', 'Im_RobertDowneyJr.png', 'Im_GeorgeClooney.png', 'Im_MattDamon.png'],same,1,0.42494859999987966,5,0,
SAAY1407,train,inv,0,pos0_id6_im19.bmp_pos0_id17_im14.bmp,['Im_BradPitt.png', 'Im_RyanReynolds.png', 'Im_LeonardoDiCaprio.png', 'Im_RobertPattinson.png', 'Im_BenStiller.png', 'Im_PatrickDempsey.png', 'Im_ElijahWood.png', 'Im_RobertDowneyJr.png', 'Im_GeorgeClooney.png', 'Im_MattDamon.png'],diff,1,0.41669029999957274,6,0,
SAAY1407,train,inv,120,pos120_id21_im17.bmp_pos120_id21_im22.bmp,['Im_BradPitt.png', 'Im_RyanReynolds.png', 'Im_LeonardoDiCaprio.png', 'Im_RobertPattinson.png', 'Im_BenStiller.png', 'Im_PatrickDempsey.png', 'Im_ElijahWood.png', 'Im_RobertDowneyJr.png', 'Im_GeorgeClooney.png', 'Im_MattDamon.png'],same,1,0.4169068999999581,7,0,
SAAY1407,train,inv,150,pos150_id19_im4.bmp_pos150_id19_im8.bmp,['Im_BradPitt.png', 'Im_RyanReynolds.png', 'Im_LeonardoDiCaprio.png', 'Im_RobertPattinson.png', 'Im_BenStiller.png', 'Im_PatrickDempsey.png', 'Im_ElijahWood.png', 'Im_RobertDowneyJr.png', 'Im_GeorgeClooney.png', 'Im_MattDamon.png'],diff,0,0.4247838999999658,7,0,
SAAY1407,train,inv,fs,posfs_id17_im9.bmp_posfs_id17_im8.bmp,['Im_BradPitt.png', 'Im_RyanReynolds.png', 'Im_LeonardoDiCaprio.png', 'Im_RobertPattinson.png', 'Im_BenStiller.png', 'Im_PatrickDempsey.png', 'Im_ElijahWood.png', 'Im_RobertDowneyJr.png', 'Im_GeorgeClooney.png', 'Im_MattDamon.png'],same,1,0.40833029999976134,8,0,
SAAY1407,train,inv,60,pos60_id21_im22.bmp_pos60_id13_im29.bmp,['Im_BradPitt.png', 'Im_RyanReynolds.png', 'Im_LeonardoDiCaprio.png', 'Im_RobertPattinson.png', 'Im_BenStiller.png', 'Im_PatrickDempsey.png', 'Im_ElijahWood.png', 'Im_RobertDowneyJr.png', 'Im_GeorgeClooney.png', 'Im_MattDamon.png'],diff,1,0.42494579999947746,9,0,
SAAY1407,train,inv,150,pos150_id3_im17.bmp_pos150_id3_im8.bmp,['Im_BradPitt.png', 'Im_RyanReynolds.png', 'Im_LeonardoDiCaprio.png', 'Im_RobertPattinson.png', 'Im_BenStiller.png', 'Im_PatrickDempsey.png', 'Im_ElijahWood.png', 'Im_RobertDowneyJr.png', 'Im_GeorgeClooney.png', 'Im_MattDamon.png'],same,1,0.7165013000003455,10,0,
SAAY1407,train,inv,60,pos60_id17_im14.bmp_pos60_id21_im16.bmp,['Im_BradPitt.png', 'Im_RyanReynolds.png', 'Im_LeonardoDiCaprio.png', 'Im_RobertPattinson.png', 'Im_BenStiller.png', 'Im_PatrickDempsey.png', 'Im_ElijahWood.png', 'Im_RobertDowneyJr.png', 'Im_GeorgeClooney.png', 'Im_MattDamon.png'],diff,1,0.5749034999998912,11,0,
SAAY1407,train,inv,30,pos30_id18_im19.bmp_pos30_id18_im11.bmp,['Im_BradPitt.png', 'Im_RyanReynolds.png', 'Im_LeonardoDiCaprio.png', 'Im_RobertPattinson.png', 'Im_BenStiller.png', 'Im_PatrickDempsey.png', 'Im_ElijahWood.png', 'Im_RobertDowneyJr.png', 'Im_GeorgeClooney.png', 'Im_MattDamon.png'],diff,0,0.42505029999938415,11,0,
SAAY1407,train,inv,120,pos120_id13_im10.bmp_pos120_id13_im29.bmp,['Im_BradPitt.png', 'Im_RyanReynolds.png', 'Im_LeonardoDiCaprio.png', 'Im_RobertPattinson.png', 'Im_BenStiller.png', 'Im_PatrickDempsey.png', 'Im_ElijahWood.png', 'Im_RobertDowneyJr.png', 'Im_GeorgeClooney.png', 'Im_MattDamon.png'],same,1,0.40825560000030237,12,0,
SAAY1407,train,inv,120,pos120_id2_im16.bmp_pos120_id2_im2.bmp,['Im_BradPitt.png', 'Im_RyanReynolds.png', 'Im_LeonardoDiCaprio.png', 'Im_RobertPattinson.png', 'Im_BenStiller.png', 'Im_PatrickDempsey.png', 'Im_ElijahWood.png', 'Im_RobertDowneyJr.png', 'Im_GeorgeClooney.png', 'Im_MattDamon.png'],same,1,0.41671060000044235,13,0,
SAAY1407,train,inv,90,pos90_id13_im29.bmp_pos90_id21_im22.bmp,['Im_BradPitt.png', 'Im_RyanReynolds.png', 'Im_LeonardoDiCaprio.png', 'Im_RobertPattinson.png', 'Im_BenStiller.png', 'Im_PatrickDempsey.png', 'Im_ElijahWood.png', 'Im_RobertDowneyJr.png', 'Im_GeorgeClooney.png', 'Im_MattDamon.png'],diff,1,0.6583020999996734,14,0,
SAAY1407,train,inv,0,pos0_id6_im18.bmp_pos0_id6_im19.bmp,['Im_BradPitt.png', 'Im_RyanReynolds.png', 'Im_LeonardoDiCaprio.png', 'Im_RobertPattinson.png', 'Im_BenStiller.png', 'Im_PatrickDempsey.png', 'Im_ElijahWood.png', 'Im_RobertDowneyJr.png', 'Im_GeorgeClooney.png', 'Im_MattDamon.png'],same,1,0.4248434000000998,15,0,
SAAY1407,train,inv,fs,posfs_id3_im6.bmp_posfs_id3_im17.bmp,['Im_BradPitt.png', 'Im_RyanReynolds.png', 'Im_LeonardoDiCaprio.png', 'Im_RobertPattinson.png', 'Im_BenStiller.png', 'Im_PatrickDempsey.png', 'Im_ElijahWood.png', 'Im_RobertDowneyJr.png', 'Im_GeorgeClooney.png', 'Im_MattDamon.png'],same,1,0.4251092999993489,16,0,
SAAY1407,train,inv,90,pos90_id17_im8.bmp_pos90_id17_im9.bmp,['Im_BradPitt.png', 'Im_RyanReynolds.png', 'Im_LeonardoDiCaprio.png', 'Im_RobertPattinson.png', 'Im_BenStiller.png', 'Im_PatrickDempsey.png', 'Im_ElijahWood.png', 'Im_RobertDowneyJr.png', 'Im_GeorgeClooney.png', 'Im_MattDamon.png'],same,1,0.4084085000004052,17,0,
SAAY1407,train,inv,150,pos150_id18_im19.bmp_pos150_id2_im2.bmp,['Im_BradPitt.png', 'Im_RyanReynolds.png', 'Im_LeonardoDiCaprio.png', 'Im_RobertPattinson.png', 'Im_BenStiller.png', 'Im_PatrickDempsey.png', 'Im_ElijahWood.png', 'Im_RobertDowneyJr.png', 'Im_GeorgeClooney.png', 'Im_MattDamon.png'],diff,1,0.4168784000003143,18,0,
SAAY1407,train,inv,60,pos60_id3_im6.bmp_pos60_id3_im17.bmp,['Im_BradPitt.png', 'Im_RyanReynolds.png', 'Im_LeonardoDiCaprio.png', 'Im_RobertPattinson.png', 'Im_BenStiller.png', 'Im_PatrickDempsey.png', 'Im_ElijahWood.png', 'Im_RobertDowneyJr.png', 'Im_GeorgeClooney.png', 'Im_MattDamon.png'],same,1,0.4167208999997456,19,0,
SAAY1407,train,inv,150,pos150_id2_im16.bmp_pos150_id14_im24.bmp,['Im_BradPitt.png', 'Im_RyanReynolds.png', 'Im_LeonardoDiCaprio.png', 'Im_RobertPattinson.png', 'Im_BenStiller.png', 'Im_PatrickDempsey.png', 'Im_ElijahWood.png', 'Im_RobertDowneyJr.png', 'Im_GeorgeClooney.png', 'Im_MattDamon.png'],diff,1,0.4331694000002244,20,0,
SAAY1407,train,inv,fs,posfs_id21_im16.bmp_posfs_id7_im15.bmp,['Im_BradPitt.png', 'Im_RyanReynolds.png', 'Im_LeonardoDiCaprio.png', 'Im_RobertPattinson.png', 'Im_BenStiller.png', 'Im_PatrickDempsey.png', 'Im_ElijahWood.png', 'Im_RobertDowneyJr.png', 'Im_GeorgeClooney.png', 'Im_MattDamon.png'],diff,1,0.41692109999985405,21,0,
SAAY1407,train,inv,30,pos30_id19_im27.bmp_pos30_id19_im8.bmp,['Im_BradPitt.png', 'Im_RyanReynolds.png', 'Im_LeonardoDiCaprio.png', 'Im_RobertPattinson.png', 'Im_BenStiller.png', 'Im_PatrickDempsey.png', 'Im_ElijahWood.png', 'Im_RobertDowneyJr.png', 'Im_GeorgeClooney.png', 'Im_MattDamon.png'],same,1,0.4251860000003944,22,0,
SAAY1407,train,inv,0,pos0_id18_im19.bmp_pos0_id2_im2.bmp,['Im_BradPitt.png', 'Im_RyanReynolds.png', 'Im_LeonardoDiCaprio.png', 'Im_RobertPattinson.png', 'Im_BenStiller.png', 'Im_PatrickDempsey.png', 'Im_ElijahWood.png', 'Im_RobertDowneyJr.png', 'Im_GeorgeClooney.png', 'Im_MattDamon.png'],same,0,1.0500057999997807,22,0,
SAAY1407,train,pos,90,pos90_id3_im6.bmp_pos90_id3_im17.bmp,['Im_BradPitt.png', 'Im_RyanReynolds.png', 'Im_LeonardoDiCaprio.png', 'Im_RobertPattinson.png', 'Im_BenStiller.png', 'Im_PatrickDempsey.png', 'Im_ElijahWood.png', 'Im_RobertDowneyJr.png', 'Im_GeorgeClooney.png', 'Im_MattDamon.png'],same,1,0.4251291999999012,23,0,
SAAY1407,train,pos,120,pos120_id2_im2.bmp_pos120_id2_im3.bmp,['Im_BradPitt.png', 'Im_RyanReynolds.png', 'Im_LeonardoDiCaprio.png', 'Im_RobertPattinson.png', 'Im_BenStiller.png', 'Im_PatrickDempsey.png', 'Im_ElijahWood.png', 'Im_RobertDowneyJr.png', 'Im_GeorgeClooney.png', 'Im_MattDamon.png'],same,1,0.41676040000038483,24,0,
SAAY1407,train,pos,60,pos60_id7_im14.bmp_pos60_id3_im6.bmp,['Im_BradPitt.png', 'Im_RyanReynolds.png', 'Im_LeonardoDiCaprio.png', 'Im_RobertPattinson.png', 'Im_BenStiller.png', 'Im_PatrickDempsey.png', 'Im_ElijahWood.png', 'Im_RobertDowneyJr.png', 'Im_GeorgeClooney.png', 'Im_MattDamon.png'],diff,1,0.4251100999999835,25,0,
SAAY1407,train,pos,fs,posfs_id21_im22.bmp_posfs_id3_im6.bmp,['Im_BradPitt.png', 'Im_RyanReynolds.png', 'Im_LeonardoDiCaprio.png', 'Im_RobertPattinson.png', 'Im_BenStiller.png', 'Im_PatrickDempsey.png', 'Im_ElijahWood.png', 'Im_RobertDowneyJr.png', 'Im_GeorgeClooney.png', 'Im_MattDamon.png'],diff,1,0.6499465000006239,26,0,
SAAY1407,train,pos,30,pos30_id21_im17.bmp_pos30_id6_im18.bmp,['Im_BradPitt.png', 'Im_RyanReynolds.png', 'Im_LeonardoDiCaprio.png', 'Im_RobertPattinson.png', 'Im_BenStiller.png', 'Im_PatrickDempsey.png', 'Im_ElijahWood.png', 'Im_RobertDowneyJr.png', 'Im_GeorgeClooney.png', 'Im_MattDamon.png'],same,0,0.4331821999994645,26,0,
SAAY1407,train,pos,fs,posfs_id14_im16.bmp_posfs_id14_im18.bmp,['Im_BradPitt.png', 'Im_RyanReynolds.png', 'Im_LeonardoDiCaprio.png', 'Im_RobertPattinson.png', 'Im_BenStiller.png', 'Im_PatrickDempsey.png', 'Im_ElijahWood.png', 'Im_RobertDowneyJr.png', 'Im_GeorgeClooney.png', 'Im_MattDamon.png'],same,1,0.42492529999981343,27,0,
SAAY1407,train,pos,0,pos0_id17_im9.bmp_pos0_id17_im14.bmp,['Im_BradPitt.png', 'Im_RyanReynolds.png', 'Im_LeonardoDiCaprio.png', 'Im_RobertPattinson.png', 'Im_BenStiller.png', 'Im_PatrickDempsey.png', 'Im_ElijahWood.png', 'Im_RobertDowneyJr.png', 'Im_GeorgeClooney.png', 'Im_MattDamon.png'],same,1,0.41674909999983356,28,0,
SAAY1407,train,pos,150,pos150_id17_im9.bmp_pos150_id17_im14.bmp,['Im_BradPitt.png', 'Im_RyanReynolds.png', 'Im_LeonardoDiCaprio.png', 'Im_RobertPattinson.png', 'Im_BenStiller.png', 'Im_PatrickDempsey.png', 'Im_ElijahWood.png', 'Im_RobertDowneyJr.png', 'Im_GeorgeClooney.png', 'Im_MattDamon.png'],same,1,0.4166840999996566,29,0,
SAAY1407,train,pos,120,pos120_id14_im16.bmp_pos120_id14_im18.bmp,['Im_BradPitt.png', 'Im_RyanReynolds.png', 'Im_LeonardoDiCaprio.png', 'Im_RobertPattinson.png', 'Im_BenStiller.png', 'Im_PatrickDempsey.png', 'Im_ElijahWood.png', 'Im_RobertDowneyJr.png', 'Im_GeorgeClooney.png', 'Im_MattDamon.png'],same,1,1.49182060000021,30,0,
SAAY1407,train,pos,60,pos60_id19_im27.bmp_pos60_id19_im8.bmp,['Im_BradPitt.png', 'Im_RyanReynolds.png', 'Im_LeonardoDiCaprio.png', 'Im_RobertPattinson.png', 'Im_BenStiller.png', 'Im_PatrickDempsey.png', 'Im_ElijahWood.png', 'Im_RobertDowneyJr.png', 'Im_GeorgeClooney.png', 'Im_MattDamon.png'],same,1,0.4249755999999252,31,0,
SAAY1407,train,pos,0,pos0_id3_im6.bmp_pos0_id3_im8.bmp,['Im_BradPitt.png', 'Im_RyanReynolds.png', 'Im_LeonardoDiCaprio.png', 'Im_RobertPattinson.png', 'Im_BenStiller.png', 'Im_PatrickDempsey.png', 'Im_ElijahWood.png', 'Im_RobertDowneyJr.png', 'Im_GeorgeClooney.png', 'Im_MattDamon.png'],same,1,0.4251268000007258,32,0,
SAAY1407,train,pos,90,pos90_id18_im11.bmp_pos90_id18_im19.bmp,['Im_BradPitt.png', 'Im_RyanReynolds.png', 'Im_LeonardoDiCaprio.png', 'Im_RobertPattinson.png', 'Im_BenStiller.png', 'Im_PatrickDempsey.png', 'Im_ElijahWood.png', 'Im_RobertDowneyJr.png', 'Im_GeorgeClooney.png', 'Im_MattDamon.png'],same,1,2.141682899999978,33,0,
SAAY1407,train,pos,30,pos30_id3_im8.bmp_pos30_id3_im17.bmp,['Im_BradPitt.png', 'Im_RyanReynolds.png', 'Im_LeonardoDiCaprio.png', 'Im_RobertPattinson.png', 'Im_BenStiller.png', 'Im_PatrickDempsey.png', 'Im_ElijahWood.png', 'Im_RobertDowneyJr.png', 'Im_GeorgeClooney.png', 'Im_MattDamon.png'],same,1,0.4334226999999373,34,0,
SAAY1407,train,pos,150,pos150_id14_im24.bmp_pos150_id14_im16.bmp,['Im_BradPitt.png', 'Im_RyanReynolds.png', 'Im_LeonardoDiCaprio.png', 'Im_RobertPattinson.png', 'Im_BenStiller.png', 'Im_PatrickDempsey.png', 'Im_ElijahWood.png', 'Im_RobertDowneyJr.png', 'Im_GeorgeClooney.png', 'Im_MattDamon.png'],same,1,0.4081808999999339,35,0,
SAAY1407,train,neg,150,neg150_id7_im15.bmp_neg150_id7_im26.bmp,['Im_BradPitt.png', 'Im_RyanReynolds.png', 'Im_LeonardoDiCaprio.png', 'Im_RobertPattinson.png', 'Im_BenStiller.png', 'Im_PatrickDempsey.png', 'Im_ElijahWood.png', 'Im_RobertDowneyJr.png', 'Im_GeorgeClooney.png', 'Im_MattDamon.png'],same,1,0.40847020000001066,1,83.33333333333333,
SAAY1407,train,neg,120,neg120_id2_im2.bmp_neg120_id2_im16.bmp,['Im_BradPitt.png', 'Im_RyanReynolds.png', 'Im_LeonardoDiCaprio.png', 'Im_RobertPattinson.png', 'Im_BenStiller.png', 'Im_PatrickDempsey.png', 'Im_ElijahWood.png', 'Im_RobertDowneyJr.png', 'Im_GeorgeClooney.png', 'Im_MattDamon.png'],same,1,0.4083835999999792,2,83.33333333333333,
SAAY1407,train,neg,0,neg0_id17_im8.bmp_neg0_id17_im9.bmp,['Im_BradPitt.png', 'Im_RyanReynolds.png', 'Im_LeonardoDiCaprio.png', 'Im_RobertPattinson.png', 'Im_BenStiller.png', 'Im_PatrickDempsey.png', 'Im_ElijahWood.png', 'Im_RobertDowneyJr.png', 'Im_GeorgeClooney.png', 'Im_MattDamon.png'],diff,0,0.7919182000005094,2,83.33333333333333,
SAAY1407,train,neg,fs,negfs_id21_im16.bmp_negfs_id7_im15.bmp,['Im_BradPitt.png', 'Im_RyanReynolds.png', 'Im_LeonardoDiCaprio.png', 'Im_RobertPattinson.png', 'Im_BenStiller.png', 'Im_PatrickDempsey.png', 'Im_ElijahWood.png', 'Im_RobertDowneyJr.png', 'Im_GeorgeClooney.png', 'Im_MattDamon.png'],diff,1,0.4416659999997137,3,83.33333333333333,
SAAY1407,train,neg,0,neg0_id3_im6.bmp_neg0_id3_im8.bmp,['Im_BradPitt.png', 'Im_RyanReynolds.png', 'Im_LeonardoDiCaprio.png', 'Im_RobertPattinson.png', 'Im_BenStiller.png', 'Im_PatrickDempsey.png', 'Im_ElijahWood.png', 'Im_RobertDowneyJr.png', 'Im_GeorgeClooney.png', 'Im_MattDamon.png'],same,1,0.6334400000005189,4,83.33333333333333,
SAAY1407,train,neg,30,neg30_id21_im22.bmp_neg30_id21_im16.bmp,['Im_BradPitt.png', 'Im_RyanReynolds.png', 'Im_LeonardoDiCaprio.png', 'Im_RobertPattinson.png', 'Im_BenStiller.png', 'Im_PatrickDempsey.png', 'Im_ElijahWood.png', 'Im_RobertDowneyJr.png', 'Im_GeorgeClooney.png', 'Im_MattDamon.png'],none,1,4.408371000000443,4,83.33333333333333,
SAAY1407,train,neg,120,neg120_id17_im9.bmp_neg120_id17_im14.bmp,['Im_BradPitt.png', 'Im_RyanReynolds.png', 'Im_LeonardoDiCaprio.png', 'Im_RobertPattinson.png', 'Im_BenStiller.png', 'Im_PatrickDempsey.png', 'Im_ElijahWood.png', 'Im_RobertDowneyJr.png', 'Im_GeorgeClooney.png', 'Im_MattDamon.png'],same,1,1.3418464999995194,5,83.33333333333333,
SAAY1407,train,neg,90,neg90_id14_im18.bmp_neg90_id18_im11.bmp,['Im_BradPitt.png', 'Im_RyanReynolds.png', 'Im_LeonardoDiCaprio.png', 'Im_RobertPattinson.png', 'Im_BenStiller.png', 'Im_PatrickDempsey.png', 'Im_ElijahWood.png', 'Im_RobertDowneyJr.png', 'Im_GeorgeClooney.png', 'Im_MattDamon.png'],diff,1,0.533576499999981,6,83.33333333333333,
SAAY1407,train,neg,30,neg30_id21_im17.bmp_neg30_id6_im19.bmp,['Im_BradPitt.png', 'Im_RyanReynolds.png', 'Im_LeonardoDiCaprio.png', 'Im_RobertPattinson.png', 'Im_BenStiller.png', 'Im_PatrickDempsey.png', 'Im_ElijahWood.png', 'Im_RobertDowneyJr.png', 'Im_GeorgeClooney.png', 'Im_MattDamon.png'],diff,1,0.45830730000034237,7,83.33333333333333,
SAAY1407,train,neg,60,neg60_id3_im6.bmp_neg60_id3_im8.bmp,['Im_BradPitt.png', 'Im_RyanReynolds.png', 'Im_LeonardoDiCaprio.png', 'Im_RobertPattinson.png', 'Im_BenStiller.png', 'Im_PatrickDempsey.png', 'Im_ElijahWood.png', 'Im_RobertDowneyJr.png', 'Im_GeorgeClooney.png', 'Im_MattDamon.png'],same,1,0.4167631000000256,8,83.33333333333333,
SAAY1407,train,neg,60,neg60_id13_im29.bmp_neg60_id14_im24.bmp,['Im_BradPitt.png', 'Im_RyanReynolds.png', 'Im_LeonardoDiCaprio.png', 'Im_RobertPattinson.png', 'Im_BenStiller.png', 'Im_PatrickDempsey.png', 'Im_ElijahWood.png', 'Im_RobertDowneyJr.png', 'Im_GeorgeClooney.png', 'Im_MattDamon.png'],diff,1,0.6086429000006319,9,83.33333333333333,
SAAY1407,train,neg,150,neg150_id2_im16.bmp_neg150_id2_im2.bmp,['Im_BradPitt.png', 'Im_RyanReynolds.png', 'Im_LeonardoDiCaprio.png', 'Im_RobertPattinson.png', 'Im_BenStiller.png', 'Im_PatrickDempsey.png', 'Im_ElijahWood.png', 'Im_RobertDowneyJr.png', 'Im_GeorgeClooney.png', 'Im_MattDamon.png'],same,1,0.6833438000003298,10,83.33333333333333,
SAAY1407,train,neg,fs,negfs_id18_im11.bmp_negfs_id18_im19.bmp,['Im_BradPitt.png', 'Im_RyanReynolds.png', 'Im_LeonardoDiCaprio.png', 'Im_RobertPattinson.png', 'Im_BenStiller.png', 'Im_PatrickDempsey.png', 'Im_ElijahWood.png', 'Im_RobertDowneyJr.png', 'Im_GeorgeClooney.png', 'Im_MattDamon.png'],same,1,0.43341119999968214,11,83.33333333333333,
SAAY1407,train,neg,90,neg90_id14_im24.bmp_neg90_id14_im16.bmp,['Im_BradPitt.png', 'Im_RyanReynolds.png', 'Im_LeonardoDiCaprio.png', 'Im_RobertPattinson.png', 'Im_BenStiller.png', 'Im_PatrickDempsey.png', 'Im_ElijahWood.png', 'Im_RobertDowneyJr.png', 'Im_GeorgeClooney.png', 'Im_MattDamon.png'],same,1,0.41669350000029226,12,83.33333333333333,
SAAY1407,train,neg,150,neg150_id14_im18.bmp_neg150_id14_im16.bmp,['Im_BradPitt.png', 'Im_RyanReynolds.png', 'Im_LeonardoDiCaprio.png', 'Im_RobertPattinson.png', 'Im_BenStiller.png', 'Im_PatrickDempsey.png', 'Im_ElijahWood.png', 'Im_RobertDowneyJr.png', 'Im_GeorgeClooney.png', 'Im_MattDamon.png'],same,1,0.4332053999996788,13,83.33333333333333,
SAAY1407,train,neg,30,neg30_id18_im11.bmp_neg30_id14_im18.bmp,['Im_BradPitt.png', 'Im_RyanReynolds.png', 'Im_LeonardoDiCaprio.png', 'Im_RobertPattinson.png', 'Im_BenStiller.png', 'Im_PatrickDempsey.png', 'Im_ElijahWood.png', 'Im_RobertDowneyJr.png', 'Im_GeorgeClooney.png', 'Im_MattDamon.png'],same,0,0.41652890000023035,13,83.33333333333333,
SAAY1407,train,neg,90,neg90_id13_im29.bmp_neg90_id14_im24.bmp,['Im_BradPitt.png', 'Im_RyanReynolds.png', 'Im_LeonardoDiCaprio.png', 'Im_RobertPattinson.png', 'Im_BenStiller.png', 'Im_PatrickDempsey.png', 'Im_ElijahWood.png', 'Im_RobertDowneyJr.png', 'Im_GeorgeClooney.png', 'Im_MattDamon.png'],same,0,0.6082245000006878,13,83.33333333333333,
SAAY1407,train,neg,90,neg90_id17_im14.bmp_neg90_id17_im9.bmp,['Im_BradPitt.png', 'Im_RyanReynolds.png', 'Im_LeonardoDiCaprio.png', 'Im_RobertPattinson.png', 'Im_BenStiller.png', 'Im_PatrickDempsey.png', 'Im_ElijahWood.png', 'Im_RobertDowneyJr.png', 'Im_GeorgeClooney.png', 'Im_MattDamon.png'],same,1,0.4167341000002125,14,83.33333333333333,
SAAY1407,train,neg,30,neg30_id13_im15.bmp_neg30_id2_im2.bmp,['Im_BradPitt.png', 'Im_RyanReynolds.png', 'Im_LeonardoDiCaprio.png', 'Im_RobertPattinson.png', 'Im_BenStiller.png', 'Im_PatrickDempsey.png', 'Im_ElijahWood.png', 'Im_RobertDowneyJr.png', 'Im_GeorgeClooney.png', 'Im_MattDamon.png'],diff,1,0.41671860000042216,15,83.33333333333333,
SAAY1407,train,neg,0,neg0_id13_im29.bmp_neg0_id21_im22.bmp,['Im_BradPitt.png', 'Im_RyanReynolds.png', 'Im_LeonardoDiCaprio.png', 'Im_RobertPattinson.png', 'Im_BenStiller.png', 'Im_PatrickDempsey.png', 'Im_ElijahWood.png', 'Im_RobertDowneyJr.png', 'Im_GeorgeClooney.png', 'Im_MattDamon.png'],diff,1,0.4082926999999472,16,83.33333333333333,
SAAY1407,train,neg,60,neg60_id2_im2.bmp_neg60_id2_im16.bmp,['Im_BradPitt.png', 'Im_RyanReynolds.png', 'Im_LeonardoDiCaprio.png', 'Im_RobertPattinson.png', 'Im_BenStiller.png', 'Im_PatrickDempsey.png', 'Im_ElijahWood.png', 'Im_RobertDowneyJr.png', 'Im_GeorgeClooney.png', 'Im_MattDamon.png'],same,1,0.41674460000012914,17,83.33333333333333,
SAAY1407,train,neg,60,neg60_id14_im16.bmp_neg60_id14_im24.bmp,['Im_BradPitt.png', 'Im_RyanReynolds.png', 'Im_LeonardoDiCaprio.png', 'Im_RobertPattinson.png', 'Im_BenStiller.png', 'Im_PatrickDempsey.png', 'Im_ElijahWood.png', 'Im_RobertDowneyJr.png', 'Im_GeorgeClooney.png', 'Im_MattDamon.png'],same,1,0.4251158999995823,18,83.33333333333333,
SAAY1407,train,neg,120,neg120_id18_im11.bmp_neg120_id18_im19.bmp,['Im_BradPitt.png', 'Im_RyanReynolds.png', 'Im_LeonardoDiCaprio.png', 'Im_RobertPattinson.png', 'Im_BenStiller.png', 'Im_PatrickDempsey.png', 'Im_ElijahWood.png', 'Im_RobertDowneyJr.png', 'Im_GeorgeClooney.png', 'Im_MattDamon.png'],same,1,0.4084014999998544,19,83.33333333333333,
SAAY1407,train,neg,150,neg150_id7_im15.bmp_neg150_id7_im14.bmp,['Im_BradPitt.png', 'Im_RyanReynolds.png', 'Im_LeonardoDiCaprio.png', 'Im_RobertPattinson.png', 'Im_BenStiller.png', 'Im_PatrickDempsey.png', 'Im_ElijahWood.png', 'Im_RobertDowneyJr.png', 'Im_GeorgeClooney.png', 'Im_MattDamon.png'],same,1,0.4250325000002704,20,83.33333333333333,
SAAY1407,train,neg,fs,negfs_id2_im2.bmp_negfs_id13_im15.bmp,['Im_BradPitt.png', 'Im_RyanReynolds.png', 'Im_LeonardoDiCaprio.png', 'Im_RobertPattinson.png', 'Im_BenStiller.png', 'Im_PatrickDempsey.png', 'Im_ElijahWood.png', 'Im_RobertDowneyJr.png', 'Im_GeorgeClooney.png', 'Im_MattDamon.png'],diff,1,0.42497700000058103,21,83.33333333333333,
SAAY1407,train,neg,0,neg0_id2_im3.bmp_neg0_id2_im16.bmp,['Im_BradPitt.png', 'Im_RyanReynolds.png', 'Im_LeonardoDiCaprio.png', 'Im_RobertPattinson.png', 'Im_BenStiller.png', 'Im_PatrickDempsey.png', 'Im_ElijahWood.png', 'Im_RobertDowneyJr.png', 'Im_GeorgeClooney.png', 'Im_MattDamon.png'],same,1,0.41681299999982,22,83.33333333333333,
SAAY1407,train,neg,120,neg120_id3_im8.bmp_neg120_id18_im18.bmp,['Im_BradPitt.png', 'Im_RyanReynolds.png', 'Im_LeonardoDiCaprio.png', 'Im_RobertPattinson.png', 'Im_BenStiller.png', 'Im_PatrickDempsey.png', 'Im_ElijahWood.png', 'Im_RobertDowneyJr.png', 'Im_GeorgeClooney.png', 'Im_MattDamon.png'],diff,1,0.6501225000001796,23,83.33333333333333,
SAAY1407,train,neg,fs,negfs_id7_im15.bmp_negfs_id7_im26.bmp,['Im_BradPitt.png', 'Im_RyanReynolds.png', 'Im_LeonardoDiCaprio.png', 'Im_RobertPattinson.png', 'Im_BenStiller.png', 'Im_PatrickDempsey.png', 'Im_ElijahWood.png', 'Im_RobertDowneyJr.png', 'Im_GeorgeClooney.png', 'Im_MattDamon.png'],same,1,0.4249548000007053,24,83.33333333333333,
SAAY1407,train,inv,120,pos120_id2_im16.bmp_pos120_id14_im24.bmp,['Im_BradPitt.png', 'Im_RyanReynolds.png', 'Im_LeonardoDiCaprio.png', 'Im_RobertPattinson.png', 'Im_BenStiller.png', 'Im_PatrickDempsey.png', 'Im_ElijahWood.png', 'Im_RobertDowneyJr.png', 'Im_GeorgeClooney.png', 'Im_MattDamon.png'],same,0,0.42520579999927577,24,83.33333333333333,
SAAY1407,train,inv,0,pos0_id2_im16.bmp_pos0_id2_im3.bmp,['Im_BradPitt.png', 'Im_RyanReynolds.png', 'Im_LeonardoDiCaprio.png', 'Im_RobertPattinson.png', 'Im_BenStiller.png', 'Im_PatrickDempsey.png', 'Im_ElijahWood.png', 'Im_RobertDowneyJr.png', 'Im_GeorgeClooney.png', 'Im_MattDamon.png'],same,1,0.416832500000055,25,83.33333333333333,
SAAY1407,train,inv,90,pos90_id2_im16.bmp_pos90_id14_im24.bmp,['Im_BradPitt.png', 'Im_RyanReynolds.png', 'Im_LeonardoDiCaprio.png', 'Im_RobertPattinson.png', 'Im_BenStiller.png', 'Im_PatrickDempsey.png', 'Im_ElijahWood.png', 'Im_RobertDowneyJr.png', 'Im_GeorgeClooney.png', 'Im_MattDamon.png'],diff,1,0.42515430000003107,26,83.33333333333333,
SAAY1407,train,inv,30,pos30_id2_im3.bmp_pos30_id2_im2.bmp,['Im_BradPitt.png', 'Im_RyanReynolds.png', 'Im_LeonardoDiCaprio.png', 'Im_RobertPattinson.png', 'Im_BenStiller.png', 'Im_PatrickDempsey.png', 'Im_ElijahWood.png', 'Im_RobertDowneyJr.png', 'Im_GeorgeClooney.png', 'Im_MattDamon.png'],same,1,0.4166167999992467,27,83.33333333333333,
SAAY1407,train,inv,60,pos60_id21_im16.bmp_pos60_id21_im17.bmp,['Im_BradPitt.png', 'Im_RyanReynolds.png', 'Im_LeonardoDiCaprio.png', 'Im_RobertPattinson.png', 'Im_BenStiller.png', 'Im_PatrickDempsey.png', 'Im_ElijahWood.png', 'Im_RobertDowneyJr.png', 'Im_GeorgeClooney.png', 'Im_MattDamon.png'],same,1,0.4249744999997347,28,83.33333333333333,
SAAY1407,train,inv,150,pos150_id6_im12.bmp_pos150_id6_im18.bmp,['Im_BradPitt.png', 'Im_RyanReynolds.png', 'Im_LeonardoDiCaprio.png', 'Im_RobertPattinson.png', 'Im_BenStiller.png', 'Im_PatrickDempsey.png', 'Im_ElijahWood.png', 'Im_RobertDowneyJr.png', 'Im_GeorgeClooney.png', 'Im_MattDamon.png'],same,1,0.40862060000017664,29,83.33333333333333,
SAAY1407,train,inv,90,pos90_id7_im26.bmp_pos90_id7_im14.bmp,['Im_BradPitt.png', 'Im_RyanReynolds.png', 'Im_LeonardoDiCaprio.png', 'Im_RobertPattinson.png', 'Im_BenStiller.png', 'Im_PatrickDempsey.png', 'Im_ElijahWood.png', 'Im_RobertDowneyJr.png', 'Im_GeorgeClooney.png', 'Im_MattDamon.png'],same,1,0.49161089999961405,30,83.33333333333333,
SAAY1407,train,inv,120,pos120_id18_im19.bmp_pos120_id18_im18.bmp,['Im_BradPitt.png', 'Im_RyanReynolds.png', 'Im_LeonardoDiCaprio.png', 'Im_RobertPattinson.png', 'Im_BenStiller.png', 'Im_PatrickDempsey.png', 'Im_ElijahWood.png', 'Im_RobertDowneyJr.png', 'Im_GeorgeClooney.png', 'Im_MattDamon.png'],same,1,0.47528479999982665,31,83.33333333333333,
SAAY1407,train,inv,30,pos30_id7_im14.bmp_pos30_id17_im9.bmp,['Im_BradPitt.png', 'Im_RyanReynolds.png', 'Im_LeonardoDiCaprio.png', 'Im_RobertPattinson.png', 'Im_BenStiller.png', 'Im_PatrickDempsey.png', 'Im_ElijahWood.png', 'Im_RobertDowneyJr.png', 'Im_GeorgeClooney.png', 'Im_MattDamon.png'],diff,1,0.6000425000001997,32,83.33333333333333,
SAAY1407,train,inv,0,pos0_id13_im29.bmp_pos0_id14_im24.bmp,['Im_BradPitt.png', 'Im_RyanReynolds.png', 'Im_LeonardoDiCaprio.png', 'Im_RobertPattinson.png', 'Im_BenStiller.png', 'Im_PatrickDempsey.png', 'Im_ElijahWood.png', 'Im_RobertDowneyJr.png', 'Im_GeorgeClooney.png', 'Im_MattDamon.png'],diff,1,0.6000456000001577,33,83.33333333333333,
SAAY1407,train,inv,60,pos60_id14_im18.bmp_pos60_id19_im27.bmp,['Im_BradPitt.png', 'Im_RyanReynolds.png', 'Im_LeonardoDiCaprio.png', 'Im_RobertPattinson.png', 'Im_BenStiller.png', 'Im_PatrickDempsey.png', 'Im_ElijahWood.png', 'Im_RobertDowneyJr.png', 'Im_GeorgeClooney.png', 'Im_MattDamon.png'],diff,1,0.6669518999997308,34,83.33333333333333,
SAAY1407,train,inv,fs,posfs_id13_im29.bmp_posfs_id13_im15.bmp,['Im_BradPitt.png', 'Im_RyanReynolds.png', 'Im_LeonardoDiCaprio.png', 'Im_RobertPattinson.png', 'Im_BenStiller.png', 'Im_PatrickDempsey.png', 'Im_ElijahWood.png', 'Im_RobertDowneyJr.png', 'Im_GeorgeClooney.png', 'Im_MattDamon.png'],same,1,0.5751055000000633,35,83.33333333333333,
SAAY1407,train,inv,150,pos150_id6_im19.bmp_pos150_id6_im12.bmp,['Im_BradPitt.png', 'Im_RyanReynolds.png', 'Im_LeonardoDiCaprio.png', 'Im_RobertPattinson.png', 'Im_BenStiller.png', 'Im_PatrickDempsey.png', 'Im_ElijahWood.png', 'Im_RobertDowneyJr.png', 'Im_GeorgeClooney.png', 'Im_MattDamon.png'],same,1,0.42512429999987944,36,83.33333333333333,
SAAY1407,train,inv,fs,posfs_id21_im17.bmp_posfs_id21_im22.bmp,['Im_BradPitt.png', 'Im_RyanReynolds.png', 'Im_LeonardoDiCaprio.png', 'Im_RobertPattinson.png', 'Im_BenStiller.png', 'Im_PatrickDempsey.png', 'Im_ElijahWood.png', 'Im_RobertDowneyJr.png', 'Im_GeorgeClooney.png', 'Im_MattDamon.png'],same,1,0.41696030000002793,37,83.33333333333333,
SAAY1407,0,inv,30,pos30_id2_im16.bmp_pos30_id2_im3.bmp,['Im_BradPitt.png', 'Im_RyanReynolds.png', 'Im_LeonardoDiCaprio.png', 'Im_RobertPattinson.png', 'Im_BenStiller.png', 'Im_PatrickDempsey.png', 'Im_ElijahWood.png', 'Im_RobertDowneyJr.png', 'Im_GeorgeClooney.png', 'Im_MattDamon.png'],same,1,0.4250976000002993,1,0,
SAAY1407,0,inv,30,pos30_id7_im14.bmp_pos30_id7_im26.bmp,['Im_BradPitt.png', 'Im_RyanReynolds.png', 'Im_LeonardoDiCaprio.png', 'Im_RobertPattinson.png', 'Im_BenStiller.png', 'Im_PatrickDempsey.png', 'Im_ElijahWood.png', 'Im_RobertDowneyJr.png', 'Im_GeorgeClooney.png', 'Im_MattDamon.png'],diff,0,0.4250910999999178,1,0,
SAAY1407,0,inv,60,pos60_id18_im19.bmp_pos60_id18_im11.bmp,['Im_BradPitt.png', 'Im_RyanReynolds.png', 'Im_LeonardoDiCaprio.png', 'Im_RobertPattinson.png', 'Im_BenStiller.png', 'Im_PatrickDempsey.png', 'Im_ElijahWood.png', 'Im_RobertDowneyJr.png', 'Im_GeorgeClooney.png', 'Im_MattDamon.png'],same,1,0.42517399999996996,2,0,
SAAY1407,0,inv,fs,posfs_id14_im24.bmp_posfs_id2_im16.bmp,['Im_BradPitt.png', 'Im_RyanReynolds.png', 'Im_LeonardoDiCaprio.png', 'Im_RobertPattinson.png', 'Im_BenStiller.png', 'Im_PatrickDempsey.png', 'Im_ElijahWood.png', 'Im_RobertDowneyJr.png', 'Im_GeorgeClooney.png', 'Im_MattDamon.png'],diff,1,0.4167615000005753,3,0,
SAAY1407,0,inv,90,pos90_id3_im17.bmp_pos90_id19_im27.bmp,['Im_BradPitt.png', 'Im_RyanReynolds.png', 'Im_LeonardoDiCaprio.png', 'Im_RobertPattinson.png', 'Im_BenStiller.png', 'Im_PatrickDempsey.png', 'Im_ElijahWood.png', 'Im_RobertDowneyJr.png', 'Im_GeorgeClooney.png', 'Im_MattDamon.png'],diff,1,0.48338590000003023,4,0,
SAAY1407,0,inv,0,pos0_id19_im8.bmp_pos0_id19_im27.bmp,['Im_BradPitt.png', 'Im_RyanReynolds.png', 'Im_LeonardoDiCaprio.png', 'Im_RobertPattinson.png', 'Im_BenStiller.png', 'Im_PatrickDempsey.png', 'Im_ElijahWood.png', 'Im_RobertDowneyJr.png', 'Im_GeorgeClooney.png', 'Im_MattDamon.png'],same,1,0.47526860000016313,5,0,
SAAY1407,0,inv,0,pos0_id21_im22.bmp_pos0_id21_im17.bmp,['Im_BradPitt.png', 'Im_RyanReynolds.png', 'Im_LeonardoDiCaprio.png', 'Im_RobertPattinson.png', 'Im_BenStiller.png', 'Im_PatrickDempsey.png', 'Im_ElijahWood.png', 'Im_RobertDowneyJr.png', 'Im_GeorgeClooney.png', 'Im_MattDamon.png'],same,1,0.4167027000003145,6,0,
SAAY1407,0,inv,150,pos150_id17_im8.bmp_pos150_id14_im16.bmp,['Im_BradPitt.png', 'Im_RyanReynolds.png', 'Im_LeonardoDiCaprio.png', 'Im_RobertPattinson.png', 'Im_BenStiller.png', 'Im_PatrickDempsey.png', 'Im_ElijahWood.png', 'Im_RobertDowneyJr.png', 'Im_GeorgeClooney.png', 'Im_MattDamon.png'],diff,1,0.416989299999841,7,0,
SAAY1407,0,inv,120,pos120_id17_im14.bmp_pos120_id17_im9.bmp,['Im_BradPitt.png', 'Im_RyanReynolds.png', 'Im_LeonardoDiCaprio.png', 'Im_RobertPattinson.png', 'Im_BenStiller.png', 'Im_PatrickDempsey.png', 'Im_ElijahWood.png', 'Im_RobertDowneyJr.png', 'Im_GeorgeClooney.png', 'Im_MattDamon.png'],same,1,0.5586078999995152,8,0,
SAAY1407,0,inv,90,pos90_id7_im26.bmp_pos90_id19_im4.bmp,['Im_BradPitt.png', 'Im_RyanReynolds.png', 'Im_LeonardoDiCaprio.png', 'Im_RobertPattinson.png', 'Im_BenStiller.png', 'Im_PatrickDempsey.png', 'Im_ElijahWood.png', 'Im_RobertDowneyJr.png', 'Im_GeorgeClooney.png', 'Im_MattDamon.png'],same,0,0.45016059999943536,8,0,
SAAY1407,0,inv,60,pos60_id19_im8.bmp_pos60_id19_im4.bmp,['Im_BradPitt.png', 'Im_RyanReynolds.png', 'Im_LeonardoDiCaprio.png', 'Im_RobertPattinson.png', 'Im_BenStiller.png', 'Im_PatrickDempsey.png', 'Im_ElijahWood.png', 'Im_RobertDowneyJr.png', 'Im_GeorgeClooney.png', 'Im_MattDamon.png'],same,1,0.4253550000003088,9,0,
SAAY1407,0,inv,120,pos120_id3_im8.bmp_pos120_id3_im17.bmp,['Im_BradPitt.png', 'Im_RyanReynolds.png', 'Im_LeonardoDiCaprio.png', 'Im_RobertPattinson.png', 'Im_BenStiller.png', 'Im_PatrickDempsey.png', 'Im_ElijahWood.png', 'Im_RobertDowneyJr.png', 'Im_GeorgeClooney.png', 'Im_MattDamon.png'],same,1,0.43342219999976805,10,0,
SAAY1407,0,inv,150,pos150_id2_im16.bmp_pos150_id13_im10.bmp,['Im_BradPitt.png', 'Im_RyanReynolds.png', 'Im_LeonardoDiCaprio.png', 'Im_RobertPattinson.png', 'Im_BenStiller.png', 'Im_PatrickDempsey.png', 'Im_ElijahWood.png', 'Im_RobertDowneyJr.png', 'Im_GeorgeClooney.png', 'Im_MattDamon.png'],diff,1,0.4167558999997709,11,0,
SAAY1407,0,inv,fs,posfs_id2_im2.bmp_posfs_id2_im3.bmp,['Im_BradPitt.png', 'Im_RyanReynolds.png', 'Im_LeonardoDiCaprio.png', 'Im_RobertPattinson.png', 'Im_BenStiller.png', 'Im_PatrickDempsey.png', 'Im_ElijahWood.png', 'Im_RobertDowneyJr.png', 'Im_GeorgeClooney.png', 'Im_MattDamon.png'],same,1,0.4251401999999871,12,0,
SAAY1407,1,pos,120,pos120_id2_im3.bmp_pos120_id18_im11.bmp,['Im_BradPitt.png', 'Im_RyanReynolds.png', 'Im_LeonardoDiCaprio.png', 'Im_RobertPattinson.png', 'Im_BenStiller.png', 'Im_PatrickDempsey.png', 'Im_ElijahWood.png', 'Im_RobertDowneyJr.png', 'Im_GeorgeClooney.png', 'Im_MattDamon.png'],diff,1,0.42510570000013104,13,0,
SAAY1407,1,pos,90,pos90_id17_im9.bmp_pos90_id19_im8.bmp,['Im_BradPitt.png', 'Im_RyanReynolds.png', 'Im_LeonardoDiCaprio.png', 'Im_RobertPattinson.png', 'Im_BenStiller.png', 'Im_PatrickDempsey.png', 'Im_ElijahWood.png', 'Im_RobertDowneyJr.png', 'Im_GeorgeClooney.png', 'Im_MattDamon.png'],diff,1,1.5003005999997185,14,0,
SAAY1407,1,pos,60,pos60_id21_im17.bmp_pos60_id6_im18.bmp,['Im_BradPitt.png', 'Im_RyanReynolds.png', 'Im_LeonardoDiCaprio.png', 'Im_RobertPattinson.png', 'Im_BenStiller.png', 'Im_PatrickDempsey.png', 'Im_ElijahWood.png', 'Im_RobertDowneyJr.png', 'Im_GeorgeClooney.png', 'Im_MattDamon.png'],diff,1,0.41675729999951727,15,0,
SAAY1407,1,pos,150,pos150_id21_im22.bmp_pos150_id3_im6.bmp,['Im_BradPitt.png', 'Im_RyanReynolds.png', 'Im_LeonardoDiCaprio.png', 'Im_RobertPattinson.png', 'Im_BenStiller.png', 'Im_PatrickDempsey.png', 'Im_ElijahWood.png', 'Im_RobertDowneyJr.png', 'Im_GeorgeClooney.png', 'Im_MattDamon.png'],diff,1,1.4253067999998166,16,0,
SAAY1407,1,pos,0,pos0_id19_im8.bmp_pos0_id14_im16.bmp,['Im_BradPitt.png', 'Im_RyanReynolds.png', 'Im_LeonardoDiCaprio.png', 'Im_RobertPattinson.png', 'Im_BenStiller.png', 'Im_PatrickDempsey.png', 'Im_ElijahWood.png', 'Im_RobertDowneyJr.png', 'Im_GeorgeClooney.png', 'Im_MattDamon.png'],diff,1,0.41723840000031487,17,0,
SAAY1407,1,pos,30,pos30_id19_im8.bmp_pos30_id17_im9.bmp,['Im_BradPitt.png', 'Im_RyanReynolds.png', 'Im_LeonardoDiCaprio.png', 'Im_RobertPattinson.png', 'Im_BenStiller.png', 'Im_PatrickDempsey.png', 'Im_ElijahWood.png', 'Im_RobertDowneyJr.png', 'Im_GeorgeClooney.png', 'Im_MattDamon.png'],diff,1,0.41692390000025625,18,0,
SAAY1407,1,pos,150,pos150_id7_im14.bmp_pos150_id7_im15.bmp,['Im_BradPitt.png', 'Im_RyanReynolds.png', 'Im_LeonardoDiCaprio.png', 'Im_RobertPattinson.png', 'Im_BenStiller.png', 'Im_PatrickDempsey.png', 'Im_ElijahWood.png', 'Im_RobertDowneyJr.png', 'Im_GeorgeClooney.png', 'Im_MattDamon.png'],same,1,0.4249029000002338,19,0,
SAAY1407,1,pos,0,pos0_id3_im17.bmp_pos0_id19_im27.bmp,['Im_BradPitt.png', 'Im_RyanReynolds.png', 'Im_LeonardoDiCaprio.png', 'Im_RobertPattinson.png', 'Im_BenStiller.png', 'Im_PatrickDempsey.png', 'Im_ElijahWood.png', 'Im_RobertDowneyJr.png', 'Im_GeorgeClooney.png', 'Im_MattDamon.png'],diff,1,0.42536290000043664,20,0,
SAAY1407,1,pos,120,pos120_id7_im14.bmp_pos120_id17_im9.bmp,['Im_BradPitt.png', 'Im_RyanReynolds.png', 'Im_LeonardoDiCaprio.png', 'Im_RobertPattinson.png', 'Im_BenStiller.png', 'Im_PatrickDempsey.png', 'Im_ElijahWood.png', 'Im_RobertDowneyJr.png', 'Im_GeorgeClooney.png', 'Im_MattDamon.png'],diff,1,0.40875190000042494,21,0,
SAAY1407,1,pos,fs,posfs_id18_im19.bmp_posfs_id2_im2.bmp,['Im_BradPitt.png', 'Im_RyanReynolds.png', 'Im_LeonardoDiCaprio.png', 'Im_RobertPattinson.png', 'Im_BenStiller.png', 'Im_PatrickDempsey.png', 'Im_ElijahWood.png', 'Im_RobertDowneyJr.png', 'Im_GeorgeClooney.png', 'Im_MattDamon.png'],diff,1,0.41693599999962316,22,0,
SAAY1407,1,pos,60,pos60_id18_im11.bmp_pos60_id18_im19.bmp,['Im_BradPitt.png', 'Im_RyanReynolds.png', 'Im_LeonardoDiCaprio.png', 'Im_RobertPattinson.png', 'Im_BenStiller.png', 'Im_PatrickDempsey.png', 'Im_ElijahWood.png', 'Im_RobertDowneyJr.png', 'Im_GeorgeClooney.png', 'Im_MattDamon.png'],same,1,0.42499099999986356,23,0,
SAAY1407,1,pos,fs,posfs_id2_im3.bmp_posfs_id2_im2.bmp,['Im_BradPitt.png', 'Im_RyanReynolds.png', 'Im_LeonardoDiCaprio.png', 'Im_RobertPattinson.png', 'Im_BenStiller.png', 'Im_PatrickDempsey.png', 'Im_ElijahWood.png', 'Im_RobertDowneyJr.png', 'Im_GeorgeClooney.png', 'Im_MattDamon.png'],same,1,0.4167878999996901,24,0,
SAAY1407,1,pos,30,pos30_id18_im19.bmp_pos30_id18_im18.bmp,['Im_BradPitt.png', 'Im_RyanReynolds.png', 'Im_LeonardoDiCaprio.png', 'Im_RobertPattinson.png', 'Im_BenStiller.png', 'Im_PatrickDempsey.png', 'Im_ElijahWood.png', 'Im_RobertDowneyJr.png', 'Im_GeorgeClooney.png', 'Im_MattDamon.png'],same,1,0.4252697000001717,25,0,
SAAY1407,1,pos,90,pos90_id17_im9.bmp_pos90_id17_im8.bmp,['Im_BradPitt.png', 'Im_RyanReynolds.png', 'Im_LeonardoDiCaprio.png', 'Im_RobertPattinson.png', 'Im_BenStiller.png', 'Im_PatrickDempsey.png', 'Im_ElijahWood.png', 'Im_RobertDowneyJr.png', 'Im_GeorgeClooney.png', 'Im_MattDamon.png'],same,1,0.42504879999978584,26,0,
SAAY1407,2,neg,fs,negfs_id2_im3.bmp_negfs_id2_im2.bmp,['Im_BradPitt.png', 'Im_RyanReynolds.png', 'Im_LeonardoDiCaprio.png', 'Im_RobertPattinson.png', 'Im_BenStiller.png', 'Im_PatrickDempsey.png', 'Im_ElijahWood.png', 'Im_RobertDowneyJr.png', 'Im_GeorgeClooney.png', 'Im_MattDamon.png'],same,1,0.6169595999999729,27,0,
SAAY1407,2,neg,90,neg90_id3_im17.bmp_neg90_id3_im8.bmp,['Im_BradPitt.png', 'Im_RyanReynolds.png', 'Im_LeonardoDiCaprio.png', 'Im_RobertPattinson.png', 'Im_BenStiller.png', 'Im_PatrickDempsey.png', 'Im_ElijahWood.png', 'Im_RobertDowneyJr.png', 'Im_GeorgeClooney.png', 'Im_MattDamon.png'],same,1,0.4250456999998278,28,0,
SAAY1407,2,neg,fs,negfs_id13_im10.bmp_negfs_id13_im15.bmp,['Im_BradPitt.png', 'Im_RyanReynolds.png', 'Im_LeonardoDiCaprio.png', 'Im_RobertPattinson.png', 'Im_BenStiller.png', 'Im_PatrickDempsey.png', 'Im_ElijahWood.png', 'Im_RobertDowneyJr.png', 'Im_GeorgeClooney.png', 'Im_MattDamon.png'],same,1,0.4502188999995269,29,0,
SAAY1407,2,neg,60,neg60_id13_im10.bmp_neg60_id13_im29.bmp,['Im_BradPitt.png', 'Im_RyanReynolds.png', 'Im_LeonardoDiCaprio.png', 'Im_RobertPattinson.png', 'Im_BenStiller.png', 'Im_PatrickDempsey.png', 'Im_ElijahWood.png', 'Im_RobertDowneyJr.png', 'Im_GeorgeClooney.png', 'Im_MattDamon.png'],same,1,0.4166224999999031,30,0,
SAAY1407,2,neg,0,neg0_id21_im22.bmp_neg0_id21_im16.bmp,['Im_BradPitt.png', 'Im_RyanReynolds.png', 'Im_LeonardoDiCaprio.png', 'Im_RobertPattinson.png', 'Im_BenStiller.png', 'Im_PatrickDempsey.png', 'Im_ElijahWood.png', 'Im_RobertDowneyJr.png', 'Im_GeorgeClooney.png', 'Im_MattDamon.png'],same,1,0.4083414000006087,31,0,
SAAY1407,2,neg,60,neg60_id21_im16.bmp_neg60_id21_im22.bmp,['Im_BradPitt.png', 'Im_RyanReynolds.png', 'Im_LeonardoDiCaprio.png', 'Im_RobertPattinson.png', 'Im_BenStiller.png', 'Im_PatrickDempsey.png', 'Im_ElijahWood.png', 'Im_RobertDowneyJr.png', 'Im_GeorgeClooney.png', 'Im_MattDamon.png'],same,1,0.7837082999994891,32,0,
SAAY1407,2,neg,30,neg30_id2_im3.bmp_neg30_id2_im16.bmp,['Im_BradPitt.png', 'Im_RyanReynolds.png', 'Im_LeonardoDiCaprio.png', 'Im_RobertPattinson.png', 'Im_BenStiller.png', 'Im_PatrickDempsey.png', 'Im_ElijahWood.png', 'Im_RobertDowneyJr.png', 'Im_GeorgeClooney.png', 'Im_MattDamon.png'],same,1,0.42509400000017195,33,0,
SAAY1407,2,neg,0,neg0_id19_im8.bmp_neg0_id17_im9.bmp,['Im_BradPitt.png', 'Im_RyanReynolds.png', 'Im_LeonardoDiCaprio.png', 'Im_RobertPattinson.png', 'Im_BenStiller.png', 'Im_PatrickDempsey.png', 'Im_ElijahWood.png', 'Im_RobertDowneyJr.png', 'Im_GeorgeClooney.png', 'Im_MattDamon.png'],diff,1,0.7083759999995891,34,0,
SAAY1407,2,neg,30,neg30_id3_im17.bmp_neg30_id3_im8.bmp,['Im_BradPitt.png', 'Im_RyanReynolds.png', 'Im_LeonardoDiCaprio.png', 'Im_RobertPattinson.png', 'Im_BenStiller.png', 'Im_PatrickDempsey.png', 'Im_ElijahWood.png', 'Im_RobertDowneyJr.png', 'Im_GeorgeClooney.png', 'Im_MattDamon.png'],same,1,0.4169368000002578,35,0,
SAAY1407,2,neg,150,neg150_id21_im16.bmp_neg150_id21_im22.bmp,['Im_BradPitt.png', 'Im_RyanReynolds.png', 'Im_LeonardoDiCaprio.png', 'Im_RobertPattinson.png', 'Im_BenStiller.png', 'Im_PatrickDempsey.png', 'Im_ElijahWood.png', 'Im_RobertDowneyJr.png', 'Im_GeorgeClooney.png', 'Im_MattDamon.png'],same,1,0.4168583000000581,36,0,
SAAY1407,2,neg,150,neg150_id18_im19.bmp_neg150_id2_im2.bmp,['Im_BradPitt.png', 'Im_RyanReynolds.png', 'Im_LeonardoDiCaprio.png', 'Im_RobertPattinson.png', 'Im_BenStiller.png', 'Im_PatrickDempsey.png', 'Im_ElijahWood.png', 'Im_RobertDowneyJr.png', 'Im_GeorgeClooney.png', 'Im_MattDamon.png'],diff,1,0.4839572999999291,37,0,
SAAY1407,2,neg,120,neg120_id2_im2.bmp_neg120_id18_im19.bmp,['Im_BradPitt.png', 'Im_RyanReynolds.png', 'Im_LeonardoDiCaprio.png', 'Im_RobertPattinson.png', 'Im_BenStiller.png', 'Im_PatrickDempsey.png', 'Im_ElijahWood.png', 'Im_RobertDowneyJr.png', 'Im_GeorgeClooney.png', 'Im_MattDamon.png'],diff,1,0.5668850000001839,38,0,
SAAY1407,2,neg,120,neg120_id6_im18.bmp_neg120_id21_im17.bmp,['Im_BradPitt.png', 'Im_RyanReynolds.png', 'Im_LeonardoDiCaprio.png', 'Im_RobertPattinson.png', 'Im_BenStiller.png', 'Im_PatrickDempsey.png', 'Im_ElijahWood.png', 'Im_RobertDowneyJr.png', 'Im_GeorgeClooney.png', 'Im_MattDamon.png'],diff,1,0.4665820000000167,39,0,
SAAY1407,2,neg,90,neg90_id6_im12.bmp_neg90_id3_im17.bmp,['Im_BradPitt.png', 'Im_RyanReynolds.png', 'Im_LeonardoDiCaprio.png', 'Im_RobertPattinson.png', 'Im_BenStiller.png', 'Im_PatrickDempsey.png', 'Im_ElijahWood.png', 'Im_RobertDowneyJr.png', 'Im_GeorgeClooney.png', 'Im_MattDamon.png'],diff,1,0.4168976000000839,40,0,
SAAY1407,3,inv,fs,posfs_id6_im18.bmp_posfs_id6_im19.bmp,['Im_BradPitt.png', 'Im_RyanReynolds.png', 'Im_LeonardoDiCaprio.png', 'Im_RobertPattinson.png', 'Im_BenStiller.png', 'Im_PatrickDempsey.png', 'Im_ElijahWood.png', 'Im_RobertDowneyJr.png', 'Im_GeorgeClooney.png', 'Im_MattDamon.png'],same,1,0.6750717000004443,1,95.23809523809524,
SAAY1407,3,inv,0,pos0_id21_im16.bmp_pos0_id21_im22.bmp,['Im_BradPitt.png', 'Im_RyanReynolds.png', 'Im_LeonardoDiCaprio.png', 'Im_RobertPattinson.png', 'Im_BenStiller.png', 'Im_PatrickDempsey.png', 'Im_ElijahWood.png', 'Im_RobertDowneyJr.png', 'Im_GeorgeClooney.png', 'Im_MattDamon.png'],same,1,0.9584491999994498,2,95.23809523809524,
SAAY1407,3,inv,60,pos60_id6_im18.bmp_pos60_id6_im19.bmp,['Im_BradPitt.png', 'Im_RyanReynolds.png', 'Im_LeonardoDiCaprio.png', 'Im_RobertPattinson.png', 'Im_BenStiller.png', 'Im_PatrickDempsey.png', 'Im_ElijahWood.png', 'Im_RobertDowneyJr.png', 'Im_GeorgeClooney.png', 'Im_MattDamon.png'],same,1,0.41652020000037737,3,95.23809523809524,
SAAY1407,3,inv,30,pos30_id3_im8.bmp_pos30_id18_im18.bmp,['Im_BradPitt.png', 'Im_RyanReynolds.png', 'Im_LeonardoDiCaprio.png', 'Im_RobertPattinson.png', 'Im_BenStiller.png', 'Im_PatrickDempsey.png', 'Im_ElijahWood.png', 'Im_RobertDowneyJr.png', 'Im_GeorgeClooney.png', 'Im_MattDamon.png'],diff,1,0.5834597000002759,4,95.23809523809524,
SAAY1407,3,inv,30,pos30_id2_im16.bmp_pos30_id2_im2.bmp,['Im_BradPitt.png', 'Im_RyanReynolds.png', 'Im_LeonardoDiCaprio.png', 'Im_RobertPattinson.png', 'Im_BenStiller.png', 'Im_PatrickDempsey.png', 'Im_ElijahWood.png', 'Im_RobertDowneyJr.png', 'Im_GeorgeClooney.png', 'Im_MattDamon.png'],same,1,0.46660609999980807,5,95.23809523809524,
SAAY1407,3,inv,150,pos150_id17_im9.bmp_pos150_id7_im14.bmp,['Im_BradPitt.png', 'Im_RyanReynolds.png', 'Im_LeonardoDiCaprio.png', 'Im_RobertPattinson.png', 'Im_BenStiller.png', 'Im_PatrickDempsey.png', 'Im_ElijahWood.png', 'Im_RobertDowneyJr.png', 'Im_GeorgeClooney.png', 'Im_MattDamon.png'],diff,1,0.9417148000002271,6,95.23809523809524,
SAAY1407,3,inv,120,pos120_id19_im4.bmp_pos120_id7_im26.bmp,['Im_BradPitt.png', 'Im_RyanReynolds.png', 'Im_LeonardoDiCaprio.png', 'Im_RobertPattinson.png', 'Im_BenStiller.png', 'Im_PatrickDempsey.png', 'Im_ElijahWood.png', 'Im_RobertDowneyJr.png', 'Im_GeorgeClooney.png', 'Im_MattDamon.png'],diff,1,0.4168422000002465,7,95.23809523809524,
SAAY1407,3,inv,150,pos150_id2_im2.bmp_pos150_id2_im3.bmp,['Im_BradPitt.png', 'Im_RyanReynolds.png', 'Im_LeonardoDiCaprio.png', 'Im_RobertPattinson.png', 'Im_BenStiller.png', 'Im_PatrickDempsey.png', 'Im_ElijahWood.png', 'Im_RobertDowneyJr.png', 'Im_GeorgeClooney.png', 'Im_MattDamon.png'],same,1,0.43352649999997084,8,95.23809523809524,
SAAY1407,3,inv,90,pos90_id13_im10.bmp_pos90_id13_im15.bmp,['Im_BradPitt.png', 'Im_RyanReynolds.png', 'Im_LeonardoDiCaprio.png', 'Im_RobertPattinson.png', 'Im_BenStiller.png', 'Im_PatrickDempsey.png', 'Im_ElijahWood.png', 'Im_RobertDowneyJr.png', 'Im_GeorgeClooney.png', 'Im_MattDamon.png'],same,1,0.41676169999936974,9,95.23809523809524,
SAAY1407,3,inv,0,pos0_id3_im17.bmp_pos0_id19_im27.bmp,['Im_BradPitt.png', 'Im_RyanReynolds.png', 'Im_LeonardoDiCaprio.png', 'Im_RobertPattinson.png', 'Im_BenStiller.png', 'Im_PatrickDempsey.png', 'Im_ElijahWood.png', 'Im_RobertDowneyJr.png', 'Im_GeorgeClooney.png', 'Im_MattDamon.png'],diff,1,0.4250929999998334,10,95.23809523809524,
SAAY1407,3,inv,90,pos90_id13_im15.bmp_pos90_id2_im2.bmp,['Im_BradPitt.png', 'Im_RyanReynolds.png', 'Im_LeonardoDiCaprio.png', 'Im_RobertPattinson.png', 'Im_BenStiller.png', 'Im_PatrickDempsey.png', 'Im_ElijahWood.png', 'Im_RobertDowneyJr.png', 'Im_GeorgeClooney.png', 'Im_MattDamon.png'],diff,1,0.9002084999992803,11,95.23809523809524,
SAAY1407,3,inv,fs,posfs_id3_im6.bmp_posfs_id3_im8.bmp,['Im_BradPitt.png', 'Im_RyanReynolds.png', 'Im_LeonardoDiCaprio.png', 'Im_RobertPattinson.png', 'Im_BenStiller.png', 'Im_PatrickDempsey.png', 'Im_ElijahWood.png', 'Im_RobertDowneyJr.png', 'Im_GeorgeClooney.png', 'Im_MattDamon.png'],same,1,0.43337179999980435,12,95.23809523809524,
SAAY1407,3,inv,60,pos60_id7_im26.bmp_pos60_id19_im4.bmp,['Im_BradPitt.png', 'Im_RyanReynolds.png', 'Im_LeonardoDiCaprio.png', 'Im_RobertPattinson.png', 'Im_BenStiller.png', 'Im_PatrickDempsey.png', 'Im_ElijahWood.png', 'Im_RobertDowneyJr.png', 'Im_GeorgeClooney.png', 'Im_MattDamon.png'],diff,1,0.4167124999994485,13,95.23809523809524,
SAAY1407,3,inv,120,pos120_id13_im10.bmp_pos120_id13_im15.bmp,['Im_BradPitt.png', 'Im_RyanReynolds.png', 'Im_LeonardoDiCaprio.png', 'Im_RobertPattinson.png', 'Im_BenStiller.png', 'Im_PatrickDempsey.png', 'Im_ElijahWood.png', 'Im_RobertDowneyJr.png', 'Im_GeorgeClooney.png', 'Im_MattDamon.png'],same,1,0.425031200000376,14,95.23809523809524,
SAAY1407,4,inv,30,pos30_id18_im18.bmp_pos30_id13_im15.bmp,['Im_BradPitt.png', 'Im_RyanReynolds.png', 'Im_LeonardoDiCaprio.png', 'Im_RobertPattinson.png', 'Im_BenStiller.png', 'Im_PatrickDempsey.png', 'Im_ElijahWood.png', 'Im_RobertDowneyJr.png', 'Im_GeorgeClooney.png', 'Im_MattDamon.png'],diff,1,1.0001012000002447,15,95.23809523809524,
SAAY1407,4,inv,0,pos0_id19_im8.bmp_pos0_id17_im9.bmp,['Im_BradPitt.png', 'Im_RyanReynolds.png', 'Im_LeonardoDiCaprio.png', 'Im_RobertPattinson.png', 'Im_BenStiller.png', 'Im_PatrickDempsey.png', 'Im_ElijahWood.png', 'Im_RobertDowneyJr.png', 'Im_GeorgeClooney.png', 'Im_MattDamon.png'],same,0,0.6334872999996151,15,95.23809523809524,
SAAY1407,4,inv,150,pos150_id21_im22.bmp_pos150_id21_im17.bmp,['Im_BradPitt.png', 'Im_RyanReynolds.png', 'Im_LeonardoDiCaprio.png', 'Im_RobertPattinson.png', 'Im_BenStiller.png', 'Im_PatrickDempsey.png', 'Im_ElijahWood.png', 'Im_RobertDowneyJr.png', 'Im_GeorgeClooney.png', 'Im_MattDamon.png'],same,1,0.5833960999998453,16,95.23809523809524,
SAAY1407,4,inv,90,pos90_id3_im6.bmp_pos90_id3_im17.bmp,['Im_BradPitt.png', 'Im_RyanReynolds.png', 'Im_LeonardoDiCaprio.png', 'Im_RobertPattinson.png', 'Im_BenStiller.png', 'Im_PatrickDempsey.png', 'Im_ElijahWood.png', 'Im_RobertDowneyJr.png', 'Im_GeorgeClooney.png', 'Im_MattDamon.png'],same,1,0.583679200000006,17,95.23809523809524,
SAAY1407,4,inv,60,pos60_id18_im19.bmp_pos60_id2_im2.bmp,['Im_BradPitt.png', 'Im_RyanReynolds.png', 'Im_LeonardoDiCaprio.png', 'Im_RobertPattinson.png', 'Im_BenStiller.png', 'Im_PatrickDempsey.png', 'Im_ElijahWood.png', 'Im_RobertDowneyJr.png', 'Im_GeorgeClooney.png', 'Im_MattDamon.png'],same,0,0.4167368999997052,17,95.23809523809524,
SAAY1407,4,inv,120,pos120_id19_im4.bmp_pos120_id19_im27.bmp,['Im_BradPitt.png', 'Im_RyanReynolds.png', 'Im_LeonardoDiCaprio.png', 'Im_RobertPattinson.png', 'Im_BenStiller.png', 'Im_PatrickDempsey.png', 'Im_ElijahWood.png', 'Im_RobertDowneyJr.png', 'Im_GeorgeClooney.png', 'Im_MattDamon.png'],same,1,0.6582736000000295,18,95.23809523809524,
SAAY1407,4,inv,90,pos90_id6_im18.bmp_pos90_id21_im17.bmp,['Im_BradPitt.png', 'Im_RyanReynolds.png', 'Im_LeonardoDiCaprio.png', 'Im_RobertPattinson.png', 'Im_BenStiller.png', 'Im_PatrickDempsey.png', 'Im_ElijahWood.png', 'Im_RobertDowneyJr.png', 'Im_GeorgeClooney.png', 'Im_MattDamon.png'],diff,1,0.4335320000000138,19,95.23809523809524,
SAAY1407,4,inv,150,pos150_id21_im22.bmp_pos150_id13_im29.bmp,['Im_BradPitt.png', 'Im_RyanReynolds.png', 'Im_LeonardoDiCaprio.png', 'Im_RobertPattinson.png', 'Im_BenStiller.png', 'Im_PatrickDempsey.png', 'Im_ElijahWood.png', 'Im_RobertDowneyJr.png', 'Im_GeorgeClooney.png', 'Im_MattDamon.png'],same,0,1.5420248999998876,19,95.23809523809524,
SAAY1407,4,inv,120,pos120_id18_im11.bmp_pos120_id18_im19.bmp,['Im_BradPitt.png', 'Im_RyanReynolds.png', 'Im_LeonardoDiCaprio.png', 'Im_RobertPattinson.png', 'Im_BenStiller.png', 'Im_PatrickDempsey.png', 'Im_ElijahWood.png', 'Im_RobertDowneyJr.png', 'Im_GeorgeClooney.png', 'Im_MattDamon.png'],same,1,0.4252237000000605,20,95.23809523809524,
SAAY1407,4,inv,0,pos0_id14_im18.bmp_pos0_id14_im16.bmp,['Im_BradPitt.png', 'Im_RyanReynolds.png', 'Im_LeonardoDiCaprio.png', 'Im_RobertPattinson.png', 'Im_BenStiller.png', 'Im_PatrickDempsey.png', 'Im_ElijahWood.png', 'Im_RobertDowneyJr.png', 'Im_GeorgeClooney.png', 'Im_MattDamon.png'],same,1,0.4167695000005551,21,95.23809523809524,
SAAY1407,4,inv,fs,posfs_id14_im24.bmp_posfs_id13_im29.bmp,['Im_BradPitt.png', 'Im_RyanReynolds.png', 'Im_LeonardoDiCaprio.png', 'Im_RobertPattinson.png', 'Im_BenStiller.png', 'Im_PatrickDempsey.png', 'Im_ElijahWood.png', 'Im_RobertDowneyJr.png', 'Im_GeorgeClooney.png', 'Im_MattDamon.png'],diff,1,0.4585845999999947,22,95.23809523809524,
SAAY1407,4,inv,30,pos30_id19_im4.bmp_pos30_id19_im8.bmp,['Im_BradPitt.png', 'Im_RyanReynolds.png', 'Im_LeonardoDiCaprio.png', 'Im_RobertPattinson.png', 'Im_BenStiller.png', 'Im_PatrickDempsey.png', 'Im_ElijahWood.png', 'Im_RobertDowneyJr.png', 'Im_GeorgeClooney.png', 'Im_MattDamon.png'],diff,0,1.100082900000416,22,95.23809523809524,
SAAY1407,4,inv,60,pos60_id6_im18.bmp_pos60_id6_im12.bmp,['Im_BradPitt.png', 'Im_RyanReynolds.png', 'Im_LeonardoDiCaprio.png', 'Im_RobertPattinson.png', 'Im_BenStiller.png', 'Im_PatrickDempsey.png', 'Im_ElijahWood.png', 'Im_RobertDowneyJr.png', 'Im_GeorgeClooney.png', 'Im_MattDamon.png'],same,1,0.4250351000000592,23,95.23809523809524,
SAAY1407,4,inv,fs,posfs_id19_im27.bmp_posfs_id14_im18.bmp,['Im_BradPitt.png', 'Im_RyanReynolds.png', 'Im_LeonardoDiCaprio.png', 'Im_RobertPattinson.png', 'Im_BenStiller.png', 'Im_PatrickDempsey.png', 'Im_ElijahWood.png', 'Im_RobertDowneyJr.png', 'Im_GeorgeClooney.png', 'Im_MattDamon.png'],diff,1,0.40836750000016764,24,95.23809523809524,
SAAY1407,5,neg,60,neg60_id18_im18.bmp_neg60_id18_im11.bmp,['Im_BradPitt.png', 'Im_RyanReynolds.png', 'Im_LeonardoDiCaprio.png', 'Im_RobertPattinson.png', 'Im_BenStiller.png', 'Im_PatrickDempsey.png', 'Im_ElijahWood.png', 'Im_RobertDowneyJr.png', 'Im_GeorgeClooney.png', 'Im_MattDamon.png'],same,1,0.4167354000001069,25,95.23809523809524,
SAAY1407,5,neg,60,neg60_id13_im10.bmp_neg60_id13_im15.bmp,['Im_BradPitt.png', 'Im_RyanReynolds.png', 'Im_LeonardoDiCaprio.png', 'Im_RobertPattinson.png', 'Im_BenStiller.png', 'Im_PatrickDempsey.png', 'Im_ElijahWood.png', 'Im_RobertDowneyJr.png', 'Im_GeorgeClooney.png', 'Im_MattDamon.png'],same,1,0.425037699999848,26,95.23809523809524,
SAAY1407,5,neg,0,neg0_id7_im14.bmp_neg0_id7_im26.bmp,['Im_BradPitt.png', 'Im_RyanReynolds.png', 'Im_LeonardoDiCaprio.png', 'Im_RobertPattinson.png', 'Im_BenStiller.png', 'Im_PatrickDempsey.png', 'Im_ElijahWood.png', 'Im_RobertDowneyJr.png', 'Im_GeorgeClooney.png', 'Im_MattDamon.png'],same,1,0.416685399999551,27,95.23809523809524,
SAAY1407,5,neg,120,neg120_id21_im16.bmp_neg120_id21_im22.bmp,['Im_BradPitt.png', 'Im_RyanReynolds.png', 'Im_LeonardoDiCaprio.png', 'Im_RobertPattinson.png', 'Im_BenStiller.png', 'Im_PatrickDempsey.png', 'Im_ElijahWood.png', 'Im_RobertDowneyJr.png', 'Im_GeorgeClooney.png', 'Im_MattDamon.png'],same,1,0.5336176000000705,28,95.23809523809524,
SAAY1407,5,neg,fs,negfs_id14_im18.bmp_negfs_id18_im11.bmp,['Im_BradPitt.png', 'Im_RyanReynolds.png', 'Im_LeonardoDiCaprio.png', 'Im_RobertPattinson.png', 'Im_BenStiller.png', 'Im_PatrickDempsey.png', 'Im_ElijahWood.png', 'Im_RobertDowneyJr.png', 'Im_GeorgeClooney.png', 'Im_MattDamon.png'],diff,1,0.7921393999995416,29,95.23809523809524,
SAAY1407,5,neg,30,neg30_id7_im26.bmp_neg30_id7_im15.bmp,['Im_BradPitt.png', 'Im_RyanReynolds.png', 'Im_LeonardoDiCaprio.png', 'Im_RobertPattinson.png', 'Im_BenStiller.png', 'Im_PatrickDempsey.png', 'Im_ElijahWood.png', 'Im_RobertDowneyJr.png', 'Im_GeorgeClooney.png', 'Im_MattDamon.png'],same,1,0.41671799999949144,30,95.23809523809524,
SAAY1407,5,neg,0,neg0_id6_im19.bmp_neg0_id6_im18.bmp,['Im_BradPitt.png', 'Im_RyanReynolds.png', 'Im_LeonardoDiCaprio.png', 'Im_RobertPattinson.png', 'Im_BenStiller.png', 'Im_PatrickDempsey.png', 'Im_ElijahWood.png', 'Im_RobertDowneyJr.png', 'Im_GeorgeClooney.png', 'Im_MattDamon.png'],same,1,0.4334003000003577,31,95.23809523809524,
SAAY1407,5,neg,30,neg30_id21_im16.bmp_neg30_id7_im15.bmp,['Im_BradPitt.png', 'Im_RyanReynolds.png', 'Im_LeonardoDiCaprio.png', 'Im_RobertPattinson.png', 'Im_BenStiller.png', 'Im_PatrickDempsey.png', 'Im_ElijahWood.png', 'Im_RobertDowneyJr.png', 'Im_GeorgeClooney.png', 'Im_MattDamon.png'],same,0,0.4665642999998454,31,95.23809523809524,
SAAY1407,5,neg,150,neg150_id2_im16.bmp_neg150_id2_im3.bmp,['Im_BradPitt.png', 'Im_RyanReynolds.png', 'Im_LeonardoDiCaprio.png', 'Im_RobertPattinson.png', 'Im_BenStiller.png', 'Im_PatrickDempsey.png', 'Im_ElijahWood.png', 'Im_RobertDowneyJr.png', 'Im_GeorgeClooney.png', 'Im_MattDamon.png'],same,1,0.40846110000074987,32,95.23809523809524,
SAAY1407,5,neg,90,neg90_id6_im18.bmp_neg90_id6_im19.bmp,['Im_BradPitt.png', 'Im_RyanReynolds.png', 'Im_LeonardoDiCaprio.png', 'Im_RobertPattinson.png', 'Im_BenStiller.png', 'Im_PatrickDempsey.png', 'Im_ElijahWood.png', 'Im_RobertDowneyJr.png', 'Im_GeorgeClooney.png', 'Im_MattDamon.png'],same,1,0.4250780999991548,33,95.23809523809524,
SAAY1407,5,neg,120,neg120_id13_im15.bmp_neg120_id13_im10.bmp,['Im_BradPitt.png', 'Im_RyanReynolds.png', 'Im_LeonardoDiCaprio.png', 'Im_RobertPattinson.png', 'Im_BenStiller.png', 'Im_PatrickDempsey.png', 'Im_ElijahWood.png', 'Im_RobertDowneyJr.png', 'Im_GeorgeClooney.png', 'Im_MattDamon.png'],same,1,0.5007685999999012,34,95.23809523809524,
SAAY1407,5,neg,150,neg150_id17_im9.bmp_neg150_id7_im14.bmp,['Im_BradPitt.png', 'Im_RyanReynolds.png', 'Im_LeonardoDiCaprio.png', 'Im_RobertPattinson.png', 'Im_BenStiller.png', 'Im_PatrickDempsey.png', 'Im_ElijahWood.png', 'Im_RobertDowneyJr.png', 'Im_GeorgeClooney.png', 'Im_MattDamon.png'],diff,1,0.4250597000000198,35,95.23809523809524,
SAAY1407,5,neg,fs,negfs_id3_im17.bmp_negfs_id6_im12.bmp,['Im_BradPitt.png', 'Im_RyanReynolds.png', 'Im_LeonardoDiCaprio.png', 'Im_RobertPattinson.png', 'Im_BenStiller.png', 'Im_PatrickDempsey.png', 'Im_ElijahWood.png', 'Im_RobertDowneyJr.png', 'Im_GeorgeClooney.png', 'Im_MattDamon.png'],diff,1,0.425151200000073,36,95.23809523809524,
SAAY1407,5,neg,90,neg90_id6_im18.bmp_neg90_id17_im8.bmp,['Im_BradPitt.png', 'Im_RyanReynolds.png', 'Im_LeonardoDiCaprio.png', 'Im_RobertPattinson.png', 'Im_BenStiller.png', 'Im_PatrickDempsey.png', 'Im_ElijahWood.png', 'Im_RobertDowneyJr.png', 'Im_GeorgeClooney.png', 'Im_MattDamon.png'],diff,1,0.4168694999998479,37,95.23809523809524,
SAAY1407,6,pos,0,pos0_id6_im19.bmp_pos0_id21_im17.bmp,['Im_BradPitt.png', 'Im_RyanReynolds.png', 'Im_LeonardoDiCaprio.png', 'Im_RobertPattinson.png', 'Im_BenStiller.png', 'Im_PatrickDempsey.png', 'Im_ElijahWood.png', 'Im_RobertDowneyJr.png', 'Im_GeorgeClooney.png', 'Im_MattDamon.png'],diff,1,0.41677939999954106,1,88.0952380952381,
SAAY1407,6,pos,60,pos60_id14_im24.bmp_pos60_id14_im18.bmp,['Im_BradPitt.png', 'Im_RyanReynolds.png', 'Im_LeonardoDiCaprio.png', 'Im_RobertPattinson.png', 'Im_BenStiller.png', 'Im_PatrickDempsey.png', 'Im_ElijahWood.png', 'Im_RobertDowneyJr.png', 'Im_GeorgeClooney.png', 'Im_MattDamon.png'],same,1,0.4252274000000398,2,88.0952380952381,
SAAY1407,6,pos,150,pos150_id14_im18.bmp_pos150_id18_im11.bmp,['Im_BradPitt.png', 'Im_RyanReynolds.png', 'Im_LeonardoDiCaprio.png', 'Im_RobertPattinson.png', 'Im_BenStiller.png', 'Im_PatrickDempsey.png', 'Im_ElijahWood.png', 'Im_RobertDowneyJr.png', 'Im_GeorgeClooney.png', 'Im_MattDamon.png'],diff,1,0.424952200000007,3,88.0952380952381,
SAAY1407,6,pos,fs,posfs_id18_im19.bmp_posfs_id18_im18.bmp,['Im_BradPitt.png', 'Im_RyanReynolds.png', 'Im_LeonardoDiCaprio.png', 'Im_RobertPattinson.png', 'Im_BenStiller.png', 'Im_PatrickDempsey.png', 'Im_ElijahWood.png', 'Im_RobertDowneyJr.png', 'Im_GeorgeClooney.png', 'Im_MattDamon.png'],same,1,0.40838669999993726,4,88.0952380952381,
SAAY1407,6,pos,0,pos0_id7_im14.bmp_pos0_id7_im26.bmp,['Im_BradPitt.png', 'Im_RyanReynolds.png', 'Im_LeonardoDiCaprio.png', 'Im_RobertPattinson.png', 'Im_BenStiller.png', 'Im_PatrickDempsey.png', 'Im_ElijahWood.png', 'Im_RobertDowneyJr.png', 'Im_GeorgeClooney.png', 'Im_MattDamon.png'],same,1,0.43338870000025054,5,88.0952380952381,
SAAY1407,6,pos,fs,posfs_id14_im24.bmp_posfs_id14_im18.bmp,['Im_BradPitt.png', 'Im_RyanReynolds.png', 'Im_LeonardoDiCaprio.png', 'Im_RobertPattinson.png', 'Im_BenStiller.png', 'Im_PatrickDempsey.png', 'Im_ElijahWood.png', 'Im_RobertDowneyJr.png', 'Im_GeorgeClooney.png', 'Im_MattDamon.png'],same,1,0.4083503000001656,6,88.0952380952381,
SAAY1407,6,pos,150,pos150_id7_im26.bmp_pos150_id19_im4.bmp,['Im_BradPitt.png', 'Im_RyanReynolds.png', 'Im_LeonardoDiCaprio.png', 'Im_RobertPattinson.png', 'Im_BenStiller.png', 'Im_PatrickDempsey.png', 'Im_ElijahWood.png', 'Im_RobertDowneyJr.png', 'Im_GeorgeClooney.png', 'Im_MattDamon.png'],diff,1,0.4167963999998392,7,88.0952380952381,
SAAY1407,6,pos,120,pos120_id21_im17.bmp_pos120_id21_im22.bmp,['Im_BradPitt.png', 'Im_RyanReynolds.png', 'Im_LeonardoDiCaprio.png', 'Im_RobertPattinson.png', 'Im_BenStiller.png', 'Im_PatrickDempsey.png', 'Im_ElijahWood.png', 'Im_RobertDowneyJr.png', 'Im_GeorgeClooney.png', 'Im_MattDamon.png'],same,1,0.4166553999993994,8,88.0952380952381,
SAAY1407,6,pos,60,pos60_id3_im6.bmp_pos60_id21_im22.bmp,['Im_BradPitt.png', 'Im_RyanReynolds.png', 'Im_LeonardoDiCaprio.png', 'Im_RobertPattinson.png', 'Im_BenStiller.png', 'Im_PatrickDempsey.png', 'Im_ElijahWood.png', 'Im_RobertDowneyJr.png', 'Im_GeorgeClooney.png', 'Im_MattDamon.png'],same,0,0.43341400000008434,8,88.0952380952381,
SAAY1407,6,pos,90,pos90_id7_im15.bmp_pos90_id7_im26.bmp,['Im_BradPitt.png', 'Im_RyanReynolds.png', 'Im_LeonardoDiCaprio.png', 'Im_RobertPattinson.png', 'Im_BenStiller.png', 'Im_PatrickDempsey.png', 'Im_ElijahWood.png', 'Im_RobertDowneyJr.png', 'Im_GeorgeClooney.png', 'Im_MattDamon.png'],same,1,0.4167344999996203,9,88.0952380952381,
SAAY1407,6,pos,30,pos30_id7_im26.bmp_pos30_id7_im15.bmp,['Im_BradPitt.png', 'Im_RyanReynolds.png', 'Im_LeonardoDiCaprio.png', 'Im_RobertPattinson.png', 'Im_BenStiller.png', 'Im_PatrickDempsey.png', 'Im_ElijahWood.png', 'Im_RobertDowneyJr.png', 'Im_GeorgeClooney.png', 'Im_MattDamon.png'],same,1,0.4167301999996198,10,88.0952380952381,
SAAY1407,6,pos,90,pos90_id6_im12.bmp_pos90_id6_im19.bmp,['Im_BradPitt.png', 'Im_RyanReynolds.png', 'Im_LeonardoDiCaprio.png', 'Im_RobertPattinson.png', 'Im_BenStiller.png', 'Im_PatrickDempsey.png', 'Im_ElijahWood.png', 'Im_RobertDowneyJr.png', 'Im_GeorgeClooney.png', 'Im_MattDamon.png'],same,1,0.4167825000004086,11,88.0952380952381,
SAAY1407,6,pos,120,pos120_id21_im22.bmp_pos120_id21_im16.bmp,['Im_BradPitt.png', 'Im_RyanReynolds.png', 'Im_LeonardoDiCaprio.png', 'Im_RobertPattinson.png', 'Im_BenStiller.png', 'Im_PatrickDempsey.png', 'Im_ElijahWood.png', 'Im_RobertDowneyJr.png', 'Im_GeorgeClooney.png', 'Im_MattDamon.png'],same,1,0.42516109999996843,12,88.0952380952381,
SAAY1407,6,pos,30,pos30_id2_im3.bmp_pos30_id7_im26.bmp,['Im_BradPitt.png', 'Im_RyanReynolds.png', 'Im_LeonardoDiCaprio.png', 'Im_RobertPattinson.png', 'Im_BenStiller.png', 'Im_PatrickDempsey.png', 'Im_ElijahWood.png', 'Im_RobertDowneyJr.png', 'Im_GeorgeClooney.png', 'Im_MattDamon.png'],diff,1,0.41670950000025186,13,88.0952380952381,
SAAY1407,7,inv,0,pos0_id17_im14.bmp_pos0_id17_im8.bmp,['Im_BradPitt.png', 'Im_RyanReynolds.png', 'Im_LeonardoDiCaprio.png', 'Im_RobertPattinson.png', 'Im_BenStiller.png', 'Im_PatrickDempsey.png', 'Im_ElijahWood.png', 'Im_RobertDowneyJr.png', 'Im_GeorgeClooney.png', 'Im_MattDamon.png'],diff,0,1.983486800000719,13,88.0952380952381,
SAAY1407,7,inv,fs,posfs_id17_im9.bmp_posfs_id17_im14.bmp,['Im_BradPitt.png', 'Im_RyanReynolds.png', 'Im_LeonardoDiCaprio.png', 'Im_RobertPattinson.png', 'Im_BenStiller.png', 'Im_PatrickDempsey.png', 'Im_ElijahWood.png', 'Im_RobertDowneyJr.png', 'Im_GeorgeClooney.png', 'Im_MattDamon.png'],same,1,0.4999749000007796,14,88.0952380952381,
SAAY1407,7,inv,fs,posfs_id21_im16.bmp_posfs_id21_im22.bmp,['Im_BradPitt.png', 'Im_RyanReynolds.png', 'Im_LeonardoDiCaprio.png', 'Im_RobertPattinson.png', 'Im_BenStiller.png', 'Im_PatrickDempsey.png', 'Im_ElijahWood.png', 'Im_RobertDowneyJr.png', 'Im_GeorgeClooney.png', 'Im_MattDamon.png'],diff,0,0.4167482000002565,14,88.0952380952381,
SAAY1407,7,inv,150,pos150_id13_im10.bmp_pos150_id6_im12.bmp,['Im_BradPitt.png', 'Im_RyanReynolds.png', 'Im_LeonardoDiCaprio.png', 'Im_RobertPattinson.png', 'Im_BenStiller.png', 'Im_PatrickDempsey.png', 'Im_ElijahWood.png', 'Im_RobertDowneyJr.png', 'Im_GeorgeClooney.png', 'Im_MattDamon.png'],diff,1,0.8750656000001982,15,88.0952380952381,
SAAY1407,7,inv,90,pos90_id2_im2.bmp_pos90_id2_im3.bmp,['Im_BradPitt.png', 'Im_RyanReynolds.png', 'Im_LeonardoDiCaprio.png', 'Im_RobertPattinson.png', 'Im_BenStiller.png', 'Im_PatrickDempsey.png', 'Im_ElijahWood.png', 'Im_RobertDowneyJr.png', 'Im_GeorgeClooney.png', 'Im_MattDamon.png'],same,1,0.8334044000002905,16,88.0952380952381,
SAAY1407,7,inv,60,pos60_id6_im12.bmp_pos60_id3_im17.bmp,['Im_BradPitt.png', 'Im_RyanReynolds.png', 'Im_LeonardoDiCaprio.png', 'Im_RobertPattinson.png', 'Im_BenStiller.png', 'Im_PatrickDempsey.png', 'Im_ElijahWood.png', 'Im_RobertDowneyJr.png', 'Im_GeorgeClooney.png', 'Im_MattDamon.png'],diff,1,0.42506279999997787,17,88.0952380952381,
SAAY1407,7,inv,30,pos30_id6_im18.bmp_pos30_id21_im17.bmp,['Im_BradPitt.png', 'Im_RyanReynolds.png', 'Im_LeonardoDiCaprio.png', 'Im_RobertPattinson.png', 'Im_BenStiller.png', 'Im_PatrickDempsey.png', 'Im_ElijahWood.png', 'Im_RobertDowneyJr.png', 'Im_GeorgeClooney.png', 'Im_MattDamon.png'],diff,1,0.41668959999969957,18,88.0952380952381,
SAAY1407,7,inv,90,pos90_id17_im8.bmp_pos90_id6_im18.bmp,['Im_BradPitt.png', 'Im_RyanReynolds.png', 'Im_LeonardoDiCaprio.png', 'Im_RobertPattinson.png', 'Im_BenStiller.png', 'Im_PatrickDempsey.png', 'Im_ElijahWood.png', 'Im_RobertDowneyJr.png', 'Im_GeorgeClooney.png', 'Im_MattDamon.png'],same,0,0.4167288999997254,18,88.0952380952381,
SAAY1407,7,inv,60,pos60_id7_im15.bmp_pos60_id19_im4.bmp,['Im_BradPitt.png', 'Im_RyanReynolds.png', 'Im_LeonardoDiCaprio.png', 'Im_RobertPattinson.png', 'Im_BenStiller.png', 'Im_PatrickDempsey.png', 'Im_ElijahWood.png', 'Im_RobertDowneyJr.png', 'Im_GeorgeClooney.png', 'Im_MattDamon.png'],same,0,0.43344450000040524,18,88.0952380952381,
SAAY1407,7,inv,0,pos0_id7_im15.bmp_pos0_id7_im26.bmp,['Im_BradPitt.png', 'Im_RyanReynolds.png', 'Im_LeonardoDiCaprio.png', 'Im_RobertPattinson.png', 'Im_BenStiller.png', 'Im_PatrickDempsey.png', 'Im_ElijahWood.png', 'Im_RobertDowneyJr.png', 'Im_GeorgeClooney.png', 'Im_MattDamon.png'],same,1,0.5667045999998663,19,88.0952380952381,
SAAY1407,7,inv,150,pos150_id14_im16.bmp_pos150_id19_im8.bmp,['Im_BradPitt.png', 'Im_RyanReynolds.png', 'Im_LeonardoDiCaprio.png', 'Im_RobertPattinson.png', 'Im_BenStiller.png', 'Im_PatrickDempsey.png', 'Im_ElijahWood.png', 'Im_RobertDowneyJr.png', 'Im_GeorgeClooney.png', 'Im_MattDamon.png'],same,0,0.5750746999992771,19,88.0952380952381,
SAAY1407,7,inv,120,pos120_id14_im16.bmp_pos120_id19_im8.bmp,['Im_BradPitt.png', 'Im_RyanReynolds.png', 'Im_LeonardoDiCaprio.png', 'Im_RobertPattinson.png', 'Im_BenStiller.png', 'Im_PatrickDempsey.png', 'Im_ElijahWood.png', 'Im_RobertDowneyJr.png', 'Im_GeorgeClooney.png', 'Im_MattDamon.png'],diff,1,0.43338260000018636,20,88.0952380952381,
SAAY1407,7,inv,30,pos30_id2_im2.bmp_pos30_id13_im15.bmp,['Im_BradPitt.png', 'Im_RyanReynolds.png', 'Im_LeonardoDiCaprio.png', 'Im_RobertPattinson.png', 'Im_BenStiller.png', 'Im_PatrickDempsey.png', 'Im_ElijahWood.png', 'Im_RobertDowneyJr.png', 'Im_GeorgeClooney.png', 'Im_MattDamon.png'],diff,1,0.4334423999998762,21,88.0952380952381,
SAAY1407,7,inv,120,pos120_id18_im18.bmp_pos120_id18_im11.bmp,['Im_BradPitt.png', 'Im_RyanReynolds.png', 'Im_LeonardoDiCaprio.png', 'Im_RobertPattinson.png', 'Im_BenStiller.png', 'Im_PatrickDempsey.png', 'Im_ElijahWood.png', 'Im_RobertDowneyJr.png', 'Im_GeorgeClooney.png', 'Im_MattDamon.png'],same,1,0.4168970000000627,22,88.0952380952381,
SAAY1407,8,pos,30,pos30_id21_im22.bmp_pos30_id21_im16.bmp,['Im_BradPitt.png', 'Im_RyanReynolds.png', 'Im_LeonardoDiCaprio.png', 'Im_RobertPattinson.png', 'Im_BenStiller.png', 'Im_PatrickDempsey.png', 'Im_ElijahWood.png', 'Im_RobertDowneyJr.png', 'Im_GeorgeClooney.png', 'Im_MattDamon.png'],same,1,0.5917191999997158,23,88.0952380952381,
SAAY1407,8,pos,90,pos90_id14_im18.bmp_pos90_id19_im27.bmp,['Im_BradPitt.png', 'Im_RyanReynolds.png', 'Im_LeonardoDiCaprio.png', 'Im_RobertPattinson.png', 'Im_BenStiller.png', 'Im_PatrickDempsey.png', 'Im_ElijahWood.png', 'Im_RobertDowneyJr.png', 'Im_GeorgeClooney.png', 'Im_MattDamon.png'],diff,1,0.4251346000000922,24,88.0952380952381,
SAAY1407,8,pos,150,pos150_id18_im18.bmp_pos150_id18_im19.bmp,['Im_BradPitt.png', 'Im_RyanReynolds.png', 'Im_LeonardoDiCaprio.png', 'Im_RobertPattinson.png', 'Im_BenStiller.png', 'Im_PatrickDempsey.png', 'Im_ElijahWood.png', 'Im_RobertDowneyJr.png', 'Im_GeorgeClooney.png', 'Im_MattDamon.png'],same,1,0.4083509000001868,25,88.0952380952381,
SAAY1407,8,pos,fs,posfs_id2_im16.bmp_posfs_id14_im24.bmp,['Im_BradPitt.png', 'Im_RyanReynolds.png', 'Im_LeonardoDiCaprio.png', 'Im_RobertPattinson.png', 'Im_BenStiller.png', 'Im_PatrickDempsey.png', 'Im_ElijahWood.png', 'Im_RobertDowneyJr.png', 'Im_GeorgeClooney.png', 'Im_MattDamon.png'],diff,1,0.4334534999998141,26,88.0952380952381,
SAAY1407,8,pos,60,pos60_id21_im22.bmp_pos60_id13_im29.bmp,['Im_BradPitt.png', 'Im_RyanReynolds.png', 'Im_LeonardoDiCaprio.png', 'Im_RobertPattinson.png', 'Im_BenStiller.png', 'Im_PatrickDempsey.png', 'Im_ElijahWood.png', 'Im_RobertDowneyJr.png', 'Im_GeorgeClooney.png', 'Im_MattDamon.png'],diff,1,0.5585742000002938,27,88.0952380952381,
SAAY1407,8,pos,90,pos90_id13_im15.bmp_pos90_id13_im29.bmp,['Im_BradPitt.png', 'Im_RyanReynolds.png', 'Im_LeonardoDiCaprio.png', 'Im_RobertPattinson.png', 'Im_BenStiller.png', 'Im_PatrickDempsey.png', 'Im_ElijahWood.png', 'Im_RobertDowneyJr.png', 'Im_GeorgeClooney.png', 'Im_MattDamon.png'],same,1,1.458386100000098,28,88.0952380952381,
SAAY1407,8,pos,0,pos0_id18_im18.bmp_pos0_id18_im11.bmp,['Im_BradPitt.png', 'Im_RyanReynolds.png', 'Im_LeonardoDiCaprio.png', 'Im_RobertPattinson.png', 'Im_BenStiller.png', 'Im_PatrickDempsey.png', 'Im_ElijahWood.png', 'Im_RobertDowneyJr.png', 'Im_GeorgeClooney.png', 'Im_MattDamon.png'],same,1,0.4250654999996186,29,88.0952380952381,
SAAY1407,8,pos,fs,posfs_id18_im18.bmp_posfs_id13_im15.bmp,['Im_BradPitt.png', 'Im_RyanReynolds.png', 'Im_LeonardoDiCaprio.png', 'Im_RobertPattinson.png', 'Im_BenStiller.png', 'Im_PatrickDempsey.png', 'Im_ElijahWood.png', 'Im_RobertDowneyJr.png', 'Im_GeorgeClooney.png', 'Im_MattDamon.png'],same,0,0.41721140000026935,29,88.0952380952381,
SAAY1407,8,pos,60,pos60_id14_im24.bmp_pos60_id14_im16.bmp,['Im_BradPitt.png', 'Im_RyanReynolds.png', 'Im_LeonardoDiCaprio.png', 'Im_RobertPattinson.png', 'Im_BenStiller.png', 'Im_PatrickDempsey.png', 'Im_ElijahWood.png', 'Im_RobertDowneyJr.png', 'Im_GeorgeClooney.png', 'Im_MattDamon.png'],same,1,0.4499026000003141,30,88.0952380952381,
SAAY1407,8,pos,120,pos120_id13_im10.bmp_pos120_id13_im15.bmp,['Im_BradPitt.png', 'Im_RyanReynolds.png', 'Im_LeonardoDiCaprio.png', 'Im_RobertPattinson.png', 'Im_BenStiller.png', 'Im_PatrickDempsey.png', 'Im_ElijahWood.png', 'Im_RobertDowneyJr.png', 'Im_GeorgeClooney.png', 'Im_MattDamon.png'],same,1,0.41679890000068553,31,88.0952380952381,
SAAY1407,8,pos,30,pos30_id21_im22.bmp_pos30_id3_im6.bmp,['Im_BradPitt.png', 'Im_RyanReynolds.png', 'Im_LeonardoDiCaprio.png', 'Im_RobertPattinson.png', 'Im_BenStiller.png', 'Im_PatrickDempsey.png', 'Im_ElijahWood.png', 'Im_RobertDowneyJr.png', 'Im_GeorgeClooney.png', 'Im_MattDamon.png'],diff,1,0.4251560000002428,32,88.0952380952381,
SAAY1407,8,pos,150,pos150_id21_im17.bmp_pos150_id21_im22.bmp,['Im_BradPitt.png', 'Im_RyanReynolds.png', 'Im_LeonardoDiCaprio.png', 'Im_RobertPattinson.png', 'Im_BenStiller.png', 'Im_PatrickDempsey.png', 'Im_ElijahWood.png', 'Im_RobertDowneyJr.png', 'Im_GeorgeClooney.png', 'Im_MattDamon.png'],same,1,0.4168589000000793,33,88.0952380952381,
SAAY1407,8,pos,120,pos120_id18_im18.bmp_pos120_id18_im19.bmp,['Im_BradPitt.png', 'Im_RyanReynolds.png', 'Im_LeonardoDiCaprio.png', 'Im_RobertPattinson.png', 'Im_BenStiller.png', 'Im_PatrickDempsey.png', 'Im_ElijahWood.png', 'Im_RobertDowneyJr.png', 'Im_GeorgeClooney.png', 'Im_MattDamon.png'],same,1,0.6918582999996943,34,88.0952380952381,
SAAY1407,8,pos,0,pos0_id21_im22.bmp_pos0_id21_im16.bmp,['Im_BradPitt.png', 'Im_RyanReynolds.png', 'Im_LeonardoDiCaprio.png', 'Im_RobertPattinson.png', 'Im_BenStiller.png', 'Im_PatrickDempsey.png', 'Im_ElijahWood.png', 'Im_RobertDowneyJr.png', 'Im_GeorgeClooney.png', 'Im_MattDamon.png'],same,1,0.424901399999726,35,88.0952380952381,
SAAY1407,9,neg,fs,negfs_id3_im6.bmp_negfs_id3_im8.bmp,['Im_BradPitt.png', 'Im_RyanReynolds.png', 'Im_LeonardoDiCaprio.png', 'Im_RobertPattinson.png', 'Im_BenStiller.png', 'Im_PatrickDempsey.png', 'Im_ElijahWood.png', 'Im_RobertDowneyJr.png', 'Im_GeorgeClooney.png', 'Im_MattDamon.png'],same,1,0.41676749999987805,1,83.33333333333333,
SAAY1407,9,neg,30,neg30_id17_im8.bmp_neg30_id17_im14.bmp,['Im_BradPitt.png', 'Im_RyanReynolds.png', 'Im_LeonardoDiCaprio.png', 'Im_RobertPattinson.png', 'Im_BenStiller.png', 'Im_PatrickDempsey.png', 'Im_ElijahWood.png', 'Im_RobertDowneyJr.png', 'Im_GeorgeClooney.png', 'Im_MattDamon.png'],same,1,0.42503339999984746,2,83.33333333333333,
SAAY1407,9,neg,0,neg0_id17_im14.bmp_neg0_id17_im9.bmp,['Im_BradPitt.png', 'Im_RyanReynolds.png', 'Im_LeonardoDiCaprio.png', 'Im_RobertPattinson.png', 'Im_BenStiller.png', 'Im_PatrickDempsey.png', 'Im_ElijahWood.png', 'Im_RobertDowneyJr.png', 'Im_GeorgeClooney.png', 'Im_MattDamon.png'],same,1,0.41670650000014575,3,83.33333333333333,
SAAY1407,9,neg,120,neg120_id14_im16.bmp_neg120_id14_im18.bmp,['Im_BradPitt.png', 'Im_RyanReynolds.png', 'Im_LeonardoDiCaprio.png', 'Im_RobertPattinson.png', 'Im_BenStiller.png', 'Im_PatrickDempsey.png', 'Im_ElijahWood.png', 'Im_RobertDowneyJr.png', 'Im_GeorgeClooney.png', 'Im_MattDamon.png'],same,1,0.4168768999998065,4,83.33333333333333,
SAAY1407,9,neg,30,neg30_id13_im15.bmp_neg30_id13_im29.bmp,['Im_BradPitt.png', 'Im_RyanReynolds.png', 'Im_LeonardoDiCaprio.png', 'Im_RobertPattinson.png', 'Im_BenStiller.png', 'Im_PatrickDempsey.png', 'Im_ElijahWood.png', 'Im_RobertDowneyJr.png', 'Im_GeorgeClooney.png', 'Im_MattDamon.png'],same,1,0.7415344999999434,5,83.33333333333333,
SAAY1407,9,neg,fs,negfs_id3_im8.bmp_negfs_id18_im18.bmp,['Im_BradPitt.png', 'Im_RyanReynolds.png', 'Im_LeonardoDiCaprio.png', 'Im_RobertPattinson.png', 'Im_BenStiller.png', 'Im_PatrickDempsey.png', 'Im_ElijahWood.png', 'Im_RobertDowneyJr.png', 'Im_GeorgeClooney.png', 'Im_MattDamon.png'],diff,1,0.41653760000008333,6,83.33333333333333,
SAAY1407,9,neg,120,neg120_id18_im18.bmp_neg120_id13_im15.bmp,['Im_BradPitt.png', 'Im_RyanReynolds.png', 'Im_LeonardoDiCaprio.png', 'Im_RobertPattinson.png', 'Im_BenStiller.png', 'Im_PatrickDempsey.png', 'Im_ElijahWood.png', 'Im_RobertDowneyJr.png', 'Im_GeorgeClooney.png', 'Im_MattDamon.png'],diff,1,0.6583664999998291,7,83.33333333333333,
SAAY1407,9,neg,90,neg90_id3_im6.bmp_neg90_id3_im8.bmp,['Im_BradPitt.png', 'Im_RyanReynolds.png', 'Im_LeonardoDiCaprio.png', 'Im_RobertPattinson.png', 'Im_BenStiller.png', 'Im_PatrickDempsey.png', 'Im_ElijahWood.png', 'Im_RobertDowneyJr.png', 'Im_GeorgeClooney.png', 'Im_MattDamon.png'],same,1,0.4249979999995048,8,83.33333333333333,
SAAY1407,9,neg,0,neg0_id18_im11.bmp_neg0_id18_im18.bmp,['Im_BradPitt.png', 'Im_RyanReynolds.png', 'Im_LeonardoDiCaprio.png', 'Im_RobertPattinson.png', 'Im_BenStiller.png', 'Im_PatrickDempsey.png', 'Im_ElijahWood.png', 'Im_RobertDowneyJr.png', 'Im_GeorgeClooney.png', 'Im_MattDamon.png'],same,1,0.4252602999995361,9,83.33333333333333,
SAAY1407,9,neg,150,neg150_id14_im24.bmp_neg150_id2_im16.bmp,['Im_BradPitt.png', 'Im_RyanReynolds.png', 'Im_LeonardoDiCaprio.png', 'Im_RobertPattinson.png', 'Im_BenStiller.png', 'Im_PatrickDempsey.png', 'Im_ElijahWood.png', 'Im_RobertDowneyJr.png', 'Im_GeorgeClooney.png', 'Im_MattDamon.png'],diff,1,0.41673829999945156,10,83.33333333333333,
SAAY1407,9,neg,150,neg150_id14_im16.bmp_neg150_id14_im24.bmp,['Im_BradPitt.png', 'Im_RyanReynolds.png', 'Im_LeonardoDiCaprio.png', 'Im_RobertPattinson.png', 'Im_BenStiller.png', 'Im_PatrickDempsey.png', 'Im_ElijahWood.png', 'Im_RobertDowneyJr.png', 'Im_GeorgeClooney.png', 'Im_MattDamon.png'],same,1,0.425196600000163,11,83.33333333333333,
SAAY1407,9,neg,60,neg60_id6_im12.bmp_neg60_id6_im19.bmp,['Im_BradPitt.png', 'Im_RyanReynolds.png', 'Im_LeonardoDiCaprio.png', 'Im_RobertPattinson.png', 'Im_BenStiller.png', 'Im_PatrickDempsey.png', 'Im_ElijahWood.png', 'Im_RobertDowneyJr.png', 'Im_GeorgeClooney.png', 'Im_MattDamon.png'],same,1,0.4167029000000184,12,83.33333333333333,
SAAY1407,9,neg,60,neg60_id19_im4.bmp_neg60_id7_im26.bmp,['Im_BradPitt.png', 'Im_RyanReynolds.png', 'Im_LeonardoDiCaprio.png', 'Im_RobertPattinson.png', 'Im_BenStiller.png', 'Im_PatrickDempsey.png', 'Im_ElijahWood.png', 'Im_RobertDowneyJr.png', 'Im_GeorgeClooney.png', 'Im_MattDamon.png'],same,0,0.4252289000005476,12,83.33333333333333,
SAAY1407,9,neg,90,neg90_id2_im3.bmp_neg90_id7_im26.bmp,['Im_BradPitt.png', 'Im_RyanReynolds.png', 'Im_LeonardoDiCaprio.png', 'Im_RobertPattinson.png', 'Im_BenStiller.png', 'Im_PatrickDempsey.png', 'Im_ElijahWood.png', 'Im_RobertDowneyJr.png', 'Im_GeorgeClooney.png', 'Im_MattDamon.png'],diff,1,0.40840360000038345,13,83.33333333333333,
SAAY1407,10,neg,120,neg120_id6_im12.bmp_neg120_id6_im18.bmp,['Im_BradPitt.png', 'Im_RyanReynolds.png', 'Im_LeonardoDiCaprio.png', 'Im_RobertPattinson.png', 'Im_BenStiller.png', 'Im_PatrickDempsey.png', 'Im_ElijahWood.png', 'Im_RobertDowneyJr.png', 'Im_GeorgeClooney.png', 'Im_MattDamon.png'],same,1,0.4250655999985611,14,83.33333333333333,
SAAY1407,10,neg,fs,negfs_id21_im22.bmp_negfs_id13_im29.bmp,['Im_BradPitt.png', 'Im_RyanReynolds.png', 'Im_LeonardoDiCaprio.png', 'Im_RobertPattinson.png', 'Im_BenStiller.png', 'Im_PatrickDempsey.png', 'Im_ElijahWood.png', 'Im_RobertDowneyJr.png', 'Im_GeorgeClooney.png', 'Im_MattDamon.png'],diff,1,0.44173869999940507,15,83.33333333333333,
SAAY1407,10,neg,60,neg60_id6_im12.bmp_neg60_id6_im18.bmp,['Im_BradPitt.png', 'Im_RyanReynolds.png', 'Im_LeonardoDiCaprio.png', 'Im_RobertPattinson.png', 'Im_BenStiller.png', 'Im_PatrickDempsey.png', 'Im_ElijahWood.png', 'Im_RobertDowneyJr.png', 'Im_GeorgeClooney.png', 'Im_MattDamon.png'],same,1,0.4171167999993486,16,83.33333333333333,
SAAY1407,10,neg,90,neg90_id19_im27.bmp_neg90_id3_im17.bmp,['Im_BradPitt.png', 'Im_RyanReynolds.png', 'Im_LeonardoDiCaprio.png', 'Im_RobertPattinson.png', 'Im_BenStiller.png', 'Im_PatrickDempsey.png', 'Im_ElijahWood.png', 'Im_RobertDowneyJr.png', 'Im_GeorgeClooney.png', 'Im_MattDamon.png'],diff,1,0.47481800000059593,17,83.33333333333333,
SAAY1407,10,neg,0,neg0_id18_im19.bmp_neg0_id18_im11.bmp,['Im_BradPitt.png', 'Im_RyanReynolds.png', 'Im_LeonardoDiCaprio.png', 'Im_RobertPattinson.png', 'Im_BenStiller.png', 'Im_PatrickDempsey.png', 'Im_ElijahWood.png', 'Im_RobertDowneyJr.png', 'Im_GeorgeClooney.png', 'Im_MattDamon.png'],same,1,0.41675989999930607,18,83.33333333333333,
SAAY1407,10,neg,150,neg150_id19_im27.bmp_neg150_id19_im8.bmp,['Im_BradPitt.png', 'Im_RyanReynolds.png', 'Im_LeonardoDiCaprio.png', 'Im_RobertPattinson.png', 'Im_BenStiller.png', 'Im_PatrickDempsey.png', 'Im_ElijahWood.png', 'Im_RobertDowneyJr.png', 'Im_GeorgeClooney.png', 'Im_MattDamon.png'],same,1,0.4167654999982915,19,83.33333333333333,
SAAY1407,10,neg,0,neg0_id7_im26.bmp_neg0_id19_im4.bmp,['Im_BradPitt.png', 'Im_RyanReynolds.png', 'Im_LeonardoDiCaprio.png', 'Im_RobertPattinson.png', 'Im_BenStiller.png', 'Im_PatrickDempsey.png', 'Im_ElijahWood.png', 'Im_RobertDowneyJr.png', 'Im_GeorgeClooney.png', 'Im_MattDamon.png'],diff,1,0.7835770999990928,20,83.33333333333333,
SAAY1407,10,neg,60,neg60_id17_im14.bmp_neg60_id17_im9.bmp,['Im_BradPitt.png', 'Im_RyanReynolds.png', 'Im_LeonardoDiCaprio.png', 'Im_RobertPattinson.png', 'Im_BenStiller.png', 'Im_PatrickDempsey.png', 'Im_ElijahWood.png', 'Im_RobertDowneyJr.png', 'Im_GeorgeClooney.png', 'Im_MattDamon.png'],same,1,0.4253443999987212,21,83.33333333333333,
SAAY1407,10,neg,30,neg30_id2_im3.bmp_neg30_id7_im26.bmp,['Im_BradPitt.png', 'Im_RyanReynolds.png', 'Im_LeonardoDiCaprio.png', 'Im_RobertPattinson.png', 'Im_BenStiller.png', 'Im_PatrickDempsey.png', 'Im_ElijahWood.png', 'Im_RobertDowneyJr.png', 'Im_GeorgeClooney.png', 'Im_MattDamon.png'],diff,1,0.5581335999995645,22,83.33333333333333,
SAAY1407,10,neg,30,neg30_id14_im16.bmp_neg30_id17_im8.bmp,['Im_BradPitt.png', 'Im_RyanReynolds.png', 'Im_LeonardoDiCaprio.png', 'Im_RobertPattinson.png', 'Im_BenStiller.png', 'Im_PatrickDempsey.png', 'Im_ElijahWood.png', 'Im_RobertDowneyJr.png', 'Im_GeorgeClooney.png', 'Im_MattDamon.png'],diff,1,0.4169941000000108,23,83.33333333333333,
SAAY1407,10,neg,120,neg120_id6_im19.bmp_neg120_id6_im18.bmp,['Im_BradPitt.png', 'Im_RyanReynolds.png', 'Im_LeonardoDiCaprio.png', 'Im_RobertPattinson.png', 'Im_BenStiller.png', 'Im_PatrickDempsey.png', 'Im_ElijahWood.png', 'Im_RobertDowneyJr.png', 'Im_GeorgeClooney.png', 'Im_MattDamon.png'],same,1,0.4335329000005004,24,83.33333333333333,
SAAY1407,10,neg,fs,negfs_id17_im14.bmp_negfs_id17_im8.bmp,['Im_BradPitt.png', 'Im_RyanReynolds.png', 'Im_LeonardoDiCaprio.png', 'Im_RobertPattinson.png', 'Im_BenStiller.png', 'Im_PatrickDempsey.png', 'Im_ElijahWood.png', 'Im_RobertDowneyJr.png', 'Im_GeorgeClooney.png', 'Im_MattDamon.png'],same,1,0.724937900000441,25,83.33333333333333,
SAAY1407,10,neg,150,neg150_id18_im11.bmp_neg150_id18_im19.bmp,['Im_BradPitt.png', 'Im_RyanReynolds.png', 'Im_LeonardoDiCaprio.png', 'Im_RobertPattinson.png', 'Im_BenStiller.png', 'Im_PatrickDempsey.png', 'Im_ElijahWood.png', 'Im_RobertDowneyJr.png', 'Im_GeorgeClooney.png', 'Im_MattDamon.png'],same,1,0.6251897000001918,26,83.33333333333333,
SAAY1407,10,neg,90,neg90_id3_im8.bmp_neg90_id18_im19.bmp,['Im_BradPitt.png', 'Im_RyanReynolds.png', 'Im_LeonardoDiCaprio.png', 'Im_RobertPattinson.png', 'Im_BenStiller.png', 'Im_PatrickDempsey.png', 'Im_ElijahWood.png', 'Im_RobertDowneyJr.png', 'Im_GeorgeClooney.png', 'Im_MattDamon.png'],diff,1,0.7334518999996362,27,83.33333333333333,
SAAY1407,11,pos,60,pos60_id18_im19.bmp_pos60_id2_im2.bmp,['Im_BradPitt.png', 'Im_RyanReynolds.png', 'Im_LeonardoDiCaprio.png', 'Im_RobertPattinson.png', 'Im_BenStiller.png', 'Im_PatrickDempsey.png', 'Im_ElijahWood.png', 'Im_RobertDowneyJr.png', 'Im_GeorgeClooney.png', 'Im_MattDamon.png'],diff,1,0.4167959999995219,28,83.33333333333333,
SAAY1407,11,pos,90,pos90_id7_im14.bmp_pos90_id3_im6.bmp,['Im_BradPitt.png', 'Im_RyanReynolds.png', 'Im_LeonardoDiCaprio.png', 'Im_RobertPattinson.png', 'Im_BenStiller.png', 'Im_PatrickDempsey.png', 'Im_ElijahWood.png', 'Im_RobertDowneyJr.png', 'Im_GeorgeClooney.png', 'Im_MattDamon.png'],diff,1,0.4251027999998769,29,83.33333333333333,
SAAY1407,11,pos,0,pos0_id21_im16.bmp_pos0_id21_im17.bmp,['Im_BradPitt.png', 'Im_RyanReynolds.png', 'Im_LeonardoDiCaprio.png', 'Im_RobertPattinson.png', 'Im_BenStiller.png', 'Im_PatrickDempsey.png', 'Im_ElijahWood.png', 'Im_RobertDowneyJr.png', 'Im_GeorgeClooney.png', 'Im_MattDamon.png'],same,1,0.42501679999986663,30,83.33333333333333,
SAAY1407,11,pos,150,pos150_id3_im8.bmp_pos150_id18_im18.bmp,['Im_BradPitt.png', 'Im_RyanReynolds.png', 'Im_LeonardoDiCaprio.png', 'Im_RobertPattinson.png', 'Im_BenStiller.png', 'Im_PatrickDempsey.png', 'Im_ElijahWood.png', 'Im_RobertDowneyJr.png', 'Im_GeorgeClooney.png', 'Im_MattDamon.png'],diff,1,0.4167833999999857,31,83.33333333333333,
SAAY1407,11,pos,fs,posfs_id17_im14.bmp_posfs_id17_im8.bmp,['Im_BradPitt.png', 'Im_RyanReynolds.png', 'Im_LeonardoDiCaprio.png', 'Im_RobertPattinson.png', 'Im_BenStiller.png', 'Im_PatrickDempsey.png', 'Im_ElijahWood.png', 'Im_RobertDowneyJr.png', 'Im_GeorgeClooney.png', 'Im_MattDamon.png'],same,1,0.4081507999999303,32,83.33333333333333,
SAAY1407,11,pos,90,pos90_id17_im8.bmp_pos90_id17_im14.bmp,['Im_BradPitt.png', 'Im_RyanReynolds.png', 'Im_LeonardoDiCaprio.png', 'Im_RobertPattinson.png', 'Im_BenStiller.png', 'Im_PatrickDempsey.png', 'Im_ElijahWood.png', 'Im_RobertDowneyJr.png', 'Im_GeorgeClooney.png', 'Im_MattDamon.png'],same,1,0.4167440999990504,33,83.33333333333333,
SAAY1407,11,pos,120,pos120_id19_im27.bmp_pos120_id14_im18.bmp,['Im_BradPitt.png', 'Im_RyanReynolds.png', 'Im_LeonardoDiCaprio.png', 'Im_RobertPattinson.png', 'Im_BenStiller.png', 'Im_PatrickDempsey.png', 'Im_ElijahWood.png', 'Im_RobertDowneyJr.png', 'Im_GeorgeClooney.png', 'Im_MattDamon.png'],diff,1,0.4169099999999162,34,83.33333333333333,
SAAY1407,11,pos,150,pos150_id3_im8.bmp_pos150_id18_im19.bmp,['Im_BradPitt.png', 'Im_RyanReynolds.png', 'Im_LeonardoDiCaprio.png', 'Im_RobertPattinson.png', 'Im_BenStiller.png', 'Im_PatrickDempsey.png', 'Im_ElijahWood.png', 'Im_RobertDowneyJr.png', 'Im_GeorgeClooney.png', 'Im_MattDamon.png'],diff,1,0.43334950000098615,35,83.33333333333333,
SAAY1407,11,pos,60,pos60_id7_im15.bmp_pos60_id19_im4.bmp,['Im_BradPitt.png', 'Im_RyanReynolds.png', 'Im_LeonardoDiCaprio.png', 'Im_RobertPattinson.png', 'Im_BenStiller.png', 'Im_PatrickDempsey.png', 'Im_ElijahWood.png', 'Im_RobertDowneyJr.png', 'Im_GeorgeClooney.png', 'Im_MattDamon.png'],diff,1,0.41673660000014934,36,83.33333333333333,
SAAY1407,11,pos,fs,posfs_id13_im29.bmp_posfs_id21_im22.bmp,['Im_BradPitt.png', 'Im_RyanReynolds.png', 'Im_LeonardoDiCaprio.png', 'Im_RobertPattinson.png', 'Im_BenStiller.png', 'Im_PatrickDempsey.png', 'Im_ElijahWood.png', 'Im_RobertDowneyJr.png', 'Im_GeorgeClooney.png', 'Im_MattDamon.png'],diff,1,0.41671449999921606,37,83.33333333333333,
SAAY1407,11,pos,0,pos0_id2_im2.bmp_pos0_id13_im15.bmp,['Im_BradPitt.png', 'Im_RyanReynolds.png', 'Im_LeonardoDiCaprio.png', 'Im_RobertPattinson.png', 'Im_BenStiller.png', 'Im_PatrickDempsey.png', 'Im_ElijahWood.png', 'Im_RobertDowneyJr.png', 'Im_GeorgeClooney.png', 'Im_MattDamon.png'],diff,1,0.42503779999969993,38,83.33333333333333,
SAAY1407,11,pos,120,pos120_id13_im29.bmp_pos120_id13_im10.bmp,['Im_BradPitt.png', 'Im_RyanReynolds.png', 'Im_LeonardoDiCaprio.png', 'Im_RobertPattinson.png', 'Im_BenStiller.png', 'Im_PatrickDempsey.png', 'Im_ElijahWood.png', 'Im_RobertDowneyJr.png', 'Im_GeorgeClooney.png', 'Im_MattDamon.png'],same,1,0.4249318000001949,39,83.33333333333333,
SAAY1407,11,pos,30,pos30_id13_im29.bmp_pos30_id21_im22.bmp,['Im_BradPitt.png', 'Im_RyanReynolds.png', 'Im_LeonardoDiCaprio.png', 'Im_RobertPattinson.png', 'Im_BenStiller.png', 'Im_PatrickDempsey.png', 'Im_ElijahWood.png', 'Im_RobertDowneyJr.png', 'Im_GeorgeClooney.png', 'Im_MattDamon.png'],diff,1,0.5415541999991547,40,83.33333333333333,
SAAY1407,11,pos,30,pos30_id13_im10.bmp_pos30_id13_im29.bmp,['Im_BradPitt.png', 'Im_RyanReynolds.png', 'Im_LeonardoDiCaprio.png', 'Im_RobertPattinson.png', 'Im_BenStiller.png', 'Im_PatrickDempsey.png', 'Im_ElijahWood.png', 'Im_RobertDowneyJr.png', 'Im_GeorgeClooney.png', 'Im_MattDamon.png'],same,1,0.4168024999999034,41,83.33333333333333,
SAAY1407,12,inv,60,pos60_id6_im19.bmp_pos60_id6_im12.bmp,['Im_BradPitt.png', 'Im_RyanReynolds.png', 'Im_LeonardoDiCaprio.png', 'Im_RobertPattinson.png', 'Im_BenStiller.png', 'Im_PatrickDempsey.png', 'Im_ElijahWood.png', 'Im_RobertDowneyJr.png', 'Im_GeorgeClooney.png', 'Im_MattDamon.png'],same,1,0.4166918999999325,1,97.61904761904762,
SAAY1407,12,inv,150,pos150_id3_im17.bmp_pos150_id3_im6.bmp,['Im_BradPitt.png', 'Im_RyanReynolds.png', 'Im_LeonardoDiCaprio.png', 'Im_RobertPattinson.png', 'Im_BenStiller.png', 'Im_PatrickDempsey.png', 'Im_ElijahWood.png', 'Im_RobertDowneyJr.png', 'Im_GeorgeClooney.png', 'Im_MattDamon.png'],same,1,0.41671020000103454,2,97.61904761904762,
SAAY1407,12,inv,90,pos90_id18_im18.bmp_pos90_id18_im11.bmp,['Im_BradPitt.png', 'Im_RyanReynolds.png', 'Im_LeonardoDiCaprio.png', 'Im_RobertPattinson.png', 'Im_BenStiller.png', 'Im_PatrickDempsey.png', 'Im_ElijahWood.png', 'Im_RobertDowneyJr.png', 'Im_GeorgeClooney.png', 'Im_MattDamon.png'],same,1,0.4167256000000634,3,97.61904761904762,
SAAY1407,12,inv,120,pos120_id19_im4.bmp_pos120_id19_im8.bmp,['Im_BradPitt.png', 'Im_RyanReynolds.png', 'Im_LeonardoDiCaprio.png', 'Im_RobertPattinson.png', 'Im_BenStiller.png', 'Im_PatrickDempsey.png', 'Im_ElijahWood.png', 'Im_RobertDowneyJr.png', 'Im_GeorgeClooney.png', 'Im_MattDamon.png'],same,1,0.4083649999993213,4,97.61904761904762,
SAAY1407,12,inv,150,pos150_id7_im15.bmp_pos150_id21_im16.bmp,['Im_BradPitt.png', 'Im_RyanReynolds.png', 'Im_LeonardoDiCaprio.png', 'Im_RobertPattinson.png', 'Im_BenStiller.png', 'Im_PatrickDempsey.png', 'Im_ElijahWood.png', 'Im_RobertDowneyJr.png', 'Im_GeorgeClooney.png', 'Im_MattDamon.png'],diff,1,0.4166813000010734,5,97.61904761904762,
SAAY1407,12,inv,120,pos120_id6_im12.bmp_pos120_id3_im17.bmp,['Im_BradPitt.png', 'Im_RyanReynolds.png', 'Im_LeonardoDiCaprio.png', 'Im_RobertPattinson.png', 'Im_BenStiller.png', 'Im_PatrickDempsey.png', 'Im_ElijahWood.png', 'Im_RobertDowneyJr.png', 'Im_GeorgeClooney.png', 'Im_MattDamon.png'],diff,1,0.5836279000013747,6,97.61904761904762,
SAAY1407,12,inv,30,pos30_id6_im18.bmp_pos30_id6_im19.bmp,['Im_BradPitt.png', 'Im_RyanReynolds.png', 'Im_LeonardoDiCaprio.png', 'Im_RobertPattinson.png', 'Im_BenStiller.png', 'Im_PatrickDempsey.png', 'Im_ElijahWood.png', 'Im_RobertDowneyJr.png', 'Im_GeorgeClooney.png', 'Im_MattDamon.png'],same,1,0.4084066999985225,7,97.61904761904762,
SAAY1407,12,inv,fs,posfs_id21_im22.bmp_posfs_id3_im6.bmp,['Im_BradPitt.png', 'Im_RyanReynolds.png', 'Im_LeonardoDiCaprio.png', 'Im_RobertPattinson.png', 'Im_BenStiller.png', 'Im_PatrickDempsey.png', 'Im_ElijahWood.png', 'Im_RobertDowneyJr.png', 'Im_GeorgeClooney.png', 'Im_MattDamon.png'],diff,1,0.4833200000011857,8,97.61904761904762,
SAAY1407,12,inv,30,pos30_id14_im16.bmp_pos30_id17_im8.bmp,['Im_BradPitt.png', 'Im_RyanReynolds.png', 'Im_LeonardoDiCaprio.png', 'Im_RobertPattinson.png', 'Im_BenStiller.png', 'Im_PatrickDempsey.png', 'Im_ElijahWood.png', 'Im_RobertDowneyJr.png', 'Im_GeorgeClooney.png', 'Im_MattDamon.png'],diff,1,0.5500867999999173,9,97.61904761904762,
SAAY1407,12,inv,0,pos0_id6_im12.bmp_pos0_id6_im19.bmp,['Im_BradPitt.png', 'Im_RyanReynolds.png', 'Im_LeonardoDiCaprio.png', 'Im_RobertPattinson.png', 'Im_BenStiller.png', 'Im_PatrickDempsey.png', 'Im_ElijahWood.png', 'Im_RobertDowneyJr.png', 'Im_GeorgeClooney.png', 'Im_MattDamon.png'],same,1,0.416711399999258,10,97.61904761904762,
SAAY1407,12,inv,fs,posfs_id14_im16.bmp_posfs_id14_im24.bmp,['Im_BradPitt.png', 'Im_RyanReynolds.png', 'Im_LeonardoDiCaprio.png', 'Im_RobertPattinson.png', 'Im_BenStiller.png', 'Im_PatrickDempsey.png', 'Im_ElijahWood.png', 'Im_RobertDowneyJr.png', 'Im_GeorgeClooney.png', 'Im_MattDamon.png'],same,1,0.40839520000008633,11,97.61904761904762,
SAAY1407,12,inv,60,pos60_id14_im18.bmp_pos60_id14_im16.bmp,['Im_BradPitt.png', 'Im_RyanReynolds.png', 'Im_LeonardoDiCaprio.png', 'Im_RobertPattinson.png', 'Im_BenStiller.png', 'Im_PatrickDempsey.png', 'Im_ElijahWood.png', 'Im_RobertDowneyJr.png', 'Im_GeorgeClooney.png', 'Im_MattDamon.png'],same,1,0.4250905999997485,12,97.61904761904762,
SAAY1407,12,inv,90,pos90_id2_im3.bmp_pos90_id2_im16.bmp,['Im_BradPitt.png', 'Im_RyanReynolds.png', 'Im_LeonardoDiCaprio.png', 'Im_RobertPattinson.png', 'Im_BenStiller.png', 'Im_PatrickDempsey.png', 'Im_ElijahWood.png', 'Im_RobertDowneyJr.png', 'Im_GeorgeClooney.png', 'Im_MattDamon.png'],same,1,0.4250812999998743,13,97.61904761904762,
SAAY1407,12,inv,0,pos0_id6_im12.bmp_pos0_id13_im10.bmp,['Im_BradPitt.png', 'Im_RyanReynolds.png', 'Im_LeonardoDiCaprio.png', 'Im_RobertPattinson.png', 'Im_BenStiller.png', 'Im_PatrickDempsey.png', 'Im_ElijahWood.png', 'Im_RobertDowneyJr.png', 'Im_GeorgeClooney.png', 'Im_MattDamon.png'],diff,1,0.42503670000041893,14,97.61904761904762,
SAAY1407,13,inv,fs,posfs_id2_im16.bmp_posfs_id2_im2.bmp,['Im_BradPitt.png', 'Im_RyanReynolds.png', 'Im_LeonardoDiCaprio.png', 'Im_RobertPattinson.png', 'Im_BenStiller.png', 'Im_PatrickDempsey.png', 'Im_ElijahWood.png', 'Im_RobertDowneyJr.png', 'Im_GeorgeClooney.png', 'Im_MattDamon.png'],same,1,0.42505139999957464,15,97.61904761904762,
SAAY1407,13,inv,150,pos150_id19_im27.bmp_pos150_id14_im18.bmp,['Im_BradPitt.png', 'Im_RyanReynolds.png', 'Im_LeonardoDiCaprio.png', 'Im_RobertPattinson.png', 'Im_BenStiller.png', 'Im_PatrickDempsey.png', 'Im_ElijahWood.png', 'Im_RobertDowneyJr.png', 'Im_GeorgeClooney.png', 'Im_MattDamon.png'],diff,1,1.0334534000012354,16,97.61904761904762,
SAAY1407,13,inv,0,pos0_id6_im19.bmp_pos0_id21_im17.bmp,['Im_BradPitt.png', 'Im_RyanReynolds.png', 'Im_LeonardoDiCaprio.png', 'Im_RobertPattinson.png', 'Im_BenStiller.png', 'Im_PatrickDempsey.png', 'Im_ElijahWood.png', 'Im_RobertDowneyJr.png', 'Im_GeorgeClooney.png', 'Im_MattDamon.png'],diff,1,0.41651549999915005,17,97.61904761904762,
SAAY1407,13,inv,150,pos150_id14_im24.bmp_pos150_id14_im18.bmp,['Im_BradPitt.png', 'Im_RyanReynolds.png', 'Im_LeonardoDiCaprio.png', 'Im_RobertPattinson.png', 'Im_BenStiller.png', 'Im_PatrickDempsey.png', 'Im_ElijahWood.png', 'Im_RobertDowneyJr.png', 'Im_GeorgeClooney.png', 'Im_MattDamon.png'],same,1,0.41671970000061265,18,97.61904761904762,
SAAY1407,13,inv,90,pos90_id2_im3.bmp_pos90_id18_im11.bmp,['Im_BradPitt.png', 'Im_RyanReynolds.png', 'Im_LeonardoDiCaprio.png', 'Im_RobertPattinson.png', 'Im_BenStiller.png', 'Im_PatrickDempsey.png', 'Im_ElijahWood.png', 'Im_RobertDowneyJr.png', 'Im_GeorgeClooney.png', 'Im_MattDamon.png'],same,0,0.4168117999997776,18,97.61904761904762,
SAAY1407,13,inv,90,pos90_id14_im18.bmp_pos90_id18_im11.bmp,['Im_BradPitt.png', 'Im_RyanReynolds.png', 'Im_LeonardoDiCaprio.png', 'Im_RobertPattinson.png', 'Im_BenStiller.png', 'Im_PatrickDempsey.png', 'Im_ElijahWood.png', 'Im_RobertDowneyJr.png', 'Im_GeorgeClooney.png', 'Im_MattDamon.png'],diff,1,0.425226899998961,19,97.61904761904762,
SAAY1407,13,inv,120,pos120_id2_im3.bmp_pos120_id2_im16.bmp,['Im_BradPitt.png', 'Im_RyanReynolds.png', 'Im_LeonardoDiCaprio.png', 'Im_RobertPattinson.png', 'Im_BenStiller.png', 'Im_PatrickDempsey.png', 'Im_ElijahWood.png', 'Im_RobertDowneyJr.png', 'Im_GeorgeClooney.png', 'Im_MattDamon.png'],same,1,0.41671950000090874,20,97.61904761904762,
SAAY1407,13,inv,30,pos30_id21_im17.bmp_pos30_id6_im19.bmp,['Im_BradPitt.png', 'Im_RyanReynolds.png', 'Im_LeonardoDiCaprio.png', 'Im_RobertPattinson.png', 'Im_BenStiller.png', 'Im_PatrickDempsey.png', 'Im_ElijahWood.png', 'Im_RobertDowneyJr.png', 'Im_GeorgeClooney.png', 'Im_MattDamon.png'],diff,1,0.4167039999992994,21,97.61904761904762,
SAAY1407,13,inv,0,pos0_id2_im2.bmp_pos0_id2_im16.bmp,['Im_BradPitt.png', 'Im_RyanReynolds.png', 'Im_LeonardoDiCaprio.png', 'Im_RobertPattinson.png', 'Im_BenStiller.png', 'Im_PatrickDempsey.png', 'Im_ElijahWood.png', 'Im_RobertDowneyJr.png', 'Im_GeorgeClooney.png', 'Im_MattDamon.png'],same,1,0.4167187000002741,22,97.61904761904762,
SAAY1407,13,inv,60,pos60_id14_im24.bmp_pos60_id14_im18.bmp,['Im_BradPitt.png', 'Im_RyanReynolds.png', 'Im_LeonardoDiCaprio.png', 'Im_RobertPattinson.png', 'Im_BenStiller.png', 'Im_PatrickDempsey.png', 'Im_ElijahWood.png', 'Im_RobertDowneyJr.png', 'Im_GeorgeClooney.png', 'Im_MattDamon.png'],same,1,0.41672120000112045,23,97.61904761904762,
SAAY1407,13,inv,fs,posfs_id19_im27.bmp_posfs_id3_im17.bmp,['Im_BradPitt.png', 'Im_RyanReynolds.png', 'Im_LeonardoDiCaprio.png', 'Im_RobertPattinson.png', 'Im_BenStiller.png', 'Im_PatrickDempsey.png', 'Im_ElijahWood.png', 'Im_RobertDowneyJr.png', 'Im_GeorgeClooney.png', 'Im_MattDamon.png'],same,0,0.4166900000000169,23,97.61904761904762,
SAAY1407,13,inv,30,pos30_id3_im17.bmp_pos30_id19_im27.bmp,['Im_BradPitt.png', 'Im_RyanReynolds.png', 'Im_LeonardoDiCaprio.png', 'Im_RobertPattinson.png', 'Im_BenStiller.png', 'Im_PatrickDempsey.png', 'Im_ElijahWood.png', 'Im_RobertDowneyJr.png', 'Im_GeorgeClooney.png', 'Im_MattDamon.png'],diff,1,0.508563099998355,24,97.61904761904762,
SAAY1407,13,inv,60,pos60_id17_im9.bmp_pos60_id19_im8.bmp,['Im_BradPitt.png', 'Im_RyanReynolds.png', 'Im_LeonardoDiCaprio.png', 'Im_RobertPattinson.png', 'Im_BenStiller.png', 'Im_PatrickDempsey.png', 'Im_ElijahWood.png', 'Im_RobertDowneyJr.png', 'Im_GeorgeClooney.png', 'Im_MattDamon.png'],diff,1,0.8166835000010906,25,97.61904761904762,
SAAY1407,13,inv,120,pos120_id2_im3.bmp_pos120_id7_im26.bmp,['Im_BradPitt.png', 'Im_RyanReynolds.png', 'Im_LeonardoDiCaprio.png', 'Im_RobertPattinson.png', 'Im_BenStiller.png', 'Im_PatrickDempsey.png', 'Im_ElijahWood.png', 'Im_RobertDowneyJr.png', 'Im_GeorgeClooney.png', 'Im_MattDamon.png'],diff,1,0.4167535999986285,26,97.61904761904762,
SAAY1407,14,neg,60,neg60_id2_im2.bmp_neg60_id2_im3.bmp,['Im_BradPitt.png', 'Im_RyanReynolds.png', 'Im_LeonardoDiCaprio.png', 'Im_RobertPattinson.png', 'Im_BenStiller.png', 'Im_PatrickDempsey.png', 'Im_ElijahWood.png', 'Im_RobertDowneyJr.png', 'Im_GeorgeClooney.png', 'Im_MattDamon.png'],same,1,0.42504159999953117,27,97.61904761904762,
SAAY1407,14,neg,0,neg0_id14_im18.bmp_neg0_id14_im24.bmp,['Im_BradPitt.png', 'Im_RyanReynolds.png', 'Im_LeonardoDiCaprio.png', 'Im_RobertPattinson.png', 'Im_BenStiller.png', 'Im_PatrickDempsey.png', 'Im_ElijahWood.png', 'Im_RobertDowneyJr.png', 'Im_GeorgeClooney.png', 'Im_MattDamon.png'],same,1,0.41676279999956023,28,97.61904761904762,
SAAY1407,14,neg,30,neg30_id3_im8.bmp_neg30_id18_im18.bmp,['Im_BradPitt.png', 'Im_RyanReynolds.png', 'Im_LeonardoDiCaprio.png', 'Im_RobertPattinson.png', 'Im_BenStiller.png', 'Im_PatrickDempsey.png', 'Im_ElijahWood.png', 'Im_RobertDowneyJr.png', 'Im_GeorgeClooney.png', 'Im_MattDamon.png'],diff,1,0.4251394999992044,29,97.61904761904762,
SAAY1407,14,neg,90,neg90_id21_im22.bmp_neg90_id21_im17.bmp,['Im_BradPitt.png', 'Im_RyanReynolds.png', 'Im_LeonardoDiCaprio.png', 'Im_RobertPattinson.png', 'Im_BenStiller.png', 'Im_PatrickDempsey.png', 'Im_ElijahWood.png', 'Im_RobertDowneyJr.png', 'Im_GeorgeClooney.png', 'Im_MattDamon.png'],same,1,0.4250432000008004,30,97.61904761904762,
SAAY1407,14,neg,30,neg30_id18_im11.bmp_neg30_id18_im18.bmp,['Im_BradPitt.png', 'Im_RyanReynolds.png', 'Im_LeonardoDiCaprio.png', 'Im_RobertPattinson.png', 'Im_BenStiller.png', 'Im_PatrickDempsey.png', 'Im_ElijahWood.png', 'Im_RobertDowneyJr.png', 'Im_GeorgeClooney.png', 'Im_MattDamon.png'],same,1,0.4249880999996094,31,97.61904761904762,
SAAY1407,14,neg,fs,negfs_id6_im12.bmp_negfs_id13_im10.bmp,['Im_BradPitt.png', 'Im_RyanReynolds.png', 'Im_LeonardoDiCaprio.png', 'Im_RobertPattinson.png', 'Im_BenStiller.png', 'Im_PatrickDempsey.png', 'Im_ElijahWood.png', 'Im_RobertDowneyJr.png', 'Im_GeorgeClooney.png', 'Im_MattDamon.png'],diff,1,0.5752307999991899,32,97.61904761904762,
SAAY1407,14,neg,150,neg150_id3_im17.bmp_neg150_id19_im27.bmp,['Im_BradPitt.png', 'Im_RyanReynolds.png', 'Im_LeonardoDiCaprio.png', 'Im_RobertPattinson.png', 'Im_BenStiller.png', 'Im_PatrickDempsey.png', 'Im_ElijahWood.png', 'Im_RobertDowneyJr.png', 'Im_GeorgeClooney.png', 'Im_MattDamon.png'],diff,1,0.4167527000008704,33,97.61904761904762,
SAAY1407,14,neg,120,neg120_id19_im4.bmp_neg120_id19_im8.bmp,['Im_BradPitt.png', 'Im_RyanReynolds.png', 'Im_LeonardoDiCaprio.png', 'Im_RobertPattinson.png', 'Im_BenStiller.png', 'Im_PatrickDempsey.png', 'Im_ElijahWood.png', 'Im_RobertDowneyJr.png', 'Im_GeorgeClooney.png', 'Im_MattDamon.png'],same,1,0.4421516000002157,34,97.61904761904762,
SAAY1407,14,neg,60,neg60_id6_im19.bmp_neg60_id21_im17.bmp,['Im_BradPitt.png', 'Im_RyanReynolds.png', 'Im_LeonardoDiCaprio.png', 'Im_RobertPattinson.png', 'Im_BenStiller.png', 'Im_PatrickDempsey.png', 'Im_ElijahWood.png', 'Im_RobertDowneyJr.png', 'Im_GeorgeClooney.png', 'Im_MattDamon.png'],diff,1,0.41672219999964,35,97.61904761904762,
SAAY1407,14,neg,120,neg120_id6_im19.bmp_neg120_id21_im17.bmp,['Im_BradPitt.png', 'Im_RyanReynolds.png', 'Im_LeonardoDiCaprio.png', 'Im_RobertPattinson.png', 'Im_BenStiller.png', 'Im_PatrickDempsey.png', 'Im_ElijahWood.png', 'Im_RobertDowneyJr.png', 'Im_GeorgeClooney.png', 'Im_MattDamon.png'],diff,1,0.416746000000785,36,97.61904761904762,
SAAY1407,14,neg,90,neg90_id6_im18.bmp_neg90_id21_im17.bmp,['Im_BradPitt.png', 'Im_RyanReynolds.png', 'Im_LeonardoDiCaprio.png', 'Im_RobertPattinson.png', 'Im_BenStiller.png', 'Im_PatrickDempsey.png', 'Im_ElijahWood.png', 'Im_RobertDowneyJr.png', 'Im_GeorgeClooney.png', 'Im_MattDamon.png'],diff,1,0.4167241999984981,37,97.61904761904762,
SAAY1407,14,neg,150,neg150_id17_im9.bmp_neg150_id17_im8.bmp,['Im_BradPitt.png', 'Im_RyanReynolds.png', 'Im_LeonardoDiCaprio.png', 'Im_RobertPattinson.png', 'Im_BenStiller.png', 'Im_PatrickDempsey.png', 'Im_ElijahWood.png', 'Im_RobertDowneyJr.png', 'Im_GeorgeClooney.png', 'Im_MattDamon.png'],same,1,0.4167792999996891,38,97.61904761904762,
SAAY1407,14,neg,0,neg0_id13_im10.bmp_neg0_id2_im16.bmp,['Im_BradPitt.png', 'Im_RyanReynolds.png', 'Im_LeonardoDiCaprio.png', 'Im_RobertPattinson.png', 'Im_BenStiller.png', 'Im_PatrickDempsey.png', 'Im_ElijahWood.png', 'Im_RobertDowneyJr.png', 'Im_GeorgeClooney.png', 'Im_MattDamon.png'],diff,1,0.4167515999997704,39,97.61904761904762,
SAAY1407,14,neg,fs,negfs_id19_im27.bmp_negfs_id3_im17.bmp,['Im_BradPitt.png', 'Im_RyanReynolds.png', 'Im_LeonardoDiCaprio.png', 'Im_RobertPattinson.png', 'Im_BenStiller.png', 'Im_PatrickDempsey.png', 'Im_ElijahWood.png', 'Im_RobertDowneyJr.png', 'Im_GeorgeClooney.png', 'Im_MattDamon.png'],diff,1,0.6001179000013508,40,97.61904761904762,
SAAY1407,15,pos,60,pos60_id6_im19.bmp_pos60_id17_im14.bmp,['Im_BradPitt.png', 'Im_RyanReynolds.png', 'Im_LeonardoDiCaprio.png', 'Im_RobertPattinson.png', 'Im_BenStiller.png', 'Im_PatrickDempsey.png', 'Im_ElijahWood.png', 'Im_RobertDowneyJr.png', 'Im_GeorgeClooney.png', 'Im_MattDamon.png'],diff,1,0.4250936000007641,1,95.23809523809524,
SAAY1407,15,pos,90,pos90_id17_im9.bmp_pos90_id7_im14.bmp,['Im_BradPitt.png', 'Im_RyanReynolds.png', 'Im_LeonardoDiCaprio.png', 'Im_RobertPattinson.png', 'Im_BenStiller.png', 'Im_PatrickDempsey.png', 'Im_ElijahWood.png', 'Im_RobertDowneyJr.png', 'Im_GeorgeClooney.png', 'Im_MattDamon.png'],diff,1,0.4250379000004614,2,95.23809523809524,
SAAY1407,15,pos,0,pos0_id3_im8.bmp_pos0_id18_im18.bmp,['Im_BradPitt.png', 'Im_RyanReynolds.png', 'Im_LeonardoDiCaprio.png', 'Im_RobertPattinson.png', 'Im_BenStiller.png', 'Im_PatrickDempsey.png', 'Im_ElijahWood.png', 'Im_RobertDowneyJr.png', 'Im_GeorgeClooney.png', 'Im_MattDamon.png'],diff,1,0.4250585999998293,3,95.23809523809524,
SAAY1407,15,pos,60,pos60_id18_im18.bmp_pos60_id18_im19.bmp,['Im_BradPitt.png', 'Im_RyanReynolds.png', 'Im_LeonardoDiCaprio.png', 'Im_RobertPattinson.png', 'Im_BenStiller.png', 'Im_PatrickDempsey.png', 'Im_ElijahWood.png', 'Im_RobertDowneyJr.png', 'Im_GeorgeClooney.png', 'Im_MattDamon.png'],same,1,0.4167213000000629,4,95.23809523809524,
