Sujet,Trial,Condition,Filter,Imname,Actor0,Actor1,Actor2,Actor3,Actor4,Actor5,Actor6,Actor7,Actor8,Actor9,Answer,Accu,RT,Score,Scoreperc, 
SAAY1407,_,posfs_PatrickDempsey_im8.bmp,PatrickDempsey,BenStiller,BenStiller,MattDamon,BradPitt,RyanGosling,,,,,posfs_PatrickDempsey_im8.bmp,1.5687526000000105,
SAAY1407,_,posfs_ElijahWood_im18.bmp,ElijahWood,PatrickDempsey,PatrickDempsey,JustinTimberlake,RobertPattinson,RobertDowneyJr,,,,,posfs_ElijahWood_im18.bmp,2.111097700000016,
SAAY1407,_,posfs_BenAffleck_im8.bmp,BenAffleck,OrlandoBloom,OrlandoBloom,RobertPattinson,RyanReynolds,MattDamon,,,,,posfs_BenAffleck_im8.bmp,2.089168700000016,
SAAY1407,_,posfs_HughJackman_im18.bmp,HughJackman,LeonardoDiCaprio,LeonardoDiCaprio,BradPitt,RyanGosling,DanielRadcliffe,,,,,posfs_HughJackman_im18.bmp,1.7390149000000008,
SAAY1407,_,posfs_BenStiller_im7.bmp,BenStiller,LeonardoDiCaprio,LeonardoDiCaprio,RyanGosling,DanielCraig,PatrickDempsey,,,,,posfs_BenStiller_im7.bmp,1.0275646999999992,
SAAY1407,_,posfs_PatrickDempsey_im9.bmp,PatrickDempsey,HughJackman,HughJackman,RobertDowneyJr,KeanuReeves,BenAffleck,,,,,posfs_PatrickDempsey_im9.bmp,1.7121454999999912,
SAAY1407,_,posfs_RobertPattinson_im8.bmp,RobertPattinson,DanielRadcliffe,DanielRadcliffe,OrlandoBloom,MattDamon,RyanGosling,,,,,posfs_RobertPattinson_im8.bmp,1.0568209000000195,
SAAY1407,_,posfs_KeanuReeves_im2.bmp,KeanuReeves,HughJackman,HughJackman,GeorgeClooney,RobertPattinson,BenStiller,,,,,posfs_KeanuReeves_im2.bmp,0.9729309999999884,
SAAY1407,_,posfs_BenStiller_im2.bmp,BenStiller,RobertDowneyJr,RobertDowneyJr,GeorgeClooney,DanielCraig,RyanReynolds,,,,,posfs_BenStiller_im2.bmp,1.3081487000000038,
SAAY1407,_,posfs_BenStiller_im16.bmp,BenStiller,KeanuReeves,KeanuReeves,MattDamon,JustinTimberlake,BenAffleck,,,,,posfs_BenStiller_im16.bmp,0.8611879999999701,
SAAY1407,_,posfs_ElijahWood_im12.bmp,ElijahWood,DanielRadcliffe,DanielRadcliffe,RobertDowneyJr,GeorgeClooney,BenStiller,,,,,posfs_ElijahWood_im12.bmp,1.2568448000000103,
SAAY1407,_,posfs_KeanuReeves_im1.bmp,KeanuReeves,LeonardoDiCaprio,LeonardoDiCaprio,BradPitt,JustinTimberlake,RobertPattinson,,,,,posfs_KeanuReeves_im1.bmp,1.5246682999999734,
SAAY1407,_,posfs_GeorgeClooney_im26.bmp,GeorgeClooney,LeonardoDiCaprio,LeonardoDiCaprio,RobertPattinson,BenAffleck,ElijahWood,,,,,posfs_GeorgeClooney_im26.bmp,1.5014426999999841,
SAAY1407,_,posfs_DanielRadcliffe_im1.bmp,DanielRadcliffe,BradPitt,BradPitt,LeonardoDiCaprio,BenStiller,RobertPattinson,,,,,posfs_DanielRadcliffe_im1.bmp,0.9593858000000068,
SAAY1407,_,posfs_OrlandoBloom_im3.bmp,OrlandoBloom,RobertPattinson,RobertPattinson,RyanReynolds,RyanGosling,RobertDowneyJr,,,,,posfs_OrlandoBloom_im3.bmp,2.814171799999997,
SAAY1407,_,posfs_DanielRadcliffe_im10.bmp,DanielRadcliffe,LeonardoDiCaprio,LeonardoDiCaprio,KeanuReeves,ElijahWood,MattDamon,,,,,posfs_DanielRadcliffe_im10.bmp,3.7403439000000276,
SAAY1407,_,posfs_HughJackman_im20.bmp,HughJackman,JustinTimberlake,JustinTimberlake,RyanReynolds,DanielCraig,OrlandoBloom,,,,,posfs_HughJackman_im20.bmp,1.0919648999999936,
SAAY1407,_,posfs_RyanGosling_im12.bmp,RyanGosling,PatrickDempsey,PatrickDempsey,RyanReynolds,BradPitt,DanielCraig,,,,,1,0.7183971999999699,
SAAY1407,_,posfs_RyanGosling_im25.bmp,RyanGosling,DanielCraig,DanielCraig,KeanuReeves,BradPitt,MattDamon,,,,,posfs_RyanGosling_im25.bmp,1.719504900000004,
SAAY1407,_,posfs_HughJackman_im13.bmp,HughJackman,BradPitt,BradPitt,PatrickDempsey,MattDamon,RobertPattinson,,,,,posfs_HughJackman_im13.bmp,1.3284368999999856,
SAAY1407,_,posfs_RobertDowneyJr_im18.bmp,RobertDowneyJr,MattDamon,MattDamon,BradPitt,GeorgeClooney,JustinTimberlake,,,,,posfs_RobertDowneyJr_im18.bmp,0.7299472999999921,
SAAY1407,_,posfs_RyanReynolds_im17.bmp,RyanReynolds,PatrickDempsey,PatrickDempsey,ElijahWood,BenStiller,BradPitt,,,,,posfs_RyanReynolds_im17.bmp,0.7220528000000286,
SAAY1407,_,posfs_LeonardoDiCaprio_im10.bmp,LeonardoDiCaprio,BenStiller,BenStiller,RyanGosling,PatrickDempsey,RobertPattinson,,,,,posfs_LeonardoDiCaprio_im10.bmp,1.5638798999999608,
SAAY1407,_,posfs_DanielRadcliffe_im8.bmp,DanielRadcliffe,MattDamon,MattDamon,PatrickDempsey,RyanReynolds,RobertDowneyJr,,,,,posfs_DanielRadcliffe_im8.bmp,1.6348199999999906,
SAAY1407,_,posfs_RyanReynolds_im22.bmp,RyanReynolds,JustinTimberlake,JustinTimberlake,BradPitt,KeanuReeves,LeonardoDiCaprio,,,,,posfs_RyanReynolds_im22.bmp,0.7905801999999653,
SAAY1407,_,posfs_HughJackman_im21.bmp,HughJackman,OrlandoBloom,OrlandoBloom,GeorgeClooney,RyanGosling,BradPitt,,,,,posfs_HughJackman_im21.bmp,0.9898107999999866,
SAAY1407,_,posfs_DanielCraig_im7.bmp,DanielCraig,BenAffleck,BenAffleck,KeanuReeves,PatrickDempsey,DanielRadcliffe,,,,,posfs_DanielCraig_im7.bmp,0.8203662999999892,
SAAY1407,_,posfs_GeorgeClooney_im14.bmp,GeorgeClooney,KeanuReeves,KeanuReeves,LeonardoDiCaprio,PatrickDempsey,RobertPattinson,,,,,posfs_GeorgeClooney_im14.bmp,1.049604400000021,
SAAY1407,_,posfs_KeanuReeves_im10.bmp,KeanuReeves,MattDamon,MattDamon,OrlandoBloom,PatrickDempsey,LeonardoDiCaprio,,,,,posfs_KeanuReeves_im10.bmp,1.9569099000000278,
SAAY1407,_,posfs_DanielCraig_im20.bmp,DanielCraig,BenStiller,BenStiller,BradPitt,LeonardoDiCaprio,OrlandoBloom,,,,,posfs_DanielCraig_im20.bmp,1.364331399999969,
SAAY1407,_,posfs_PatrickDempsey_im16.bmp,PatrickDempsey,BradPitt,BradPitt,DanielCraig,DanielRadcliffe,LeonardoDiCaprio,,,,,posfs_PatrickDempsey_im16.bmp,1.17213959999998,
SAAY1407,_,posfs_ElijahWood_im23.bmp,ElijahWood,BenAffleck,BenAffleck,RyanGosling,BenStiller,RobertDowneyJr,,,,,posfs_ElijahWood_im23.bmp,0.7388660999999956,
SAAY1407,_,posfs_BenAffleck_im21.bmp,BenAffleck,RyanGosling,RyanGosling,GeorgeClooney,ElijahWood,BradPitt,,,,,posfs_BenAffleck_im21.bmp,0.6265941999999995,
SAAY1407,_,posfs_MattDamon_im18.bmp,MattDamon,DanielCraig,DanielCraig,PatrickDempsey,DanielRadcliffe,ElijahWood,,,,,posfs_MattDamon_im18.bmp,1.3281626000000415,
SAAY1407,_,posfs_RobertPattinson_im27.bmp,RobertPattinson,RyanReynolds,RyanReynolds,OrlandoBloom,MattDamon,KeanuReeves,,,,,posfs_RobertPattinson_im27.bmp,1.024845599999992,
SAAY1407,_,posfs_BradPitt_im14.bmp,BradPitt,MattDamon,MattDamon,DanielCraig,OrlandoBloom,LeonardoDiCaprio,,,,,posfs_BradPitt_im14.bmp,1.077971400000024,
SAAY1407,_,posfs_JustinTimberlake_im17.bmp,JustinTimberlake,MattDamon,MattDamon,LeonardoDiCaprio,ElijahWood,GeorgeClooney,,,,,posfs_JustinTimberlake_im17.bmp,0.9367991999999958,
SAAY1407,_,posfs_MattDamon_im16.bmp,MattDamon,LeonardoDiCaprio,LeonardoDiCaprio,RyanGosling,KeanuReeves,BenStiller,,,,,posfs_MattDamon_im16.bmp,1.0247211999999877,
SAAY1407,_,posfs_OrlandoBloom_im19.bmp,OrlandoBloom,ElijahWood,ElijahWood,DanielCraig,PatrickDempsey,LeonardoDiCaprio,,,,,posfs_OrlandoBloom_im19.bmp,0.89452,
SAAY1407,_,posfs_RyanGosling_im3.bmp,RyanGosling,RobertPattinson,RobertPattinson,PatrickDempsey,DanielCraig,JustinTimberlake,,,,,posfs_RyanGosling_im3.bmp,1.392365400000017,
SAAY1407,_,posfs_RobertPattinson_im30.bmp,RobertPattinson,DanielRadcliffe,DanielRadcliffe,DanielCraig,BenAffleck,JustinTimberlake,,,,,posfs_RobertPattinson_im30.bmp,0.7908770000000231,
SAAY1407,_,posfs_DanielRadcliffe_im20.bmp,DanielRadcliffe,GeorgeClooney,GeorgeClooney,ElijahWood,RobertPattinson,KeanuReeves,,,,,posfs_DanielRadcliffe_im20.bmp,1.2917453000000023,
SAAY1407,_,posfs_BradPitt_im6.bmp,BradPitt,RyanGosling,RyanGosling,RobertDowneyJr,OrlandoBloom,HughJackman,,,,,posfs_BradPitt_im6.bmp,0.8061664999999607,
SAAY1407,_,posfs_BenAffleck_im24.bmp,BenAffleck,OrlandoBloom,OrlandoBloom,DanielRadcliffe,MattDamon,GeorgeClooney,,,,,posfs_BenAffleck_im24.bmp,1.1235929000000056,
SAAY1407,_,posfs_BenStiller_im3.bmp,BenStiller,ElijahWood,ElijahWood,JustinTimberlake,BradPitt,RobertDowneyJr,,,,,posfs_BenStiller_im3.bmp,1.957300499999974,
SAAY1407,_,posfs_OrlandoBloom_im30.bmp,OrlandoBloom,JustinTimberlake,JustinTimberlake,BradPitt,KeanuReeves,RyanGosling,,,,,posfs_OrlandoBloom_im30.bmp,0.9803188999999861,
SAAY1407,_,posfs_LeonardoDiCaprio_im24.bmp,LeonardoDiCaprio,DanielCraig,DanielCraig,BradPitt,PatrickDempsey,RyanGosling,,,,,posfs_LeonardoDiCaprio_im24.bmp,0.8833478000000241,
SAAY1407,_,posfs_BradPitt_im8.bmp,BradPitt,BenStiller,BenStiller,BenAffleck,OrlandoBloom,RobertPattinson,,,,,posfs_BradPitt_im8.bmp,0.9654851000000235,
SAAY1407,_,posfs_PatrickDempsey_im14.bmp,PatrickDempsey,KeanuReeves,KeanuReeves,RobertDowneyJr,HughJackman,RyanReynolds,,,,,posfs_PatrickDempsey_im14.bmp,0.908270200000004,
SAAY1407,_,posfs_LeonardoDiCaprio_im29.bmp,LeonardoDiCaprio,RobertDowneyJr,RobertDowneyJr,PatrickDempsey,OrlandoBloom,DanielCraig,,,,,posfs_LeonardoDiCaprio_im29.bmp,1.3016066000000137,
SAAY1407,_,posfs_JustinTimberlake_im1.bmp,JustinTimberlake,BenAffleck,BenAffleck,ElijahWood,PatrickDempsey,HughJackman,,,,,posfs_JustinTimberlake_im1.bmp,0.9825088000000051,
SAAY1407,_,posfs_JustinTimberlake_im4.bmp,JustinTimberlake,BenStiller,BenStiller,RobertDowneyJr,OrlandoBloom,PatrickDempsey,,,,,posfs_JustinTimberlake_im4.bmp,0.9170705999999882,
SAAY1407,_,posfs_BradPitt_im17.bmp,BradPitt,PatrickDempsey,PatrickDempsey,LeonardoDiCaprio,JustinTimberlake,HughJackman,,,,,posfs_BradPitt_im17.bmp,0.6062434000000394,
SAAY1407,_,posfs_OrlandoBloom_im2.bmp,OrlandoBloom,BenAffleck,BenAffleck,RyanGosling,MattDamon,RobertDowneyJr,,,,,posfs_OrlandoBloom_im2.bmp,0.963700700000004,
SAAY1407,_,posfs_DanielCraig_im15.bmp,DanielCraig,BenAffleck,BenAffleck,MattDamon,BenStiller,HughJackman,,,,,posfs_DanielCraig_im15.bmp,1.2027279000000135,
SAAY1407,_,posfs_RyanReynolds_im3.bmp,RyanReynolds,BenAffleck,BenAffleck,DanielCraig,MattDamon,OrlandoBloom,,,,,posfs_RyanReynolds_im3.bmp,1.176043400000026,
SAAY1407,_,posfs_BenAffleck_im4.bmp,BenAffleck,BenStiller,BenStiller,KeanuReeves,ElijahWood,PatrickDempsey,,,,,posfs_BenAffleck_im4.bmp,1.1434239999999818,
SAAY1407,_,posfs_RobertPattinson_im4.bmp,RobertPattinson,DanielRadcliffe,DanielRadcliffe,RyanGosling,MattDamon,ElijahWood,,,,,posfs_RobertPattinson_im4.bmp,1.0714623000000074,
SAAY1407,_,posfs_RobertDowneyJr_im11.bmp,RobertDowneyJr,HughJackman,HughJackman,RyanGosling,JustinTimberlake,BenStiller,,,,,posfs_RobertDowneyJr_im11.bmp,1.0896683999999937,
SAAY1407,_,posfs_KeanuReeves_im8.bmp,KeanuReeves,BenAffleck,BenAffleck,LeonardoDiCaprio,RyanGosling,GeorgeClooney,,,,,posfs_KeanuReeves_im8.bmp,0.858909199999971,
SAAY1407,_,posfs_GeorgeClooney_im15.bmp,GeorgeClooney,JustinTimberlake,JustinTimberlake,DanielRadcliffe,DanielCraig,BenAffleck,,,,,posfs_GeorgeClooney_im15.bmp,1.0121796999999901,
SAAY1407,_,posfs_DanielCraig_im8.bmp,DanielCraig,RobertPattinson,RobertPattinson,BenAffleck,BenStiller,LeonardoDiCaprio,,,,,posfs_DanielCraig_im8.bmp,1.2160669999999527,
SAAY1407,_,posfs_RobertDowneyJr_im19.bmp,RobertDowneyJr,DanielRadcliffe,DanielRadcliffe,DanielCraig,PatrickDempsey,BenStiller,,,,,posfs_RobertDowneyJr_im19.bmp,0.8283313000000021,
SAAY1407,_,posfs_ElijahWood_im19.bmp,ElijahWood,PatrickDempsey,PatrickDempsey,RyanReynolds,BenAffleck,OrlandoBloom,,,,,posfs_ElijahWood_im19.bmp,0.8090005000000247,
SAAY1407,_,posfs_RyanReynolds_im16.bmp,RyanReynolds,OrlandoBloom,OrlandoBloom,RobertPattinson,RyanGosling,LeonardoDiCaprio,,,,,posfs_RyanReynolds_im16.bmp,0.9251250000000368,
SAAY1407,_,posfs_RyanGosling_im30.bmp,RyanGosling,RyanReynolds,RyanReynolds,DanielCraig,PatrickDempsey,RobertPattinson,,,,,posfs_RyanGosling_im30.bmp,2.3731116000000156,
SAAY1407,_,posfs_MattDamon_im24.bmp,MattDamon,RobertDowneyJr,RobertDowneyJr,BradPitt,HughJackman,RobertPattinson,,,,,posfs_MattDamon_im24.bmp,0.8507974000000331,
SAAY1407,_,posfs_RobertDowneyJr_im4.bmp,RobertDowneyJr,RyanGosling,RyanGosling,BradPitt,HughJackman,ElijahWood,,,,,posfs_RobertDowneyJr_im4.bmp,2.1025028000000248,
SAAY1407,_,posfs_JustinTimberlake_im18.bmp,JustinTimberlake,ElijahWood,ElijahWood,RyanGosling,DanielRadcliffe,LeonardoDiCaprio,,,,,posfs_JustinTimberlake_im18.bmp,1.5039621000000238,
SAAY1407,_,posfs_MattDamon_im9.bmp,MattDamon,BradPitt,BradPitt,HughJackman,DanielCraig,LeonardoDiCaprio,,,,,posfs_MattDamon_im9.bmp,1.3691911999999888,
SAAY1407,_,posfs_LeonardoDiCaprio_im15.bmp,LeonardoDiCaprio,RobertPattinson,RobertPattinson,DanielCraig,BradPitt,DanielRadcliffe,,,,,posfs_LeonardoDiCaprio_im15.bmp,0.9195625000000405,
SAAY1407,_,posfs_GeorgeClooney_im23.bmp,GeorgeClooney,BenAffleck,BenAffleck,MattDamon,OrlandoBloom,KeanuReeves,,,,,posfs_GeorgeClooney_im23.bmp,1.760096400000009,
SAAY1407,train,pos,fs,posfs_id13_im15.bmp_posfs_id13_im10.bmp,['Im_ElijahWood.png', 'Im_BenStiller.png', 'Im_GeorgeClooney.png', 'Im_RobertDowneyJr.png', 'Im_LeonardoDiCaprio.png', 'Im_MattDamon.png', 'Im_RyanReynolds.png', 'Im_RobertPattinson.png', 'Im_PatrickDempsey.png', 'Im_BradPitt.png'],same,1,0.7500054000000773,1,0,
SAAY1407,train,pos,fs,posfs_id19_im27.bmp_posfs_id19_im8.bmp,['Im_ElijahWood.png', 'Im_BenStiller.png', 'Im_GeorgeClooney.png', 'Im_RobertDowneyJr.png', 'Im_LeonardoDiCaprio.png', 'Im_MattDamon.png', 'Im_RyanReynolds.png', 'Im_RobertPattinson.png', 'Im_PatrickDempsey.png', 'Im_BradPitt.png'],same,1,0.5167132000000265,2,0,
SAAY1407,train,pos,fs,posfs_id19_im8.bmp_posfs_id14_im16.bmp,['Im_ElijahWood.png', 'Im_BenStiller.png', 'Im_GeorgeClooney.png', 'Im_RobertDowneyJr.png', 'Im_LeonardoDiCaprio.png', 'Im_MattDamon.png', 'Im_RyanReynolds.png', 'Im_RobertPattinson.png', 'Im_PatrickDempsey.png', 'Im_BradPitt.png'],diff,1,0.6833315000000084,3,0,
SAAY1407,train,pos,fs,posfs_id14_im16.bmp_posfs_id14_im24.bmp,['Im_ElijahWood.png', 'Im_BenStiller.png', 'Im_GeorgeClooney.png', 'Im_RobertDowneyJr.png', 'Im_LeonardoDiCaprio.png', 'Im_MattDamon.png', 'Im_RyanReynolds.png', 'Im_RobertPattinson.png', 'Im_PatrickDempsey.png', 'Im_BradPitt.png'],same,1,0.7080349000000297,4,0,
SAAY1407,train,pos,fs,posfs_id21_im17.bmp_posfs_id21_im22.bmp,['Im_ElijahWood.png', 'Im_BenStiller.png', 'Im_GeorgeClooney.png', 'Im_RobertDowneyJr.png', 'Im_LeonardoDiCaprio.png', 'Im_MattDamon.png', 'Im_RyanReynolds.png', 'Im_RobertPattinson.png', 'Im_PatrickDempsey.png', 'Im_BradPitt.png'],same,1,0.7251586000000998,5,0,
SAAY1407,train,pos,fs,posfs_id3_im17.bmp_posfs_id6_im12.bmp,['Im_ElijahWood.png', 'Im_BenStiller.png', 'Im_GeorgeClooney.png', 'Im_RobertDowneyJr.png', 'Im_LeonardoDiCaprio.png', 'Im_MattDamon.png', 'Im_RyanReynolds.png', 'Im_RobertPattinson.png', 'Im_PatrickDempsey.png', 'Im_BradPitt.png'],diff,1,0.5666721999999709,6,0,
SAAY1407,train,pos,fs,posfs_id13_im29.bmp_posfs_id13_im10.bmp,['Im_ElijahWood.png', 'Im_BenStiller.png', 'Im_GeorgeClooney.png', 'Im_RobertDowneyJr.png', 'Im_LeonardoDiCaprio.png', 'Im_MattDamon.png', 'Im_RyanReynolds.png', 'Im_RobertPattinson.png', 'Im_PatrickDempsey.png', 'Im_BradPitt.png'],same,1,0.5748012999999901,7,0,
SAAY1407,train,pos,fs,posfs_id7_im15.bmp_posfs_id21_im16.bmp,['Im_ElijahWood.png', 'Im_BenStiller.png', 'Im_GeorgeClooney.png', 'Im_RobertDowneyJr.png', 'Im_LeonardoDiCaprio.png', 'Im_MattDamon.png', 'Im_RyanReynolds.png', 'Im_RobertPattinson.png', 'Im_PatrickDempsey.png', 'Im_BradPitt.png'],diff,1,0.7416162000000668,8,0,
SAAY1407,train,pos,fs,posfs_id13_im29.bmp_posfs_id14_im24.bmp,['Im_ElijahWood.png', 'Im_BenStiller.png', 'Im_GeorgeClooney.png', 'Im_RobertDowneyJr.png', 'Im_LeonardoDiCaprio.png', 'Im_MattDamon.png', 'Im_RyanReynolds.png', 'Im_RobertPattinson.png', 'Im_PatrickDempsey.png', 'Im_BradPitt.png'],diff,1,0.666708700000072,9,0,
SAAY1407,train,pos,fs,posfs_id19_im8.bmp_posfs_id17_im9.bmp,['Im_ElijahWood.png', 'Im_BenStiller.png', 'Im_GeorgeClooney.png', 'Im_RobertDowneyJr.png', 'Im_LeonardoDiCaprio.png', 'Im_MattDamon.png', 'Im_RyanReynolds.png', 'Im_RobertPattinson.png', 'Im_PatrickDempsey.png', 'Im_BradPitt.png'],diff,1,0.5583953999999949,10,0,
SAAY1407,train,pos,fs,posfs_id3_im17.bmp_posfs_id3_im8.bmp,['Im_ElijahWood.png', 'Im_BenStiller.png', 'Im_GeorgeClooney.png', 'Im_RobertDowneyJr.png', 'Im_LeonardoDiCaprio.png', 'Im_MattDamon.png', 'Im_RyanReynolds.png', 'Im_RobertPattinson.png', 'Im_PatrickDempsey.png', 'Im_BradPitt.png'],same,1,0.5331262000000834,11,0,
SAAY1407,train,pos,fs,posfs_id17_im9.bmp_posfs_id7_im14.bmp,['Im_ElijahWood.png', 'Im_BenStiller.png', 'Im_GeorgeClooney.png', 'Im_RobertDowneyJr.png', 'Im_LeonardoDiCaprio.png', 'Im_MattDamon.png', 'Im_RyanReynolds.png', 'Im_RobertPattinson.png', 'Im_PatrickDempsey.png', 'Im_BradPitt.png'],diff,1,0.5252594999999474,12,0,
SAAY1407,train,pos,fs,posfs_id13_im10.bmp_posfs_id2_im16.bmp,['Im_ElijahWood.png', 'Im_BenStiller.png', 'Im_GeorgeClooney.png', 'Im_RobertDowneyJr.png', 'Im_LeonardoDiCaprio.png', 'Im_MattDamon.png', 'Im_RyanReynolds.png', 'Im_RobertPattinson.png', 'Im_PatrickDempsey.png', 'Im_BradPitt.png'],diff,1,0.5584079999999858,13,0,
SAAY1407,train,pos,fs,posfs_id3_im8.bmp_posfs_id18_im18.bmp,['Im_ElijahWood.png', 'Im_BenStiller.png', 'Im_GeorgeClooney.png', 'Im_RobertDowneyJr.png', 'Im_LeonardoDiCaprio.png', 'Im_MattDamon.png', 'Im_RyanReynolds.png', 'Im_RobertPattinson.png', 'Im_PatrickDempsey.png', 'Im_BradPitt.png'],diff,1,0.5416815999999471,14,0,
SAAY1407,train,pos,fs,posfs_id13_im29.bmp_posfs_id13_im15.bmp,['Im_ElijahWood.png', 'Im_BenStiller.png', 'Im_GeorgeClooney.png', 'Im_RobertDowneyJr.png', 'Im_LeonardoDiCaprio.png', 'Im_MattDamon.png', 'Im_RyanReynolds.png', 'Im_RobertPattinson.png', 'Im_PatrickDempsey.png', 'Im_BradPitt.png'],same,1,0.6000208000000384,15,0,
SAAY1407,train,pos,fs,posfs_id6_im19.bmp_posfs_id17_im14.bmp,['Im_ElijahWood.png', 'Im_BenStiller.png', 'Im_GeorgeClooney.png', 'Im_RobertDowneyJr.png', 'Im_LeonardoDiCaprio.png', 'Im_MattDamon.png', 'Im_RyanReynolds.png', 'Im_RobertPattinson.png', 'Im_PatrickDempsey.png', 'Im_BradPitt.png'],diff,1,0.6083210000000463,16,0,
SAAY1407,train,pos,fs,posfs_id7_im26.bmp_posfs_id2_im3.bmp,['Im_ElijahWood.png', 'Im_BenStiller.png', 'Im_GeorgeClooney.png', 'Im_RobertDowneyJr.png', 'Im_LeonardoDiCaprio.png', 'Im_MattDamon.png', 'Im_RyanReynolds.png', 'Im_RobertPattinson.png', 'Im_PatrickDempsey.png', 'Im_BradPitt.png'],diff,1,0.5166841000000204,17,0,
SAAY1407,train,pos,fs,posfs_id17_im8.bmp_posfs_id14_im16.bmp,['Im_ElijahWood.png', 'Im_BenStiller.png', 'Im_GeorgeClooney.png', 'Im_RobertDowneyJr.png', 'Im_LeonardoDiCaprio.png', 'Im_MattDamon.png', 'Im_RyanReynolds.png', 'Im_RobertPattinson.png', 'Im_PatrickDempsey.png', 'Im_BradPitt.png'],diff,1,0.5249360999999908,18,0,
SAAY1407,train,pos,fs,posfs_id6_im19.bmp_posfs_id21_im17.bmp,['Im_ElijahWood.png', 'Im_BenStiller.png', 'Im_GeorgeClooney.png', 'Im_RobertDowneyJr.png', 'Im_LeonardoDiCaprio.png', 'Im_MattDamon.png', 'Im_RyanReynolds.png', 'Im_RobertPattinson.png', 'Im_PatrickDempsey.png', 'Im_BradPitt.png'],diff,1,0.8668470999999727,19,0,
SAAY1407,train,pos,fs,posfs_id6_im18.bmp_posfs_id6_im12.bmp,['Im_ElijahWood.png', 'Im_BenStiller.png', 'Im_GeorgeClooney.png', 'Im_RobertDowneyJr.png', 'Im_LeonardoDiCaprio.png', 'Im_MattDamon.png', 'Im_RyanReynolds.png', 'Im_RobertPattinson.png', 'Im_PatrickDempsey.png', 'Im_BradPitt.png'],same,1,0.6835997000000589,20,0,
SAAY1407,train,inv,fs,posfs_id7_im26.bmp_posfs_id19_im4.bmp,['Im_ElijahWood.png', 'Im_BenStiller.png', 'Im_GeorgeClooney.png', 'Im_RobertDowneyJr.png', 'Im_LeonardoDiCaprio.png', 'Im_MattDamon.png', 'Im_RyanReynolds.png', 'Im_RobertPattinson.png', 'Im_PatrickDempsey.png', 'Im_BradPitt.png'],diff,1,0.43324009999992086,1,0,
SAAY1407,train,inv,fs,posfs_id17_im8.bmp_posfs_id6_im18.bmp,['Im_ElijahWood.png', 'Im_BenStiller.png', 'Im_GeorgeClooney.png', 'Im_RobertDowneyJr.png', 'Im_LeonardoDiCaprio.png', 'Im_MattDamon.png', 'Im_RyanReynolds.png', 'Im_RobertPattinson.png', 'Im_PatrickDempsey.png', 'Im_BradPitt.png'],diff,1,0.591856299999904,2,0,
SAAY1407,train,neg,fs,negfs_id2_im16.bmp_negfs_id2_im3.bmp,['Im_ElijahWood.png', 'Im_BenStiller.png', 'Im_GeorgeClooney.png', 'Im_RobertDowneyJr.png', 'Im_LeonardoDiCaprio.png', 'Im_MattDamon.png', 'Im_RyanReynolds.png', 'Im_RobertPattinson.png', 'Im_PatrickDempsey.png', 'Im_BradPitt.png'],same,1,0.4082513000000745,3,0,
SAAY1407,train,inv,fs,posfs_id7_im14.bmp_posfs_id17_im9.bmp,['Im_ElijahWood.png', 'Im_BenStiller.png', 'Im_GeorgeClooney.png', 'Im_RobertDowneyJr.png', 'Im_LeonardoDiCaprio.png', 'Im_MattDamon.png', 'Im_RyanReynolds.png', 'Im_RobertPattinson.png', 'Im_PatrickDempsey.png', 'Im_BradPitt.png'],diff,1,0.40838829999995596,4,0,
SAAY1407,train,pos,fs,posfs_id14_im16.bmp_posfs_id14_im24.bmp,['Im_ElijahWood.png', 'Im_BenStiller.png', 'Im_GeorgeClooney.png', 'Im_RobertDowneyJr.png', 'Im_LeonardoDiCaprio.png', 'Im_MattDamon.png', 'Im_RyanReynolds.png', 'Im_RobertPattinson.png', 'Im_PatrickDempsey.png', 'Im_BradPitt.png'],same,1,0.4084097999999585,5,0,
SAAY1407,train,pos,fs,posfs_id7_im26.bmp_posfs_id7_im15.bmp,['Im_ElijahWood.png', 'Im_BenStiller.png', 'Im_GeorgeClooney.png', 'Im_RobertDowneyJr.png', 'Im_LeonardoDiCaprio.png', 'Im_MattDamon.png', 'Im_RyanReynolds.png', 'Im_RobertPattinson.png', 'Im_PatrickDempsey.png', 'Im_BradPitt.png'],same,1,0.3999276000000691,6,0,
SAAY1407,train,pos,fs,posfs_id18_im19.bmp_posfs_id18_im18.bmp,['Im_ElijahWood.png', 'Im_BenStiller.png', 'Im_GeorgeClooney.png', 'Im_RobertDowneyJr.png', 'Im_LeonardoDiCaprio.png', 'Im_MattDamon.png', 'Im_RyanReynolds.png', 'Im_RobertPattinson.png', 'Im_PatrickDempsey.png', 'Im_BradPitt.png'],same,1,0.4084053000000267,7,0,
SAAY1407,train,neg,fs,negfs_id17_im9.bmp_negfs_id7_im14.bmp,['Im_ElijahWood.png', 'Im_BenStiller.png', 'Im_GeorgeClooney.png', 'Im_RobertDowneyJr.png', 'Im_LeonardoDiCaprio.png', 'Im_MattDamon.png', 'Im_RyanReynolds.png', 'Im_RobertPattinson.png', 'Im_PatrickDempsey.png', 'Im_BradPitt.png'],diff,1,0.40850749999992786,8,0,
SAAY1407,train,pos,fs,posfs_id17_im14.bmp_posfs_id17_im8.bmp,['Im_ElijahWood.png', 'Im_BenStiller.png', 'Im_GeorgeClooney.png', 'Im_RobertDowneyJr.png', 'Im_LeonardoDiCaprio.png', 'Im_MattDamon.png', 'Im_RyanReynolds.png', 'Im_RobertPattinson.png', 'Im_PatrickDempsey.png', 'Im_BradPitt.png'],same,1,0.5667416000000003,9,0,
SAAY1407,train,neg,fs,negfs_id21_im16.bmp_negfs_id21_im22.bmp,['Im_ElijahWood.png', 'Im_BenStiller.png', 'Im_GeorgeClooney.png', 'Im_RobertDowneyJr.png', 'Im_LeonardoDiCaprio.png', 'Im_MattDamon.png', 'Im_RyanReynolds.png', 'Im_RobertPattinson.png', 'Im_PatrickDempsey.png', 'Im_BradPitt.png'],same,1,0.5419815000000199,10,0,
SAAY1407,train,inv,fs,posfs_id19_im27.bmp_posfs_id14_im18.bmp,['Im_ElijahWood.png', 'Im_BenStiller.png', 'Im_GeorgeClooney.png', 'Im_RobertDowneyJr.png', 'Im_LeonardoDiCaprio.png', 'Im_MattDamon.png', 'Im_RyanReynolds.png', 'Im_RobertPattinson.png', 'Im_PatrickDempsey.png', 'Im_BradPitt.png'],diff,1,0.4667474000000311,11,0,
SAAY1407,train,neg,fs,negfs_id19_im8.bmp_negfs_id19_im27.bmp,['Im_ElijahWood.png', 'Im_BenStiller.png', 'Im_GeorgeClooney.png', 'Im_RobertDowneyJr.png', 'Im_LeonardoDiCaprio.png', 'Im_MattDamon.png', 'Im_RyanReynolds.png', 'Im_RobertPattinson.png', 'Im_PatrickDempsey.png', 'Im_BradPitt.png'],same,1,0.40843760000007023,12,0,
SAAY1407,train,inv,fs,posfs_id3_im17.bmp_posfs_id6_im12.bmp,['Im_ElijahWood.png', 'Im_BenStiller.png', 'Im_GeorgeClooney.png', 'Im_RobertDowneyJr.png', 'Im_LeonardoDiCaprio.png', 'Im_MattDamon.png', 'Im_RyanReynolds.png', 'Im_RobertPattinson.png', 'Im_PatrickDempsey.png', 'Im_BradPitt.png'],diff,1,0.4083764000000656,13,0,
SAAY1407,train,pos,fs,posfs_id19_im27.bmp_posfs_id14_im18.bmp,['Im_ElijahWood.png', 'Im_BenStiller.png', 'Im_GeorgeClooney.png', 'Im_RobertDowneyJr.png', 'Im_LeonardoDiCaprio.png', 'Im_MattDamon.png', 'Im_RyanReynolds.png', 'Im_RobertPattinson.png', 'Im_PatrickDempsey.png', 'Im_BradPitt.png'],diff,1,0.4000487000000703,14,0,
SAAY1407,train,neg,fs,negfs_id17_im8.bmp_negfs_id17_im14.bmp,['Im_ElijahWood.png', 'Im_BenStiller.png', 'Im_GeorgeClooney.png', 'Im_RobertDowneyJr.png', 'Im_LeonardoDiCaprio.png', 'Im_MattDamon.png', 'Im_RyanReynolds.png', 'Im_RobertPattinson.png', 'Im_PatrickDempsey.png', 'Im_BradPitt.png'],same,1,0.40008190000003196,15,0,
SAAY1407,train,inv,fs,posfs_id2_im2.bmp_posfs_id2_im16.bmp,['Im_ElijahWood.png', 'Im_BenStiller.png', 'Im_GeorgeClooney.png', 'Im_RobertDowneyJr.png', 'Im_LeonardoDiCaprio.png', 'Im_MattDamon.png', 'Im_RyanReynolds.png', 'Im_RobertPattinson.png', 'Im_PatrickDempsey.png', 'Im_BradPitt.png'],same,1,0.40839599999992515,16,0,
SAAY1407,train,pos,fs,posfs_id3_im6.bmp_posfs_id21_im22.bmp,['Im_ElijahWood.png', 'Im_BenStiller.png', 'Im_GeorgeClooney.png', 'Im_RobertDowneyJr.png', 'Im_LeonardoDiCaprio.png', 'Im_MattDamon.png', 'Im_RyanReynolds.png', 'Im_RobertPattinson.png', 'Im_PatrickDempsey.png', 'Im_BradPitt.png'],diff,1,0.4086846999999807,17,0,
SAAY1407,train,inv,fs,posfs_id13_im10.bmp_posfs_id13_im15.bmp,['Im_ElijahWood.png', 'Im_BenStiller.png', 'Im_GeorgeClooney.png', 'Im_RobertDowneyJr.png', 'Im_LeonardoDiCaprio.png', 'Im_MattDamon.png', 'Im_RyanReynolds.png', 'Im_RobertPattinson.png', 'Im_PatrickDempsey.png', 'Im_BradPitt.png'],same,1,0.7669611999999688,18,0,
SAAY1407,train,neg,fs,negfs_id21_im16.bmp_negfs_id21_im17.bmp,['Im_ElijahWood.png', 'Im_BenStiller.png', 'Im_GeorgeClooney.png', 'Im_RobertDowneyJr.png', 'Im_LeonardoDiCaprio.png', 'Im_MattDamon.png', 'Im_RyanReynolds.png', 'Im_RobertPattinson.png', 'Im_PatrickDempsey.png', 'Im_BradPitt.png'],same,1,0.4000178999999662,19,0,
SAAY1407,train,inv,fs,posfs_id2_im16.bmp_posfs_id13_im10.bmp,['Im_ElijahWood.png', 'Im_BenStiller.png', 'Im_GeorgeClooney.png', 'Im_RobertDowneyJr.png', 'Im_LeonardoDiCaprio.png', 'Im_MattDamon.png', 'Im_RyanReynolds.png', 'Im_RobertPattinson.png', 'Im_PatrickDempsey.png', 'Im_BradPitt.png'],diff,1,0.4085483999999724,20,0,
SAAY1407,train,inv,fs,posfs_id18_im11.bmp_posfs_id18_im19.bmp,['Im_ElijahWood.png', 'Im_BenStiller.png', 'Im_GeorgeClooney.png', 'Im_RobertDowneyJr.png', 'Im_LeonardoDiCaprio.png', 'Im_MattDamon.png', 'Im_RyanReynolds.png', 'Im_RobertPattinson.png', 'Im_PatrickDempsey.png', 'Im_BradPitt.png'],same,1,0.4167169999999487,1,0,
SAAY1407,train,inv,90,pos90_id3_im8.bmp_pos90_id3_im17.bmp,['Im_ElijahWood.png', 'Im_BenStiller.png', 'Im_GeorgeClooney.png', 'Im_RobertDowneyJr.png', 'Im_LeonardoDiCaprio.png', 'Im_MattDamon.png', 'Im_RyanReynolds.png', 'Im_RobertPattinson.png', 'Im_PatrickDempsey.png', 'Im_BradPitt.png'],same,1,0.6834709999999404,2,0,
SAAY1407,train,inv,120,pos120_id21_im17.bmp_pos120_id21_im16.bmp,['Im_ElijahWood.png', 'Im_BenStiller.png', 'Im_GeorgeClooney.png', 'Im_RobertDowneyJr.png', 'Im_LeonardoDiCaprio.png', 'Im_MattDamon.png', 'Im_RyanReynolds.png', 'Im_RobertPattinson.png', 'Im_PatrickDempsey.png', 'Im_BradPitt.png'],same,1,0.41668029999993905,3,0,
SAAY1407,train,inv,30,pos30_id7_im14.bmp_pos30_id3_im6.bmp,['Im_ElijahWood.png', 'Im_BenStiller.png', 'Im_GeorgeClooney.png', 'Im_RobertDowneyJr.png', 'Im_LeonardoDiCaprio.png', 'Im_MattDamon.png', 'Im_RyanReynolds.png', 'Im_RobertPattinson.png', 'Im_PatrickDempsey.png', 'Im_BradPitt.png'],diff,1,0.4502085999999963,4,0,
SAAY1407,train,inv,fs,posfs_id6_im12.bmp_posfs_id6_im19.bmp,['Im_ElijahWood.png', 'Im_BenStiller.png', 'Im_GeorgeClooney.png', 'Im_RobertDowneyJr.png', 'Im_LeonardoDiCaprio.png', 'Im_MattDamon.png', 'Im_RyanReynolds.png', 'Im_RobertPattinson.png', 'Im_PatrickDempsey.png', 'Im_BradPitt.png'],same,1,0.40854880000006233,5,0,
SAAY1407,train,inv,0,pos0_id3_im6.bmp_pos0_id7_im14.bmp,['Im_ElijahWood.png', 'Im_BenStiller.png', 'Im_GeorgeClooney.png', 'Im_RobertDowneyJr.png', 'Im_LeonardoDiCaprio.png', 'Im_MattDamon.png', 'Im_RyanReynolds.png', 'Im_RobertPattinson.png', 'Im_PatrickDempsey.png', 'Im_BradPitt.png'],diff,1,0.41668349999997645,6,0,
SAAY1407,train,inv,30,pos30_id19_im27.bmp_pos30_id19_im4.bmp,['Im_ElijahWood.png', 'Im_BenStiller.png', 'Im_GeorgeClooney.png', 'Im_RobertDowneyJr.png', 'Im_LeonardoDiCaprio.png', 'Im_MattDamon.png', 'Im_RyanReynolds.png', 'Im_RobertPattinson.png', 'Im_PatrickDempsey.png', 'Im_BradPitt.png'],same,1,0.8000515999999607,7,0,
SAAY1407,train,inv,120,pos120_id7_im15.bmp_pos120_id19_im4.bmp,['Im_ElijahWood.png', 'Im_BenStiller.png', 'Im_GeorgeClooney.png', 'Im_RobertDowneyJr.png', 'Im_LeonardoDiCaprio.png', 'Im_MattDamon.png', 'Im_RyanReynolds.png', 'Im_RobertPattinson.png', 'Im_PatrickDempsey.png', 'Im_BradPitt.png'],diff,1,0.4334939000000304,8,0,
SAAY1407,train,inv,150,pos150_id17_im9.bmp_pos150_id19_im8.bmp,['Im_ElijahWood.png', 'Im_BenStiller.png', 'Im_GeorgeClooney.png', 'Im_RobertDowneyJr.png', 'Im_LeonardoDiCaprio.png', 'Im_MattDamon.png', 'Im_RyanReynolds.png', 'Im_RobertPattinson.png', 'Im_PatrickDempsey.png', 'Im_BradPitt.png'],diff,1,0.39994789999991553,9,0,
SAAY1407,train,inv,0,pos0_id21_im22.bmp_pos0_id13_im29.bmp,['Im_ElijahWood.png', 'Im_BenStiller.png', 'Im_GeorgeClooney.png', 'Im_RobertDowneyJr.png', 'Im_LeonardoDiCaprio.png', 'Im_MattDamon.png', 'Im_RyanReynolds.png', 'Im_RobertPattinson.png', 'Im_PatrickDempsey.png', 'Im_BradPitt.png'],diff,1,0.4082425999999941,10,0,
SAAY1407,train,inv,60,pos60_id3_im8.bmp_pos60_id3_im17.bmp,['Im_ElijahWood.png', 'Im_BenStiller.png', 'Im_GeorgeClooney.png', 'Im_RobertDowneyJr.png', 'Im_LeonardoDiCaprio.png', 'Im_MattDamon.png', 'Im_RyanReynolds.png', 'Im_RobertPattinson.png', 'Im_PatrickDempsey.png', 'Im_BradPitt.png'],same,1,0.4083787999999231,11,0,
SAAY1407,train,inv,150,pos150_id13_im15.bmp_pos150_id13_im29.bmp,['Im_ElijahWood.png', 'Im_BenStiller.png', 'Im_GeorgeClooney.png', 'Im_RobertDowneyJr.png', 'Im_LeonardoDiCaprio.png', 'Im_MattDamon.png', 'Im_RyanReynolds.png', 'Im_RobertPattinson.png', 'Im_PatrickDempsey.png', 'Im_BradPitt.png'],same,1,0.7999836999999843,12,0,
SAAY1407,train,inv,60,pos60_id2_im3.bmp_pos60_id2_im2.bmp,['Im_ElijahWood.png', 'Im_BenStiller.png', 'Im_GeorgeClooney.png', 'Im_RobertDowneyJr.png', 'Im_LeonardoDiCaprio.png', 'Im_MattDamon.png', 'Im_RyanReynolds.png', 'Im_RobertPattinson.png', 'Im_PatrickDempsey.png', 'Im_BradPitt.png'],same,1,0.4167207000000417,13,0,
SAAY1407,train,inv,90,pos90_id17_im8.bmp_pos90_id17_im14.bmp,['Im_ElijahWood.png', 'Im_BenStiller.png', 'Im_GeorgeClooney.png', 'Im_RobertDowneyJr.png', 'Im_LeonardoDiCaprio.png', 'Im_MattDamon.png', 'Im_RyanReynolds.png', 'Im_RobertPattinson.png', 'Im_PatrickDempsey.png', 'Im_BradPitt.png'],diff,0,0.675217499999917,13,0,
SAAY1407,train,neg,0,neg0_id3_im6.bmp_neg0_id3_im17.bmp,['Im_ElijahWood.png', 'Im_BenStiller.png', 'Im_GeorgeClooney.png', 'Im_RobertDowneyJr.png', 'Im_LeonardoDiCaprio.png', 'Im_MattDamon.png', 'Im_RyanReynolds.png', 'Im_RobertPattinson.png', 'Im_PatrickDempsey.png', 'Im_BradPitt.png'],same,1,0.40021250000006603,14,0,
SAAY1407,train,neg,90,neg90_id6_im19.bmp_neg90_id21_im17.bmp,['Im_ElijahWood.png', 'Im_BenStiller.png', 'Im_GeorgeClooney.png', 'Im_RobertDowneyJr.png', 'Im_LeonardoDiCaprio.png', 'Im_MattDamon.png', 'Im_RyanReynolds.png', 'Im_RobertPattinson.png', 'Im_PatrickDempsey.png', 'Im_BradPitt.png'],diff,1,0.41656129999989844,15,0,
SAAY1407,train,neg,120,neg120_id3_im8.bmp_neg120_id3_im17.bmp,['Im_ElijahWood.png', 'Im_BenStiller.png', 'Im_GeorgeClooney.png', 'Im_RobertDowneyJr.png', 'Im_LeonardoDiCaprio.png', 'Im_MattDamon.png', 'Im_RyanReynolds.png', 'Im_RobertPattinson.png', 'Im_PatrickDempsey.png', 'Im_BradPitt.png'],same,1,0.41686600000002727,16,0,
SAAY1407,train,neg,0,neg0_id18_im18.bmp_neg0_id13_im15.bmp,['Im_ElijahWood.png', 'Im_BenStiller.png', 'Im_GeorgeClooney.png', 'Im_RobertDowneyJr.png', 'Im_LeonardoDiCaprio.png', 'Im_MattDamon.png', 'Im_RyanReynolds.png', 'Im_RobertPattinson.png', 'Im_PatrickDempsey.png', 'Im_BradPitt.png'],diff,1,0.4168796999999813,17,0,
SAAY1407,train,neg,120,neg120_id3_im17.bmp_neg120_id19_im27.bmp,['Im_ElijahWood.png', 'Im_BenStiller.png', 'Im_GeorgeClooney.png', 'Im_RobertDowneyJr.png', 'Im_LeonardoDiCaprio.png', 'Im_MattDamon.png', 'Im_RyanReynolds.png', 'Im_RobertPattinson.png', 'Im_PatrickDempsey.png', 'Im_BradPitt.png'],diff,1,0.4503386999999748,18,0,
SAAY1407,train,neg,60,neg60_id2_im2.bmp_neg60_id13_im15.bmp,['Im_ElijahWood.png', 'Im_BenStiller.png', 'Im_GeorgeClooney.png', 'Im_RobertDowneyJr.png', 'Im_LeonardoDiCaprio.png', 'Im_MattDamon.png', 'Im_RyanReynolds.png', 'Im_RobertPattinson.png', 'Im_PatrickDempsey.png', 'Im_BradPitt.png'],diff,1,0.5167307000000392,19,0,
SAAY1407,train,neg,90,neg90_id19_im4.bmp_neg90_id19_im8.bmp,['Im_ElijahWood.png', 'Im_BenStiller.png', 'Im_GeorgeClooney.png', 'Im_RobertDowneyJr.png', 'Im_LeonardoDiCaprio.png', 'Im_MattDamon.png', 'Im_RyanReynolds.png', 'Im_RobertPattinson.png', 'Im_PatrickDempsey.png', 'Im_BradPitt.png'],diff,0,0.42502200000001267,19,0,
SAAY1407,train,neg,fs,negfs_id18_im11.bmp_negfs_id18_im18.bmp,['Im_ElijahWood.png', 'Im_BenStiller.png', 'Im_GeorgeClooney.png', 'Im_RobertDowneyJr.png', 'Im_LeonardoDiCaprio.png', 'Im_MattDamon.png', 'Im_RyanReynolds.png', 'Im_RobertPattinson.png', 'Im_PatrickDempsey.png', 'Im_BradPitt.png'],same,1,0.4168473999999378,20,0,
SAAY1407,train,neg,60,neg60_id19_im27.bmp_neg60_id3_im17.bmp,['Im_ElijahWood.png', 'Im_BenStiller.png', 'Im_GeorgeClooney.png', 'Im_RobertDowneyJr.png', 'Im_LeonardoDiCaprio.png', 'Im_MattDamon.png', 'Im_RyanReynolds.png', 'Im_RobertPattinson.png', 'Im_PatrickDempsey.png', 'Im_BradPitt.png'],diff,1,0.4168187999999873,21,0,
SAAY1407,train,neg,30,neg30_id13_im15.bmp_neg30_id13_im10.bmp,['Im_ElijahWood.png', 'Im_BenStiller.png', 'Im_GeorgeClooney.png', 'Im_RobertDowneyJr.png', 'Im_LeonardoDiCaprio.png', 'Im_MattDamon.png', 'Im_RyanReynolds.png', 'Im_RobertPattinson.png', 'Im_PatrickDempsey.png', 'Im_BradPitt.png'],same,1,0.4502787000000126,22,0,
SAAY1407,train,neg,30,neg30_id2_im16.bmp_neg30_id2_im2.bmp,['Im_ElijahWood.png', 'Im_BenStiller.png', 'Im_GeorgeClooney.png', 'Im_RobertDowneyJr.png', 'Im_LeonardoDiCaprio.png', 'Im_MattDamon.png', 'Im_RyanReynolds.png', 'Im_RobertPattinson.png', 'Im_PatrickDempsey.png', 'Im_BradPitt.png'],same,1,0.39987429999996493,23,0,
SAAY1407,train,neg,fs,negfs_id21_im17.bmp_negfs_id6_im19.bmp,['Im_ElijahWood.png', 'Im_BenStiller.png', 'Im_GeorgeClooney.png', 'Im_RobertDowneyJr.png', 'Im_LeonardoDiCaprio.png', 'Im_MattDamon.png', 'Im_RyanReynolds.png', 'Im_RobertPattinson.png', 'Im_PatrickDempsey.png', 'Im_BradPitt.png'],diff,1,0.4081620000000612,24,0,
SAAY1407,train,neg,150,neg150_id21_im16.bmp_neg150_id21_im17.bmp,['Im_ElijahWood.png', 'Im_BenStiller.png', 'Im_GeorgeClooney.png', 'Im_RobertDowneyJr.png', 'Im_LeonardoDiCaprio.png', 'Im_MattDamon.png', 'Im_RyanReynolds.png', 'Im_RobertPattinson.png', 'Im_PatrickDempsey.png', 'Im_BradPitt.png'],same,1,0.4165745000000243,25,0,
SAAY1407,train,neg,150,neg150_id2_im2.bmp_neg150_id2_im3.bmp,['Im_ElijahWood.png', 'Im_BenStiller.png', 'Im_GeorgeClooney.png', 'Im_RobertDowneyJr.png', 'Im_LeonardoDiCaprio.png', 'Im_MattDamon.png', 'Im_RyanReynolds.png', 'Im_RobertPattinson.png', 'Im_PatrickDempsey.png', 'Im_BradPitt.png'],same,1,0.41660699999999906,26,0,
SAAY1407,train,pos,120,pos120_id17_im8.bmp_pos120_id14_im16.bmp,['Im_ElijahWood.png', 'Im_BenStiller.png', 'Im_GeorgeClooney.png', 'Im_RobertDowneyJr.png', 'Im_LeonardoDiCaprio.png', 'Im_MattDamon.png', 'Im_RyanReynolds.png', 'Im_RobertPattinson.png', 'Im_PatrickDempsey.png', 'Im_BradPitt.png'],diff,1,0.40836080000008224,27,0,
SAAY1407,train,pos,150,pos150_id19_im27.bmp_pos150_id3_im17.bmp,['Im_ElijahWood.png', 'Im_BenStiller.png', 'Im_GeorgeClooney.png', 'Im_RobertDowneyJr.png', 'Im_LeonardoDiCaprio.png', 'Im_MattDamon.png', 'Im_RyanReynolds.png', 'Im_RobertPattinson.png', 'Im_PatrickDempsey.png', 'Im_BradPitt.png'],diff,1,0.6166531000000077,28,0,
SAAY1407,train,pos,fs,posfs_id7_im26.bmp_posfs_id2_im3.bmp,['Im_ElijahWood.png', 'Im_BenStiller.png', 'Im_GeorgeClooney.png', 'Im_RobertDowneyJr.png', 'Im_LeonardoDiCaprio.png', 'Im_MattDamon.png', 'Im_RyanReynolds.png', 'Im_RobertPattinson.png', 'Im_PatrickDempsey.png', 'Im_BradPitt.png'],diff,1,0.8833620000000337,29,0,
SAAY1407,train,pos,60,pos60_id13_im10.bmp_pos60_id13_im29.bmp,['Im_ElijahWood.png', 'Im_BenStiller.png', 'Im_GeorgeClooney.png', 'Im_RobertDowneyJr.png', 'Im_LeonardoDiCaprio.png', 'Im_MattDamon.png', 'Im_RyanReynolds.png', 'Im_RobertPattinson.png', 'Im_PatrickDempsey.png', 'Im_BradPitt.png'],same,1,0.40856079999991834,30,0,
SAAY1407,train,pos,30,pos30_id3_im6.bmp_pos30_id3_im17.bmp,['Im_ElijahWood.png', 'Im_BenStiller.png', 'Im_GeorgeClooney.png', 'Im_RobertDowneyJr.png', 'Im_LeonardoDiCaprio.png', 'Im_MattDamon.png', 'Im_RyanReynolds.png', 'Im_RobertPattinson.png', 'Im_PatrickDempsey.png', 'Im_BradPitt.png'],same,1,0.4167009999999891,31,0,
SAAY1407,train,pos,0,pos0_id13_im29.bmp_pos0_id13_im10.bmp,['Im_ElijahWood.png', 'Im_BenStiller.png', 'Im_GeorgeClooney.png', 'Im_RobertDowneyJr.png', 'Im_LeonardoDiCaprio.png', 'Im_MattDamon.png', 'Im_RyanReynolds.png', 'Im_RobertPattinson.png', 'Im_PatrickDempsey.png', 'Im_BradPitt.png'],same,1,0.41687500000000455,32,0,
SAAY1407,train,pos,90,pos90_id2_im16.bmp_pos90_id14_im24.bmp,['Im_ElijahWood.png', 'Im_BenStiller.png', 'Im_GeorgeClooney.png', 'Im_RobertDowneyJr.png', 'Im_LeonardoDiCaprio.png', 'Im_MattDamon.png', 'Im_RyanReynolds.png', 'Im_RobertPattinson.png', 'Im_PatrickDempsey.png', 'Im_BradPitt.png'],diff,1,0.4084345999999641,33,0,
SAAY1407,train,pos,90,pos90_id13_im29.bmp_pos90_id14_im24.bmp,['Im_ElijahWood.png', 'Im_BenStiller.png', 'Im_GeorgeClooney.png', 'Im_RobertDowneyJr.png', 'Im_LeonardoDiCaprio.png', 'Im_MattDamon.png', 'Im_RyanReynolds.png', 'Im_RobertPattinson.png', 'Im_PatrickDempsey.png', 'Im_BradPitt.png'],same,0,0.4083525999999438,33,0,
SAAY1407,train,pos,60,pos60_id7_im26.bmp_pos60_id2_im3.bmp,['Im_ElijahWood.png', 'Im_BenStiller.png', 'Im_GeorgeClooney.png', 'Im_RobertDowneyJr.png', 'Im_LeonardoDiCaprio.png', 'Im_MattDamon.png', 'Im_RyanReynolds.png', 'Im_RobertPattinson.png', 'Im_PatrickDempsey.png', 'Im_BradPitt.png'],diff,1,0.41680910000002314,34,0,
SAAY1407,train,pos,fs,posfs_id17_im8.bmp_posfs_id14_im16.bmp,['Im_ElijahWood.png', 'Im_BenStiller.png', 'Im_GeorgeClooney.png', 'Im_RobertDowneyJr.png', 'Im_LeonardoDiCaprio.png', 'Im_MattDamon.png', 'Im_RyanReynolds.png', 'Im_RobertPattinson.png', 'Im_PatrickDempsey.png', 'Im_BradPitt.png'],diff,1,0.40838240000005044,35,0,
SAAY1407,train,pos,120,pos120_id14_im24.bmp_pos120_id14_im16.bmp,['Im_ElijahWood.png', 'Im_BenStiller.png', 'Im_GeorgeClooney.png', 'Im_RobertDowneyJr.png', 'Im_LeonardoDiCaprio.png', 'Im_MattDamon.png', 'Im_RyanReynolds.png', 'Im_RobertPattinson.png', 'Im_PatrickDempsey.png', 'Im_BradPitt.png'],same,1,0.4085359000000608,36,0,
SAAY1407,train,pos,0,pos0_id13_im15.bmp_pos0_id18_im18.bmp,['Im_ElijahWood.png', 'Im_BenStiller.png', 'Im_GeorgeClooney.png', 'Im_RobertDowneyJr.png', 'Im_LeonardoDiCaprio.png', 'Im_MattDamon.png', 'Im_RyanReynolds.png', 'Im_RobertPattinson.png', 'Im_PatrickDempsey.png', 'Im_BradPitt.png'],diff,1,0.4083781000000499,37,0,
SAAY1407,train,pos,150,pos150_id14_im18.bmp_pos150_id14_im16.bmp,['Im_ElijahWood.png', 'Im_BenStiller.png', 'Im_GeorgeClooney.png', 'Im_RobertDowneyJr.png', 'Im_LeonardoDiCaprio.png', 'Im_MattDamon.png', 'Im_RyanReynolds.png', 'Im_RobertPattinson.png', 'Im_PatrickDempsey.png', 'Im_BradPitt.png'],same,1,0.9333623999999645,38,0,
SAAY1407,train,pos,30,pos30_id17_im9.bmp_pos30_id7_im14.bmp,['Im_ElijahWood.png', 'Im_BenStiller.png', 'Im_GeorgeClooney.png', 'Im_RobertDowneyJr.png', 'Im_LeonardoDiCaprio.png', 'Im_MattDamon.png', 'Im_RyanReynolds.png', 'Im_RobertPattinson.png', 'Im_PatrickDempsey.png', 'Im_BradPitt.png'],diff,1,0.4167197000000442,39,0,
SAAY1407,train,neg,fs,negfs_id21_im17.bmp_negfs_id21_im22.bmp,['Im_ElijahWood.png', 'Im_BenStiller.png', 'Im_GeorgeClooney.png', 'Im_RobertDowneyJr.png', 'Im_LeonardoDiCaprio.png', 'Im_MattDamon.png', 'Im_RyanReynolds.png', 'Im_RobertPattinson.png', 'Im_PatrickDempsey.png', 'Im_BradPitt.png'],same,1,0.4082068000000163,1,92.85714285714286,
SAAY1407,train,neg,0,neg0_id2_im3.bmp_neg0_id7_im26.bmp,['Im_ElijahWood.png', 'Im_BenStiller.png', 'Im_GeorgeClooney.png', 'Im_RobertDowneyJr.png', 'Im_LeonardoDiCaprio.png', 'Im_MattDamon.png', 'Im_RyanReynolds.png', 'Im_RobertPattinson.png', 'Im_PatrickDempsey.png', 'Im_BradPitt.png'],diff,1,0.9999321999999893,2,92.85714285714286,
SAAY1407,train,neg,150,neg150_id18_im18.bmp_neg150_id3_im8.bmp,['Im_ElijahWood.png', 'Im_BenStiller.png', 'Im_GeorgeClooney.png', 'Im_RobertDowneyJr.png', 'Im_LeonardoDiCaprio.png', 'Im_MattDamon.png', 'Im_RyanReynolds.png', 'Im_RobertPattinson.png', 'Im_PatrickDempsey.png', 'Im_BradPitt.png'],diff,1,0.416577699999948,3,92.85714285714286,
SAAY1407,train,neg,90,neg90_id18_im18.bmp_neg90_id18_im11.bmp,['Im_ElijahWood.png', 'Im_BenStiller.png', 'Im_GeorgeClooney.png', 'Im_RobertDowneyJr.png', 'Im_LeonardoDiCaprio.png', 'Im_MattDamon.png', 'Im_RyanReynolds.png', 'Im_RobertPattinson.png', 'Im_PatrickDempsey.png', 'Im_BradPitt.png'],same,1,0.4167950999999448,4,92.85714285714286,
SAAY1407,train,neg,0,neg0_id2_im3.bmp_neg0_id18_im11.bmp,['Im_ElijahWood.png', 'Im_BenStiller.png', 'Im_GeorgeClooney.png', 'Im_RobertDowneyJr.png', 'Im_LeonardoDiCaprio.png', 'Im_MattDamon.png', 'Im_RyanReynolds.png', 'Im_RobertPattinson.png', 'Im_PatrickDempsey.png', 'Im_BradPitt.png'],diff,1,0.4083533999998963,5,92.85714285714286,
SAAY1407,train,neg,60,neg60_id21_im22.bmp_neg60_id13_im29.bmp,['Im_ElijahWood.png', 'Im_BenStiller.png', 'Im_GeorgeClooney.png', 'Im_RobertDowneyJr.png', 'Im_LeonardoDiCaprio.png', 'Im_MattDamon.png', 'Im_RyanReynolds.png', 'Im_RobertPattinson.png', 'Im_PatrickDempsey.png', 'Im_BradPitt.png'],diff,1,0.8003088000000389,6,92.85714285714286,
SAAY1407,train,neg,90,neg90_id13_im29.bmp_neg90_id13_im15.bmp,['Im_ElijahWood.png', 'Im_BenStiller.png', 'Im_GeorgeClooney.png', 'Im_RobertDowneyJr.png', 'Im_LeonardoDiCaprio.png', 'Im_MattDamon.png', 'Im_RyanReynolds.png', 'Im_RobertPattinson.png', 'Im_PatrickDempsey.png', 'Im_BradPitt.png'],same,1,0.40838269999994736,7,92.85714285714286,
SAAY1407,train,neg,60,neg60_id17_im9.bmp_neg60_id7_im14.bmp,['Im_ElijahWood.png', 'Im_BenStiller.png', 'Im_GeorgeClooney.png', 'Im_RobertDowneyJr.png', 'Im_LeonardoDiCaprio.png', 'Im_MattDamon.png', 'Im_RyanReynolds.png', 'Im_RobertPattinson.png', 'Im_PatrickDempsey.png', 'Im_BradPitt.png'],diff,1,0.4168722000000571,8,92.85714285714286,
SAAY1407,train,neg,120,neg120_id17_im9.bmp_neg120_id17_im8.bmp,['Im_ElijahWood.png', 'Im_BenStiller.png', 'Im_GeorgeClooney.png', 'Im_RobertDowneyJr.png', 'Im_LeonardoDiCaprio.png', 'Im_MattDamon.png', 'Im_RyanReynolds.png', 'Im_RobertPattinson.png', 'Im_PatrickDempsey.png', 'Im_BradPitt.png'],same,1,0.5666214999999966,9,92.85714285714286,
SAAY1407,train,neg,30,neg30_id2_im2.bmp_neg30_id2_im3.bmp,['Im_ElijahWood.png', 'Im_BenStiller.png', 'Im_GeorgeClooney.png', 'Im_RobertDowneyJr.png', 'Im_LeonardoDiCaprio.png', 'Im_MattDamon.png', 'Im_RyanReynolds.png', 'Im_RobertPattinson.png', 'Im_PatrickDempsey.png', 'Im_BradPitt.png'],same,1,0.549990600000001,10,92.85714285714286,
SAAY1407,train,neg,120,neg120_id3_im6.bmp_neg120_id21_im22.bmp,['Im_ElijahWood.png', 'Im_BenStiller.png', 'Im_GeorgeClooney.png', 'Im_RobertDowneyJr.png', 'Im_LeonardoDiCaprio.png', 'Im_MattDamon.png', 'Im_RyanReynolds.png', 'Im_RobertPattinson.png', 'Im_PatrickDempsey.png', 'Im_BradPitt.png'],diff,1,0.5249850999999808,11,92.85714285714286,
SAAY1407,train,neg,150,neg150_id6_im12.bmp_neg150_id3_im17.bmp,['Im_ElijahWood.png', 'Im_BenStiller.png', 'Im_GeorgeClooney.png', 'Im_RobertDowneyJr.png', 'Im_LeonardoDiCaprio.png', 'Im_MattDamon.png', 'Im_RyanReynolds.png', 'Im_RobertPattinson.png', 'Im_PatrickDempsey.png', 'Im_BradPitt.png'],diff,1,0.4083589000000529,12,92.85714285714286,
SAAY1407,train,neg,fs,negfs_id6_im19.bmp_negfs_id6_im12.bmp,['Im_ElijahWood.png', 'Im_BenStiller.png', 'Im_GeorgeClooney.png', 'Im_RobertDowneyJr.png', 'Im_LeonardoDiCaprio.png', 'Im_MattDamon.png', 'Im_RyanReynolds.png', 'Im_RobertPattinson.png', 'Im_PatrickDempsey.png', 'Im_BradPitt.png'],same,1,0.41659870000000865,13,92.85714285714286,
SAAY1407,train,neg,30,neg30_id6_im12.bmp_neg30_id3_im17.bmp,['Im_ElijahWood.png', 'Im_BenStiller.png', 'Im_GeorgeClooney.png', 'Im_RobertDowneyJr.png', 'Im_LeonardoDiCaprio.png', 'Im_MattDamon.png', 'Im_RyanReynolds.png', 'Im_RobertPattinson.png', 'Im_PatrickDempsey.png', 'Im_BradPitt.png'],diff,1,0.416727700000024,14,92.85714285714286,
SAAY1407,train,inv,120,pos120_id21_im16.bmp_pos120_id7_im15.bmp,['Im_ElijahWood.png', 'Im_BenStiller.png', 'Im_GeorgeClooney.png', 'Im_RobertDowneyJr.png', 'Im_LeonardoDiCaprio.png', 'Im_MattDamon.png', 'Im_RyanReynolds.png', 'Im_RobertPattinson.png', 'Im_PatrickDempsey.png', 'Im_BradPitt.png'],same,0,0.4084051999999474,14,92.85714285714286,
SAAY1407,train,inv,150,pos150_id3_im6.bmp_pos150_id21_im22.bmp,['Im_ElijahWood.png', 'Im_BenStiller.png', 'Im_GeorgeClooney.png', 'Im_RobertDowneyJr.png', 'Im_LeonardoDiCaprio.png', 'Im_MattDamon.png', 'Im_RyanReynolds.png', 'Im_RobertPattinson.png', 'Im_PatrickDempsey.png', 'Im_BradPitt.png'],diff,1,0.43373429999996915,15,92.85714285714286,
SAAY1407,train,inv,60,pos60_id14_im24.bmp_pos60_id2_im16.bmp,['Im_ElijahWood.png', 'Im_BenStiller.png', 'Im_GeorgeClooney.png', 'Im_RobertDowneyJr.png', 'Im_LeonardoDiCaprio.png', 'Im_MattDamon.png', 'Im_RyanReynolds.png', 'Im_RobertPattinson.png', 'Im_PatrickDempsey.png', 'Im_BradPitt.png'],diff,1,0.41669109999998,16,92.85714285714286,
SAAY1407,train,inv,150,pos150_id14_im24.bmp_pos150_id13_im29.bmp,['Im_ElijahWood.png', 'Im_BenStiller.png', 'Im_GeorgeClooney.png', 'Im_RobertDowneyJr.png', 'Im_LeonardoDiCaprio.png', 'Im_MattDamon.png', 'Im_RyanReynolds.png', 'Im_RobertPattinson.png', 'Im_PatrickDempsey.png', 'Im_BradPitt.png'],diff,1,0.6253359000000955,17,92.85714285714286,
SAAY1407,train,inv,90,pos90_id18_im19.bmp_pos90_id3_im8.bmp,['Im_ElijahWood.png', 'Im_BenStiller.png', 'Im_GeorgeClooney.png', 'Im_RobertDowneyJr.png', 'Im_LeonardoDiCaprio.png', 'Im_MattDamon.png', 'Im_RyanReynolds.png', 'Im_RobertPattinson.png', 'Im_PatrickDempsey.png', 'Im_BradPitt.png'],diff,1,0.4165830999999116,18,92.85714285714286,
SAAY1407,train,inv,120,pos120_id18_im19.bmp_pos120_id2_im2.bmp,['Im_ElijahWood.png', 'Im_BenStiller.png', 'Im_GeorgeClooney.png', 'Im_RobertDowneyJr.png', 'Im_LeonardoDiCaprio.png', 'Im_MattDamon.png', 'Im_RyanReynolds.png', 'Im_RobertPattinson.png', 'Im_PatrickDempsey.png', 'Im_BradPitt.png'],same,0,0.41681689999995797,18,92.85714285714286,
SAAY1407,train,inv,fs,posfs_id6_im19.bmp_posfs_id21_im17.bmp,['Im_ElijahWood.png', 'Im_BenStiller.png', 'Im_GeorgeClooney.png', 'Im_RobertDowneyJr.png', 'Im_LeonardoDiCaprio.png', 'Im_MattDamon.png', 'Im_RyanReynolds.png', 'Im_RobertPattinson.png', 'Im_PatrickDempsey.png', 'Im_BradPitt.png'],diff,1,0.41676910000001044,19,92.85714285714286,
SAAY1407,train,inv,60,pos60_id3_im6.bmp_pos60_id3_im8.bmp,['Im_ElijahWood.png', 'Im_BenStiller.png', 'Im_GeorgeClooney.png', 'Im_RobertDowneyJr.png', 'Im_LeonardoDiCaprio.png', 'Im_MattDamon.png', 'Im_RyanReynolds.png', 'Im_RobertPattinson.png', 'Im_PatrickDempsey.png', 'Im_BradPitt.png'],same,1,0.4167065999999977,20,92.85714285714286,
SAAY1407,train,inv,30,pos30_id21_im16.bmp_pos30_id17_im14.bmp,['Im_ElijahWood.png', 'Im_BenStiller.png', 'Im_GeorgeClooney.png', 'Im_RobertDowneyJr.png', 'Im_LeonardoDiCaprio.png', 'Im_MattDamon.png', 'Im_RyanReynolds.png', 'Im_RobertPattinson.png', 'Im_PatrickDempsey.png', 'Im_BradPitt.png'],diff,1,0.5501095999999279,21,92.85714285714286,
SAAY1407,train,inv,fs,posfs_id21_im16.bmp_posfs_id17_im14.bmp,['Im_ElijahWood.png', 'Im_BenStiller.png', 'Im_GeorgeClooney.png', 'Im_RobertDowneyJr.png', 'Im_LeonardoDiCaprio.png', 'Im_MattDamon.png', 'Im_RyanReynolds.png', 'Im_RobertPattinson.png', 'Im_PatrickDempsey.png', 'Im_BradPitt.png'],diff,1,0.674922199999969,22,92.85714285714286,
SAAY1407,train,inv,90,pos90_id21_im22.bmp_pos90_id3_im6.bmp,['Im_ElijahWood.png', 'Im_BenStiller.png', 'Im_GeorgeClooney.png', 'Im_RobertDowneyJr.png', 'Im_LeonardoDiCaprio.png', 'Im_MattDamon.png', 'Im_RyanReynolds.png', 'Im_RobertPattinson.png', 'Im_PatrickDempsey.png', 'Im_BradPitt.png'],same,0,0.4169484999999895,22,92.85714285714286,
SAAY1407,train,inv,0,pos0_id3_im6.bmp_pos0_id3_im8.bmp,['Im_ElijahWood.png', 'Im_BenStiller.png', 'Im_GeorgeClooney.png', 'Im_RobertDowneyJr.png', 'Im_LeonardoDiCaprio.png', 'Im_MattDamon.png', 'Im_RyanReynolds.png', 'Im_RobertPattinson.png', 'Im_PatrickDempsey.png', 'Im_BradPitt.png'],same,1,0.4168094999999994,23,92.85714285714286,
SAAY1407,train,inv,0,pos0_id7_im15.bmp_pos0_id19_im4.bmp,['Im_ElijahWood.png', 'Im_BenStiller.png', 'Im_GeorgeClooney.png', 'Im_RobertDowneyJr.png', 'Im_LeonardoDiCaprio.png', 'Im_MattDamon.png', 'Im_RyanReynolds.png', 'Im_RobertPattinson.png', 'Im_PatrickDempsey.png', 'Im_BradPitt.png'],diff,1,1.1668857000000799,24,92.85714285714286,
SAAY1407,train,inv,30,pos30_id6_im19.bmp_pos30_id17_im14.bmp,['Im_ElijahWood.png', 'Im_BenStiller.png', 'Im_GeorgeClooney.png', 'Im_RobertDowneyJr.png', 'Im_LeonardoDiCaprio.png', 'Im_MattDamon.png', 'Im_RyanReynolds.png', 'Im_RobertPattinson.png', 'Im_PatrickDempsey.png', 'Im_BradPitt.png'],diff,1,0.40848779999998897,25,92.85714285714286,
SAAY1407,train,pos,60,pos60_id19_im27.bmp_pos60_id19_im4.bmp,['Im_ElijahWood.png', 'Im_BenStiller.png', 'Im_GeorgeClooney.png', 'Im_RobertDowneyJr.png', 'Im_LeonardoDiCaprio.png', 'Im_MattDamon.png', 'Im_RyanReynolds.png', 'Im_RobertPattinson.png', 'Im_PatrickDempsey.png', 'Im_BradPitt.png'],same,1,0.4000583000000688,26,92.85714285714286,
SAAY1407,train,pos,150,pos150_id2_im3.bmp_pos150_id18_im11.bmp,['Im_ElijahWood.png', 'Im_BenStiller.png', 'Im_GeorgeClooney.png', 'Im_RobertDowneyJr.png', 'Im_LeonardoDiCaprio.png', 'Im_MattDamon.png', 'Im_RyanReynolds.png', 'Im_RobertPattinson.png', 'Im_PatrickDempsey.png', 'Im_BradPitt.png'],diff,1,0.4082202999999254,27,92.85714285714286,
SAAY1407,train,pos,90,pos90_id19_im4.bmp_pos90_id7_im26.bmp,['Im_ElijahWood.png', 'Im_BenStiller.png', 'Im_GeorgeClooney.png', 'Im_RobertDowneyJr.png', 'Im_LeonardoDiCaprio.png', 'Im_MattDamon.png', 'Im_RyanReynolds.png', 'Im_RobertPattinson.png', 'Im_PatrickDempsey.png', 'Im_BradPitt.png'],diff,1,0.40837550000003375,28,92.85714285714286,
SAAY1407,train,pos,30,pos30_id17_im14.bmp_pos30_id17_im9.bmp,['Im_ElijahWood.png', 'Im_BenStiller.png', 'Im_GeorgeClooney.png', 'Im_RobertDowneyJr.png', 'Im_LeonardoDiCaprio.png', 'Im_MattDamon.png', 'Im_RyanReynolds.png', 'Im_RobertPattinson.png', 'Im_PatrickDempsey.png', 'Im_BradPitt.png'],same,1,0.8168639000000439,29,92.85714285714286,
SAAY1407,train,pos,60,pos60_id21_im16.bmp_pos60_id7_im15.bmp,['Im_ElijahWood.png', 'Im_BenStiller.png', 'Im_GeorgeClooney.png', 'Im_RobertDowneyJr.png', 'Im_LeonardoDiCaprio.png', 'Im_MattDamon.png', 'Im_RyanReynolds.png', 'Im_RobertPattinson.png', 'Im_PatrickDempsey.png', 'Im_BradPitt.png'],diff,1,1.1335741999999982,30,92.85714285714286,
SAAY1407,train,pos,120,pos120_id3_im6.bmp_pos120_id21_im22.bmp,['Im_ElijahWood.png', 'Im_BenStiller.png', 'Im_GeorgeClooney.png', 'Im_RobertDowneyJr.png', 'Im_LeonardoDiCaprio.png', 'Im_MattDamon.png', 'Im_RyanReynolds.png', 'Im_RobertPattinson.png', 'Im_PatrickDempsey.png', 'Im_BradPitt.png'],diff,1,0.4167017999999416,31,92.85714285714286,
SAAY1407,train,pos,fs,posfs_id6_im12.bmp_posfs_id6_im18.bmp,['Im_ElijahWood.png', 'Im_BenStiller.png', 'Im_GeorgeClooney.png', 'Im_RobertDowneyJr.png', 'Im_LeonardoDiCaprio.png', 'Im_MattDamon.png', 'Im_RyanReynolds.png', 'Im_RobertPattinson.png', 'Im_PatrickDempsey.png', 'Im_BradPitt.png'],same,1,0.4083564000000024,32,92.85714285714286,
SAAY1407,train,pos,90,pos90_id17_im9.bmp_pos90_id17_im14.bmp,['Im_ElijahWood.png', 'Im_BenStiller.png', 'Im_GeorgeClooney.png', 'Im_RobertDowneyJr.png', 'Im_LeonardoDiCaprio.png', 'Im_MattDamon.png', 'Im_RyanReynolds.png', 'Im_RobertPattinson.png', 'Im_PatrickDempsey.png', 'Im_BradPitt.png'],same,1,0.41699080000012145,33,92.85714285714286,
SAAY1407,train,pos,0,pos0_id7_im14.bmp_pos0_id3_im6.bmp,['Im_ElijahWood.png', 'Im_BenStiller.png', 'Im_GeorgeClooney.png', 'Im_RobertDowneyJr.png', 'Im_LeonardoDiCaprio.png', 'Im_MattDamon.png', 'Im_RyanReynolds.png', 'Im_RobertPattinson.png', 'Im_PatrickDempsey.png', 'Im_BradPitt.png'],diff,1,0.466901800000187,34,92.85714285714286,
SAAY1407,train,pos,150,pos150_id7_im15.bmp_pos150_id7_im26.bmp,['Im_ElijahWood.png', 'Im_BenStiller.png', 'Im_GeorgeClooney.png', 'Im_RobertDowneyJr.png', 'Im_LeonardoDiCaprio.png', 'Im_MattDamon.png', 'Im_RyanReynolds.png', 'Im_RobertPattinson.png', 'Im_PatrickDempsey.png', 'Im_BradPitt.png'],same,1,0.4501669999999649,35,92.85714285714286,
SAAY1407,train,pos,fs,posfs_id21_im17.bmp_posfs_id6_im19.bmp,['Im_ElijahWood.png', 'Im_BenStiller.png', 'Im_GeorgeClooney.png', 'Im_RobertDowneyJr.png', 'Im_LeonardoDiCaprio.png', 'Im_MattDamon.png', 'Im_RyanReynolds.png', 'Im_RobertPattinson.png', 'Im_PatrickDempsey.png', 'Im_BradPitt.png'],diff,1,0.4165478999998413,36,92.85714285714286,
SAAY1407,train,pos,30,pos30_id21_im17.bmp_pos30_id21_im22.bmp,['Im_ElijahWood.png', 'Im_BenStiller.png', 'Im_GeorgeClooney.png', 'Im_RobertDowneyJr.png', 'Im_LeonardoDiCaprio.png', 'Im_MattDamon.png', 'Im_RyanReynolds.png', 'Im_RobertPattinson.png', 'Im_PatrickDempsey.png', 'Im_BradPitt.png'],same,1,0.41665230000012343,37,92.85714285714286,
SAAY1407,train,pos,120,pos120_id19_im8.bmp_pos120_id19_im27.bmp,['Im_ElijahWood.png', 'Im_BenStiller.png', 'Im_GeorgeClooney.png', 'Im_RobertDowneyJr.png', 'Im_LeonardoDiCaprio.png', 'Im_MattDamon.png', 'Im_RyanReynolds.png', 'Im_RobertPattinson.png', 'Im_PatrickDempsey.png', 'Im_BradPitt.png'],same,1,0.41670410000006086,38,92.85714285714286,
SAAY1407,train,pos,0,pos0_id17_im9.bmp_pos0_id7_im14.bmp,['Im_ElijahWood.png', 'Im_BenStiller.png', 'Im_GeorgeClooney.png', 'Im_RobertDowneyJr.png', 'Im_LeonardoDiCaprio.png', 'Im_MattDamon.png', 'Im_RyanReynolds.png', 'Im_RobertPattinson.png', 'Im_PatrickDempsey.png', 'Im_BradPitt.png'],diff,1,0.4084770000001754,39,92.85714285714286,
SAAY1407,0,inv,90,pos90_id19_im8.bmp_pos90_id19_im27.bmp,['Im_ElijahWood.png', 'Im_BenStiller.png', 'Im_GeorgeClooney.png', 'Im_RobertDowneyJr.png', 'Im_LeonardoDiCaprio.png', 'Im_MattDamon.png', 'Im_RyanReynolds.png', 'Im_RobertPattinson.png', 'Im_PatrickDempsey.png', 'Im_BradPitt.png'],same,1,0.40840239999988626,1,0,
SAAY1407,0,inv,0,pos0_id17_im14.bmp_pos0_id21_im16.bmp,['Im_ElijahWood.png', 'Im_BenStiller.png', 'Im_GeorgeClooney.png', 'Im_RobertDowneyJr.png', 'Im_LeonardoDiCaprio.png', 'Im_MattDamon.png', 'Im_RyanReynolds.png', 'Im_RobertPattinson.png', 'Im_PatrickDempsey.png', 'Im_BradPitt.png'],diff,1,0.6253948999999466,2,0,
SAAY1407,0,inv,fs,posfs_id17_im14.bmp_posfs_id6_im19.bmp,['Im_ElijahWood.png', 'Im_BenStiller.png', 'Im_GeorgeClooney.png', 'Im_RobertDowneyJr.png', 'Im_LeonardoDiCaprio.png', 'Im_MattDamon.png', 'Im_RyanReynolds.png', 'Im_RobertPattinson.png', 'Im_PatrickDempsey.png', 'Im_BradPitt.png'],diff,1,0.40840769999999793,3,0,
SAAY1407,0,inv,60,pos60_id7_im14.bmp_pos60_id3_im6.bmp,['Im_ElijahWood.png', 'Im_BenStiller.png', 'Im_GeorgeClooney.png', 'Im_RobertDowneyJr.png', 'Im_LeonardoDiCaprio.png', 'Im_MattDamon.png', 'Im_RyanReynolds.png', 'Im_RobertPattinson.png', 'Im_PatrickDempsey.png', 'Im_BradPitt.png'],diff,1,1.2587863999999627,4,0,
SAAY1407,0,inv,30,pos30_id18_im19.bmp_pos30_id2_im2.bmp,['Im_ElijahWood.png', 'Im_BenStiller.png', 'Im_GeorgeClooney.png', 'Im_RobertDowneyJr.png', 'Im_LeonardoDiCaprio.png', 'Im_MattDamon.png', 'Im_RyanReynolds.png', 'Im_RobertPattinson.png', 'Im_PatrickDempsey.png', 'Im_BradPitt.png'],same,0,1.0585763000001407,4,0,
SAAY1407,0,inv,30,pos30_id14_im18.bmp_pos30_id14_im24.bmp,['Im_ElijahWood.png', 'Im_BenStiller.png', 'Im_GeorgeClooney.png', 'Im_RobertDowneyJr.png', 'Im_LeonardoDiCaprio.png', 'Im_MattDamon.png', 'Im_RyanReynolds.png', 'Im_RobertPattinson.png', 'Im_PatrickDempsey.png', 'Im_BradPitt.png'],same,1,0.6915877000001274,5,0,
SAAY1407,0,inv,fs,posfs_id6_im18.bmp_posfs_id6_im12.bmp,['Im_ElijahWood.png', 'Im_BenStiller.png', 'Im_GeorgeClooney.png', 'Im_RobertDowneyJr.png', 'Im_LeonardoDiCaprio.png', 'Im_MattDamon.png', 'Im_RyanReynolds.png', 'Im_RobertPattinson.png', 'Im_PatrickDempsey.png', 'Im_BradPitt.png'],same,1,0.3999378999999408,6,0,
SAAY1407,0,inv,150,pos150_id19_im27.bmp_pos150_id19_im8.bmp,['Im_ElijahWood.png', 'Im_BenStiller.png', 'Im_GeorgeClooney.png', 'Im_RobertDowneyJr.png', 'Im_LeonardoDiCaprio.png', 'Im_MattDamon.png', 'Im_RyanReynolds.png', 'Im_RobertPattinson.png', 'Im_PatrickDempsey.png', 'Im_BradPitt.png'],same,1,0.4084033999999974,7,0,
SAAY1407,0,inv,0,pos0_id21_im22.bmp_pos0_id3_im6.bmp,['Im_ElijahWood.png', 'Im_BenStiller.png', 'Im_GeorgeClooney.png', 'Im_RobertDowneyJr.png', 'Im_LeonardoDiCaprio.png', 'Im_MattDamon.png', 'Im_RyanReynolds.png', 'Im_RobertPattinson.png', 'Im_PatrickDempsey.png', 'Im_BradPitt.png'],diff,1,0.4085056000001259,8,0,
SAAY1407,0,inv,150,pos150_id18_im11.bmp_pos150_id18_im19.bmp,['Im_ElijahWood.png', 'Im_BenStiller.png', 'Im_GeorgeClooney.png', 'Im_RobertDowneyJr.png', 'Im_LeonardoDiCaprio.png', 'Im_MattDamon.png', 'Im_RyanReynolds.png', 'Im_RobertPattinson.png', 'Im_PatrickDempsey.png', 'Im_BradPitt.png'],same,1,0.7419371999999385,9,0,
SAAY1407,0,inv,120,pos120_id17_im8.bmp_pos120_id6_im18.bmp,['Im_ElijahWood.png', 'Im_BenStiller.png', 'Im_GeorgeClooney.png', 'Im_RobertDowneyJr.png', 'Im_LeonardoDiCaprio.png', 'Im_MattDamon.png', 'Im_RyanReynolds.png', 'Im_RobertPattinson.png', 'Im_PatrickDempsey.png', 'Im_BradPitt.png'],diff,1,0.9751886999999897,10,0,
SAAY1407,0,inv,90,pos90_id13_im10.bmp_pos90_id2_im16.bmp,['Im_ElijahWood.png', 'Im_BenStiller.png', 'Im_GeorgeClooney.png', 'Im_RobertDowneyJr.png', 'Im_LeonardoDiCaprio.png', 'Im_MattDamon.png', 'Im_RyanReynolds.png', 'Im_RobertPattinson.png', 'Im_PatrickDempsey.png', 'Im_BradPitt.png'],diff,1,0.40010430000006636,11,0,
SAAY1407,0,inv,120,pos120_id17_im8.bmp_pos120_id14_im16.bmp,['Im_ElijahWood.png', 'Im_BenStiller.png', 'Im_GeorgeClooney.png', 'Im_RobertDowneyJr.png', 'Im_LeonardoDiCaprio.png', 'Im_MattDamon.png', 'Im_RyanReynolds.png', 'Im_RobertPattinson.png', 'Im_PatrickDempsey.png', 'Im_BradPitt.png'],diff,1,0.5501257000000805,12,0,
SAAY1407,0,inv,60,pos60_id17_im9.bmp_pos60_id17_im14.bmp,['Im_ElijahWood.png', 'Im_BenStiller.png', 'Im_GeorgeClooney.png', 'Im_RobertDowneyJr.png', 'Im_LeonardoDiCaprio.png', 'Im_MattDamon.png', 'Im_RyanReynolds.png', 'Im_RobertPattinson.png', 'Im_PatrickDempsey.png', 'Im_BradPitt.png'],same,1,0.7086532000000716,13,0,
SAAY1407,1,pos,fs,posfs_id13_im15.bmp_posfs_id13_im10.bmp,['Im_ElijahWood.png', 'Im_BenStiller.png', 'Im_GeorgeClooney.png', 'Im_RobertDowneyJr.png', 'Im_LeonardoDiCaprio.png', 'Im_MattDamon.png', 'Im_RyanReynolds.png', 'Im_RobertPattinson.png', 'Im_PatrickDempsey.png', 'Im_BradPitt.png'],same,1,0.42519069999980275,14,0,
SAAY1407,1,pos,120,pos120_id14_im24.bmp_pos120_id14_im18.bmp,['Im_ElijahWood.png', 'Im_BenStiller.png', 'Im_GeorgeClooney.png', 'Im_RobertDowneyJr.png', 'Im_LeonardoDiCaprio.png', 'Im_MattDamon.png', 'Im_RyanReynolds.png', 'Im_RobertPattinson.png', 'Im_PatrickDempsey.png', 'Im_BradPitt.png'],same,1,0.41687579999984337,15,0,
SAAY1407,1,pos,60,pos60_id17_im9.bmp_pos60_id17_im14.bmp,['Im_ElijahWood.png', 'Im_BenStiller.png', 'Im_GeorgeClooney.png', 'Im_RobertDowneyJr.png', 'Im_LeonardoDiCaprio.png', 'Im_MattDamon.png', 'Im_RyanReynolds.png', 'Im_RobertPattinson.png', 'Im_PatrickDempsey.png', 'Im_BradPitt.png'],same,1,0.4083869000000959,16,0,
SAAY1407,1,pos,30,pos30_id13_im15.bmp_pos30_id13_im29.bmp,['Im_ElijahWood.png', 'Im_BenStiller.png', 'Im_GeorgeClooney.png', 'Im_RobertDowneyJr.png', 'Im_LeonardoDiCaprio.png', 'Im_MattDamon.png', 'Im_RyanReynolds.png', 'Im_RobertPattinson.png', 'Im_PatrickDempsey.png', 'Im_BradPitt.png'],same,1,0.4168019999999615,17,0,
SAAY1407,1,pos,0,pos0_id6_im12.bmp_pos0_id6_im18.bmp,['Im_ElijahWood.png', 'Im_BenStiller.png', 'Im_GeorgeClooney.png', 'Im_RobertDowneyJr.png', 'Im_LeonardoDiCaprio.png', 'Im_MattDamon.png', 'Im_RyanReynolds.png', 'Im_RobertPattinson.png', 'Im_PatrickDempsey.png', 'Im_BradPitt.png'],same,1,0.4167264999998679,18,0,
SAAY1407,1,pos,150,pos150_id6_im18.bmp_pos150_id6_im19.bmp,['Im_ElijahWood.png', 'Im_BenStiller.png', 'Im_GeorgeClooney.png', 'Im_RobertDowneyJr.png', 'Im_LeonardoDiCaprio.png', 'Im_MattDamon.png', 'Im_RyanReynolds.png', 'Im_RobertPattinson.png', 'Im_PatrickDempsey.png', 'Im_BradPitt.png'],same,1,0.40839710000000196,19,0,
SAAY1407,1,pos,90,pos90_id14_im18.bmp_pos90_id18_im11.bmp,['Im_ElijahWood.png', 'Im_BenStiller.png', 'Im_GeorgeClooney.png', 'Im_RobertDowneyJr.png', 'Im_LeonardoDiCaprio.png', 'Im_MattDamon.png', 'Im_RyanReynolds.png', 'Im_RobertPattinson.png', 'Im_PatrickDempsey.png', 'Im_BradPitt.png'],diff,1,0.4165824000001521,20,0,
SAAY1407,1,pos,150,pos150_id13_im29.bmp_pos150_id14_im24.bmp,['Im_ElijahWood.png', 'Im_BenStiller.png', 'Im_GeorgeClooney.png', 'Im_RobertDowneyJr.png', 'Im_LeonardoDiCaprio.png', 'Im_MattDamon.png', 'Im_RyanReynolds.png', 'Im_RobertPattinson.png', 'Im_PatrickDempsey.png', 'Im_BradPitt.png'],diff,1,0.4175665000000208,21,0,
SAAY1407,1,pos,90,pos90_id6_im19.bmp_pos90_id17_im14.bmp,['Im_ElijahWood.png', 'Im_BenStiller.png', 'Im_GeorgeClooney.png', 'Im_RobertDowneyJr.png', 'Im_LeonardoDiCaprio.png', 'Im_MattDamon.png', 'Im_RyanReynolds.png', 'Im_RobertPattinson.png', 'Im_PatrickDempsey.png', 'Im_BradPitt.png'],diff,1,0.41677880000020195,22,0,
SAAY1407,1,pos,120,pos120_id21_im16.bmp_pos120_id17_im14.bmp,['Im_ElijahWood.png', 'Im_BenStiller.png', 'Im_GeorgeClooney.png', 'Im_RobertDowneyJr.png', 'Im_LeonardoDiCaprio.png', 'Im_MattDamon.png', 'Im_RyanReynolds.png', 'Im_RobertPattinson.png', 'Im_PatrickDempsey.png', 'Im_BradPitt.png'],diff,1,0.8999407999999676,23,0,
SAAY1407,1,pos,60,pos60_id6_im12.bmp_pos60_id13_im10.bmp,['Im_ElijahWood.png', 'Im_BenStiller.png', 'Im_GeorgeClooney.png', 'Im_RobertDowneyJr.png', 'Im_LeonardoDiCaprio.png', 'Im_MattDamon.png', 'Im_RyanReynolds.png', 'Im_RobertPattinson.png', 'Im_PatrickDempsey.png', 'Im_BradPitt.png'],diff,1,0.4166400999999951,24,0,
SAAY1407,1,pos,30,pos30_id17_im14.bmp_pos30_id6_im19.bmp,['Im_ElijahWood.png', 'Im_BenStiller.png', 'Im_GeorgeClooney.png', 'Im_RobertDowneyJr.png', 'Im_LeonardoDiCaprio.png', 'Im_MattDamon.png', 'Im_RyanReynolds.png', 'Im_RobertPattinson.png', 'Im_PatrickDempsey.png', 'Im_BradPitt.png'],diff,1,0.4249839999999949,25,0,
SAAY1407,1,pos,0,pos0_id18_im19.bmp_pos0_id2_im2.bmp,['Im_ElijahWood.png', 'Im_BenStiller.png', 'Im_GeorgeClooney.png', 'Im_RobertDowneyJr.png', 'Im_LeonardoDiCaprio.png', 'Im_MattDamon.png', 'Im_RyanReynolds.png', 'Im_RobertPattinson.png', 'Im_PatrickDempsey.png', 'Im_BradPitt.png'],diff,1,0.4250884999999016,26,0,
SAAY1407,1,pos,fs,posfs_id19_im8.bmp_posfs_id19_im27.bmp,['Im_ElijahWood.png', 'Im_BenStiller.png', 'Im_GeorgeClooney.png', 'Im_RobertDowneyJr.png', 'Im_LeonardoDiCaprio.png', 'Im_MattDamon.png', 'Im_RyanReynolds.png', 'Im_RobertPattinson.png', 'Im_PatrickDempsey.png', 'Im_BradPitt.png'],same,1,0.40840479999997115,27,0,
SAAY1407,2,neg,120,neg120_id7_im26.bmp_neg120_id19_im4.bmp,['Im_ElijahWood.png', 'Im_BenStiller.png', 'Im_GeorgeClooney.png', 'Im_RobertDowneyJr.png', 'Im_LeonardoDiCaprio.png', 'Im_MattDamon.png', 'Im_RyanReynolds.png', 'Im_RobertPattinson.png', 'Im_PatrickDempsey.png', 'Im_BradPitt.png'],same,0,0.691833699999961,27,0,
SAAY1407,2,neg,90,neg90_id17_im14.bmp_neg90_id6_im19.bmp,['Im_ElijahWood.png', 'Im_BenStiller.png', 'Im_GeorgeClooney.png', 'Im_RobertDowneyJr.png', 'Im_LeonardoDiCaprio.png', 'Im_MattDamon.png', 'Im_RyanReynolds.png', 'Im_RobertPattinson.png', 'Im_PatrickDempsey.png', 'Im_BradPitt.png'],diff,1,0.5253946000000269,28,0,
SAAY1407,2,neg,60,neg60_id17_im14.bmp_neg60_id6_im19.bmp,['Im_ElijahWood.png', 'Im_BenStiller.png', 'Im_GeorgeClooney.png', 'Im_RobertDowneyJr.png', 'Im_LeonardoDiCaprio.png', 'Im_MattDamon.png', 'Im_RyanReynolds.png', 'Im_RobertPattinson.png', 'Im_PatrickDempsey.png', 'Im_BradPitt.png'],diff,1,0.8003579999999602,29,0,
SAAY1407,2,neg,90,neg90_id3_im6.bmp_neg90_id21_im22.bmp,['Im_ElijahWood.png', 'Im_BenStiller.png', 'Im_GeorgeClooney.png', 'Im_RobertDowneyJr.png', 'Im_LeonardoDiCaprio.png', 'Im_MattDamon.png', 'Im_RyanReynolds.png', 'Im_RobertPattinson.png', 'Im_PatrickDempsey.png', 'Im_BradPitt.png'],diff,1,0.9586622999997871,30,0,
SAAY1407,2,neg,60,neg60_id7_im26.bmp_neg60_id7_im14.bmp,['Im_ElijahWood.png', 'Im_BenStiller.png', 'Im_GeorgeClooney.png', 'Im_RobertDowneyJr.png', 'Im_LeonardoDiCaprio.png', 'Im_MattDamon.png', 'Im_RyanReynolds.png', 'Im_RobertPattinson.png', 'Im_PatrickDempsey.png', 'Im_BradPitt.png'],same,1,0.55876840000019,31,0,
SAAY1407,2,neg,0,neg0_id14_im16.bmp_neg0_id14_im18.bmp,['Im_ElijahWood.png', 'Im_BenStiller.png', 'Im_GeorgeClooney.png', 'Im_RobertDowneyJr.png', 'Im_LeonardoDiCaprio.png', 'Im_MattDamon.png', 'Im_RyanReynolds.png', 'Im_RobertPattinson.png', 'Im_PatrickDempsey.png', 'Im_BradPitt.png'],same,1,0.425069300000132,32,0,
SAAY1407,2,neg,150,neg150_id18_im11.bmp_neg150_id18_im18.bmp,['Im_ElijahWood.png', 'Im_BenStiller.png', 'Im_GeorgeClooney.png', 'Im_RobertDowneyJr.png', 'Im_LeonardoDiCaprio.png', 'Im_MattDamon.png', 'Im_RyanReynolds.png', 'Im_RobertPattinson.png', 'Im_PatrickDempsey.png', 'Im_BradPitt.png'],same,1,0.4251830999999129,33,0,
SAAY1407,2,neg,fs,negfs_id13_im29.bmp_negfs_id14_im24.bmp,['Im_ElijahWood.png', 'Im_BenStiller.png', 'Im_GeorgeClooney.png', 'Im_RobertDowneyJr.png', 'Im_LeonardoDiCaprio.png', 'Im_MattDamon.png', 'Im_RyanReynolds.png', 'Im_RobertPattinson.png', 'Im_PatrickDempsey.png', 'Im_BradPitt.png'],diff,1,0.4084258000000318,34,0,
SAAY1407,2,neg,30,neg30_id13_im29.bmp_neg30_id21_im22.bmp,['Im_ElijahWood.png', 'Im_BenStiller.png', 'Im_GeorgeClooney.png', 'Im_RobertDowneyJr.png', 'Im_LeonardoDiCaprio.png', 'Im_MattDamon.png', 'Im_RyanReynolds.png', 'Im_RobertPattinson.png', 'Im_PatrickDempsey.png', 'Im_BradPitt.png'],diff,1,0.4334020999999666,35,0,
SAAY1407,2,neg,30,neg30_id14_im24.bmp_neg30_id13_im29.bmp,['Im_ElijahWood.png', 'Im_BenStiller.png', 'Im_GeorgeClooney.png', 'Im_RobertDowneyJr.png', 'Im_LeonardoDiCaprio.png', 'Im_MattDamon.png', 'Im_RyanReynolds.png', 'Im_RobertPattinson.png', 'Im_PatrickDempsey.png', 'Im_BradPitt.png'],diff,1,0.4166618000001563,36,0,
SAAY1407,2,neg,120,neg120_id18_im18.bmp_neg120_id18_im11.bmp,['Im_ElijahWood.png', 'Im_BenStiller.png', 'Im_GeorgeClooney.png', 'Im_RobertDowneyJr.png', 'Im_LeonardoDiCaprio.png', 'Im_MattDamon.png', 'Im_RyanReynolds.png', 'Im_RobertPattinson.png', 'Im_PatrickDempsey.png', 'Im_BradPitt.png'],same,1,0.42497529999991457,37,0,
SAAY1407,2,neg,0,neg0_id17_im14.bmp_neg0_id21_im16.bmp,['Im_ElijahWood.png', 'Im_BenStiller.png', 'Im_GeorgeClooney.png', 'Im_RobertDowneyJr.png', 'Im_LeonardoDiCaprio.png', 'Im_MattDamon.png', 'Im_RyanReynolds.png', 'Im_RobertPattinson.png', 'Im_PatrickDempsey.png', 'Im_BradPitt.png'],diff,1,0.4249614999998812,38,0,
SAAY1407,2,neg,fs,negfs_id21_im17.bmp_negfs_id6_im18.bmp,['Im_ElijahWood.png', 'Im_BenStiller.png', 'Im_GeorgeClooney.png', 'Im_RobertDowneyJr.png', 'Im_LeonardoDiCaprio.png', 'Im_MattDamon.png', 'Im_RyanReynolds.png', 'Im_RobertPattinson.png', 'Im_PatrickDempsey.png', 'Im_BradPitt.png'],diff,1,0.4248880999998619,39,0,
SAAY1407,2,neg,150,neg150_id13_im15.bmp_neg150_id13_im29.bmp,['Im_ElijahWood.png', 'Im_BenStiller.png', 'Im_GeorgeClooney.png', 'Im_RobertDowneyJr.png', 'Im_LeonardoDiCaprio.png', 'Im_MattDamon.png', 'Im_RyanReynolds.png', 'Im_RobertPattinson.png', 'Im_PatrickDempsey.png', 'Im_BradPitt.png'],same,1,0.4251893000000564,40,0,
SAAY1407,3,neg,60,neg60_id14_im18.bmp_neg60_id14_im16.bmp,['Im_ElijahWood.png', 'Im_BenStiller.png', 'Im_GeorgeClooney.png', 'Im_RobertDowneyJr.png', 'Im_LeonardoDiCaprio.png', 'Im_MattDamon.png', 'Im_RyanReynolds.png', 'Im_RobertPattinson.png', 'Im_PatrickDempsey.png', 'Im_BradPitt.png'],same,1,0.4167216999999255,1,95.23809523809524,
SAAY1407,3,neg,30,neg30_id6_im18.bmp_neg30_id6_im12.bmp,['Im_ElijahWood.png', 'Im_BenStiller.png', 'Im_GeorgeClooney.png', 'Im_RobertDowneyJr.png', 'Im_LeonardoDiCaprio.png', 'Im_MattDamon.png', 'Im_RyanReynolds.png', 'Im_RobertPattinson.png', 'Im_PatrickDempsey.png', 'Im_BradPitt.png'],diff,0,0.4084073999999873,1,95.23809523809524,
SAAY1407,3,neg,120,neg120_id18_im19.bmp_neg120_id18_im18.bmp,['Im_ElijahWood.png', 'Im_BenStiller.png', 'Im_GeorgeClooney.png', 'Im_RobertDowneyJr.png', 'Im_LeonardoDiCaprio.png', 'Im_MattDamon.png', 'Im_RyanReynolds.png', 'Im_RobertPattinson.png', 'Im_PatrickDempsey.png', 'Im_BradPitt.png'],same,1,0.42523069999992913,2,95.23809523809524,
SAAY1407,3,neg,0,neg0_id14_im16.bmp_neg0_id19_im8.bmp,['Im_ElijahWood.png', 'Im_BenStiller.png', 'Im_GeorgeClooney.png', 'Im_RobertDowneyJr.png', 'Im_LeonardoDiCaprio.png', 'Im_MattDamon.png', 'Im_RyanReynolds.png', 'Im_RobertPattinson.png', 'Im_PatrickDempsey.png', 'Im_BradPitt.png'],same,0,0.4083783000000949,2,95.23809523809524,
SAAY1407,3,neg,150,neg150_id19_im8.bmp_neg150_id14_im16.bmp,['Im_ElijahWood.png', 'Im_BenStiller.png', 'Im_GeorgeClooney.png', 'Im_RobertDowneyJr.png', 'Im_LeonardoDiCaprio.png', 'Im_MattDamon.png', 'Im_RyanReynolds.png', 'Im_RobertPattinson.png', 'Im_PatrickDempsey.png', 'Im_BradPitt.png'],diff,1,1.1748694000000341,3,95.23809523809524,
SAAY1407,3,neg,60,neg60_id13_im10.bmp_neg60_id2_im16.bmp,['Im_ElijahWood.png', 'Im_BenStiller.png', 'Im_GeorgeClooney.png', 'Im_RobertDowneyJr.png', 'Im_LeonardoDiCaprio.png', 'Im_MattDamon.png', 'Im_RyanReynolds.png', 'Im_RobertPattinson.png', 'Im_PatrickDempsey.png', 'Im_BradPitt.png'],diff,1,0.41683000000011816,4,95.23809523809524,
SAAY1407,3,neg,90,neg90_id14_im18.bmp_neg90_id14_im16.bmp,['Im_ElijahWood.png', 'Im_BenStiller.png', 'Im_GeorgeClooney.png', 'Im_RobertDowneyJr.png', 'Im_LeonardoDiCaprio.png', 'Im_MattDamon.png', 'Im_RyanReynolds.png', 'Im_RobertPattinson.png', 'Im_PatrickDempsey.png', 'Im_BradPitt.png'],same,1,0.40848909999999705,5,95.23809523809524,
SAAY1407,3,neg,120,neg120_id3_im17.bmp_neg120_id6_im12.bmp,['Im_ElijahWood.png', 'Im_BenStiller.png', 'Im_GeorgeClooney.png', 'Im_RobertDowneyJr.png', 'Im_LeonardoDiCaprio.png', 'Im_MattDamon.png', 'Im_RyanReynolds.png', 'Im_RobertPattinson.png', 'Im_PatrickDempsey.png', 'Im_BradPitt.png'],diff,1,0.41672010000002047,6,95.23809523809524,
SAAY1407,3,neg,0,neg0_id18_im19.bmp_neg0_id2_im2.bmp,['Im_ElijahWood.png', 'Im_BenStiller.png', 'Im_GeorgeClooney.png', 'Im_RobertDowneyJr.png', 'Im_LeonardoDiCaprio.png', 'Im_MattDamon.png', 'Im_RyanReynolds.png', 'Im_RobertPattinson.png', 'Im_PatrickDempsey.png', 'Im_BradPitt.png'],same,0,0.42493629999989935,6,95.23809523809524,
SAAY1407,3,neg,90,neg90_id3_im6.bmp_neg90_id3_im17.bmp,['Im_ElijahWood.png', 'Im_BenStiller.png', 'Im_GeorgeClooney.png', 'Im_RobertDowneyJr.png', 'Im_LeonardoDiCaprio.png', 'Im_MattDamon.png', 'Im_RyanReynolds.png', 'Im_RobertPattinson.png', 'Im_PatrickDempsey.png', 'Im_BradPitt.png'],same,1,0.4249967000000652,7,95.23809523809524,
SAAY1407,3,neg,30,neg30_id19_im4.bmp_neg30_id19_im8.bmp,['Im_ElijahWood.png', 'Im_BenStiller.png', 'Im_GeorgeClooney.png', 'Im_RobertDowneyJr.png', 'Im_LeonardoDiCaprio.png', 'Im_MattDamon.png', 'Im_RyanReynolds.png', 'Im_RobertPattinson.png', 'Im_PatrickDempsey.png', 'Im_BradPitt.png'],same,1,2.3836291999998593,8,95.23809523809524,
SAAY1407,3,neg,fs,negfs_id6_im18.bmp_negfs_id6_im12.bmp,['Im_ElijahWood.png', 'Im_BenStiller.png', 'Im_GeorgeClooney.png', 'Im_RobertDowneyJr.png', 'Im_LeonardoDiCaprio.png', 'Im_MattDamon.png', 'Im_RyanReynolds.png', 'Im_RobertPattinson.png', 'Im_PatrickDempsey.png', 'Im_BradPitt.png'],same,1,0.4249205000000984,9,95.23809523809524,
SAAY1407,3,neg,150,neg150_id7_im15.bmp_neg150_id19_im4.bmp,['Im_ElijahWood.png', 'Im_BenStiller.png', 'Im_GeorgeClooney.png', 'Im_RobertDowneyJr.png', 'Im_LeonardoDiCaprio.png', 'Im_MattDamon.png', 'Im_RyanReynolds.png', 'Im_RobertPattinson.png', 'Im_PatrickDempsey.png', 'Im_BradPitt.png'],same,0,0.4250451999998859,9,95.23809523809524,
SAAY1407,3,neg,fs,negfs_id7_im26.bmp_negfs_id19_im4.bmp,['Im_ElijahWood.png', 'Im_BenStiller.png', 'Im_GeorgeClooney.png', 'Im_RobertDowneyJr.png', 'Im_LeonardoDiCaprio.png', 'Im_MattDamon.png', 'Im_RyanReynolds.png', 'Im_RobertPattinson.png', 'Im_PatrickDempsey.png', 'Im_BradPitt.png'],same,0,1.4002396999999291,9,95.23809523809524,
SAAY1407,4,inv,30,pos30_id13_im29.bmp_pos30_id13_im10.bmp,['Im_ElijahWood.png', 'Im_BenStiller.png', 'Im_GeorgeClooney.png', 'Im_RobertDowneyJr.png', 'Im_LeonardoDiCaprio.png', 'Im_MattDamon.png', 'Im_RyanReynolds.png', 'Im_RobertPattinson.png', 'Im_PatrickDempsey.png', 'Im_BradPitt.png'],same,1,0.4086680000000342,10,95.23809523809524,
SAAY1407,4,inv,0,pos0_id2_im16.bmp_pos0_id14_im24.bmp,['Im_ElijahWood.png', 'Im_BenStiller.png', 'Im_GeorgeClooney.png', 'Im_RobertDowneyJr.png', 'Im_LeonardoDiCaprio.png', 'Im_MattDamon.png', 'Im_RyanReynolds.png', 'Im_RobertPattinson.png', 'Im_PatrickDempsey.png', 'Im_BradPitt.png'],diff,1,0.541661299999987,11,95.23809523809524,
SAAY1407,4,inv,150,pos150_id13_im15.bmp_pos150_id18_im18.bmp,['Im_ElijahWood.png', 'Im_BenStiller.png', 'Im_GeorgeClooney.png', 'Im_RobertDowneyJr.png', 'Im_LeonardoDiCaprio.png', 'Im_MattDamon.png', 'Im_RyanReynolds.png', 'Im_RobertPattinson.png', 'Im_PatrickDempsey.png', 'Im_BradPitt.png'],diff,1,0.7336514999999508,12,95.23809523809524,
SAAY1407,4,inv,fs,posfs_id13_im29.bmp_posfs_id21_im22.bmp,['Im_ElijahWood.png', 'Im_BenStiller.png', 'Im_GeorgeClooney.png', 'Im_RobertDowneyJr.png', 'Im_LeonardoDiCaprio.png', 'Im_MattDamon.png', 'Im_RyanReynolds.png', 'Im_RobertPattinson.png', 'Im_PatrickDempsey.png', 'Im_BradPitt.png'],diff,1,0.41685869999992065,13,95.23809523809524,
SAAY1407,4,inv,150,pos150_id17_im14.bmp_pos150_id17_im8.bmp,['Im_ElijahWood.png', 'Im_BenStiller.png', 'Im_GeorgeClooney.png', 'Im_RobertDowneyJr.png', 'Im_LeonardoDiCaprio.png', 'Im_MattDamon.png', 'Im_RyanReynolds.png', 'Im_RobertPattinson.png', 'Im_PatrickDempsey.png', 'Im_BradPitt.png'],same,1,0.4249344999998357,14,95.23809523809524,
SAAY1407,4,inv,60,pos60_id18_im18.bmp_pos60_id18_im11.bmp,['Im_ElijahWood.png', 'Im_BenStiller.png', 'Im_GeorgeClooney.png', 'Im_RobertDowneyJr.png', 'Im_LeonardoDiCaprio.png', 'Im_MattDamon.png', 'Im_RyanReynolds.png', 'Im_RobertPattinson.png', 'Im_PatrickDempsey.png', 'Im_BradPitt.png'],same,1,0.4082300000000032,15,95.23809523809524,
SAAY1407,4,inv,120,pos120_id17_im14.bmp_pos120_id17_im8.bmp,['Im_ElijahWood.png', 'Im_BenStiller.png', 'Im_GeorgeClooney.png', 'Im_RobertDowneyJr.png', 'Im_LeonardoDiCaprio.png', 'Im_MattDamon.png', 'Im_RyanReynolds.png', 'Im_RobertPattinson.png', 'Im_PatrickDempsey.png', 'Im_BradPitt.png'],same,1,0.4250615999999354,16,95.23809523809524,
SAAY1407,4,inv,120,pos120_id21_im17.bmp_pos120_id6_im18.bmp,['Im_ElijahWood.png', 'Im_BenStiller.png', 'Im_GeorgeClooney.png', 'Im_RobertDowneyJr.png', 'Im_LeonardoDiCaprio.png', 'Im_MattDamon.png', 'Im_RyanReynolds.png', 'Im_RobertPattinson.png', 'Im_PatrickDempsey.png', 'Im_BradPitt.png'],same,0,0.4083646999999928,16,95.23809523809524,
SAAY1407,4,inv,90,pos90_id21_im16.bmp_pos90_id21_im22.bmp,['Im_ElijahWood.png', 'Im_BenStiller.png', 'Im_GeorgeClooney.png', 'Im_RobertDowneyJr.png', 'Im_LeonardoDiCaprio.png', 'Im_MattDamon.png', 'Im_RyanReynolds.png', 'Im_RobertPattinson.png', 'Im_PatrickDempsey.png', 'Im_BradPitt.png'],same,1,0.4166760000000522,17,95.23809523809524,
SAAY1407,4,inv,90,pos90_id21_im16.bmp_pos90_id21_im17.bmp,['Im_ElijahWood.png', 'Im_BenStiller.png', 'Im_GeorgeClooney.png', 'Im_RobertDowneyJr.png', 'Im_LeonardoDiCaprio.png', 'Im_MattDamon.png', 'Im_RyanReynolds.png', 'Im_RobertPattinson.png', 'Im_PatrickDempsey.png', 'Im_BradPitt.png'],same,1,0.4167542999998659,18,95.23809523809524,
SAAY1407,4,inv,60,pos60_id2_im2.bmp_pos60_id2_im16.bmp,['Im_ElijahWood.png', 'Im_BenStiller.png', 'Im_GeorgeClooney.png', 'Im_RobertDowneyJr.png', 'Im_LeonardoDiCaprio.png', 'Im_MattDamon.png', 'Im_RyanReynolds.png', 'Im_RobertPattinson.png', 'Im_PatrickDempsey.png', 'Im_BradPitt.png'],same,1,0.5499995999998646,19,95.23809523809524,
SAAY1407,4,inv,0,pos0_id7_im26.bmp_pos0_id7_im14.bmp,['Im_ElijahWood.png', 'Im_BenStiller.png', 'Im_GeorgeClooney.png', 'Im_RobertDowneyJr.png', 'Im_LeonardoDiCaprio.png', 'Im_MattDamon.png', 'Im_RyanReynolds.png', 'Im_RobertPattinson.png', 'Im_PatrickDempsey.png', 'Im_BradPitt.png'],diff,0,0.41677370000002156,19,95.23809523809524,
SAAY1407,4,inv,fs,posfs_id13_im15.bmp_posfs_id13_im10.bmp,['Im_ElijahWood.png', 'Im_BenStiller.png', 'Im_GeorgeClooney.png', 'Im_RobertDowneyJr.png', 'Im_LeonardoDiCaprio.png', 'Im_MattDamon.png', 'Im_RyanReynolds.png', 'Im_RobertPattinson.png', 'Im_PatrickDempsey.png', 'Im_BradPitt.png'],same,1,0.41682140000011714,20,95.23809523809524,
SAAY1407,4,inv,30,pos30_id2_im3.bmp_pos30_id7_im26.bmp,['Im_ElijahWood.png', 'Im_BenStiller.png', 'Im_GeorgeClooney.png', 'Im_RobertDowneyJr.png', 'Im_LeonardoDiCaprio.png', 'Im_MattDamon.png', 'Im_RyanReynolds.png', 'Im_RobertPattinson.png', 'Im_PatrickDempsey.png', 'Im_BradPitt.png'],diff,1,0.433511499999895,21,95.23809523809524,
SAAY1407,5,pos,0,pos0_id3_im17.bmp_pos0_id6_im12.bmp,['Im_ElijahWood.png', 'Im_BenStiller.png', 'Im_GeorgeClooney.png', 'Im_RobertDowneyJr.png', 'Im_LeonardoDiCaprio.png', 'Im_MattDamon.png', 'Im_RyanReynolds.png', 'Im_RobertPattinson.png', 'Im_PatrickDempsey.png', 'Im_BradPitt.png'],diff,1,0.4168452999999772,22,95.23809523809524,
SAAY1407,5,pos,120,pos120_id17_im14.bmp_pos120_id17_im8.bmp,['Im_ElijahWood.png', 'Im_BenStiller.png', 'Im_GeorgeClooney.png', 'Im_RobertDowneyJr.png', 'Im_LeonardoDiCaprio.png', 'Im_MattDamon.png', 'Im_RyanReynolds.png', 'Im_RobertPattinson.png', 'Im_PatrickDempsey.png', 'Im_BradPitt.png'],same,1,0.4167878999999175,23,95.23809523809524,
SAAY1407,5,pos,120,pos120_id14_im24.bmp_pos120_id13_im29.bmp,['Im_ElijahWood.png', 'Im_BenStiller.png', 'Im_GeorgeClooney.png', 'Im_RobertDowneyJr.png', 'Im_LeonardoDiCaprio.png', 'Im_MattDamon.png', 'Im_RyanReynolds.png', 'Im_RobertPattinson.png', 'Im_PatrickDempsey.png', 'Im_BradPitt.png'],diff,1,1.2170432000000346,24,95.23809523809524,
SAAY1407,5,pos,90,pos90_id6_im18.bmp_pos90_id6_im12.bmp,['Im_ElijahWood.png', 'Im_BenStiller.png', 'Im_GeorgeClooney.png', 'Im_RobertDowneyJr.png', 'Im_LeonardoDiCaprio.png', 'Im_MattDamon.png', 'Im_RyanReynolds.png', 'Im_RobertPattinson.png', 'Im_PatrickDempsey.png', 'Im_BradPitt.png'],same,1,0.4084821000001284,25,95.23809523809524,
SAAY1407,5,pos,0,pos0_id7_im26.bmp_pos0_id7_im15.bmp,['Im_ElijahWood.png', 'Im_BenStiller.png', 'Im_GeorgeClooney.png', 'Im_RobertDowneyJr.png', 'Im_LeonardoDiCaprio.png', 'Im_MattDamon.png', 'Im_RyanReynolds.png', 'Im_RobertPattinson.png', 'Im_PatrickDempsey.png', 'Im_BradPitt.png'],same,1,0.43355559999986326,26,95.23809523809524,
SAAY1407,5,pos,150,pos150_id2_im16.bmp_pos150_id2_im2.bmp,['Im_ElijahWood.png', 'Im_BenStiller.png', 'Im_GeorgeClooney.png', 'Im_RobertDowneyJr.png', 'Im_LeonardoDiCaprio.png', 'Im_MattDamon.png', 'Im_RyanReynolds.png', 'Im_RobertPattinson.png', 'Im_PatrickDempsey.png', 'Im_BradPitt.png'],same,1,0.417151899999908,27,95.23809523809524,
SAAY1407,5,pos,fs,posfs_id19_im8.bmp_posfs_id14_im16.bmp,['Im_ElijahWood.png', 'Im_BenStiller.png', 'Im_GeorgeClooney.png', 'Im_RobertDowneyJr.png', 'Im_LeonardoDiCaprio.png', 'Im_MattDamon.png', 'Im_RyanReynolds.png', 'Im_RobertPattinson.png', 'Im_PatrickDempsey.png', 'Im_BradPitt.png'],diff,1,0.6333667999999761,28,95.23809523809524,
SAAY1407,5,pos,30,pos30_id18_im19.bmp_pos30_id18_im11.bmp,['Im_ElijahWood.png', 'Im_BenStiller.png', 'Im_GeorgeClooney.png', 'Im_RobertDowneyJr.png', 'Im_LeonardoDiCaprio.png', 'Im_MattDamon.png', 'Im_RyanReynolds.png', 'Im_RobertPattinson.png', 'Im_PatrickDempsey.png', 'Im_BradPitt.png'],same,1,0.4251491999998507,29,95.23809523809524,
SAAY1407,5,pos,90,pos90_id6_im18.bmp_pos90_id6_im19.bmp,['Im_ElijahWood.png', 'Im_BenStiller.png', 'Im_GeorgeClooney.png', 'Im_RobertDowneyJr.png', 'Im_LeonardoDiCaprio.png', 'Im_MattDamon.png', 'Im_RyanReynolds.png', 'Im_RobertPattinson.png', 'Im_PatrickDempsey.png', 'Im_BradPitt.png'],same,1,0.416541000000052,30,95.23809523809524,
SAAY1407,5,pos,30,pos30_id19_im4.bmp_pos30_id19_im27.bmp,['Im_ElijahWood.png', 'Im_BenStiller.png', 'Im_GeorgeClooney.png', 'Im_RobertDowneyJr.png', 'Im_LeonardoDiCaprio.png', 'Im_MattDamon.png', 'Im_RyanReynolds.png', 'Im_RobertPattinson.png', 'Im_PatrickDempsey.png', 'Im_BradPitt.png'],same,1,0.41674620000003415,31,95.23809523809524,
SAAY1407,5,pos,60,pos60_id7_im26.bmp_pos60_id7_im15.bmp,['Im_ElijahWood.png', 'Im_BenStiller.png', 'Im_GeorgeClooney.png', 'Im_RobertDowneyJr.png', 'Im_LeonardoDiCaprio.png', 'Im_MattDamon.png', 'Im_RyanReynolds.png', 'Im_RobertPattinson.png', 'Im_PatrickDempsey.png', 'Im_BradPitt.png'],same,1,0.40849249999996573,32,95.23809523809524,
SAAY1407,5,pos,150,pos150_id7_im14.bmp_pos150_id7_im26.bmp,['Im_ElijahWood.png', 'Im_BenStiller.png', 'Im_GeorgeClooney.png', 'Im_RobertDowneyJr.png', 'Im_LeonardoDiCaprio.png', 'Im_MattDamon.png', 'Im_RyanReynolds.png', 'Im_RobertPattinson.png', 'Im_PatrickDempsey.png', 'Im_BradPitt.png'],same,1,0.4333619000001363,33,95.23809523809524,
SAAY1407,5,pos,fs,posfs_id14_im16.bmp_posfs_id14_im24.bmp,['Im_ElijahWood.png', 'Im_BenStiller.png', 'Im_GeorgeClooney.png', 'Im_RobertDowneyJr.png', 'Im_LeonardoDiCaprio.png', 'Im_MattDamon.png', 'Im_RyanReynolds.png', 'Im_RobertPattinson.png', 'Im_PatrickDempsey.png', 'Im_BradPitt.png'],same,1,0.4251168000000689,34,95.23809523809524,
SAAY1407,5,pos,60,pos60_id2_im3.bmp_pos60_id18_im11.bmp,['Im_ElijahWood.png', 'Im_BenStiller.png', 'Im_GeorgeClooney.png', 'Im_RobertDowneyJr.png', 'Im_LeonardoDiCaprio.png', 'Im_MattDamon.png', 'Im_RyanReynolds.png', 'Im_RobertPattinson.png', 'Im_PatrickDempsey.png', 'Im_BradPitt.png'],diff,1,0.6664138999999523,35,95.23809523809524,
SAAY1407,6,neg,120,neg120_id21_im22.bmp_neg120_id21_im17.bmp,['Im_ElijahWood.png', 'Im_BenStiller.png', 'Im_GeorgeClooney.png', 'Im_RobertDowneyJr.png', 'Im_LeonardoDiCaprio.png', 'Im_MattDamon.png', 'Im_RyanReynolds.png', 'Im_RobertPattinson.png', 'Im_PatrickDempsey.png', 'Im_BradPitt.png'],same,1,0.408333999999968,1,83.33333333333333,
SAAY1407,6,neg,90,neg90_id6_im12.bmp_neg90_id6_im19.bmp,['Im_ElijahWood.png', 'Im_BenStiller.png', 'Im_GeorgeClooney.png', 'Im_RobertDowneyJr.png', 'Im_LeonardoDiCaprio.png', 'Im_MattDamon.png', 'Im_RyanReynolds.png', 'Im_RobertPattinson.png', 'Im_PatrickDempsey.png', 'Im_BradPitt.png'],same,1,0.4333062999999129,2,83.33333333333333,
SAAY1407,6,neg,60,neg60_id7_im15.bmp_neg60_id7_im14.bmp,['Im_ElijahWood.png', 'Im_BenStiller.png', 'Im_GeorgeClooney.png', 'Im_RobertDowneyJr.png', 'Im_LeonardoDiCaprio.png', 'Im_MattDamon.png', 'Im_RyanReynolds.png', 'Im_RobertPattinson.png', 'Im_PatrickDempsey.png', 'Im_BradPitt.png'],same,1,0.4168854999998075,3,83.33333333333333,
SAAY1407,6,neg,30,neg30_id18_im19.bmp_neg30_id2_im2.bmp,['Im_ElijahWood.png', 'Im_BenStiller.png', 'Im_GeorgeClooney.png', 'Im_RobertDowneyJr.png', 'Im_LeonardoDiCaprio.png', 'Im_MattDamon.png', 'Im_RyanReynolds.png', 'Im_RobertPattinson.png', 'Im_PatrickDempsey.png', 'Im_BradPitt.png'],diff,1,0.42511050000007344,4,83.33333333333333,
SAAY1407,6,neg,60,neg60_id19_im8.bmp_neg60_id19_im27.bmp,['Im_ElijahWood.png', 'Im_BenStiller.png', 'Im_GeorgeClooney.png', 'Im_RobertDowneyJr.png', 'Im_LeonardoDiCaprio.png', 'Im_MattDamon.png', 'Im_RyanReynolds.png', 'Im_RobertPattinson.png', 'Im_PatrickDempsey.png', 'Im_BradPitt.png'],same,1,0.41665899999998146,5,83.33333333333333,
SAAY1407,6,neg,150,neg150_id6_im18.bmp_neg150_id6_im12.bmp,['Im_ElijahWood.png', 'Im_BenStiller.png', 'Im_GeorgeClooney.png', 'Im_RobertDowneyJr.png', 'Im_LeonardoDiCaprio.png', 'Im_MattDamon.png', 'Im_RyanReynolds.png', 'Im_RobertPattinson.png', 'Im_PatrickDempsey.png', 'Im_BradPitt.png'],same,1,0.4250708999998096,6,83.33333333333333,
SAAY1407,6,neg,0,neg0_id13_im29.bmp_neg0_id13_im10.bmp,['Im_ElijahWood.png', 'Im_BenStiller.png', 'Im_GeorgeClooney.png', 'Im_RobertDowneyJr.png', 'Im_LeonardoDiCaprio.png', 'Im_MattDamon.png', 'Im_RyanReynolds.png', 'Im_RobertPattinson.png', 'Im_PatrickDempsey.png', 'Im_BradPitt.png'],same,1,0.40847899999994297,7,83.33333333333333,
SAAY1407,6,neg,150,neg150_id19_im27.bmp_neg150_id14_im18.bmp,['Im_ElijahWood.png', 'Im_BenStiller.png', 'Im_GeorgeClooney.png', 'Im_RobertDowneyJr.png', 'Im_LeonardoDiCaprio.png', 'Im_MattDamon.png', 'Im_RyanReynolds.png', 'Im_RobertPattinson.png', 'Im_PatrickDempsey.png', 'Im_BradPitt.png'],diff,1,0.433351200000061,8,83.33333333333333,
SAAY1407,6,neg,fs,negfs_id2_im2.bmp_negfs_id18_im19.bmp,['Im_ElijahWood.png', 'Im_BenStiller.png', 'Im_GeorgeClooney.png', 'Im_RobertDowneyJr.png', 'Im_LeonardoDiCaprio.png', 'Im_MattDamon.png', 'Im_RyanReynolds.png', 'Im_RobertPattinson.png', 'Im_PatrickDempsey.png', 'Im_BradPitt.png'],diff,1,0.8332927000001291,9,83.33333333333333,
SAAY1407,6,neg,fs,negfs_id13_im10.bmp_negfs_id2_im16.bmp,['Im_ElijahWood.png', 'Im_BenStiller.png', 'Im_GeorgeClooney.png', 'Im_RobertDowneyJr.png', 'Im_LeonardoDiCaprio.png', 'Im_MattDamon.png', 'Im_RyanReynolds.png', 'Im_RobertPattinson.png', 'Im_PatrickDempsey.png', 'Im_BradPitt.png'],diff,1,0.4251667000000907,10,83.33333333333333,
SAAY1407,6,neg,30,neg30_id3_im17.bmp_neg30_id19_im27.bmp,['Im_ElijahWood.png', 'Im_BenStiller.png', 'Im_GeorgeClooney.png', 'Im_RobertDowneyJr.png', 'Im_LeonardoDiCaprio.png', 'Im_MattDamon.png', 'Im_RyanReynolds.png', 'Im_RobertPattinson.png', 'Im_PatrickDempsey.png', 'Im_BradPitt.png'],diff,1,0.5669657999999345,11,83.33333333333333,
SAAY1407,6,neg,90,neg90_id3_im6.bmp_neg90_id7_im14.bmp,['Im_ElijahWood.png', 'Im_BenStiller.png', 'Im_GeorgeClooney.png', 'Im_RobertDowneyJr.png', 'Im_LeonardoDiCaprio.png', 'Im_MattDamon.png', 'Im_RyanReynolds.png', 'Im_RobertPattinson.png', 'Im_PatrickDempsey.png', 'Im_BradPitt.png'],diff,1,0.4168824000000768,12,83.33333333333333,
SAAY1407,6,neg,0,neg0_id2_im16.bmp_neg0_id14_im24.bmp,['Im_ElijahWood.png', 'Im_BenStiller.png', 'Im_GeorgeClooney.png', 'Im_RobertDowneyJr.png', 'Im_LeonardoDiCaprio.png', 'Im_MattDamon.png', 'Im_RyanReynolds.png', 'Im_RobertPattinson.png', 'Im_PatrickDempsey.png', 'Im_BradPitt.png'],diff,1,0.4087043000001813,13,83.33333333333333,
SAAY1407,6,neg,120,neg120_id19_im27.bmp_neg120_id19_im4.bmp,['Im_ElijahWood.png', 'Im_BenStiller.png', 'Im_GeorgeClooney.png', 'Im_RobertDowneyJr.png', 'Im_LeonardoDiCaprio.png', 'Im_MattDamon.png', 'Im_RyanReynolds.png', 'Im_RobertPattinson.png', 'Im_PatrickDempsey.png', 'Im_BradPitt.png'],same,1,0.5920766000001549,14,83.33333333333333,
SAAY1407,7,pos,0,pos0_id21_im16.bmp_pos0_id7_im15.bmp,['Im_ElijahWood.png', 'Im_BenStiller.png', 'Im_GeorgeClooney.png', 'Im_RobertDowneyJr.png', 'Im_LeonardoDiCaprio.png', 'Im_MattDamon.png', 'Im_RyanReynolds.png', 'Im_RobertPattinson.png', 'Im_PatrickDempsey.png', 'Im_BradPitt.png'],diff,1,0.41678299999989576,15,83.33333333333333,
SAAY1407,7,pos,fs,posfs_id3_im17.bmp_posfs_id6_im12.bmp,['Im_ElijahWood.png', 'Im_BenStiller.png', 'Im_GeorgeClooney.png', 'Im_RobertDowneyJr.png', 'Im_LeonardoDiCaprio.png', 'Im_MattDamon.png', 'Im_RyanReynolds.png', 'Im_RobertPattinson.png', 'Im_PatrickDempsey.png', 'Im_BradPitt.png'],diff,1,0.4083094999998593,16,83.33333333333333,
SAAY1407,7,pos,150,pos150_id14_im16.bmp_pos150_id17_im8.bmp,['Im_ElijahWood.png', 'Im_BenStiller.png', 'Im_GeorgeClooney.png', 'Im_RobertDowneyJr.png', 'Im_LeonardoDiCaprio.png', 'Im_MattDamon.png', 'Im_RyanReynolds.png', 'Im_RobertPattinson.png', 'Im_PatrickDempsey.png', 'Im_BradPitt.png'],diff,1,0.4084539999998924,17,83.33333333333333,
SAAY1407,7,pos,90,pos90_id18_im18.bmp_pos90_id13_im15.bmp,['Im_ElijahWood.png', 'Im_BenStiller.png', 'Im_GeorgeClooney.png', 'Im_RobertDowneyJr.png', 'Im_LeonardoDiCaprio.png', 'Im_MattDamon.png', 'Im_RyanReynolds.png', 'Im_RobertPattinson.png', 'Im_PatrickDempsey.png', 'Im_BradPitt.png'],diff,1,0.9501909999999043,18,83.33333333333333,
SAAY1407,7,pos,60,pos60_id14_im18.bmp_pos60_id14_im16.bmp,['Im_ElijahWood.png', 'Im_BenStiller.png', 'Im_GeorgeClooney.png', 'Im_RobertDowneyJr.png', 'Im_LeonardoDiCaprio.png', 'Im_MattDamon.png', 'Im_RyanReynolds.png', 'Im_RobertPattinson.png', 'Im_PatrickDempsey.png', 'Im_BradPitt.png'],same,1,0.41711239999995087,19,83.33333333333333,
SAAY1407,7,pos,150,pos150_id14_im24.bmp_pos150_id14_im18.bmp,['Im_ElijahWood.png', 'Im_BenStiller.png', 'Im_GeorgeClooney.png', 'Im_RobertDowneyJr.png', 'Im_LeonardoDiCaprio.png', 'Im_MattDamon.png', 'Im_RyanReynolds.png', 'Im_RobertPattinson.png', 'Im_PatrickDempsey.png', 'Im_BradPitt.png'],same,1,0.4167827999999645,20,83.33333333333333,
SAAY1407,7,pos,120,pos120_id14_im18.bmp_pos120_id18_im11.bmp,['Im_ElijahWood.png', 'Im_BenStiller.png', 'Im_GeorgeClooney.png', 'Im_RobertDowneyJr.png', 'Im_LeonardoDiCaprio.png', 'Im_MattDamon.png', 'Im_RyanReynolds.png', 'Im_RobertPattinson.png', 'Im_PatrickDempsey.png', 'Im_BradPitt.png'],diff,1,0.43361000000004424,21,83.33333333333333,
SAAY1407,7,pos,90,pos90_id17_im8.bmp_pos90_id6_im18.bmp,['Im_ElijahWood.png', 'Im_BenStiller.png', 'Im_GeorgeClooney.png', 'Im_RobertDowneyJr.png', 'Im_LeonardoDiCaprio.png', 'Im_MattDamon.png', 'Im_RyanReynolds.png', 'Im_RobertPattinson.png', 'Im_PatrickDempsey.png', 'Im_BradPitt.png'],diff,1,0.4250119000000723,22,83.33333333333333,
SAAY1407,7,pos,0,pos0_id17_im8.bmp_pos0_id6_im18.bmp,['Im_ElijahWood.png', 'Im_BenStiller.png', 'Im_GeorgeClooney.png', 'Im_RobertDowneyJr.png', 'Im_LeonardoDiCaprio.png', 'Im_MattDamon.png', 'Im_RyanReynolds.png', 'Im_RobertPattinson.png', 'Im_PatrickDempsey.png', 'Im_BradPitt.png'],diff,1,0.425046600000087,23,83.33333333333333,
SAAY1407,7,pos,60,pos60_id3_im6.bmp_pos60_id3_im17.bmp,['Im_ElijahWood.png', 'Im_BenStiller.png', 'Im_GeorgeClooney.png', 'Im_RobertDowneyJr.png', 'Im_LeonardoDiCaprio.png', 'Im_MattDamon.png', 'Im_RyanReynolds.png', 'Im_RobertPattinson.png', 'Im_PatrickDempsey.png', 'Im_BradPitt.png'],same,1,0.4250804999999218,24,83.33333333333333,
SAAY1407,7,pos,fs,posfs_id21_im22.bmp_posfs_id21_im17.bmp,['Im_ElijahWood.png', 'Im_BenStiller.png', 'Im_GeorgeClooney.png', 'Im_RobertDowneyJr.png', 'Im_LeonardoDiCaprio.png', 'Im_MattDamon.png', 'Im_RyanReynolds.png', 'Im_RobertPattinson.png', 'Im_PatrickDempsey.png', 'Im_BradPitt.png'],same,1,0.6669523000000481,25,83.33333333333333,
SAAY1407,7,pos,30,pos30_id6_im12.bmp_pos30_id6_im19.bmp,['Im_ElijahWood.png', 'Im_BenStiller.png', 'Im_GeorgeClooney.png', 'Im_RobertDowneyJr.png', 'Im_LeonardoDiCaprio.png', 'Im_MattDamon.png', 'Im_RyanReynolds.png', 'Im_RobertPattinson.png', 'Im_PatrickDempsey.png', 'Im_BradPitt.png'],same,1,0.42506969999999455,26,83.33333333333333,
SAAY1407,7,pos,120,pos120_id19_im4.bmp_pos120_id7_im26.bmp,['Im_ElijahWood.png', 'Im_BenStiller.png', 'Im_GeorgeClooney.png', 'Im_RobertDowneyJr.png', 'Im_LeonardoDiCaprio.png', 'Im_MattDamon.png', 'Im_RyanReynolds.png', 'Im_RobertPattinson.png', 'Im_PatrickDempsey.png', 'Im_BradPitt.png'],diff,1,1.041551199999958,27,83.33333333333333,
SAAY1407,7,pos,30,pos30_id7_im14.bmp_pos30_id3_im6.bmp,['Im_ElijahWood.png', 'Im_BenStiller.png', 'Im_GeorgeClooney.png', 'Im_RobertDowneyJr.png', 'Im_LeonardoDiCaprio.png', 'Im_MattDamon.png', 'Im_RyanReynolds.png', 'Im_RobertPattinson.png', 'Im_PatrickDempsey.png', 'Im_BradPitt.png'],diff,1,0.5167460000000119,28,83.33333333333333,
SAAY1407,8,inv,90,pos90_id17_im14.bmp_pos90_id17_im9.bmp,['Im_ElijahWood.png', 'Im_BenStiller.png', 'Im_GeorgeClooney.png', 'Im_RobertDowneyJr.png', 'Im_LeonardoDiCaprio.png', 'Im_MattDamon.png', 'Im_RyanReynolds.png', 'Im_RobertPattinson.png', 'Im_PatrickDempsey.png', 'Im_BradPitt.png'],same,1,0.4168698000000859,29,83.33333333333333,
SAAY1407,8,inv,120,pos120_id19_im27.bmp_pos120_id14_im18.bmp,['Im_ElijahWood.png', 'Im_BenStiller.png', 'Im_GeorgeClooney.png', 'Im_RobertDowneyJr.png', 'Im_LeonardoDiCaprio.png', 'Im_MattDamon.png', 'Im_RyanReynolds.png', 'Im_RobertPattinson.png', 'Im_PatrickDempsey.png', 'Im_BradPitt.png'],diff,1,0.4167281999998522,30,83.33333333333333,
SAAY1407,8,inv,90,pos90_id3_im17.bmp_pos90_id6_im12.bmp,['Im_ElijahWood.png', 'Im_BenStiller.png', 'Im_GeorgeClooney.png', 'Im_RobertDowneyJr.png', 'Im_LeonardoDiCaprio.png', 'Im_MattDamon.png', 'Im_RyanReynolds.png', 'Im_RobertPattinson.png', 'Im_PatrickDempsey.png', 'Im_BradPitt.png'],diff,1,0.41660449999994853,31,83.33333333333333,
SAAY1407,8,inv,fs,posfs_id17_im9.bmp_posfs_id19_im8.bmp,['Im_ElijahWood.png', 'Im_BenStiller.png', 'Im_GeorgeClooney.png', 'Im_RobertDowneyJr.png', 'Im_LeonardoDiCaprio.png', 'Im_MattDamon.png', 'Im_RyanReynolds.png', 'Im_RobertPattinson.png', 'Im_PatrickDempsey.png', 'Im_BradPitt.png'],diff,1,0.6835188999998536,32,83.33333333333333,
SAAY1407,8,inv,30,pos30_id7_im26.bmp_pos30_id7_im15.bmp,['Im_ElijahWood.png', 'Im_BenStiller.png', 'Im_GeorgeClooney.png', 'Im_RobertDowneyJr.png', 'Im_LeonardoDiCaprio.png', 'Im_MattDamon.png', 'Im_RyanReynolds.png', 'Im_RobertPattinson.png', 'Im_PatrickDempsey.png', 'Im_BradPitt.png'],same,1,0.42507050000017443,33,83.33333333333333,
SAAY1407,8,inv,120,pos120_id3_im8.bmp_pos120_id18_im19.bmp,['Im_ElijahWood.png', 'Im_BenStiller.png', 'Im_GeorgeClooney.png', 'Im_RobertDowneyJr.png', 'Im_LeonardoDiCaprio.png', 'Im_MattDamon.png', 'Im_RyanReynolds.png', 'Im_RobertPattinson.png', 'Im_PatrickDempsey.png', 'Im_BradPitt.png'],diff,1,0.4168604999999843,34,83.33333333333333,
SAAY1407,8,inv,60,pos60_id17_im8.bmp_pos60_id17_im9.bmp,['Im_ElijahWood.png', 'Im_BenStiller.png', 'Im_GeorgeClooney.png', 'Im_RobertDowneyJr.png', 'Im_LeonardoDiCaprio.png', 'Im_MattDamon.png', 'Im_RyanReynolds.png', 'Im_RobertPattinson.png', 'Im_PatrickDempsey.png', 'Im_BradPitt.png'],same,1,0.41675850000001446,35,83.33333333333333,
SAAY1407,8,inv,fs,posfs_id18_im19.bmp_posfs_id3_im8.bmp,['Im_ElijahWood.png', 'Im_BenStiller.png', 'Im_GeorgeClooney.png', 'Im_RobertDowneyJr.png', 'Im_LeonardoDiCaprio.png', 'Im_MattDamon.png', 'Im_RyanReynolds.png', 'Im_RobertPattinson.png', 'Im_PatrickDempsey.png', 'Im_BradPitt.png'],diff,1,0.4168320000001131,36,83.33333333333333,
SAAY1407,8,inv,0,pos0_id17_im14.bmp_pos0_id17_im9.bmp,['Im_ElijahWood.png', 'Im_BenStiller.png', 'Im_GeorgeClooney.png', 'Im_RobertDowneyJr.png', 'Im_LeonardoDiCaprio.png', 'Im_MattDamon.png', 'Im_RyanReynolds.png', 'Im_RobertPattinson.png', 'Im_PatrickDempsey.png', 'Im_BradPitt.png'],same,1,0.41664670000000115,37,83.33333333333333,
SAAY1407,8,inv,0,pos0_id13_im15.bmp_pos0_id13_im10.bmp,['Im_ElijahWood.png', 'Im_BenStiller.png', 'Im_GeorgeClooney.png', 'Im_RobertDowneyJr.png', 'Im_LeonardoDiCaprio.png', 'Im_MattDamon.png', 'Im_RyanReynolds.png', 'Im_RobertPattinson.png', 'Im_PatrickDempsey.png', 'Im_BradPitt.png'],same,1,0.47501279999983126,38,83.33333333333333,
SAAY1407,8,inv,30,pos30_id17_im9.bmp_pos30_id17_im14.bmp,['Im_ElijahWood.png', 'Im_BenStiller.png', 'Im_GeorgeClooney.png', 'Im_RobertDowneyJr.png', 'Im_LeonardoDiCaprio.png', 'Im_MattDamon.png', 'Im_RyanReynolds.png', 'Im_RobertPattinson.png', 'Im_PatrickDempsey.png', 'Im_BradPitt.png'],same,1,0.42511629999989964,39,83.33333333333333,
SAAY1407,8,inv,150,pos150_id18_im19.bmp_pos150_id18_im18.bmp,['Im_ElijahWood.png', 'Im_BenStiller.png', 'Im_GeorgeClooney.png', 'Im_RobertDowneyJr.png', 'Im_LeonardoDiCaprio.png', 'Im_MattDamon.png', 'Im_RyanReynolds.png', 'Im_RobertPattinson.png', 'Im_PatrickDempsey.png', 'Im_BradPitt.png'],same,1,0.4250647999999728,40,83.33333333333333,
SAAY1407,8,inv,150,pos150_id19_im27.bmp_pos150_id19_im4.bmp,['Im_ElijahWood.png', 'Im_BenStiller.png', 'Im_GeorgeClooney.png', 'Im_RobertDowneyJr.png', 'Im_LeonardoDiCaprio.png', 'Im_MattDamon.png', 'Im_RyanReynolds.png', 'Im_RobertPattinson.png', 'Im_PatrickDempsey.png', 'Im_BradPitt.png'],same,1,0.4252321999999822,41,83.33333333333333,
SAAY1407,8,inv,60,pos60_id18_im11.bmp_pos60_id2_im3.bmp,['Im_ElijahWood.png', 'Im_BenStiller.png', 'Im_GeorgeClooney.png', 'Im_RobertDowneyJr.png', 'Im_LeonardoDiCaprio.png', 'Im_MattDamon.png', 'Im_RyanReynolds.png', 'Im_RobertPattinson.png', 'Im_PatrickDempsey.png', 'Im_BradPitt.png'],same,0,0.42504539999981716,41,83.33333333333333,
SAAY1407,9,pos,90,pos90_id21_im22.bmp_pos90_id21_im16.bmp,['Im_ElijahWood.png', 'Im_BenStiller.png', 'Im_GeorgeClooney.png', 'Im_RobertDowneyJr.png', 'Im_LeonardoDiCaprio.png', 'Im_MattDamon.png', 'Im_RyanReynolds.png', 'Im_RobertPattinson.png', 'Im_PatrickDempsey.png', 'Im_BradPitt.png'],same,1,0.4165468000001056,1,97.61904761904762,
SAAY1407,9,pos,60,pos60_id19_im4.bmp_pos60_id19_im8.bmp,['Im_ElijahWood.png', 'Im_BenStiller.png', 'Im_GeorgeClooney.png', 'Im_RobertDowneyJr.png', 'Im_LeonardoDiCaprio.png', 'Im_MattDamon.png', 'Im_RyanReynolds.png', 'Im_RobertPattinson.png', 'Im_PatrickDempsey.png', 'Im_BradPitt.png'],same,1,0.4250835000000279,2,97.61904761904762,
SAAY1407,9,pos,150,pos150_id21_im16.bmp_pos150_id21_im17.bmp,['Im_ElijahWood.png', 'Im_BenStiller.png', 'Im_GeorgeClooney.png', 'Im_RobertDowneyJr.png', 'Im_LeonardoDiCaprio.png', 'Im_MattDamon.png', 'Im_RyanReynolds.png', 'Im_RobertPattinson.png', 'Im_PatrickDempsey.png', 'Im_BradPitt.png'],same,1,0.4167790999999852,3,97.61904761904762,
SAAY1407,9,pos,0,pos0_id21_im17.bmp_pos0_id21_im22.bmp,['Im_ElijahWood.png', 'Im_BenStiller.png', 'Im_GeorgeClooney.png', 'Im_RobertDowneyJr.png', 'Im_LeonardoDiCaprio.png', 'Im_MattDamon.png', 'Im_RyanReynolds.png', 'Im_RobertPattinson.png', 'Im_PatrickDempsey.png', 'Im_BradPitt.png'],same,1,0.4250729999998839,4,97.61904761904762,
SAAY1407,9,pos,30,pos30_id13_im29.bmp_pos30_id14_im24.bmp,['Im_ElijahWood.png', 'Im_BenStiller.png', 'Im_GeorgeClooney.png', 'Im_RobertDowneyJr.png', 'Im_LeonardoDiCaprio.png', 'Im_MattDamon.png', 'Im_RyanReynolds.png', 'Im_RobertPattinson.png', 'Im_PatrickDempsey.png', 'Im_BradPitt.png'],diff,1,0.4167615000001206,5,97.61904761904762,
SAAY1407,9,pos,120,pos120_id2_im2.bmp_pos120_id18_im19.bmp,['Im_ElijahWood.png', 'Im_BenStiller.png', 'Im_GeorgeClooney.png', 'Im_RobertDowneyJr.png', 'Im_LeonardoDiCaprio.png', 'Im_MattDamon.png', 'Im_RyanReynolds.png', 'Im_RobertPattinson.png', 'Im_PatrickDempsey.png', 'Im_BradPitt.png'],diff,1,0.5918340999999145,6,97.61904761904762,
SAAY1407,9,pos,0,pos0_id7_im15.bmp_pos0_id7_im14.bmp,['Im_ElijahWood.png', 'Im_BenStiller.png', 'Im_GeorgeClooney.png', 'Im_RobertDowneyJr.png', 'Im_LeonardoDiCaprio.png', 'Im_MattDamon.png', 'Im_RyanReynolds.png', 'Im_RobertPattinson.png', 'Im_PatrickDempsey.png', 'Im_BradPitt.png'],same,1,0.6841181999998298,7,97.61904761904762,
SAAY1407,9,pos,120,pos120_id18_im18.bmp_pos120_id13_im15.bmp,['Im_ElijahWood.png', 'Im_BenStiller.png', 'Im_GeorgeClooney.png', 'Im_RobertDowneyJr.png', 'Im_LeonardoDiCaprio.png', 'Im_MattDamon.png', 'Im_RyanReynolds.png', 'Im_RobertPattinson.png', 'Im_PatrickDempsey.png', 'Im_BradPitt.png'],diff,1,0.7669561000000158,8,97.61904761904762,
SAAY1407,9,pos,90,pos90_id3_im8.bmp_pos90_id3_im6.bmp,['Im_ElijahWood.png', 'Im_BenStiller.png', 'Im_GeorgeClooney.png', 'Im_RobertDowneyJr.png', 'Im_LeonardoDiCaprio.png', 'Im_MattDamon.png', 'Im_RyanReynolds.png', 'Im_RobertPattinson.png', 'Im_PatrickDempsey.png', 'Im_BradPitt.png'],same,1,0.4249466000001121,9,97.61904761904762,
SAAY1407,9,pos,fs,posfs_id13_im29.bmp_posfs_id13_im10.bmp,['Im_ElijahWood.png', 'Im_BenStiller.png', 'Im_GeorgeClooney.png', 'Im_RobertDowneyJr.png', 'Im_LeonardoDiCaprio.png', 'Im_MattDamon.png', 'Im_RyanReynolds.png', 'Im_RobertPattinson.png', 'Im_PatrickDempsey.png', 'Im_BradPitt.png'],same,1,0.4248958999999104,10,97.61904761904762,
SAAY1407,9,pos,30,pos30_id6_im12.bmp_pos30_id3_im17.bmp,['Im_ElijahWood.png', 'Im_BenStiller.png', 'Im_GeorgeClooney.png', 'Im_RobertDowneyJr.png', 'Im_LeonardoDiCaprio.png', 'Im_MattDamon.png', 'Im_RyanReynolds.png', 'Im_RobertPattinson.png', 'Im_PatrickDempsey.png', 'Im_BradPitt.png'],diff,1,0.42501279999987673,11,97.61904761904762,
SAAY1407,9,pos,fs,posfs_id21_im16.bmp_posfs_id7_im15.bmp,['Im_ElijahWood.png', 'Im_BenStiller.png', 'Im_GeorgeClooney.png', 'Im_RobertDowneyJr.png', 'Im_LeonardoDiCaprio.png', 'Im_MattDamon.png', 'Im_RyanReynolds.png', 'Im_RobertPattinson.png', 'Im_PatrickDempsey.png', 'Im_BradPitt.png'],diff,1,0.40844160000006013,12,97.61904761904762,
SAAY1407,9,pos,60,pos60_id2_im2.bmp_pos60_id2_im16.bmp,['Im_ElijahWood.png', 'Im_BenStiller.png', 'Im_GeorgeClooney.png', 'Im_RobertDowneyJr.png', 'Im_LeonardoDiCaprio.png', 'Im_MattDamon.png', 'Im_RyanReynolds.png', 'Im_RobertPattinson.png', 'Im_PatrickDempsey.png', 'Im_BradPitt.png'],same,1,0.4502607000001717,13,97.61904761904762,
