Sujet,Trial,Condition,Filter,Imname,Actor0,Actor1,Actor2,Actor3,Actor4,Actor5,Actor6,Actor7,Actor8,Actor9,Answer,Accu,RT,Score,Scoreperc, 
SASO1010,_,posfs_JustinTimberlake_im1.bmp,JustinTimberlake,BenAffleck,BenAffleck,ElijahWood,PatrickDempsey,HughJackman,,,,,posfs_JustinTimberlake_im1.bmp,6.42396379999991,
SASO1010,_,posfs_PatrickDempsey_im8.bmp,PatrickDempsey,BenStiller,BenStiller,MattDamon,BradPitt,RyanGosling,,,,,posfs_PatrickDempsey_im8.bmp,10.668455900000481,
SASO1010,_,posfs_DanielRadcliffe_im1.bmp,DanielRadcliffe,BradPitt,BradPitt,LeonardoDiCaprio,BenStiller,RobertPattinson,,,,,posfs_DanielRadcliffe_im1.bmp,2.230865999999878,
SASO1010,_,posfs_LeonardoDiCaprio_im24.bmp,LeonardoDiCaprio,DanielCraig,DanielCraig,BradPitt,PatrickDempsey,RyanGosling,,,,,posfs_LeonardoDiCaprio_im24.bmp,2.4594421000001603,
SASO1010,_,posfs_KeanuReeves_im8.bmp,KeanuReeves,BenAffleck,BenAffleck,LeonardoDiCaprio,RyanGosling,GeorgeClooney,,,,,posfs_KeanuReeves_im8.bmp,2.5338011999992887,
SASO1010,_,posfs_OrlandoBloom_im2.bmp,OrlandoBloom,BenAffleck,BenAffleck,RyanGosling,MattDamon,RobertDowneyJr,,,,,posfs_OrlandoBloom_im2.bmp,4.916957800000091,
SASO1010,_,posfs_HughJackman_im13.bmp,HughJackman,BradPitt,BradPitt,PatrickDempsey,MattDamon,RobertPattinson,,,,,4,7.198240600000645,
SASO1010,_,posfs_BradPitt_im17.bmp,BradPitt,PatrickDempsey,PatrickDempsey,LeonardoDiCaprio,JustinTimberlake,HughJackman,,,,,posfs_BradPitt_im17.bmp,4.444289999999455,
SASO1010,_,posfs_RyanReynolds_im17.bmp,RyanReynolds,PatrickDempsey,PatrickDempsey,ElijahWood,BenStiller,BradPitt,,,,,posfs_RyanReynolds_im17.bmp,2.2560302000001684,
SASO1010,_,posfs_RobertDowneyJr_im19.bmp,RobertDowneyJr,DanielRadcliffe,DanielRadcliffe,DanielCraig,PatrickDempsey,BenStiller,,,,,4,2.748608100000638,
SASO1010,_,posfs_KeanuReeves_im10.bmp,KeanuReeves,MattDamon,MattDamon,OrlandoBloom,PatrickDempsey,LeonardoDiCaprio,,,,,posfs_KeanuReeves_im10.bmp,1.988762900000438,
SASO1010,_,posfs_JustinTimberlake_im17.bmp,JustinTimberlake,MattDamon,MattDamon,LeonardoDiCaprio,ElijahWood,GeorgeClooney,,,,,posfs_JustinTimberlake_im17.bmp,3.7388776000007056,
SASO1010,_,posfs_OrlandoBloom_im19.bmp,OrlandoBloom,ElijahWood,ElijahWood,DanielCraig,PatrickDempsey,LeonardoDiCaprio,,,,,4,3.2433531999995466,
SASO1010,_,posfs_RyanGosling_im30.bmp,RyanGosling,RyanReynolds,RyanReynolds,DanielCraig,PatrickDempsey,RobertPattinson,,,,,4,6.014982200000304,
SASO1010,_,posfs_RyanGosling_im12.bmp,RyanGosling,PatrickDempsey,PatrickDempsey,RyanReynolds,BradPitt,DanielCraig,,,,,4,3.2201824999992823,
SASO1010,_,posfs_DanielCraig_im7.bmp,DanielCraig,BenAffleck,BenAffleck,KeanuReeves,PatrickDempsey,DanielRadcliffe,,,,,posfs_DanielCraig_im7.bmp,4.576961000000665,
SASO1010,_,posfs_BradPitt_im14.bmp,BradPitt,MattDamon,MattDamon,DanielCraig,OrlandoBloom,LeonardoDiCaprio,,,,,posfs_BradPitt_im14.bmp,2.3926117999999406,
SASO1010,_,posfs_HughJackman_im18.bmp,HughJackman,LeonardoDiCaprio,LeonardoDiCaprio,BradPitt,RyanGosling,DanielRadcliffe,,,,,4,2.430247700000109,
SASO1010,_,posfs_BenStiller_im2.bmp,BenStiller,RobertDowneyJr,RobertDowneyJr,GeorgeClooney,DanielCraig,RyanReynolds,,,,,posfs_BenStiller_im2.bmp,1.915398200000709,
SASO1010,_,posfs_BradPitt_im8.bmp,BradPitt,BenStiller,BenStiller,BenAffleck,OrlandoBloom,RobertPattinson,,,,,posfs_BradPitt_im8.bmp,3.2367709999998624,
SASO1010,_,posfs_ElijahWood_im19.bmp,ElijahWood,PatrickDempsey,PatrickDempsey,RyanReynolds,BenAffleck,OrlandoBloom,,,,,4,3.569515200000751,
SASO1010,_,posfs_RobertDowneyJr_im11.bmp,RobertDowneyJr,HughJackman,HughJackman,RyanGosling,JustinTimberlake,BenStiller,,,,,posfs_RobertDowneyJr_im11.bmp,1.7450023000001238,
SASO1010,_,posfs_BenAffleck_im4.bmp,BenAffleck,BenStiller,BenStiller,KeanuReeves,ElijahWood,PatrickDempsey,,,,,posfs_BenAffleck_im4.bmp,2.041360999999597,
SASO1010,_,posfs_RobertPattinson_im8.bmp,RobertPattinson,DanielRadcliffe,DanielRadcliffe,OrlandoBloom,MattDamon,RyanGosling,,,,,posfs_RobertPattinson_im8.bmp,1.9252178999995522,
SASO1010,_,posfs_BenStiller_im7.bmp,BenStiller,LeonardoDiCaprio,LeonardoDiCaprio,RyanGosling,DanielCraig,PatrickDempsey,,,,,posfs_BenStiller_im7.bmp,1.9415576999999757,
SASO1010,_,posfs_KeanuReeves_im2.bmp,KeanuReeves,HughJackman,HughJackman,GeorgeClooney,RobertPattinson,BenStiller,,,,,posfs_KeanuReeves_im2.bmp,1.3183285999984946,
SASO1010,_,posfs_RobertPattinson_im30.bmp,RobertPattinson,DanielRadcliffe,DanielRadcliffe,DanielCraig,BenAffleck,JustinTimberlake,,,,,posfs_RobertPattinson_im30.bmp,2.878676299998915,
SASO1010,_,posfs_RobertDowneyJr_im18.bmp,RobertDowneyJr,MattDamon,MattDamon,BradPitt,GeorgeClooney,JustinTimberlake,,,,,posfs_RobertDowneyJr_im18.bmp,2.505400899999586,
SASO1010,_,posfs_DanielCraig_im15.bmp,DanielCraig,BenAffleck,BenAffleck,MattDamon,BenStiller,HughJackman,,,,,posfs_DanielCraig_im15.bmp,2.15503660000104,
SASO1010,_,posfs_GeorgeClooney_im23.bmp,GeorgeClooney,BenAffleck,BenAffleck,MattDamon,OrlandoBloom,KeanuReeves,,,,,posfs_GeorgeClooney_im23.bmp,1.890153400001509,
SASO1010,_,posfs_DanielRadcliffe_im8.bmp,DanielRadcliffe,MattDamon,MattDamon,PatrickDempsey,RyanReynolds,RobertDowneyJr,,,,,posfs_DanielRadcliffe_im8.bmp,2.7656545999998343,
SASO1010,_,posfs_RyanGosling_im25.bmp,RyanGosling,DanielCraig,DanielCraig,KeanuReeves,BradPitt,MattDamon,,,,,posfs_RyanGosling_im25.bmp,6.020404099999723,
SASO1010,_,posfs_LeonardoDiCaprio_im10.bmp,LeonardoDiCaprio,BenStiller,BenStiller,RyanGosling,PatrickDempsey,RobertPattinson,,,,,posfs_LeonardoDiCaprio_im10.bmp,2.7217476999994688,
SASO1010,_,posfs_JustinTimberlake_im18.bmp,JustinTimberlake,ElijahWood,ElijahWood,RyanGosling,DanielRadcliffe,LeonardoDiCaprio,,,,,posfs_JustinTimberlake_im18.bmp,3.6348901000001206,
SASO1010,_,posfs_RyanGosling_im3.bmp,RyanGosling,RobertPattinson,RobertPattinson,PatrickDempsey,DanielCraig,JustinTimberlake,,,,,4,5.77479029999995,
SASO1010,_,posfs_OrlandoBloom_im30.bmp,OrlandoBloom,JustinTimberlake,JustinTimberlake,BradPitt,KeanuReeves,RyanGosling,,,,,4,1.6612473000004684,
SASO1010,_,posfs_MattDamon_im9.bmp,MattDamon,BradPitt,BradPitt,HughJackman,DanielCraig,LeonardoDiCaprio,,,,,posfs_MattDamon_im9.bmp,2.936369000000923,
SASO1010,_,posfs_BenStiller_im16.bmp,BenStiller,KeanuReeves,KeanuReeves,MattDamon,JustinTimberlake,BenAffleck,,,,,posfs_BenStiller_im16.bmp,2.464575699999841,
SASO1010,_,posfs_BenAffleck_im8.bmp,BenAffleck,OrlandoBloom,OrlandoBloom,RobertPattinson,RyanReynolds,MattDamon,,,,,4,3.596175399999993,
SASO1010,_,posfs_DanielCraig_im8.bmp,DanielCraig,RobertPattinson,RobertPattinson,BenAffleck,BenStiller,LeonardoDiCaprio,,,,,posfs_DanielCraig_im8.bmp,2.3624892000007094,
SASO1010,_,posfs_MattDamon_im16.bmp,MattDamon,LeonardoDiCaprio,LeonardoDiCaprio,RyanGosling,KeanuReeves,BenStiller,,,,,4,4.642428799999834,
SASO1010,_,posfs_RobertPattinson_im4.bmp,RobertPattinson,DanielRadcliffe,DanielRadcliffe,RyanGosling,MattDamon,ElijahWood,,,,,posfs_RobertPattinson_im4.bmp,2.478513000000021,
SASO1010,_,posfs_BenAffleck_im21.bmp,BenAffleck,RyanGosling,RyanGosling,GeorgeClooney,ElijahWood,BradPitt,,,,,4,2.401326000001063,
SASO1010,_,posfs_GeorgeClooney_im14.bmp,GeorgeClooney,KeanuReeves,KeanuReeves,LeonardoDiCaprio,PatrickDempsey,RobertPattinson,,,,,posfs_GeorgeClooney_im14.bmp,1.4947879999999714,
SASO1010,_,posfs_MattDamon_im18.bmp,MattDamon,DanielCraig,DanielCraig,PatrickDempsey,DanielRadcliffe,ElijahWood,,,,,posfs_MattDamon_im18.bmp,4.392477499999586,
SASO1010,_,posfs_ElijahWood_im18.bmp,ElijahWood,PatrickDempsey,PatrickDempsey,JustinTimberlake,RobertPattinson,RobertDowneyJr,,,,,4,1.2538564999995288,
SASO1010,_,posfs_DanielRadcliffe_im10.bmp,DanielRadcliffe,LeonardoDiCaprio,LeonardoDiCaprio,KeanuReeves,ElijahWood,MattDamon,,,,,posfs_DanielRadcliffe_im10.bmp,3.082758399999875,
SASO1010,_,posfs_RobertPattinson_im27.bmp,RobertPattinson,RyanReynolds,RyanReynolds,OrlandoBloom,MattDamon,KeanuReeves,,,,,posfs_RobertPattinson_im27.bmp,2.3332257000001846,
SASO1010,_,posfs_KeanuReeves_im1.bmp,KeanuReeves,LeonardoDiCaprio,LeonardoDiCaprio,BradPitt,JustinTimberlake,RobertPattinson,,,,,posfs_KeanuReeves_im1.bmp,1.3482091000005312,
SASO1010,_,posfs_GeorgeClooney_im15.bmp,GeorgeClooney,JustinTimberlake,JustinTimberlake,DanielRadcliffe,DanielCraig,BenAffleck,,,,,posfs_GeorgeClooney_im15.bmp,1.2296985000011773,
SASO1010,_,posfs_BenAffleck_im24.bmp,BenAffleck,OrlandoBloom,OrlandoBloom,DanielRadcliffe,MattDamon,GeorgeClooney,,,,,4,1.698048899999776,
SASO1010,_,posfs_LeonardoDiCaprio_im29.bmp,LeonardoDiCaprio,RobertDowneyJr,RobertDowneyJr,PatrickDempsey,OrlandoBloom,DanielCraig,,,,,posfs_LeonardoDiCaprio_im29.bmp,2.3082018999994034,
SASO1010,_,posfs_BenStiller_im3.bmp,BenStiller,ElijahWood,ElijahWood,JustinTimberlake,BradPitt,RobertDowneyJr,,,,,posfs_BenStiller_im3.bmp,1.013639200000398,
SASO1010,_,posfs_RyanReynolds_im16.bmp,RyanReynolds,OrlandoBloom,OrlandoBloom,RobertPattinson,RyanGosling,LeonardoDiCaprio,,,,,2,2.410819500000798,
SASO1010,_,posfs_PatrickDempsey_im14.bmp,PatrickDempsey,KeanuReeves,KeanuReeves,RobertDowneyJr,HughJackman,RyanReynolds,,,,,posfs_PatrickDempsey_im14.bmp,3.5683706999989226,
SASO1010,_,posfs_PatrickDempsey_im9.bmp,PatrickDempsey,HughJackman,HughJackman,RobertDowneyJr,KeanuReeves,BenAffleck,,,,,posfs_PatrickDempsey_im9.bmp,2.447388599999613,
SASO1010,_,posfs_LeonardoDiCaprio_im15.bmp,LeonardoDiCaprio,RobertPattinson,RobertPattinson,DanielCraig,BradPitt,DanielRadcliffe,,,,,posfs_LeonardoDiCaprio_im15.bmp,2.4278893999999127,
SASO1010,_,posfs_RyanReynolds_im22.bmp,RyanReynolds,JustinTimberlake,JustinTimberlake,BradPitt,KeanuReeves,LeonardoDiCaprio,,,,,2,2.2093210000002728,
SASO1010,_,posfs_OrlandoBloom_im3.bmp,OrlandoBloom,RobertPattinson,RobertPattinson,RyanReynolds,RyanGosling,RobertDowneyJr,,,,,4,1.022926900001039,
SASO1010,_,posfs_DanielCraig_im20.bmp,DanielCraig,BenStiller,BenStiller,BradPitt,LeonardoDiCaprio,OrlandoBloom,,,,,posfs_DanielCraig_im20.bmp,2.4831427999997686,
SASO1010,_,posfs_BradPitt_im6.bmp,BradPitt,RyanGosling,RyanGosling,RobertDowneyJr,OrlandoBloom,HughJackman,,,,,posfs_BradPitt_im6.bmp,1.5896561999998085,
SASO1010,_,posfs_MattDamon_im24.bmp,MattDamon,RobertDowneyJr,RobertDowneyJr,BradPitt,HughJackman,RobertPattinson,,,,,4,1.4527402000003349,
SASO1010,_,posfs_RobertDowneyJr_im4.bmp,RobertDowneyJr,RyanGosling,RyanGosling,BradPitt,HughJackman,ElijahWood,,,,,posfs_RobertDowneyJr_im4.bmp,1.5289941999999428,
SASO1010,_,posfs_GeorgeClooney_im26.bmp,GeorgeClooney,LeonardoDiCaprio,LeonardoDiCaprio,RobertPattinson,BenAffleck,ElijahWood,,,,,posfs_GeorgeClooney_im26.bmp,2.4661131000011665,
SASO1010,_,posfs_RyanReynolds_im3.bmp,RyanReynolds,BenAffleck,BenAffleck,DanielCraig,MattDamon,OrlandoBloom,,,,,posfs_RyanReynolds_im3.bmp,2.908828800000265,
SASO1010,_,posfs_ElijahWood_im12.bmp,ElijahWood,DanielRadcliffe,DanielRadcliffe,RobertDowneyJr,GeorgeClooney,BenStiller,,,,,posfs_ElijahWood_im12.bmp,2.126681699999608,
SASO1010,_,posfs_PatrickDempsey_im16.bmp,PatrickDempsey,BradPitt,BradPitt,DanielCraig,DanielRadcliffe,LeonardoDiCaprio,,,,,posfs_PatrickDempsey_im16.bmp,2.799802200001068,
SASO1010,_,posfs_HughJackman_im21.bmp,HughJackman,OrlandoBloom,OrlandoBloom,GeorgeClooney,RyanGosling,BradPitt,,,,,4,1.24520929999926,
SASO1010,_,posfs_HughJackman_im20.bmp,HughJackman,JustinTimberlake,JustinTimberlake,RyanReynolds,DanielCraig,OrlandoBloom,,,,,4,1.8811671000003116,
SASO1010,_,posfs_DanielRadcliffe_im20.bmp,DanielRadcliffe,GeorgeClooney,GeorgeClooney,ElijahWood,RobertPattinson,KeanuReeves,,,,,posfs_DanielRadcliffe_im20.bmp,2.5562683999996807,
SASO1010,_,posfs_JustinTimberlake_im4.bmp,JustinTimberlake,BenStiller,BenStiller,RobertDowneyJr,OrlandoBloom,PatrickDempsey,,,,,posfs_JustinTimberlake_im4.bmp,3.0680953999999474,
SASO1010,_,posfs_ElijahWood_im23.bmp,ElijahWood,BenAffleck,BenAffleck,RyanGosling,BenStiller,RobertDowneyJr,,,,,posfs_ElijahWood_im23.bmp,1.9669527999994898,
SASO1010,train,pos,fs,posfs_id7_im26.bmp_posfs_id19_im4.bmp,['Im_DanielRadcliffe.png', 'Im_JustinTimberlake.png', 'Im_KeanuReeves.png', 'Im_DanielCraig.png', 'Im_LeonardoDiCaprio.png', 'Im_BradPitt.png', 'Im_BenStiller.png', 'Im_PatrickDempsey.png', 'Im_RobertPattinson.png', 'Im_GeorgeClooney.png'],diff,1,1.2002594999994471,1,0,
SASO1010,train,pos,fs,posfs_id3_im6.bmp_posfs_id3_im8.bmp,['Im_DanielRadcliffe.png', 'Im_JustinTimberlake.png', 'Im_KeanuReeves.png', 'Im_DanielCraig.png', 'Im_LeonardoDiCaprio.png', 'Im_BradPitt.png', 'Im_BenStiller.png', 'Im_PatrickDempsey.png', 'Im_RobertPattinson.png', 'Im_GeorgeClooney.png'],same,1,0.9585062999994989,2,0,
SASO1010,train,pos,fs,posfs_id19_im8.bmp_posfs_id19_im4.bmp,['Im_DanielRadcliffe.png', 'Im_JustinTimberlake.png', 'Im_KeanuReeves.png', 'Im_DanielCraig.png', 'Im_LeonardoDiCaprio.png', 'Im_BradPitt.png', 'Im_BenStiller.png', 'Im_PatrickDempsey.png', 'Im_RobertPattinson.png', 'Im_GeorgeClooney.png'],same,1,1.2332322000002023,3,0,
SASO1010,train,pos,fs,posfs_id19_im8.bmp_posfs_id13_im29.bmp,['Im_DanielRadcliffe.png', 'Im_JustinTimberlake.png', 'Im_KeanuReeves.png', 'Im_DanielCraig.png', 'Im_LeonardoDiCaprio.png', 'Im_BradPitt.png', 'Im_BenStiller.png', 'Im_PatrickDempsey.png', 'Im_RobertPattinson.png', 'Im_GeorgeClooney.png'],diff,1,0.8667728000000352,4,0,
SASO1010,train,pos,fs,posfs_id10_im1.bmp_posfs_id10_im18.bmp,['Im_DanielRadcliffe.png', 'Im_JustinTimberlake.png', 'Im_KeanuReeves.png', 'Im_DanielCraig.png', 'Im_LeonardoDiCaprio.png', 'Im_BradPitt.png', 'Im_BenStiller.png', 'Im_PatrickDempsey.png', 'Im_RobertPattinson.png', 'Im_GeorgeClooney.png'],same,1,0.9253269999990152,5,0,
SASO1010,train,pos,fs,posfs_id10_im17.bmp_posfs_id3_im6.bmp,['Im_DanielRadcliffe.png', 'Im_JustinTimberlake.png', 'Im_KeanuReeves.png', 'Im_DanielCraig.png', 'Im_LeonardoDiCaprio.png', 'Im_BradPitt.png', 'Im_BenStiller.png', 'Im_PatrickDempsey.png', 'Im_RobertPattinson.png', 'Im_GeorgeClooney.png'],diff,1,0.6668687000001228,6,0,
SASO1010,train,pos,fs,posfs_id3_im17.bmp_posfs_id3_im6.bmp,['Im_DanielRadcliffe.png', 'Im_JustinTimberlake.png', 'Im_KeanuReeves.png', 'Im_DanielCraig.png', 'Im_LeonardoDiCaprio.png', 'Im_BradPitt.png', 'Im_BenStiller.png', 'Im_PatrickDempsey.png', 'Im_RobertPattinson.png', 'Im_GeorgeClooney.png'],same,1,1.3752279999989696,7,0,
SASO1010,train,pos,fs,posfs_id3_im8.bmp_posfs_id3_im17.bmp,['Im_DanielRadcliffe.png', 'Im_JustinTimberlake.png', 'Im_KeanuReeves.png', 'Im_DanielCraig.png', 'Im_LeonardoDiCaprio.png', 'Im_BradPitt.png', 'Im_BenStiller.png', 'Im_PatrickDempsey.png', 'Im_RobertPattinson.png', 'Im_GeorgeClooney.png'],same,1,1.549899399999049,8,0,
SASO1010,train,pos,fs,posfs_id17_im14.bmp_posfs_id3_im8.bmp,['Im_DanielRadcliffe.png', 'Im_JustinTimberlake.png', 'Im_KeanuReeves.png', 'Im_DanielCraig.png', 'Im_LeonardoDiCaprio.png', 'Im_BradPitt.png', 'Im_BenStiller.png', 'Im_PatrickDempsey.png', 'Im_RobertPattinson.png', 'Im_GeorgeClooney.png'],diff,1,0.6002298000003066,9,0,
SASO1010,train,pos,fs,posfs_id11_im2.bmp_posfs_id11_im1.bmp,['Im_DanielRadcliffe.png', 'Im_JustinTimberlake.png', 'Im_KeanuReeves.png', 'Im_DanielCraig.png', 'Im_LeonardoDiCaprio.png', 'Im_BradPitt.png', 'Im_BenStiller.png', 'Im_PatrickDempsey.png', 'Im_RobertPattinson.png', 'Im_GeorgeClooney.png'],same,1,1.0168178000003536,10,0,
SASO1010,train,pos,fs,posfs_id17_im14.bmp_posfs_id11_im10.bmp,['Im_DanielRadcliffe.png', 'Im_JustinTimberlake.png', 'Im_KeanuReeves.png', 'Im_DanielCraig.png', 'Im_LeonardoDiCaprio.png', 'Im_BradPitt.png', 'Im_BenStiller.png', 'Im_PatrickDempsey.png', 'Im_RobertPattinson.png', 'Im_GeorgeClooney.png'],diff,1,0.5752959000001283,11,0,
SASO1010,train,pos,fs,posfs_id4_im15.bmp_posfs_id5_im1.bmp,['Im_DanielRadcliffe.png', 'Im_JustinTimberlake.png', 'Im_KeanuReeves.png', 'Im_DanielCraig.png', 'Im_LeonardoDiCaprio.png', 'Im_BradPitt.png', 'Im_BenStiller.png', 'Im_PatrickDempsey.png', 'Im_RobertPattinson.png', 'Im_GeorgeClooney.png'],same,0,1.0000698000003467,11,0,
SASO1010,train,pos,fs,posfs_id17_im8.bmp_posfs_id4_im7.bmp,['Im_DanielRadcliffe.png', 'Im_JustinTimberlake.png', 'Im_KeanuReeves.png', 'Im_DanielCraig.png', 'Im_LeonardoDiCaprio.png', 'Im_BradPitt.png', 'Im_BenStiller.png', 'Im_PatrickDempsey.png', 'Im_RobertPattinson.png', 'Im_GeorgeClooney.png'],diff,1,1.1003010000003997,12,0,
SASO1010,train,pos,fs,posfs_id5_im10.bmp_posfs_id13_im15.bmp,['Im_DanielRadcliffe.png', 'Im_JustinTimberlake.png', 'Im_KeanuReeves.png', 'Im_DanielCraig.png', 'Im_LeonardoDiCaprio.png', 'Im_BradPitt.png', 'Im_BenStiller.png', 'Im_PatrickDempsey.png', 'Im_RobertPattinson.png', 'Im_GeorgeClooney.png'],diff,1,1.0415728999996645,13,0,
SASO1010,train,pos,fs,posfs_id2_im3.bmp_posfs_id2_im2.bmp,['Im_DanielRadcliffe.png', 'Im_JustinTimberlake.png', 'Im_KeanuReeves.png', 'Im_DanielCraig.png', 'Im_LeonardoDiCaprio.png', 'Im_BradPitt.png', 'Im_BenStiller.png', 'Im_PatrickDempsey.png', 'Im_RobertPattinson.png', 'Im_GeorgeClooney.png'],same,1,0.9665580999990198,14,0,
SASO1010,train,pos,fs,posfs_id13_im29.bmp_posfs_id13_im10.bmp,['Im_DanielRadcliffe.png', 'Im_JustinTimberlake.png', 'Im_KeanuReeves.png', 'Im_DanielCraig.png', 'Im_LeonardoDiCaprio.png', 'Im_BradPitt.png', 'Im_BenStiller.png', 'Im_PatrickDempsey.png', 'Im_RobertPattinson.png', 'Im_GeorgeClooney.png'],same,1,1.250078900000517,15,0,
SASO1010,train,pos,fs,posfs_id2_im3.bmp_posfs_id2_im16.bmp,['Im_DanielRadcliffe.png', 'Im_JustinTimberlake.png', 'Im_KeanuReeves.png', 'Im_DanielCraig.png', 'Im_LeonardoDiCaprio.png', 'Im_BradPitt.png', 'Im_BenStiller.png', 'Im_PatrickDempsey.png', 'Im_RobertPattinson.png', 'Im_GeorgeClooney.png'],same,1,0.8334069000011368,16,0,
SASO1010,train,pos,fs,posfs_id10_im18.bmp_posfs_id10_im17.bmp,['Im_DanielRadcliffe.png', 'Im_JustinTimberlake.png', 'Im_KeanuReeves.png', 'Im_DanielCraig.png', 'Im_LeonardoDiCaprio.png', 'Im_BradPitt.png', 'Im_BenStiller.png', 'Im_PatrickDempsey.png', 'Im_RobertPattinson.png', 'Im_GeorgeClooney.png'],same,1,0.8583179999986896,17,0,
SASO1010,train,pos,fs,posfs_id11_im1.bmp_posfs_id13_im15.bmp,['Im_DanielRadcliffe.png', 'Im_JustinTimberlake.png', 'Im_KeanuReeves.png', 'Im_DanielCraig.png', 'Im_LeonardoDiCaprio.png', 'Im_BradPitt.png', 'Im_BenStiller.png', 'Im_PatrickDempsey.png', 'Im_RobertPattinson.png', 'Im_GeorgeClooney.png'],diff,1,0.7502445000009175,18,0,
SASO1010,train,pos,fs,posfs_id17_im8.bmp_posfs_id17_im14.bmp,['Im_DanielRadcliffe.png', 'Im_JustinTimberlake.png', 'Im_KeanuReeves.png', 'Im_DanielCraig.png', 'Im_LeonardoDiCaprio.png', 'Im_BradPitt.png', 'Im_BenStiller.png', 'Im_PatrickDempsey.png', 'Im_RobertPattinson.png', 'Im_GeorgeClooney.png'],same,1,0.7668140000005224,19,0,
SASO1010,train,pos,fs,posfs_id13_im15.bmp_posfs_id13_im10.bmp,['Im_DanielRadcliffe.png', 'Im_JustinTimberlake.png', 'Im_KeanuReeves.png', 'Im_DanielCraig.png', 'Im_LeonardoDiCaprio.png', 'Im_BradPitt.png', 'Im_BenStiller.png', 'Im_PatrickDempsey.png', 'Im_RobertPattinson.png', 'Im_GeorgeClooney.png'],same,1,0.5169537999991007,1,0,
SASO1010,train,pos,fs,posfs_id10_im1.bmp_posfs_id10_im18.bmp,['Im_DanielRadcliffe.png', 'Im_JustinTimberlake.png', 'Im_KeanuReeves.png', 'Im_DanielCraig.png', 'Im_LeonardoDiCaprio.png', 'Im_BradPitt.png', 'Im_BenStiller.png', 'Im_PatrickDempsey.png', 'Im_RobertPattinson.png', 'Im_GeorgeClooney.png'],same,1,0.7585715000004711,2,0,
SASO1010,train,neg,fs,negfs_id7_im14.bmp_negfs_id4_im20.bmp,['Im_DanielRadcliffe.png', 'Im_JustinTimberlake.png', 'Im_KeanuReeves.png', 'Im_DanielCraig.png', 'Im_LeonardoDiCaprio.png', 'Im_BradPitt.png', 'Im_BenStiller.png', 'Im_PatrickDempsey.png', 'Im_RobertPattinson.png', 'Im_GeorgeClooney.png'],diff,1,0.5336243000001559,3,0,
SASO1010,train,neg,fs,negfs_id7_im26.bmp_negfs_id7_im15.bmp,['Im_DanielRadcliffe.png', 'Im_JustinTimberlake.png', 'Im_KeanuReeves.png', 'Im_DanielCraig.png', 'Im_LeonardoDiCaprio.png', 'Im_BradPitt.png', 'Im_BenStiller.png', 'Im_PatrickDempsey.png', 'Im_RobertPattinson.png', 'Im_GeorgeClooney.png'],same,1,0.9004011000015453,4,0,
SASO1010,train,inv,fs,posfs_id4_im7.bmp_posfs_id4_im20.bmp,['Im_DanielRadcliffe.png', 'Im_JustinTimberlake.png', 'Im_KeanuReeves.png', 'Im_DanielCraig.png', 'Im_LeonardoDiCaprio.png', 'Im_BradPitt.png', 'Im_BenStiller.png', 'Im_PatrickDempsey.png', 'Im_RobertPattinson.png', 'Im_GeorgeClooney.png'],same,1,0.658640400000877,5,0,
SASO1010,train,inv,fs,posfs_id19_im27.bmp_posfs_id11_im10.bmp,['Im_DanielRadcliffe.png', 'Im_JustinTimberlake.png', 'Im_KeanuReeves.png', 'Im_DanielCraig.png', 'Im_LeonardoDiCaprio.png', 'Im_BradPitt.png', 'Im_BenStiller.png', 'Im_PatrickDempsey.png', 'Im_RobertPattinson.png', 'Im_GeorgeClooney.png'],diff,1,0.48341159999836236,6,0,
SASO1010,train,pos,fs,posfs_id13_im29.bmp_posfs_id7_im14.bmp,['Im_DanielRadcliffe.png', 'Im_JustinTimberlake.png', 'Im_KeanuReeves.png', 'Im_DanielCraig.png', 'Im_LeonardoDiCaprio.png', 'Im_BradPitt.png', 'Im_BenStiller.png', 'Im_PatrickDempsey.png', 'Im_RobertPattinson.png', 'Im_GeorgeClooney.png'],diff,1,0.4167183000008663,7,0,
SASO1010,train,neg,fs,negfs_id19_im4.bmp_negfs_id19_im8.bmp,['Im_DanielRadcliffe.png', 'Im_JustinTimberlake.png', 'Im_KeanuReeves.png', 'Im_DanielCraig.png', 'Im_LeonardoDiCaprio.png', 'Im_BradPitt.png', 'Im_BenStiller.png', 'Im_PatrickDempsey.png', 'Im_RobertPattinson.png', 'Im_GeorgeClooney.png'],diff,0,0.8251987999992707,7,0,
SASO1010,train,neg,fs,negfs_id2_im2.bmp_negfs_id5_im10.bmp,['Im_DanielRadcliffe.png', 'Im_JustinTimberlake.png', 'Im_KeanuReeves.png', 'Im_DanielCraig.png', 'Im_LeonardoDiCaprio.png', 'Im_BradPitt.png', 'Im_BenStiller.png', 'Im_PatrickDempsey.png', 'Im_RobertPattinson.png', 'Im_GeorgeClooney.png'],diff,1,0.8336276000009093,8,0,
SASO1010,train,neg,fs,negfs_id7_im26.bmp_negfs_id7_im14.bmp,['Im_DanielRadcliffe.png', 'Im_JustinTimberlake.png', 'Im_KeanuReeves.png', 'Im_DanielCraig.png', 'Im_LeonardoDiCaprio.png', 'Im_BradPitt.png', 'Im_BenStiller.png', 'Im_PatrickDempsey.png', 'Im_RobertPattinson.png', 'Im_GeorgeClooney.png'],same,1,0.8250383999984479,9,0,
SASO1010,train,pos,fs,posfs_id11_im1.bmp_posfs_id11_im10.bmp,['Im_DanielRadcliffe.png', 'Im_JustinTimberlake.png', 'Im_KeanuReeves.png', 'Im_DanielCraig.png', 'Im_LeonardoDiCaprio.png', 'Im_BradPitt.png', 'Im_BenStiller.png', 'Im_PatrickDempsey.png', 'Im_RobertPattinson.png', 'Im_GeorgeClooney.png'],same,1,0.5166913000011846,10,0,
SASO1010,train,inv,fs,posfs_id10_im1.bmp_posfs_id3_im17.bmp,['Im_DanielRadcliffe.png', 'Im_JustinTimberlake.png', 'Im_KeanuReeves.png', 'Im_DanielCraig.png', 'Im_LeonardoDiCaprio.png', 'Im_BradPitt.png', 'Im_BenStiller.png', 'Im_PatrickDempsey.png', 'Im_RobertPattinson.png', 'Im_GeorgeClooney.png'],diff,1,0.42503059999944526,11,0,
SASO1010,train,neg,fs,negfs_id4_im20.bmp_negfs_id4_im15.bmp,['Im_DanielRadcliffe.png', 'Im_JustinTimberlake.png', 'Im_KeanuReeves.png', 'Im_DanielCraig.png', 'Im_LeonardoDiCaprio.png', 'Im_BradPitt.png', 'Im_BenStiller.png', 'Im_PatrickDempsey.png', 'Im_RobertPattinson.png', 'Im_GeorgeClooney.png'],same,1,0.5918132000006153,12,0,
SASO1010,train,neg,fs,negfs_id13_im29.bmp_negfs_id7_im14.bmp,['Im_DanielRadcliffe.png', 'Im_JustinTimberlake.png', 'Im_KeanuReeves.png', 'Im_DanielCraig.png', 'Im_LeonardoDiCaprio.png', 'Im_BradPitt.png', 'Im_BenStiller.png', 'Im_PatrickDempsey.png', 'Im_RobertPattinson.png', 'Im_GeorgeClooney.png'],diff,1,0.9084886999989976,13,0,
SASO1010,train,inv,fs,posfs_id4_im7.bmp_posfs_id4_im15.bmp,['Im_DanielRadcliffe.png', 'Im_JustinTimberlake.png', 'Im_KeanuReeves.png', 'Im_DanielCraig.png', 'Im_LeonardoDiCaprio.png', 'Im_BradPitt.png', 'Im_BenStiller.png', 'Im_PatrickDempsey.png', 'Im_RobertPattinson.png', 'Im_GeorgeClooney.png'],same,1,0.6501110000008339,14,0,
SASO1010,train,neg,fs,negfs_id3_im6.bmp_negfs_id3_im8.bmp,['Im_DanielRadcliffe.png', 'Im_JustinTimberlake.png', 'Im_KeanuReeves.png', 'Im_DanielCraig.png', 'Im_LeonardoDiCaprio.png', 'Im_BradPitt.png', 'Im_BenStiller.png', 'Im_PatrickDempsey.png', 'Im_RobertPattinson.png', 'Im_GeorgeClooney.png'],same,1,0.6591212000002997,15,0,
SASO1010,train,neg,fs,negfs_id2_im2.bmp_negfs_id2_im16.bmp,['Im_DanielRadcliffe.png', 'Im_JustinTimberlake.png', 'Im_KeanuReeves.png', 'Im_DanielCraig.png', 'Im_LeonardoDiCaprio.png', 'Im_BradPitt.png', 'Im_BenStiller.png', 'Im_PatrickDempsey.png', 'Im_RobertPattinson.png', 'Im_GeorgeClooney.png'],diff,0,0.4250123999991047,15,0,
SASO1010,train,neg,fs,negfs_id17_im8.bmp_negfs_id4_im7.bmp,['Im_DanielRadcliffe.png', 'Im_JustinTimberlake.png', 'Im_KeanuReeves.png', 'Im_DanielCraig.png', 'Im_LeonardoDiCaprio.png', 'Im_BradPitt.png', 'Im_BenStiller.png', 'Im_PatrickDempsey.png', 'Im_RobertPattinson.png', 'Im_GeorgeClooney.png'],diff,1,0.8002229000012449,16,0,
SASO1010,train,inv,fs,posfs_id5_im10.bmp_posfs_id13_im15.bmp,['Im_DanielRadcliffe.png', 'Im_JustinTimberlake.png', 'Im_KeanuReeves.png', 'Im_DanielCraig.png', 'Im_LeonardoDiCaprio.png', 'Im_BradPitt.png', 'Im_BenStiller.png', 'Im_PatrickDempsey.png', 'Im_RobertPattinson.png', 'Im_GeorgeClooney.png'],diff,1,0.6002000000007683,17,0,
SASO1010,train,inv,fs,posfs_id4_im7.bmp_posfs_id17_im8.bmp,['Im_DanielRadcliffe.png', 'Im_JustinTimberlake.png', 'Im_KeanuReeves.png', 'Im_DanielCraig.png', 'Im_LeonardoDiCaprio.png', 'Im_BradPitt.png', 'Im_BenStiller.png', 'Im_PatrickDempsey.png', 'Im_RobertPattinson.png', 'Im_GeorgeClooney.png'],diff,1,1.116628399999172,18,0,
SASO1010,train,pos,60,pos60_id2_im16.bmp_pos60_id13_im10.bmp,['Im_DanielRadcliffe.png', 'Im_JustinTimberlake.png', 'Im_KeanuReeves.png', 'Im_DanielCraig.png', 'Im_LeonardoDiCaprio.png', 'Im_BradPitt.png', 'Im_BenStiller.png', 'Im_PatrickDempsey.png', 'Im_RobertPattinson.png', 'Im_GeorgeClooney.png'],diff,1,0.4250601999992796,1,0,
SASO1010,train,pos,90,pos90_id7_im14.bmp_pos90_id7_im26.bmp,['Im_DanielRadcliffe.png', 'Im_JustinTimberlake.png', 'Im_KeanuReeves.png', 'Im_DanielCraig.png', 'Im_LeonardoDiCaprio.png', 'Im_BradPitt.png', 'Im_BenStiller.png', 'Im_PatrickDempsey.png', 'Im_RobertPattinson.png', 'Im_GeorgeClooney.png'],diff,0,0.9420055999999022,1,0,
SASO1010,train,pos,60,pos60_id4_im7.bmp_pos60_id4_im15.bmp,['Im_DanielRadcliffe.png', 'Im_JustinTimberlake.png', 'Im_KeanuReeves.png', 'Im_DanielCraig.png', 'Im_LeonardoDiCaprio.png', 'Im_BradPitt.png', 'Im_BenStiller.png', 'Im_PatrickDempsey.png', 'Im_RobertPattinson.png', 'Im_GeorgeClooney.png'],same,1,0.40841660000114643,2,0,
SASO1010,train,pos,120,pos120_id7_im15.bmp_pos120_id19_im4.bmp,['Im_DanielRadcliffe.png', 'Im_JustinTimberlake.png', 'Im_KeanuReeves.png', 'Im_DanielCraig.png', 'Im_LeonardoDiCaprio.png', 'Im_BradPitt.png', 'Im_BenStiller.png', 'Im_PatrickDempsey.png', 'Im_RobertPattinson.png', 'Im_GeorgeClooney.png'],diff,1,0.7750547000014194,3,0,
SASO1010,train,pos,fs,posfs_id10_im18.bmp_posfs_id10_im17.bmp,['Im_DanielRadcliffe.png', 'Im_JustinTimberlake.png', 'Im_KeanuReeves.png', 'Im_DanielCraig.png', 'Im_LeonardoDiCaprio.png', 'Im_BradPitt.png', 'Im_BenStiller.png', 'Im_PatrickDempsey.png', 'Im_RobertPattinson.png', 'Im_GeorgeClooney.png'],same,1,0.41669179999917105,4,0,
SASO1010,train,pos,150,pos150_id13_im10.bmp_pos150_id13_im15.bmp,['Im_DanielRadcliffe.png', 'Im_JustinTimberlake.png', 'Im_KeanuReeves.png', 'Im_DanielCraig.png', 'Im_LeonardoDiCaprio.png', 'Im_BradPitt.png', 'Im_BenStiller.png', 'Im_PatrickDempsey.png', 'Im_RobertPattinson.png', 'Im_GeorgeClooney.png'],same,1,0.45018720000007306,5,0,
SASO1010,train,pos,0,pos0_id10_im17.bmp_pos0_id10_im1.bmp,['Im_DanielRadcliffe.png', 'Im_JustinTimberlake.png', 'Im_KeanuReeves.png', 'Im_DanielCraig.png', 'Im_LeonardoDiCaprio.png', 'Im_BradPitt.png', 'Im_BenStiller.png', 'Im_PatrickDempsey.png', 'Im_RobertPattinson.png', 'Im_GeorgeClooney.png'],same,1,0.691629600001761,6,0,
SASO1010,train,pos,150,pos150_id13_im15.bmp_pos150_id11_im1.bmp,['Im_DanielRadcliffe.png', 'Im_JustinTimberlake.png', 'Im_KeanuReeves.png', 'Im_DanielCraig.png', 'Im_LeonardoDiCaprio.png', 'Im_BradPitt.png', 'Im_BenStiller.png', 'Im_PatrickDempsey.png', 'Im_RobertPattinson.png', 'Im_GeorgeClooney.png'],diff,1,0.41676469999947585,7,0,
SASO1010,train,pos,30,pos30_id4_im7.bmp_pos30_id4_im15.bmp,['Im_DanielRadcliffe.png', 'Im_JustinTimberlake.png', 'Im_KeanuReeves.png', 'Im_DanielCraig.png', 'Im_LeonardoDiCaprio.png', 'Im_BradPitt.png', 'Im_BenStiller.png', 'Im_PatrickDempsey.png', 'Im_RobertPattinson.png', 'Im_GeorgeClooney.png'],same,1,0.8087201999987883,8,0,
SASO1010,train,pos,30,pos30_id3_im17.bmp_pos30_id3_im6.bmp,['Im_DanielRadcliffe.png', 'Im_JustinTimberlake.png', 'Im_KeanuReeves.png', 'Im_DanielCraig.png', 'Im_LeonardoDiCaprio.png', 'Im_BradPitt.png', 'Im_BenStiller.png', 'Im_PatrickDempsey.png', 'Im_RobertPattinson.png', 'Im_GeorgeClooney.png'],diff,0,0.7501532000005682,8,0,
SASO1010,train,pos,90,pos90_id7_im14.bmp_pos90_id4_im20.bmp,['Im_DanielRadcliffe.png', 'Im_JustinTimberlake.png', 'Im_KeanuReeves.png', 'Im_DanielCraig.png', 'Im_LeonardoDiCaprio.png', 'Im_BradPitt.png', 'Im_BenStiller.png', 'Im_PatrickDempsey.png', 'Im_RobertPattinson.png', 'Im_GeorgeClooney.png'],diff,1,0.4251595999994606,9,0,
SASO1010,train,pos,fs,posfs_id2_im3.bmp_posfs_id2_im16.bmp,['Im_DanielRadcliffe.png', 'Im_JustinTimberlake.png', 'Im_KeanuReeves.png', 'Im_DanielCraig.png', 'Im_LeonardoDiCaprio.png', 'Im_BradPitt.png', 'Im_BenStiller.png', 'Im_PatrickDempsey.png', 'Im_RobertPattinson.png', 'Im_GeorgeClooney.png'],same,1,0.43413560000044527,10,0,
SASO1010,train,pos,0,pos0_id13_im15.bmp_pos0_id11_im1.bmp,['Im_DanielRadcliffe.png', 'Im_JustinTimberlake.png', 'Im_KeanuReeves.png', 'Im_DanielCraig.png', 'Im_LeonardoDiCaprio.png', 'Im_BradPitt.png', 'Im_BenStiller.png', 'Im_PatrickDempsey.png', 'Im_RobertPattinson.png', 'Im_GeorgeClooney.png'],diff,1,0.9083483000013075,11,0,
SASO1010,train,pos,120,pos120_id13_im10.bmp_pos120_id13_im29.bmp,['Im_DanielRadcliffe.png', 'Im_JustinTimberlake.png', 'Im_KeanuReeves.png', 'Im_DanielCraig.png', 'Im_LeonardoDiCaprio.png', 'Im_BradPitt.png', 'Im_BenStiller.png', 'Im_PatrickDempsey.png', 'Im_RobertPattinson.png', 'Im_GeorgeClooney.png'],same,1,0.6000033999989682,12,0,
SASO1010,train,inv,fs,posfs_id10_im1.bmp_posfs_id5_im1.bmp,['Im_DanielRadcliffe.png', 'Im_JustinTimberlake.png', 'Im_KeanuReeves.png', 'Im_DanielCraig.png', 'Im_LeonardoDiCaprio.png', 'Im_BradPitt.png', 'Im_BenStiller.png', 'Im_PatrickDempsey.png', 'Im_RobertPattinson.png', 'Im_GeorgeClooney.png'],diff,1,0.4166580000000977,13,0,
SASO1010,train,inv,60,pos60_id11_im1.bmp_pos60_id11_im10.bmp,['Im_DanielRadcliffe.png', 'Im_JustinTimberlake.png', 'Im_KeanuReeves.png', 'Im_DanielCraig.png', 'Im_LeonardoDiCaprio.png', 'Im_BradPitt.png', 'Im_BenStiller.png', 'Im_PatrickDempsey.png', 'Im_RobertPattinson.png', 'Im_GeorgeClooney.png'],same,1,0.9418946000005235,14,0,
SASO1010,train,inv,0,pos0_id10_im17.bmp_pos0_id10_im1.bmp,['Im_DanielRadcliffe.png', 'Im_JustinTimberlake.png', 'Im_KeanuReeves.png', 'Im_DanielCraig.png', 'Im_LeonardoDiCaprio.png', 'Im_BradPitt.png', 'Im_BenStiller.png', 'Im_PatrickDempsey.png', 'Im_RobertPattinson.png', 'Im_GeorgeClooney.png'],same,1,0.5415747999995801,15,0,
SASO1010,train,inv,90,pos90_id3_im17.bmp_pos90_id11_im2.bmp,['Im_DanielRadcliffe.png', 'Im_JustinTimberlake.png', 'Im_KeanuReeves.png', 'Im_DanielCraig.png', 'Im_LeonardoDiCaprio.png', 'Im_BradPitt.png', 'Im_BenStiller.png', 'Im_PatrickDempsey.png', 'Im_RobertPattinson.png', 'Im_GeorgeClooney.png'],diff,1,0.45844080000097165,16,0,
SASO1010,train,inv,90,pos90_id5_im20.bmp_pos90_id5_im10.bmp,['Im_DanielRadcliffe.png', 'Im_JustinTimberlake.png', 'Im_KeanuReeves.png', 'Im_DanielCraig.png', 'Im_LeonardoDiCaprio.png', 'Im_BradPitt.png', 'Im_BenStiller.png', 'Im_PatrickDempsey.png', 'Im_RobertPattinson.png', 'Im_GeorgeClooney.png'],same,1,0.6916937999994843,17,0,
SASO1010,train,inv,150,pos150_id11_im10.bmp_pos150_id11_im1.bmp,['Im_DanielRadcliffe.png', 'Im_JustinTimberlake.png', 'Im_KeanuReeves.png', 'Im_DanielCraig.png', 'Im_LeonardoDiCaprio.png', 'Im_BradPitt.png', 'Im_BenStiller.png', 'Im_PatrickDempsey.png', 'Im_RobertPattinson.png', 'Im_GeorgeClooney.png'],same,1,0.4250742000003811,18,0,
SASO1010,train,inv,120,pos120_id4_im20.bmp_pos120_id7_im14.bmp,['Im_DanielRadcliffe.png', 'Im_JustinTimberlake.png', 'Im_KeanuReeves.png', 'Im_DanielCraig.png', 'Im_LeonardoDiCaprio.png', 'Im_BradPitt.png', 'Im_BenStiller.png', 'Im_PatrickDempsey.png', 'Im_RobertPattinson.png', 'Im_GeorgeClooney.png'],diff,1,0.4249314000007871,19,0,
SASO1010,train,inv,30,pos30_id2_im16.bmp_pos30_id13_im10.bmp,['Im_DanielRadcliffe.png', 'Im_JustinTimberlake.png', 'Im_KeanuReeves.png', 'Im_DanielCraig.png', 'Im_LeonardoDiCaprio.png', 'Im_BradPitt.png', 'Im_BenStiller.png', 'Im_PatrickDempsey.png', 'Im_RobertPattinson.png', 'Im_GeorgeClooney.png'],diff,1,0.5168241999999736,20,0,
SASO1010,train,inv,60,pos60_id2_im3.bmp_pos60_id2_im16.bmp,['Im_DanielRadcliffe.png', 'Im_JustinTimberlake.png', 'Im_KeanuReeves.png', 'Im_DanielCraig.png', 'Im_LeonardoDiCaprio.png', 'Im_BradPitt.png', 'Im_BenStiller.png', 'Im_PatrickDempsey.png', 'Im_RobertPattinson.png', 'Im_GeorgeClooney.png'],diff,0,0.516704399999071,20,0,
SASO1010,train,inv,120,pos120_id17_im14.bmp_pos120_id17_im9.bmp,['Im_DanielRadcliffe.png', 'Im_JustinTimberlake.png', 'Im_KeanuReeves.png', 'Im_DanielCraig.png', 'Im_LeonardoDiCaprio.png', 'Im_BradPitt.png', 'Im_BenStiller.png', 'Im_PatrickDempsey.png', 'Im_RobertPattinson.png', 'Im_GeorgeClooney.png'],diff,0,0.708648699999685,20,0,
SASO1010,train,inv,fs,posfs_id3_im8.bmp_posfs_id3_im17.bmp,['Im_DanielRadcliffe.png', 'Im_JustinTimberlake.png', 'Im_KeanuReeves.png', 'Im_DanielCraig.png', 'Im_LeonardoDiCaprio.png', 'Im_BradPitt.png', 'Im_BenStiller.png', 'Im_PatrickDempsey.png', 'Im_RobertPattinson.png', 'Im_GeorgeClooney.png'],same,1,0.4334015000004001,21,0,
SASO1010,train,inv,150,pos150_id13_im15.bmp_pos150_id13_im29.bmp,['Im_DanielRadcliffe.png', 'Im_JustinTimberlake.png', 'Im_KeanuReeves.png', 'Im_DanielCraig.png', 'Im_LeonardoDiCaprio.png', 'Im_BradPitt.png', 'Im_BenStiller.png', 'Im_PatrickDempsey.png', 'Im_RobertPattinson.png', 'Im_GeorgeClooney.png'],diff,0,0.8418136000000231,21,0,
SASO1010,train,inv,0,pos0_id3_im8.bmp_pos0_id3_im6.bmp,['Im_DanielRadcliffe.png', 'Im_JustinTimberlake.png', 'Im_KeanuReeves.png', 'Im_DanielCraig.png', 'Im_LeonardoDiCaprio.png', 'Im_BradPitt.png', 'Im_BenStiller.png', 'Im_PatrickDempsey.png', 'Im_RobertPattinson.png', 'Im_GeorgeClooney.png'],same,1,0.6418799999992189,22,0,
SASO1010,train,inv,30,pos30_id17_im9.bmp_pos30_id3_im6.bmp,['Im_DanielRadcliffe.png', 'Im_JustinTimberlake.png', 'Im_KeanuReeves.png', 'Im_DanielCraig.png', 'Im_LeonardoDiCaprio.png', 'Im_BradPitt.png', 'Im_BenStiller.png', 'Im_PatrickDempsey.png', 'Im_RobertPattinson.png', 'Im_GeorgeClooney.png'],same,0,0.42490949999955774,22,0,
SASO1010,train,neg,0,neg0_id5_im10.bmp_neg0_id5_im1.bmp,['Im_DanielRadcliffe.png', 'Im_JustinTimberlake.png', 'Im_KeanuReeves.png', 'Im_DanielCraig.png', 'Im_LeonardoDiCaprio.png', 'Im_BradPitt.png', 'Im_BenStiller.png', 'Im_PatrickDempsey.png', 'Im_RobertPattinson.png', 'Im_GeorgeClooney.png'],same,1,0.8583634000005986,23,0,
SASO1010,train,neg,120,neg120_id7_im26.bmp_neg120_id7_im15.bmp,['Im_DanielRadcliffe.png', 'Im_JustinTimberlake.png', 'Im_KeanuReeves.png', 'Im_DanielCraig.png', 'Im_LeonardoDiCaprio.png', 'Im_BradPitt.png', 'Im_BenStiller.png', 'Im_PatrickDempsey.png', 'Im_RobertPattinson.png', 'Im_GeorgeClooney.png'],same,1,0.7251150000010966,24,0,
SASO1010,train,neg,0,neg0_id17_im8.bmp_neg0_id4_im7.bmp,['Im_DanielRadcliffe.png', 'Im_JustinTimberlake.png', 'Im_KeanuReeves.png', 'Im_DanielCraig.png', 'Im_LeonardoDiCaprio.png', 'Im_BradPitt.png', 'Im_BenStiller.png', 'Im_PatrickDempsey.png', 'Im_RobertPattinson.png', 'Im_GeorgeClooney.png'],diff,1,0.741649999999936,25,0,
SASO1010,train,neg,90,neg90_id10_im18.bmp_neg90_id11_im2.bmp,['Im_DanielRadcliffe.png', 'Im_JustinTimberlake.png', 'Im_KeanuReeves.png', 'Im_DanielCraig.png', 'Im_LeonardoDiCaprio.png', 'Im_BradPitt.png', 'Im_BenStiller.png', 'Im_PatrickDempsey.png', 'Im_RobertPattinson.png', 'Im_GeorgeClooney.png'],diff,1,0.7586362000001827,26,0,
SASO1010,train,neg,90,neg90_id13_im10.bmp_neg90_id5_im20.bmp,['Im_DanielRadcliffe.png', 'Im_JustinTimberlake.png', 'Im_KeanuReeves.png', 'Im_DanielCraig.png', 'Im_LeonardoDiCaprio.png', 'Im_BradPitt.png', 'Im_BenStiller.png', 'Im_PatrickDempsey.png', 'Im_RobertPattinson.png', 'Im_GeorgeClooney.png'],diff,1,0.7752193999986048,27,0,
SASO1010,train,neg,150,neg150_id7_im15.bmp_neg150_id2_im16.bmp,['Im_DanielRadcliffe.png', 'Im_JustinTimberlake.png', 'Im_KeanuReeves.png', 'Im_DanielCraig.png', 'Im_LeonardoDiCaprio.png', 'Im_BradPitt.png', 'Im_BenStiller.png', 'Im_PatrickDempsey.png', 'Im_RobertPattinson.png', 'Im_GeorgeClooney.png'],same,0,0.4333664999994653,27,0,
SASO1010,train,neg,60,neg60_id3_im17.bmp_neg60_id3_im6.bmp,['Im_DanielRadcliffe.png', 'Im_JustinTimberlake.png', 'Im_KeanuReeves.png', 'Im_DanielCraig.png', 'Im_LeonardoDiCaprio.png', 'Im_BradPitt.png', 'Im_BenStiller.png', 'Im_PatrickDempsey.png', 'Im_RobertPattinson.png', 'Im_GeorgeClooney.png'],same,1,0.6415575999999419,28,0,
SASO1010,train,neg,120,neg120_id17_im9.bmp_neg120_id17_im8.bmp,['Im_DanielRadcliffe.png', 'Im_JustinTimberlake.png', 'Im_KeanuReeves.png', 'Im_DanielCraig.png', 'Im_LeonardoDiCaprio.png', 'Im_BradPitt.png', 'Im_BenStiller.png', 'Im_PatrickDempsey.png', 'Im_RobertPattinson.png', 'Im_GeorgeClooney.png'],same,1,0.658301900000879,29,0,
SASO1010,train,neg,30,neg30_id19_im8.bmp_neg30_id19_im4.bmp,['Im_DanielRadcliffe.png', 'Im_JustinTimberlake.png', 'Im_KeanuReeves.png', 'Im_DanielCraig.png', 'Im_LeonardoDiCaprio.png', 'Im_BradPitt.png', 'Im_BenStiller.png', 'Im_PatrickDempsey.png', 'Im_RobertPattinson.png', 'Im_GeorgeClooney.png'],same,1,0.7583730000005744,30,0,
SASO1010,train,neg,30,neg30_id2_im3.bmp_neg30_id2_im16.bmp,['Im_DanielRadcliffe.png', 'Im_JustinTimberlake.png', 'Im_KeanuReeves.png', 'Im_DanielCraig.png', 'Im_LeonardoDiCaprio.png', 'Im_BradPitt.png', 'Im_BenStiller.png', 'Im_PatrickDempsey.png', 'Im_RobertPattinson.png', 'Im_GeorgeClooney.png'],same,1,0.5834787999992841,31,0,
SASO1010,train,neg,fs,negfs_id17_im8.bmp_negfs_id4_im7.bmp,['Im_DanielRadcliffe.png', 'Im_JustinTimberlake.png', 'Im_KeanuReeves.png', 'Im_DanielCraig.png', 'Im_LeonardoDiCaprio.png', 'Im_BradPitt.png', 'Im_BenStiller.png', 'Im_PatrickDempsey.png', 'Im_RobertPattinson.png', 'Im_GeorgeClooney.png'],diff,1,0.9582355000002281,32,0,
SASO1010,train,neg,fs,negfs_id2_im16.bmp_negfs_id2_im2.bmp,['Im_DanielRadcliffe.png', 'Im_JustinTimberlake.png', 'Im_KeanuReeves.png', 'Im_DanielCraig.png', 'Im_LeonardoDiCaprio.png', 'Im_BradPitt.png', 'Im_BenStiller.png', 'Im_PatrickDempsey.png', 'Im_RobertPattinson.png', 'Im_GeorgeClooney.png'],same,1,0.5425693000015599,33,0,
SASO1010,train,neg,60,neg60_id13_im10.bmp_neg60_id13_im29.bmp,['Im_DanielRadcliffe.png', 'Im_JustinTimberlake.png', 'Im_KeanuReeves.png', 'Im_DanielCraig.png', 'Im_LeonardoDiCaprio.png', 'Im_BradPitt.png', 'Im_BenStiller.png', 'Im_PatrickDempsey.png', 'Im_RobertPattinson.png', 'Im_GeorgeClooney.png'],same,1,0.5584066999999777,34,0,
SASO1010,train,neg,150,neg150_id7_im14.bmp_neg150_id13_im29.bmp,['Im_DanielRadcliffe.png', 'Im_JustinTimberlake.png', 'Im_KeanuReeves.png', 'Im_DanielCraig.png', 'Im_LeonardoDiCaprio.png', 'Im_BradPitt.png', 'Im_BenStiller.png', 'Im_PatrickDempsey.png', 'Im_RobertPattinson.png', 'Im_GeorgeClooney.png'],same,0,0.650320599999759,34,0,
SASO1010,train,inv,0,pos0_id19_im8.bmp_pos0_id19_im27.bmp,['Im_DanielRadcliffe.png', 'Im_JustinTimberlake.png', 'Im_KeanuReeves.png', 'Im_DanielCraig.png', 'Im_LeonardoDiCaprio.png', 'Im_BradPitt.png', 'Im_BenStiller.png', 'Im_PatrickDempsey.png', 'Im_RobertPattinson.png', 'Im_GeorgeClooney.png'],same,1,0.8918345000001864,1,80.95238095238095,
SASO1010,train,inv,120,pos120_id10_im1.bmp_pos120_id3_im17.bmp,['Im_DanielRadcliffe.png', 'Im_JustinTimberlake.png', 'Im_KeanuReeves.png', 'Im_DanielCraig.png', 'Im_LeonardoDiCaprio.png', 'Im_BradPitt.png', 'Im_BenStiller.png', 'Im_PatrickDempsey.png', 'Im_RobertPattinson.png', 'Im_GeorgeClooney.png'],same,0,0.5918346999987989,1,80.95238095238095,
SASO1010,train,inv,90,pos90_id11_im1.bmp_pos90_id11_im10.bmp,['Im_DanielRadcliffe.png', 'Im_JustinTimberlake.png', 'Im_KeanuReeves.png', 'Im_DanielCraig.png', 'Im_LeonardoDiCaprio.png', 'Im_BradPitt.png', 'Im_BenStiller.png', 'Im_PatrickDempsey.png', 'Im_RobertPattinson.png', 'Im_GeorgeClooney.png'],diff,0,0.6084272999996756,1,80.95238095238095,
SASO1010,train,inv,60,pos60_id4_im7.bmp_pos60_id4_im15.bmp,['Im_DanielRadcliffe.png', 'Im_JustinTimberlake.png', 'Im_KeanuReeves.png', 'Im_DanielCraig.png', 'Im_LeonardoDiCaprio.png', 'Im_BradPitt.png', 'Im_BenStiller.png', 'Im_PatrickDempsey.png', 'Im_RobertPattinson.png', 'Im_GeorgeClooney.png'],same,1,0.8085474999988946,2,80.95238095238095,
SASO1010,train,inv,150,pos150_id5_im20.bmp_pos150_id5_im1.bmp,['Im_DanielRadcliffe.png', 'Im_JustinTimberlake.png', 'Im_KeanuReeves.png', 'Im_DanielCraig.png', 'Im_LeonardoDiCaprio.png', 'Im_BradPitt.png', 'Im_BenStiller.png', 'Im_PatrickDempsey.png', 'Im_RobertPattinson.png', 'Im_GeorgeClooney.png'],same,1,0.7916851999998471,3,80.95238095238095,
SASO1010,train,inv,fs,posfs_id7_im26.bmp_posfs_id3_im8.bmp,['Im_DanielRadcliffe.png', 'Im_JustinTimberlake.png', 'Im_KeanuReeves.png', 'Im_DanielCraig.png', 'Im_LeonardoDiCaprio.png', 'Im_BradPitt.png', 'Im_BenStiller.png', 'Im_PatrickDempsey.png', 'Im_RobertPattinson.png', 'Im_GeorgeClooney.png'],diff,1,0.4499993000008544,4,80.95238095238095,
SASO1010,train,inv,30,pos30_id10_im17.bmp_pos30_id3_im6.bmp,['Im_DanielRadcliffe.png', 'Im_JustinTimberlake.png', 'Im_KeanuReeves.png', 'Im_DanielCraig.png', 'Im_LeonardoDiCaprio.png', 'Im_BradPitt.png', 'Im_BenStiller.png', 'Im_PatrickDempsey.png', 'Im_RobertPattinson.png', 'Im_GeorgeClooney.png'],diff,1,0.9833148999987316,5,80.95238095238095,
SASO1010,train,inv,60,pos60_id19_im4.bmp_pos60_id19_im8.bmp,['Im_DanielRadcliffe.png', 'Im_JustinTimberlake.png', 'Im_KeanuReeves.png', 'Im_DanielCraig.png', 'Im_LeonardoDiCaprio.png', 'Im_BradPitt.png', 'Im_BenStiller.png', 'Im_PatrickDempsey.png', 'Im_RobertPattinson.png', 'Im_GeorgeClooney.png'],diff,0,0.6919354999990901,5,80.95238095238095,
SASO1010,train,inv,fs,posfs_id2_im16.bmp_posfs_id13_im10.bmp,['Im_DanielRadcliffe.png', 'Im_JustinTimberlake.png', 'Im_KeanuReeves.png', 'Im_DanielCraig.png', 'Im_LeonardoDiCaprio.png', 'Im_BradPitt.png', 'Im_BenStiller.png', 'Im_PatrickDempsey.png', 'Im_RobertPattinson.png', 'Im_GeorgeClooney.png'],diff,1,0.41675150000082795,6,80.95238095238095,
SASO1010,train,inv,90,pos90_id10_im1.bmp_pos90_id5_im1.bmp,['Im_DanielRadcliffe.png', 'Im_JustinTimberlake.png', 'Im_KeanuReeves.png', 'Im_DanielCraig.png', 'Im_LeonardoDiCaprio.png', 'Im_BradPitt.png', 'Im_BenStiller.png', 'Im_PatrickDempsey.png', 'Im_RobertPattinson.png', 'Im_GeorgeClooney.png'],diff,1,0.4585737999987032,7,80.95238095238095,
SASO1010,train,inv,120,pos120_id5_im20.bmp_pos120_id2_im2.bmp,['Im_DanielRadcliffe.png', 'Im_JustinTimberlake.png', 'Im_KeanuReeves.png', 'Im_DanielCraig.png', 'Im_LeonardoDiCaprio.png', 'Im_BradPitt.png', 'Im_BenStiller.png', 'Im_PatrickDempsey.png', 'Im_RobertPattinson.png', 'Im_GeorgeClooney.png'],same,0,0.40836769999987155,7,80.95238095238095,
SASO1010,train,inv,150,pos150_id2_im3.bmp_pos150_id2_im2.bmp,['Im_DanielRadcliffe.png', 'Im_JustinTimberlake.png', 'Im_KeanuReeves.png', 'Im_DanielCraig.png', 'Im_LeonardoDiCaprio.png', 'Im_BradPitt.png', 'Im_BenStiller.png', 'Im_PatrickDempsey.png', 'Im_RobertPattinson.png', 'Im_GeorgeClooney.png'],same,1,0.9250313000011374,8,80.95238095238095,
SASO1010,train,inv,30,pos30_id5_im1.bmp_pos30_id5_im20.bmp,['Im_DanielRadcliffe.png', 'Im_JustinTimberlake.png', 'Im_KeanuReeves.png', 'Im_DanielCraig.png', 'Im_LeonardoDiCaprio.png', 'Im_BradPitt.png', 'Im_BenStiller.png', 'Im_PatrickDempsey.png', 'Im_RobertPattinson.png', 'Im_GeorgeClooney.png'],diff,0,0.774996199999805,8,80.95238095238095,
SASO1010,train,inv,0,pos0_id5_im20.bmp_pos0_id5_im1.bmp,['Im_DanielRadcliffe.png', 'Im_JustinTimberlake.png', 'Im_KeanuReeves.png', 'Im_DanielCraig.png', 'Im_LeonardoDiCaprio.png', 'Im_BradPitt.png', 'Im_BenStiller.png', 'Im_PatrickDempsey.png', 'Im_RobertPattinson.png', 'Im_GeorgeClooney.png'],diff,0,0.48349859999871114,8,80.95238095238095,
SASO1010,train,pos,90,pos90_id19_im27.bmp_pos90_id4_im15.bmp,['Im_DanielRadcliffe.png', 'Im_JustinTimberlake.png', 'Im_KeanuReeves.png', 'Im_DanielCraig.png', 'Im_LeonardoDiCaprio.png', 'Im_BradPitt.png', 'Im_BenStiller.png', 'Im_PatrickDempsey.png', 'Im_RobertPattinson.png', 'Im_GeorgeClooney.png'],diff,1,0.6832365000009304,9,80.95238095238095,
SASO1010,train,pos,30,pos30_id7_im15.bmp_pos30_id7_im14.bmp,['Im_DanielRadcliffe.png', 'Im_JustinTimberlake.png', 'Im_KeanuReeves.png', 'Im_DanielCraig.png', 'Im_LeonardoDiCaprio.png', 'Im_BradPitt.png', 'Im_BenStiller.png', 'Im_PatrickDempsey.png', 'Im_RobertPattinson.png', 'Im_GeorgeClooney.png'],same,1,0.4250288000002911,10,80.95238095238095,
SASO1010,train,pos,fs,posfs_id17_im14.bmp_posfs_id17_im8.bmp,['Im_DanielRadcliffe.png', 'Im_JustinTimberlake.png', 'Im_KeanuReeves.png', 'Im_DanielCraig.png', 'Im_LeonardoDiCaprio.png', 'Im_BradPitt.png', 'Im_BenStiller.png', 'Im_PatrickDempsey.png', 'Im_RobertPattinson.png', 'Im_GeorgeClooney.png'],same,1,0.42504230000122334,11,80.95238095238095,
SASO1010,train,pos,0,pos0_id11_im10.bmp_pos0_id17_im14.bmp,['Im_DanielRadcliffe.png', 'Im_JustinTimberlake.png', 'Im_KeanuReeves.png', 'Im_DanielCraig.png', 'Im_LeonardoDiCaprio.png', 'Im_BradPitt.png', 'Im_BenStiller.png', 'Im_PatrickDempsey.png', 'Im_RobertPattinson.png', 'Im_GeorgeClooney.png'],diff,1,0.4749277999999322,12,80.95238095238095,
SASO1010,train,pos,120,pos120_id17_im14.bmp_pos120_id17_im9.bmp,['Im_DanielRadcliffe.png', 'Im_JustinTimberlake.png', 'Im_KeanuReeves.png', 'Im_DanielCraig.png', 'Im_LeonardoDiCaprio.png', 'Im_BradPitt.png', 'Im_BenStiller.png', 'Im_PatrickDempsey.png', 'Im_RobertPattinson.png', 'Im_GeorgeClooney.png'],same,1,0.7252183999989938,13,80.95238095238095,
SASO1010,train,pos,60,pos60_id13_im15.bmp_pos60_id13_im29.bmp,['Im_DanielRadcliffe.png', 'Im_JustinTimberlake.png', 'Im_KeanuReeves.png', 'Im_DanielCraig.png', 'Im_LeonardoDiCaprio.png', 'Im_BradPitt.png', 'Im_BenStiller.png', 'Im_PatrickDempsey.png', 'Im_RobertPattinson.png', 'Im_GeorgeClooney.png'],same,1,1.275326099999802,14,80.95238095238095,
SASO1010,train,pos,150,pos150_id17_im9.bmp_pos150_id4_im7.bmp,['Im_DanielRadcliffe.png', 'Im_JustinTimberlake.png', 'Im_KeanuReeves.png', 'Im_DanielCraig.png', 'Im_LeonardoDiCaprio.png', 'Im_BradPitt.png', 'Im_BenStiller.png', 'Im_PatrickDempsey.png', 'Im_RobertPattinson.png', 'Im_GeorgeClooney.png'],diff,1,0.6920262999992701,15,80.95238095238095,
SASO1010,train,pos,60,pos60_id19_im4.bmp_pos60_id19_im27.bmp,['Im_DanielRadcliffe.png', 'Im_JustinTimberlake.png', 'Im_KeanuReeves.png', 'Im_DanielCraig.png', 'Im_LeonardoDiCaprio.png', 'Im_BradPitt.png', 'Im_BenStiller.png', 'Im_PatrickDempsey.png', 'Im_RobertPattinson.png', 'Im_GeorgeClooney.png'],same,1,0.8335372000001371,16,80.95238095238095,
SASO1010,train,pos,90,pos90_id17_im9.bmp_pos90_id4_im7.bmp,['Im_DanielRadcliffe.png', 'Im_JustinTimberlake.png', 'Im_KeanuReeves.png', 'Im_DanielCraig.png', 'Im_LeonardoDiCaprio.png', 'Im_BradPitt.png', 'Im_BenStiller.png', 'Im_PatrickDempsey.png', 'Im_RobertPattinson.png', 'Im_GeorgeClooney.png'],diff,1,0.40842350000093575,17,80.95238095238095,
SASO1010,train,pos,150,pos150_id7_im15.bmp_pos150_id7_im14.bmp,['Im_DanielRadcliffe.png', 'Im_JustinTimberlake.png', 'Im_KeanuReeves.png', 'Im_DanielCraig.png', 'Im_LeonardoDiCaprio.png', 'Im_BradPitt.png', 'Im_BenStiller.png', 'Im_PatrickDempsey.png', 'Im_RobertPattinson.png', 'Im_GeorgeClooney.png'],same,1,0.43347910000011325,18,80.95238095238095,
SASO1010,train,pos,30,pos30_id4_im20.bmp_pos30_id4_im15.bmp,['Im_DanielRadcliffe.png', 'Im_JustinTimberlake.png', 'Im_KeanuReeves.png', 'Im_DanielCraig.png', 'Im_LeonardoDiCaprio.png', 'Im_BradPitt.png', 'Im_BenStiller.png', 'Im_PatrickDempsey.png', 'Im_RobertPattinson.png', 'Im_GeorgeClooney.png'],same,1,0.6252027999998973,19,80.95238095238095,
SASO1010,train,pos,0,pos0_id5_im20.bmp_pos0_id5_im1.bmp,['Im_DanielRadcliffe.png', 'Im_JustinTimberlake.png', 'Im_KeanuReeves.png', 'Im_DanielCraig.png', 'Im_LeonardoDiCaprio.png', 'Im_BradPitt.png', 'Im_BenStiller.png', 'Im_PatrickDempsey.png', 'Im_RobertPattinson.png', 'Im_GeorgeClooney.png'],diff,0,0.7751879999996163,19,80.95238095238095,
SASO1010,train,pos,120,pos120_id7_im26.bmp_pos120_id7_im14.bmp,['Im_DanielRadcliffe.png', 'Im_JustinTimberlake.png', 'Im_KeanuReeves.png', 'Im_DanielCraig.png', 'Im_LeonardoDiCaprio.png', 'Im_BradPitt.png', 'Im_BenStiller.png', 'Im_PatrickDempsey.png', 'Im_RobertPattinson.png', 'Im_GeorgeClooney.png'],same,1,0.425040899999658,20,80.95238095238095,
SASO1010,train,pos,fs,posfs_id11_im1.bmp_posfs_id13_im15.bmp,['Im_DanielRadcliffe.png', 'Im_JustinTimberlake.png', 'Im_KeanuReeves.png', 'Im_DanielCraig.png', 'Im_LeonardoDiCaprio.png', 'Im_BradPitt.png', 'Im_BenStiller.png', 'Im_PatrickDempsey.png', 'Im_RobertPattinson.png', 'Im_GeorgeClooney.png'],diff,1,0.42508559999987483,21,80.95238095238095,
SASO1010,train,neg,90,neg90_id5_im20.bmp_neg90_id5_im1.bmp,['Im_DanielRadcliffe.png', 'Im_JustinTimberlake.png', 'Im_KeanuReeves.png', 'Im_DanielCraig.png', 'Im_LeonardoDiCaprio.png', 'Im_BradPitt.png', 'Im_BenStiller.png', 'Im_PatrickDempsey.png', 'Im_RobertPattinson.png', 'Im_GeorgeClooney.png'],diff,0,0.4250813999988168,21,80.95238095238095,
SASO1010,train,neg,120,neg120_id13_im15.bmp_neg120_id13_im29.bmp,['Im_DanielRadcliffe.png', 'Im_JustinTimberlake.png', 'Im_KeanuReeves.png', 'Im_DanielCraig.png', 'Im_LeonardoDiCaprio.png', 'Im_BradPitt.png', 'Im_BenStiller.png', 'Im_PatrickDempsey.png', 'Im_RobertPattinson.png', 'Im_GeorgeClooney.png'],diff,0,0.9416544000014255,21,80.95238095238095,
SASO1010,train,neg,60,neg60_id11_im10.bmp_neg60_id19_im27.bmp,['Im_DanielRadcliffe.png', 'Im_JustinTimberlake.png', 'Im_KeanuReeves.png', 'Im_DanielCraig.png', 'Im_LeonardoDiCaprio.png', 'Im_BradPitt.png', 'Im_BenStiller.png', 'Im_PatrickDempsey.png', 'Im_RobertPattinson.png', 'Im_GeorgeClooney.png'],diff,1,0.7751921999988554,22,80.95238095238095,
SASO1010,train,neg,0,neg0_id11_im1.bmp_neg0_id11_im10.bmp,['Im_DanielRadcliffe.png', 'Im_JustinTimberlake.png', 'Im_KeanuReeves.png', 'Im_DanielCraig.png', 'Im_LeonardoDiCaprio.png', 'Im_BradPitt.png', 'Im_BenStiller.png', 'Im_PatrickDempsey.png', 'Im_RobertPattinson.png', 'Im_GeorgeClooney.png'],diff,0,0.525044699999853,22,80.95238095238095,
SASO1010,train,neg,150,neg150_id19_im4.bmp_neg150_id7_im15.bmp,['Im_DanielRadcliffe.png', 'Im_JustinTimberlake.png', 'Im_KeanuReeves.png', 'Im_DanielCraig.png', 'Im_LeonardoDiCaprio.png', 'Im_BradPitt.png', 'Im_BenStiller.png', 'Im_PatrickDempsey.png', 'Im_RobertPattinson.png', 'Im_GeorgeClooney.png'],diff,1,0.5084750000005442,23,80.95238095238095,
SASO1010,train,neg,30,neg30_id11_im1.bmp_neg30_id11_im10.bmp,['Im_DanielRadcliffe.png', 'Im_JustinTimberlake.png', 'Im_KeanuReeves.png', 'Im_DanielCraig.png', 'Im_LeonardoDiCaprio.png', 'Im_BradPitt.png', 'Im_BenStiller.png', 'Im_PatrickDempsey.png', 'Im_RobertPattinson.png', 'Im_GeorgeClooney.png'],same,1,0.6918179999993299,24,80.95238095238095,
SASO1010,train,neg,120,neg120_id13_im10.bmp_neg120_id13_im29.bmp,['Im_DanielRadcliffe.png', 'Im_JustinTimberlake.png', 'Im_KeanuReeves.png', 'Im_DanielCraig.png', 'Im_LeonardoDiCaprio.png', 'Im_BradPitt.png', 'Im_BenStiller.png', 'Im_PatrickDempsey.png', 'Im_RobertPattinson.png', 'Im_GeorgeClooney.png'],same,1,0.6920176999992691,25,80.95238095238095,
SASO1010,train,neg,fs,negfs_id2_im2.bmp_negfs_id5_im20.bmp,['Im_DanielRadcliffe.png', 'Im_JustinTimberlake.png', 'Im_KeanuReeves.png', 'Im_DanielCraig.png', 'Im_LeonardoDiCaprio.png', 'Im_BradPitt.png', 'Im_BenStiller.png', 'Im_PatrickDempsey.png', 'Im_RobertPattinson.png', 'Im_GeorgeClooney.png'],diff,1,0.425050600000759,26,80.95238095238095,
SASO1010,train,neg,150,neg150_id4_im15.bmp_neg150_id4_im20.bmp,['Im_DanielRadcliffe.png', 'Im_JustinTimberlake.png', 'Im_KeanuReeves.png', 'Im_DanielCraig.png', 'Im_LeonardoDiCaprio.png', 'Im_BradPitt.png', 'Im_BenStiller.png', 'Im_PatrickDempsey.png', 'Im_RobertPattinson.png', 'Im_GeorgeClooney.png'],same,1,0.42502129999957106,27,80.95238095238095,
SASO1010,train,neg,fs,negfs_id13_im15.bmp_negfs_id13_im10.bmp,['Im_DanielRadcliffe.png', 'Im_JustinTimberlake.png', 'Im_KeanuReeves.png', 'Im_DanielCraig.png', 'Im_LeonardoDiCaprio.png', 'Im_BradPitt.png', 'Im_BenStiller.png', 'Im_PatrickDempsey.png', 'Im_RobertPattinson.png', 'Im_GeorgeClooney.png'],same,1,0.4251108000007662,28,80.95238095238095,
SASO1010,train,neg,30,neg30_id4_im7.bmp_neg30_id17_im8.bmp,['Im_DanielRadcliffe.png', 'Im_JustinTimberlake.png', 'Im_KeanuReeves.png', 'Im_DanielCraig.png', 'Im_LeonardoDiCaprio.png', 'Im_BradPitt.png', 'Im_BenStiller.png', 'Im_PatrickDempsey.png', 'Im_RobertPattinson.png', 'Im_GeorgeClooney.png'],diff,1,0.7081961999992927,29,80.95238095238095,
SASO1010,train,neg,60,neg60_id7_im15.bmp_neg60_id2_im16.bmp,['Im_DanielRadcliffe.png', 'Im_JustinTimberlake.png', 'Im_KeanuReeves.png', 'Im_DanielCraig.png', 'Im_LeonardoDiCaprio.png', 'Im_BradPitt.png', 'Im_BenStiller.png', 'Im_PatrickDempsey.png', 'Im_RobertPattinson.png', 'Im_GeorgeClooney.png'],same,0,0.7084718999994948,29,80.95238095238095,
SASO1010,train,neg,90,neg90_id2_im16.bmp_neg90_id2_im2.bmp,['Im_DanielRadcliffe.png', 'Im_JustinTimberlake.png', 'Im_KeanuReeves.png', 'Im_DanielCraig.png', 'Im_LeonardoDiCaprio.png', 'Im_BradPitt.png', 'Im_BenStiller.png', 'Im_PatrickDempsey.png', 'Im_RobertPattinson.png', 'Im_GeorgeClooney.png'],diff,0,0.7918800999996165,29,80.95238095238095,
SASO1010,train,neg,0,neg0_id11_im2.bmp_neg0_id11_im1.bmp,['Im_DanielRadcliffe.png', 'Im_JustinTimberlake.png', 'Im_KeanuReeves.png', 'Im_DanielCraig.png', 'Im_LeonardoDiCaprio.png', 'Im_BradPitt.png', 'Im_BenStiller.png', 'Im_PatrickDempsey.png', 'Im_RobertPattinson.png', 'Im_GeorgeClooney.png'],diff,0,0.6915940999988379,29,80.95238095238095,
SASO1010,train,inv,120,pos120_id13_im10.bmp_pos120_id5_im20.bmp,['Im_DanielRadcliffe.png', 'Im_JustinTimberlake.png', 'Im_KeanuReeves.png', 'Im_DanielCraig.png', 'Im_LeonardoDiCaprio.png', 'Im_BradPitt.png', 'Im_BenStiller.png', 'Im_PatrickDempsey.png', 'Im_RobertPattinson.png', 'Im_GeorgeClooney.png'],diff,1,0.5083482000009099,1,69.04761904761905,
SASO1010,train,inv,120,pos120_id17_im9.bmp_pos120_id4_im7.bmp,['Im_DanielRadcliffe.png', 'Im_JustinTimberlake.png', 'Im_KeanuReeves.png', 'Im_DanielCraig.png', 'Im_LeonardoDiCaprio.png', 'Im_BradPitt.png', 'Im_BenStiller.png', 'Im_PatrickDempsey.png', 'Im_RobertPattinson.png', 'Im_GeorgeClooney.png'],same,0,0.4919332999998005,1,69.04761904761905,
SASO1010,train,inv,0,pos0_id10_im18.bmp_pos0_id2_im3.bmp,['Im_DanielRadcliffe.png', 'Im_JustinTimberlake.png', 'Im_KeanuReeves.png', 'Im_DanielCraig.png', 'Im_LeonardoDiCaprio.png', 'Im_BradPitt.png', 'Im_BenStiller.png', 'Im_PatrickDempsey.png', 'Im_RobertPattinson.png', 'Im_GeorgeClooney.png'],diff,1,0.5666337999991811,2,69.04761904761905,
SASO1010,train,inv,0,pos0_id2_im16.bmp_pos0_id13_im10.bmp,['Im_DanielRadcliffe.png', 'Im_JustinTimberlake.png', 'Im_KeanuReeves.png', 'Im_DanielCraig.png', 'Im_LeonardoDiCaprio.png', 'Im_BradPitt.png', 'Im_BenStiller.png', 'Im_PatrickDempsey.png', 'Im_RobertPattinson.png', 'Im_GeorgeClooney.png'],diff,1,0.42508959999941,3,69.04761904761905,
SASO1010,train,inv,30,pos30_id7_im26.bmp_pos30_id3_im8.bmp,['Im_DanielRadcliffe.png', 'Im_JustinTimberlake.png', 'Im_KeanuReeves.png', 'Im_DanielCraig.png', 'Im_LeonardoDiCaprio.png', 'Im_BradPitt.png', 'Im_BenStiller.png', 'Im_PatrickDempsey.png', 'Im_RobertPattinson.png', 'Im_GeorgeClooney.png'],diff,1,0.6416425000006711,4,69.04761904761905,
SASO1010,train,inv,60,pos60_id19_im8.bmp_pos60_id13_im29.bmp,['Im_DanielRadcliffe.png', 'Im_JustinTimberlake.png', 'Im_KeanuReeves.png', 'Im_DanielCraig.png', 'Im_LeonardoDiCaprio.png', 'Im_BradPitt.png', 'Im_BenStiller.png', 'Im_PatrickDempsey.png', 'Im_RobertPattinson.png', 'Im_GeorgeClooney.png'],diff,1,0.6752400000004855,5,69.04761904761905,
SASO1010,train,inv,fs,posfs_id19_im8.bmp_posfs_id13_im29.bmp,['Im_DanielRadcliffe.png', 'Im_JustinTimberlake.png', 'Im_KeanuReeves.png', 'Im_DanielCraig.png', 'Im_LeonardoDiCaprio.png', 'Im_BradPitt.png', 'Im_BenStiller.png', 'Im_PatrickDempsey.png', 'Im_RobertPattinson.png', 'Im_GeorgeClooney.png'],diff,1,0.8665391000013187,6,69.04761904761905,
SASO1010,train,inv,90,pos90_id19_im27.bmp_pos90_id4_im15.bmp,['Im_DanielRadcliffe.png', 'Im_JustinTimberlake.png', 'Im_KeanuReeves.png', 'Im_DanielCraig.png', 'Im_LeonardoDiCaprio.png', 'Im_BradPitt.png', 'Im_BenStiller.png', 'Im_PatrickDempsey.png', 'Im_RobertPattinson.png', 'Im_GeorgeClooney.png'],diff,1,0.8749913000010565,7,69.04761904761905,
SASO1010,train,inv,60,pos60_id10_im1.bmp_pos60_id3_im17.bmp,['Im_DanielRadcliffe.png', 'Im_JustinTimberlake.png', 'Im_KeanuReeves.png', 'Im_DanielCraig.png', 'Im_LeonardoDiCaprio.png', 'Im_BradPitt.png', 'Im_BenStiller.png', 'Im_PatrickDempsey.png', 'Im_RobertPattinson.png', 'Im_GeorgeClooney.png'],diff,1,0.8003984000006312,8,69.04761904761905,
SASO1010,train,inv,150,pos150_id3_im17.bmp_pos150_id10_im1.bmp,['Im_DanielRadcliffe.png', 'Im_JustinTimberlake.png', 'Im_KeanuReeves.png', 'Im_DanielCraig.png', 'Im_LeonardoDiCaprio.png', 'Im_BradPitt.png', 'Im_BenStiller.png', 'Im_PatrickDempsey.png', 'Im_RobertPattinson.png', 'Im_GeorgeClooney.png'],diff,1,1.0083462999991752,9,69.04761904761905,
SASO1010,train,inv,fs,posfs_id3_im6.bmp_posfs_id3_im8.bmp,['Im_DanielRadcliffe.png', 'Im_JustinTimberlake.png', 'Im_KeanuReeves.png', 'Im_DanielCraig.png', 'Im_LeonardoDiCaprio.png', 'Im_BradPitt.png', 'Im_BenStiller.png', 'Im_PatrickDempsey.png', 'Im_RobertPattinson.png', 'Im_GeorgeClooney.png'],same,1,0.5585831999997026,10,69.04761904761905,
SASO1010,train,inv,150,pos150_id19_im8.bmp_pos150_id11_im1.bmp,['Im_DanielRadcliffe.png', 'Im_JustinTimberlake.png', 'Im_KeanuReeves.png', 'Im_DanielCraig.png', 'Im_LeonardoDiCaprio.png', 'Im_BradPitt.png', 'Im_BenStiller.png', 'Im_PatrickDempsey.png', 'Im_RobertPattinson.png', 'Im_GeorgeClooney.png'],diff,1,0.6419540999995661,11,69.04761904761905,
SASO1010,train,inv,90,pos90_id19_im4.bmp_pos90_id7_im26.bmp,['Im_DanielRadcliffe.png', 'Im_JustinTimberlake.png', 'Im_KeanuReeves.png', 'Im_DanielCraig.png', 'Im_LeonardoDiCaprio.png', 'Im_BradPitt.png', 'Im_BenStiller.png', 'Im_PatrickDempsey.png', 'Im_RobertPattinson.png', 'Im_GeorgeClooney.png'],diff,1,0.6086677000002965,12,69.04761904761905,
SASO1010,train,inv,30,pos30_id7_im15.bmp_pos30_id19_im4.bmp,['Im_DanielRadcliffe.png', 'Im_JustinTimberlake.png', 'Im_KeanuReeves.png', 'Im_DanielCraig.png', 'Im_LeonardoDiCaprio.png', 'Im_BradPitt.png', 'Im_BenStiller.png', 'Im_PatrickDempsey.png', 'Im_RobertPattinson.png', 'Im_GeorgeClooney.png'],diff,1,0.5252199999995355,13,69.04761904761905,
SASO1010,train,neg,60,neg60_id4_im20.bmp_neg60_id7_im14.bmp,['Im_DanielRadcliffe.png', 'Im_JustinTimberlake.png', 'Im_KeanuReeves.png', 'Im_DanielCraig.png', 'Im_LeonardoDiCaprio.png', 'Im_BradPitt.png', 'Im_BenStiller.png', 'Im_PatrickDempsey.png', 'Im_RobertPattinson.png', 'Im_GeorgeClooney.png'],diff,1,0.4835949999996956,14,69.04761904761905,
SASO1010,train,neg,150,neg150_id17_im9.bmp_neg150_id17_im8.bmp,['Im_DanielRadcliffe.png', 'Im_JustinTimberlake.png', 'Im_KeanuReeves.png', 'Im_DanielCraig.png', 'Im_LeonardoDiCaprio.png', 'Im_BradPitt.png', 'Im_BenStiller.png', 'Im_PatrickDempsey.png', 'Im_RobertPattinson.png', 'Im_GeorgeClooney.png'],diff,0,1.4084547000002203,14,69.04761904761905,
SASO1010,train,neg,fs,negfs_id10_im18.bmp_negfs_id2_im3.bmp,['Im_DanielRadcliffe.png', 'Im_JustinTimberlake.png', 'Im_KeanuReeves.png', 'Im_DanielCraig.png', 'Im_LeonardoDiCaprio.png', 'Im_BradPitt.png', 'Im_BenStiller.png', 'Im_PatrickDempsey.png', 'Im_RobertPattinson.png', 'Im_GeorgeClooney.png'],diff,1,0.6998590999992302,15,69.04761904761905,
SASO1010,train,neg,30,neg30_id11_im2.bmp_neg30_id11_im10.bmp,['Im_DanielRadcliffe.png', 'Im_JustinTimberlake.png', 'Im_KeanuReeves.png', 'Im_DanielCraig.png', 'Im_LeonardoDiCaprio.png', 'Im_BradPitt.png', 'Im_BenStiller.png', 'Im_PatrickDempsey.png', 'Im_RobertPattinson.png', 'Im_GeorgeClooney.png'],same,1,0.42504079999889655,16,69.04761904761905,
SASO1010,train,neg,60,neg60_id11_im1.bmp_neg60_id11_im10.bmp,['Im_DanielRadcliffe.png', 'Im_JustinTimberlake.png', 'Im_KeanuReeves.png', 'Im_DanielCraig.png', 'Im_LeonardoDiCaprio.png', 'Im_BradPitt.png', 'Im_BenStiller.png', 'Im_PatrickDempsey.png', 'Im_RobertPattinson.png', 'Im_GeorgeClooney.png'],same,1,0.9586681000000681,17,69.04761904761905,
SASO1010,train,neg,120,neg120_id4_im20.bmp_neg120_id7_im14.bmp,['Im_DanielRadcliffe.png', 'Im_JustinTimberlake.png', 'Im_KeanuReeves.png', 'Im_DanielCraig.png', 'Im_LeonardoDiCaprio.png', 'Im_BradPitt.png', 'Im_BenStiller.png', 'Im_PatrickDempsey.png', 'Im_RobertPattinson.png', 'Im_GeorgeClooney.png'],diff,1,0.7164182999986224,18,69.04761904761905,
SASO1010,train,neg,0,neg0_id4_im15.bmp_neg0_id4_im20.bmp,['Im_DanielRadcliffe.png', 'Im_JustinTimberlake.png', 'Im_KeanuReeves.png', 'Im_DanielCraig.png', 'Im_LeonardoDiCaprio.png', 'Im_BradPitt.png', 'Im_BenStiller.png', 'Im_PatrickDempsey.png', 'Im_RobertPattinson.png', 'Im_GeorgeClooney.png'],same,1,0.7418851999991602,19,69.04761904761905,
SASO1010,train,neg,30,neg30_id5_im20.bmp_neg30_id5_im10.bmp,['Im_DanielRadcliffe.png', 'Im_JustinTimberlake.png', 'Im_KeanuReeves.png', 'Im_DanielCraig.png', 'Im_LeonardoDiCaprio.png', 'Im_BradPitt.png', 'Im_BenStiller.png', 'Im_PatrickDempsey.png', 'Im_RobertPattinson.png', 'Im_GeorgeClooney.png'],diff,0,0.4584941000011895,19,69.04761904761905,
SASO1010,train,neg,150,neg150_id10_im17.bmp_neg150_id17_im8.bmp,['Im_DanielRadcliffe.png', 'Im_JustinTimberlake.png', 'Im_KeanuReeves.png', 'Im_DanielCraig.png', 'Im_LeonardoDiCaprio.png', 'Im_BradPitt.png', 'Im_BenStiller.png', 'Im_PatrickDempsey.png', 'Im_RobertPattinson.png', 'Im_GeorgeClooney.png'],same,0,0.9418603000012808,19,69.04761904761905,
SASO1010,train,neg,90,neg90_id10_im18.bmp_neg90_id10_im17.bmp,['Im_DanielRadcliffe.png', 'Im_JustinTimberlake.png', 'Im_KeanuReeves.png', 'Im_DanielCraig.png', 'Im_LeonardoDiCaprio.png', 'Im_BradPitt.png', 'Im_BenStiller.png', 'Im_PatrickDempsey.png', 'Im_RobertPattinson.png', 'Im_GeorgeClooney.png'],diff,0,0.7257438999986334,19,69.04761904761905,
SASO1010,train,neg,fs,negfs_id2_im3.bmp_negfs_id2_im2.bmp,['Im_DanielRadcliffe.png', 'Im_JustinTimberlake.png', 'Im_KeanuReeves.png', 'Im_DanielCraig.png', 'Im_LeonardoDiCaprio.png', 'Im_BradPitt.png', 'Im_BenStiller.png', 'Im_PatrickDempsey.png', 'Im_RobertPattinson.png', 'Im_GeorgeClooney.png'],same,1,0.6584180999998352,20,69.04761904761905,
SASO1010,train,neg,0,neg0_id5_im1.bmp_neg0_id10_im1.bmp,['Im_DanielRadcliffe.png', 'Im_JustinTimberlake.png', 'Im_KeanuReeves.png', 'Im_DanielCraig.png', 'Im_LeonardoDiCaprio.png', 'Im_BradPitt.png', 'Im_BenStiller.png', 'Im_PatrickDempsey.png', 'Im_RobertPattinson.png', 'Im_GeorgeClooney.png'],diff,1,0.6334652000005008,21,69.04761904761905,
SASO1010,train,neg,90,neg90_id4_im20.bmp_neg90_id2_im3.bmp,['Im_DanielRadcliffe.png', 'Im_JustinTimberlake.png', 'Im_KeanuReeves.png', 'Im_DanielCraig.png', 'Im_LeonardoDiCaprio.png', 'Im_BradPitt.png', 'Im_BenStiller.png', 'Im_PatrickDempsey.png', 'Im_RobertPattinson.png', 'Im_GeorgeClooney.png'],same,0,1.5919249999988097,21,69.04761904761905,
SASO1010,train,neg,120,neg120_id2_im3.bmp_neg120_id10_im18.bmp,['Im_DanielRadcliffe.png', 'Im_JustinTimberlake.png', 'Im_KeanuReeves.png', 'Im_DanielCraig.png', 'Im_LeonardoDiCaprio.png', 'Im_BradPitt.png', 'Im_BenStiller.png', 'Im_PatrickDempsey.png', 'Im_RobertPattinson.png', 'Im_GeorgeClooney.png'],diff,1,0.42508839999936754,22,69.04761904761905,
SASO1010,train,pos,0,pos0_id10_im18.bmp_pos0_id2_im3.bmp,['Im_DanielRadcliffe.png', 'Im_JustinTimberlake.png', 'Im_KeanuReeves.png', 'Im_DanielCraig.png', 'Im_LeonardoDiCaprio.png', 'Im_BradPitt.png', 'Im_BenStiller.png', 'Im_PatrickDempsey.png', 'Im_RobertPattinson.png', 'Im_GeorgeClooney.png'],diff,1,0.5249406999992061,23,69.04761904761905,
SASO1010,train,pos,fs,posfs_id11_im2.bmp_posfs_id3_im17.bmp,['Im_DanielRadcliffe.png', 'Im_JustinTimberlake.png', 'Im_KeanuReeves.png', 'Im_DanielCraig.png', 'Im_LeonardoDiCaprio.png', 'Im_BradPitt.png', 'Im_BenStiller.png', 'Im_PatrickDempsey.png', 'Im_RobertPattinson.png', 'Im_GeorgeClooney.png'],diff,1,1.0920532999989518,24,69.04761904761905,
SASO1010,train,pos,60,pos60_id4_im7.bmp_pos60_id17_im9.bmp,['Im_DanielRadcliffe.png', 'Im_JustinTimberlake.png', 'Im_KeanuReeves.png', 'Im_DanielCraig.png', 'Im_LeonardoDiCaprio.png', 'Im_BradPitt.png', 'Im_BenStiller.png', 'Im_PatrickDempsey.png', 'Im_RobertPattinson.png', 'Im_GeorgeClooney.png'],diff,1,0.6750513000006322,25,69.04761904761905,
SASO1010,train,pos,150,pos150_id7_im26.bmp_pos150_id7_im14.bmp,['Im_DanielRadcliffe.png', 'Im_JustinTimberlake.png', 'Im_KeanuReeves.png', 'Im_DanielCraig.png', 'Im_LeonardoDiCaprio.png', 'Im_BradPitt.png', 'Im_BenStiller.png', 'Im_PatrickDempsey.png', 'Im_RobertPattinson.png', 'Im_GeorgeClooney.png'],same,1,0.44167790000028617,26,69.04761904761905,
SASO1010,train,pos,120,pos120_id13_im10.bmp_pos120_id2_im16.bmp,['Im_DanielRadcliffe.png', 'Im_JustinTimberlake.png', 'Im_KeanuReeves.png', 'Im_DanielCraig.png', 'Im_LeonardoDiCaprio.png', 'Im_BradPitt.png', 'Im_BenStiller.png', 'Im_PatrickDempsey.png', 'Im_RobertPattinson.png', 'Im_GeorgeClooney.png'],diff,1,0.7416357000001881,27,69.04761904761905,
SASO1010,train,pos,60,pos60_id17_im14.bmp_pos60_id3_im8.bmp,['Im_DanielRadcliffe.png', 'Im_JustinTimberlake.png', 'Im_KeanuReeves.png', 'Im_DanielCraig.png', 'Im_LeonardoDiCaprio.png', 'Im_BradPitt.png', 'Im_BenStiller.png', 'Im_PatrickDempsey.png', 'Im_RobertPattinson.png', 'Im_GeorgeClooney.png'],diff,1,0.4250579999988986,28,69.04761904761905,
SASO1010,train,pos,0,pos0_id11_im1.bmp_pos0_id19_im8.bmp,['Im_DanielRadcliffe.png', 'Im_JustinTimberlake.png', 'Im_KeanuReeves.png', 'Im_DanielCraig.png', 'Im_LeonardoDiCaprio.png', 'Im_BradPitt.png', 'Im_BenStiller.png', 'Im_PatrickDempsey.png', 'Im_RobertPattinson.png', 'Im_GeorgeClooney.png'],same,0,0.791644200000519,28,69.04761904761905,
SASO1010,train,pos,30,pos30_id7_im26.bmp_pos30_id19_im4.bmp,['Im_DanielRadcliffe.png', 'Im_JustinTimberlake.png', 'Im_KeanuReeves.png', 'Im_DanielCraig.png', 'Im_LeonardoDiCaprio.png', 'Im_BradPitt.png', 'Im_BenStiller.png', 'Im_PatrickDempsey.png', 'Im_RobertPattinson.png', 'Im_GeorgeClooney.png'],diff,1,0.9418955000001006,29,69.04761904761905,
SASO1010,train,pos,150,pos150_id4_im15.bmp_pos150_id4_im20.bmp,['Im_DanielRadcliffe.png', 'Im_JustinTimberlake.png', 'Im_KeanuReeves.png', 'Im_DanielCraig.png', 'Im_LeonardoDiCaprio.png', 'Im_BradPitt.png', 'Im_BenStiller.png', 'Im_PatrickDempsey.png', 'Im_RobertPattinson.png', 'Im_GeorgeClooney.png'],same,1,0.4334051999994699,30,69.04761904761905,
SASO1010,train,pos,90,pos90_id2_im3.bmp_pos90_id4_im20.bmp,['Im_DanielRadcliffe.png', 'Im_JustinTimberlake.png', 'Im_KeanuReeves.png', 'Im_DanielCraig.png', 'Im_LeonardoDiCaprio.png', 'Im_BradPitt.png', 'Im_BenStiller.png', 'Im_PatrickDempsey.png', 'Im_RobertPattinson.png', 'Im_GeorgeClooney.png'],diff,1,0.4249487000015506,31,69.04761904761905,
SASO1010,train,pos,120,pos120_id4_im15.bmp_pos120_id19_im27.bmp,['Im_DanielRadcliffe.png', 'Im_JustinTimberlake.png', 'Im_KeanuReeves.png', 'Im_DanielCraig.png', 'Im_LeonardoDiCaprio.png', 'Im_BradPitt.png', 'Im_BenStiller.png', 'Im_PatrickDempsey.png', 'Im_RobertPattinson.png', 'Im_GeorgeClooney.png'],diff,1,0.5417582999998558,32,69.04761904761905,
SASO1010,train,pos,fs,posfs_id7_im26.bmp_posfs_id7_im14.bmp,['Im_DanielRadcliffe.png', 'Im_JustinTimberlake.png', 'Im_KeanuReeves.png', 'Im_DanielCraig.png', 'Im_LeonardoDiCaprio.png', 'Im_BradPitt.png', 'Im_BenStiller.png', 'Im_PatrickDempsey.png', 'Im_RobertPattinson.png', 'Im_GeorgeClooney.png'],same,1,0.42499060000045574,33,69.04761904761905,
SASO1010,train,pos,30,pos30_id13_im15.bmp_pos30_id13_im29.bmp,['Im_DanielRadcliffe.png', 'Im_JustinTimberlake.png', 'Im_KeanuReeves.png', 'Im_DanielCraig.png', 'Im_LeonardoDiCaprio.png', 'Im_BradPitt.png', 'Im_BenStiller.png', 'Im_PatrickDempsey.png', 'Im_RobertPattinson.png', 'Im_GeorgeClooney.png'],diff,0,0.45841290000134904,33,69.04761904761905,
SASO1010,train,pos,90,pos90_id3_im17.bmp_pos90_id3_im8.bmp,['Im_DanielRadcliffe.png', 'Im_JustinTimberlake.png', 'Im_KeanuReeves.png', 'Im_DanielCraig.png', 'Im_LeonardoDiCaprio.png', 'Im_BradPitt.png', 'Im_BenStiller.png', 'Im_PatrickDempsey.png', 'Im_RobertPattinson.png', 'Im_GeorgeClooney.png'],diff,0,1.2583785000006174,33,69.04761904761905,
SASO1010,train,neg,120,neg120_id11_im10.bmp_neg120_id19_im27.bmp,['Im_DanielRadcliffe.png', 'Im_JustinTimberlake.png', 'Im_KeanuReeves.png', 'Im_DanielCraig.png', 'Im_LeonardoDiCaprio.png', 'Im_BradPitt.png', 'Im_BenStiller.png', 'Im_PatrickDempsey.png', 'Im_RobertPattinson.png', 'Im_GeorgeClooney.png'],same,0,0.6584777000007307,0,78.57142857142857,
SASO1010,train,neg,0,neg0_id3_im17.bmp_neg0_id3_im8.bmp,['Im_DanielRadcliffe.png', 'Im_JustinTimberlake.png', 'Im_KeanuReeves.png', 'Im_DanielCraig.png', 'Im_LeonardoDiCaprio.png', 'Im_BradPitt.png', 'Im_BenStiller.png', 'Im_PatrickDempsey.png', 'Im_RobertPattinson.png', 'Im_GeorgeClooney.png'],same,1,0.8086456000000908,1,78.57142857142857,
SASO1010,train,neg,90,neg90_id4_im7.bmp_neg90_id17_im8.bmp,['Im_DanielRadcliffe.png', 'Im_JustinTimberlake.png', 'Im_KeanuReeves.png', 'Im_DanielCraig.png', 'Im_LeonardoDiCaprio.png', 'Im_BradPitt.png', 'Im_BenStiller.png', 'Im_PatrickDempsey.png', 'Im_RobertPattinson.png', 'Im_GeorgeClooney.png'],same,0,1.4586203000017122,1,78.57142857142857,
SASO1010,train,neg,120,neg120_id10_im17.bmp_neg120_id3_im6.bmp,['Im_DanielRadcliffe.png', 'Im_JustinTimberlake.png', 'Im_KeanuReeves.png', 'Im_DanielCraig.png', 'Im_LeonardoDiCaprio.png', 'Im_BradPitt.png', 'Im_BenStiller.png', 'Im_PatrickDempsey.png', 'Im_RobertPattinson.png', 'Im_GeorgeClooney.png'],diff,1,0.4084058999997069,2,78.57142857142857,
SASO1010,train,neg,0,neg0_id17_im8.bmp_neg0_id17_im9.bmp,['Im_DanielRadcliffe.png', 'Im_JustinTimberlake.png', 'Im_KeanuReeves.png', 'Im_DanielCraig.png', 'Im_LeonardoDiCaprio.png', 'Im_BradPitt.png', 'Im_BenStiller.png', 'Im_PatrickDempsey.png', 'Im_RobertPattinson.png', 'Im_GeorgeClooney.png'],diff,0,0.40826649999871734,2,78.57142857142857,
SASO1010,train,neg,fs,negfs_id5_im20.bmp_negfs_id5_im1.bmp,['Im_DanielRadcliffe.png', 'Im_JustinTimberlake.png', 'Im_KeanuReeves.png', 'Im_DanielCraig.png', 'Im_LeonardoDiCaprio.png', 'Im_BradPitt.png', 'Im_BenStiller.png', 'Im_PatrickDempsey.png', 'Im_RobertPattinson.png', 'Im_GeorgeClooney.png'],same,1,0.7083184999992227,3,78.57142857142857,
SASO1010,train,neg,60,neg60_id5_im1.bmp_neg60_id10_im1.bmp,['Im_DanielRadcliffe.png', 'Im_JustinTimberlake.png', 'Im_KeanuReeves.png', 'Im_DanielCraig.png', 'Im_LeonardoDiCaprio.png', 'Im_BradPitt.png', 'Im_BenStiller.png', 'Im_PatrickDempsey.png', 'Im_RobertPattinson.png', 'Im_GeorgeClooney.png'],diff,1,0.5584491999998136,4,78.57142857142857,
SASO1010,train,neg,150,neg150_id5_im10.bmp_neg150_id5_im20.bmp,['Im_DanielRadcliffe.png', 'Im_JustinTimberlake.png', 'Im_KeanuReeves.png', 'Im_DanielCraig.png', 'Im_LeonardoDiCaprio.png', 'Im_BradPitt.png', 'Im_BenStiller.png', 'Im_PatrickDempsey.png', 'Im_RobertPattinson.png', 'Im_GeorgeClooney.png'],diff,0,0.8588141000000178,4,78.57142857142857,
SASO1010,train,neg,60,neg60_id10_im18.bmp_neg60_id10_im1.bmp,['Im_DanielRadcliffe.png', 'Im_JustinTimberlake.png', 'Im_KeanuReeves.png', 'Im_DanielCraig.png', 'Im_LeonardoDiCaprio.png', 'Im_BradPitt.png', 'Im_BenStiller.png', 'Im_PatrickDempsey.png', 'Im_RobertPattinson.png', 'Im_GeorgeClooney.png'],same,1,0.8748190999995131,5,78.57142857142857,
SASO1010,train,neg,fs,negfs_id19_im4.bmp_negfs_id19_im27.bmp,['Im_DanielRadcliffe.png', 'Im_JustinTimberlake.png', 'Im_KeanuReeves.png', 'Im_DanielCraig.png', 'Im_LeonardoDiCaprio.png', 'Im_BradPitt.png', 'Im_BenStiller.png', 'Im_PatrickDempsey.png', 'Im_RobertPattinson.png', 'Im_GeorgeClooney.png'],same,1,0.45852490000106627,6,78.57142857142857,
SASO1010,train,neg,30,neg30_id2_im3.bmp_neg30_id2_im2.bmp,['Im_DanielRadcliffe.png', 'Im_JustinTimberlake.png', 'Im_KeanuReeves.png', 'Im_DanielCraig.png', 'Im_LeonardoDiCaprio.png', 'Im_BradPitt.png', 'Im_BenStiller.png', 'Im_PatrickDempsey.png', 'Im_RobertPattinson.png', 'Im_GeorgeClooney.png'],same,1,0.6086379999997007,7,78.57142857142857,
SASO1010,train,neg,150,neg150_id11_im10.bmp_neg150_id19_im27.bmp,['Im_DanielRadcliffe.png', 'Im_JustinTimberlake.png', 'Im_KeanuReeves.png', 'Im_DanielCraig.png', 'Im_LeonardoDiCaprio.png', 'Im_BradPitt.png', 'Im_BenStiller.png', 'Im_PatrickDempsey.png', 'Im_RobertPattinson.png', 'Im_GeorgeClooney.png'],diff,1,0.9585186999993311,8,78.57142857142857,
SASO1010,train,neg,30,neg30_id10_im1.bmp_neg30_id3_im17.bmp,['Im_DanielRadcliffe.png', 'Im_JustinTimberlake.png', 'Im_KeanuReeves.png', 'Im_DanielCraig.png', 'Im_LeonardoDiCaprio.png', 'Im_BradPitt.png', 'Im_BenStiller.png', 'Im_PatrickDempsey.png', 'Im_RobertPattinson.png', 'Im_GeorgeClooney.png'],diff,1,0.42487979999896197,9,78.57142857142857,
SASO1010,train,neg,90,neg90_id4_im20.bmp_neg90_id4_im15.bmp,['Im_DanielRadcliffe.png', 'Im_JustinTimberlake.png', 'Im_KeanuReeves.png', 'Im_DanielCraig.png', 'Im_LeonardoDiCaprio.png', 'Im_BradPitt.png', 'Im_BenStiller.png', 'Im_PatrickDempsey.png', 'Im_RobertPattinson.png', 'Im_GeorgeClooney.png'],same,1,0.4334003000003577,10,78.57142857142857,
SASO1010,train,inv,90,pos90_id5_im10.bmp_pos90_id2_im2.bmp,['Im_DanielRadcliffe.png', 'Im_JustinTimberlake.png', 'Im_KeanuReeves.png', 'Im_DanielCraig.png', 'Im_LeonardoDiCaprio.png', 'Im_BradPitt.png', 'Im_BenStiller.png', 'Im_PatrickDempsey.png', 'Im_RobertPattinson.png', 'Im_GeorgeClooney.png'],diff,1,0.5416516000004776,11,78.57142857142857,
SASO1010,train,inv,fs,posfs_id19_im8.bmp_posfs_id19_im4.bmp,['Im_DanielRadcliffe.png', 'Im_JustinTimberlake.png', 'Im_KeanuReeves.png', 'Im_DanielCraig.png', 'Im_LeonardoDiCaprio.png', 'Im_BradPitt.png', 'Im_BenStiller.png', 'Im_PatrickDempsey.png', 'Im_RobertPattinson.png', 'Im_GeorgeClooney.png'],same,1,0.4583583000003273,12,78.57142857142857,
SASO1010,train,inv,60,pos60_id2_im16.bmp_pos60_id2_im2.bmp,['Im_DanielRadcliffe.png', 'Im_JustinTimberlake.png', 'Im_KeanuReeves.png', 'Im_DanielCraig.png', 'Im_LeonardoDiCaprio.png', 'Im_BradPitt.png', 'Im_BenStiller.png', 'Im_PatrickDempsey.png', 'Im_RobertPattinson.png', 'Im_GeorgeClooney.png'],diff,0,0.42509489999974903,12,78.57142857142857,
SASO1010,train,inv,30,pos30_id17_im9.bmp_pos30_id17_im14.bmp,['Im_DanielRadcliffe.png', 'Im_JustinTimberlake.png', 'Im_KeanuReeves.png', 'Im_DanielCraig.png', 'Im_LeonardoDiCaprio.png', 'Im_BradPitt.png', 'Im_BenStiller.png', 'Im_PatrickDempsey.png', 'Im_RobertPattinson.png', 'Im_GeorgeClooney.png'],diff,0,0.5918871999983821,12,78.57142857142857,
SASO1010,train,inv,150,pos150_id10_im1.bmp_pos150_id10_im17.bmp,['Im_DanielRadcliffe.png', 'Im_JustinTimberlake.png', 'Im_KeanuReeves.png', 'Im_DanielCraig.png', 'Im_LeonardoDiCaprio.png', 'Im_BradPitt.png', 'Im_BenStiller.png', 'Im_PatrickDempsey.png', 'Im_RobertPattinson.png', 'Im_GeorgeClooney.png'],same,1,0.808746800001245,13,78.57142857142857,
SASO1010,train,inv,150,pos150_id2_im2.bmp_pos150_id5_im20.bmp,['Im_DanielRadcliffe.png', 'Im_JustinTimberlake.png', 'Im_KeanuReeves.png', 'Im_DanielCraig.png', 'Im_LeonardoDiCaprio.png', 'Im_BradPitt.png', 'Im_BenStiller.png', 'Im_PatrickDempsey.png', 'Im_RobertPattinson.png', 'Im_GeorgeClooney.png'],diff,1,0.859629099999438,14,78.57142857142857,
SASO1010,train,inv,90,pos90_id2_im3.bmp_pos90_id10_im18.bmp,['Im_DanielRadcliffe.png', 'Im_JustinTimberlake.png', 'Im_KeanuReeves.png', 'Im_DanielCraig.png', 'Im_LeonardoDiCaprio.png', 'Im_BradPitt.png', 'Im_BenStiller.png', 'Im_PatrickDempsey.png', 'Im_RobertPattinson.png', 'Im_GeorgeClooney.png'],diff,1,0.41670999999951164,15,78.57142857142857,
SASO1010,train,inv,120,pos120_id19_im27.bmp_pos120_id19_im4.bmp,['Im_DanielRadcliffe.png', 'Im_JustinTimberlake.png', 'Im_KeanuReeves.png', 'Im_DanielCraig.png', 'Im_LeonardoDiCaprio.png', 'Im_BradPitt.png', 'Im_BenStiller.png', 'Im_PatrickDempsey.png', 'Im_RobertPattinson.png', 'Im_GeorgeClooney.png'],diff,0,0.4912435000005644,15,78.57142857142857,
SASO1010,train,inv,120,pos120_id7_im15.bmp_pos120_id7_im14.bmp,['Im_DanielRadcliffe.png', 'Im_JustinTimberlake.png', 'Im_KeanuReeves.png', 'Im_DanielCraig.png', 'Im_LeonardoDiCaprio.png', 'Im_BradPitt.png', 'Im_BenStiller.png', 'Im_PatrickDempsey.png', 'Im_RobertPattinson.png', 'Im_GeorgeClooney.png'],same,1,0.5000161999996635,16,78.57142857142857,
SASO1010,train,inv,0,pos0_id7_im14.bmp_pos0_id13_im29.bmp,['Im_DanielRadcliffe.png', 'Im_JustinTimberlake.png', 'Im_KeanuReeves.png', 'Im_DanielCraig.png', 'Im_LeonardoDiCaprio.png', 'Im_BradPitt.png', 'Im_BenStiller.png', 'Im_PatrickDempsey.png', 'Im_RobertPattinson.png', 'Im_GeorgeClooney.png'],diff,1,0.4248920999998518,17,78.57142857142857,
SASO1010,train,inv,fs,posfs_id17_im14.bmp_posfs_id17_im8.bmp,['Im_DanielRadcliffe.png', 'Im_JustinTimberlake.png', 'Im_KeanuReeves.png', 'Im_DanielCraig.png', 'Im_LeonardoDiCaprio.png', 'Im_BradPitt.png', 'Im_BenStiller.png', 'Im_PatrickDempsey.png', 'Im_RobertPattinson.png', 'Im_GeorgeClooney.png'],same,1,0.8425196000007418,18,78.57142857142857,
SASO1010,train,inv,30,pos30_id5_im20.bmp_pos30_id2_im2.bmp,['Im_DanielRadcliffe.png', 'Im_JustinTimberlake.png', 'Im_KeanuReeves.png', 'Im_DanielCraig.png', 'Im_LeonardoDiCaprio.png', 'Im_BradPitt.png', 'Im_BenStiller.png', 'Im_PatrickDempsey.png', 'Im_RobertPattinson.png', 'Im_GeorgeClooney.png'],diff,1,0.9583062000001519,19,78.57142857142857,
SASO1010,train,inv,60,pos60_id11_im1.bmp_pos60_id13_im15.bmp,['Im_DanielRadcliffe.png', 'Im_JustinTimberlake.png', 'Im_KeanuReeves.png', 'Im_DanielCraig.png', 'Im_LeonardoDiCaprio.png', 'Im_BradPitt.png', 'Im_BenStiller.png', 'Im_PatrickDempsey.png', 'Im_RobertPattinson.png', 'Im_GeorgeClooney.png'],diff,1,0.6584280999995826,20,78.57142857142857,
SASO1010,train,inv,0,pos0_id17_im8.bmp_pos0_id4_im7.bmp,['Im_DanielRadcliffe.png', 'Im_JustinTimberlake.png', 'Im_KeanuReeves.png', 'Im_DanielCraig.png', 'Im_LeonardoDiCaprio.png', 'Im_BradPitt.png', 'Im_BenStiller.png', 'Im_PatrickDempsey.png', 'Im_RobertPattinson.png', 'Im_GeorgeClooney.png'],same,0,0.5670789000014338,20,78.57142857142857,
SASO1010,train,pos,90,pos90_id11_im10.bmp_pos90_id11_im1.bmp,['Im_DanielRadcliffe.png', 'Im_JustinTimberlake.png', 'Im_KeanuReeves.png', 'Im_DanielCraig.png', 'Im_LeonardoDiCaprio.png', 'Im_BradPitt.png', 'Im_BenStiller.png', 'Im_PatrickDempsey.png', 'Im_RobertPattinson.png', 'Im_GeorgeClooney.png'],diff,0,0.7667060999992827,20,78.57142857142857,
SASO1010,train,pos,120,pos120_id3_im6.bmp_pos120_id3_im8.bmp,['Im_DanielRadcliffe.png', 'Im_JustinTimberlake.png', 'Im_KeanuReeves.png', 'Im_DanielCraig.png', 'Im_LeonardoDiCaprio.png', 'Im_BradPitt.png', 'Im_BenStiller.png', 'Im_PatrickDempsey.png', 'Im_RobertPattinson.png', 'Im_GeorgeClooney.png'],same,1,0.6750828000003821,21,78.57142857142857,
SASO1010,train,pos,60,pos60_id13_im29.bmp_pos60_id7_im14.bmp,['Im_DanielRadcliffe.png', 'Im_JustinTimberlake.png', 'Im_KeanuReeves.png', 'Im_DanielCraig.png', 'Im_LeonardoDiCaprio.png', 'Im_BradPitt.png', 'Im_BenStiller.png', 'Im_PatrickDempsey.png', 'Im_RobertPattinson.png', 'Im_GeorgeClooney.png'],diff,1,0.6083632999998372,22,78.57142857142857,
SASO1010,train,pos,120,pos120_id2_im2.bmp_pos120_id2_im3.bmp,['Im_DanielRadcliffe.png', 'Im_JustinTimberlake.png', 'Im_KeanuReeves.png', 'Im_DanielCraig.png', 'Im_LeonardoDiCaprio.png', 'Im_BradPitt.png', 'Im_BenStiller.png', 'Im_PatrickDempsey.png', 'Im_RobertPattinson.png', 'Im_GeorgeClooney.png'],same,1,0.9250235999988945,23,78.57142857142857,
SASO1010,train,pos,fs,posfs_id4_im15.bmp_posfs_id4_im20.bmp,['Im_DanielRadcliffe.png', 'Im_JustinTimberlake.png', 'Im_KeanuReeves.png', 'Im_DanielCraig.png', 'Im_LeonardoDiCaprio.png', 'Im_BradPitt.png', 'Im_BenStiller.png', 'Im_PatrickDempsey.png', 'Im_RobertPattinson.png', 'Im_GeorgeClooney.png'],same,1,0.9916628999999375,24,78.57142857142857,
SASO1010,train,pos,30,pos30_id19_im27.bmp_pos30_id19_im8.bmp,['Im_DanielRadcliffe.png', 'Im_JustinTimberlake.png', 'Im_KeanuReeves.png', 'Im_DanielCraig.png', 'Im_LeonardoDiCaprio.png', 'Im_BradPitt.png', 'Im_BenStiller.png', 'Im_PatrickDempsey.png', 'Im_RobertPattinson.png', 'Im_GeorgeClooney.png'],same,1,0.7834404999994149,25,78.57142857142857,
SASO1010,train,pos,150,pos150_id2_im2.bmp_pos150_id5_im20.bmp,['Im_DanielRadcliffe.png', 'Im_JustinTimberlake.png', 'Im_KeanuReeves.png', 'Im_DanielCraig.png', 'Im_LeonardoDiCaprio.png', 'Im_BradPitt.png', 'Im_BenStiller.png', 'Im_PatrickDempsey.png', 'Im_RobertPattinson.png', 'Im_GeorgeClooney.png'],diff,1,0.7249749000002339,26,78.57142857142857,
SASO1010,train,pos,90,pos90_id5_im20.bmp_pos90_id5_im10.bmp,['Im_DanielRadcliffe.png', 'Im_JustinTimberlake.png', 'Im_KeanuReeves.png', 'Im_DanielCraig.png', 'Im_LeonardoDiCaprio.png', 'Im_BradPitt.png', 'Im_BenStiller.png', 'Im_PatrickDempsey.png', 'Im_RobertPattinson.png', 'Im_GeorgeClooney.png'],same,1,0.41667899999993097,27,78.57142857142857,
SASO1010,train,pos,0,pos0_id17_im9.bmp_pos0_id17_im8.bmp,['Im_DanielRadcliffe.png', 'Im_JustinTimberlake.png', 'Im_KeanuReeves.png', 'Im_DanielCraig.png', 'Im_LeonardoDiCaprio.png', 'Im_BradPitt.png', 'Im_BenStiller.png', 'Im_PatrickDempsey.png', 'Im_RobertPattinson.png', 'Im_GeorgeClooney.png'],same,1,0.5082268999994994,28,78.57142857142857,
SASO1010,train,pos,60,pos60_id13_im29.bmp_pos60_id19_im8.bmp,['Im_DanielRadcliffe.png', 'Im_JustinTimberlake.png', 'Im_KeanuReeves.png', 'Im_DanielCraig.png', 'Im_LeonardoDiCaprio.png', 'Im_BradPitt.png', 'Im_BenStiller.png', 'Im_PatrickDempsey.png', 'Im_RobertPattinson.png', 'Im_GeorgeClooney.png'],diff,1,0.6751251000005141,29,78.57142857142857,
SASO1010,train,pos,0,pos0_id7_im26.bmp_pos0_id3_im8.bmp,['Im_DanielRadcliffe.png', 'Im_JustinTimberlake.png', 'Im_KeanuReeves.png', 'Im_DanielCraig.png', 'Im_LeonardoDiCaprio.png', 'Im_BradPitt.png', 'Im_BenStiller.png', 'Im_PatrickDempsey.png', 'Im_RobertPattinson.png', 'Im_GeorgeClooney.png'],same,0,0.6919385999990482,29,78.57142857142857,
SASO1010,train,pos,150,pos150_id11_im10.bmp_pos150_id17_im14.bmp,['Im_DanielRadcliffe.png', 'Im_JustinTimberlake.png', 'Im_KeanuReeves.png', 'Im_DanielCraig.png', 'Im_LeonardoDiCaprio.png', 'Im_BradPitt.png', 'Im_BenStiller.png', 'Im_PatrickDempsey.png', 'Im_RobertPattinson.png', 'Im_GeorgeClooney.png'],diff,1,0.42520880000120087,30,78.57142857142857,
SASO1010,train,pos,fs,posfs_id10_im1.bmp_posfs_id5_im1.bmp,['Im_DanielRadcliffe.png', 'Im_JustinTimberlake.png', 'Im_KeanuReeves.png', 'Im_DanielCraig.png', 'Im_LeonardoDiCaprio.png', 'Im_BradPitt.png', 'Im_BenStiller.png', 'Im_PatrickDempsey.png', 'Im_RobertPattinson.png', 'Im_GeorgeClooney.png'],diff,1,0.5585128000002442,31,78.57142857142857,
SASO1010,train,pos,30,pos30_id2_im2.bmp_pos30_id5_im20.bmp,['Im_DanielRadcliffe.png', 'Im_JustinTimberlake.png', 'Im_KeanuReeves.png', 'Im_DanielCraig.png', 'Im_LeonardoDiCaprio.png', 'Im_BradPitt.png', 'Im_BenStiller.png', 'Im_PatrickDempsey.png', 'Im_RobertPattinson.png', 'Im_GeorgeClooney.png'],diff,1,0.6921486000010191,32,78.57142857142857,
SASO1010,0,neg,fs,negfs_id19_im8.bmp_negfs_id13_im29.bmp,['Im_DanielRadcliffe.png', 'Im_JustinTimberlake.png', 'Im_KeanuReeves.png', 'Im_DanielCraig.png', 'Im_LeonardoDiCaprio.png', 'Im_BradPitt.png', 'Im_BenStiller.png', 'Im_PatrickDempsey.png', 'Im_RobertPattinson.png', 'Im_GeorgeClooney.png'],same,0,0.5833920999994007,0,0,
SASO1010,0,neg,120,neg120_id5_im10.bmp_neg120_id5_im20.bmp,['Im_DanielRadcliffe.png', 'Im_JustinTimberlake.png', 'Im_KeanuReeves.png', 'Im_DanielCraig.png', 'Im_LeonardoDiCaprio.png', 'Im_BradPitt.png', 'Im_BenStiller.png', 'Im_PatrickDempsey.png', 'Im_RobertPattinson.png', 'Im_GeorgeClooney.png'],diff,0,0.4248912000002747,0,0,
SASO1010,0,neg,0,neg0_id13_im10.bmp_neg0_id5_im20.bmp,['Im_DanielRadcliffe.png', 'Im_JustinTimberlake.png', 'Im_KeanuReeves.png', 'Im_DanielCraig.png', 'Im_LeonardoDiCaprio.png', 'Im_BradPitt.png', 'Im_BenStiller.png', 'Im_PatrickDempsey.png', 'Im_RobertPattinson.png', 'Im_GeorgeClooney.png'],diff,1,0.9668258000001515,1,0,
SASO1010,0,neg,60,neg60_id17_im9.bmp_neg60_id17_im8.bmp,['Im_DanielRadcliffe.png', 'Im_JustinTimberlake.png', 'Im_KeanuReeves.png', 'Im_DanielCraig.png', 'Im_LeonardoDiCaprio.png', 'Im_BradPitt.png', 'Im_BenStiller.png', 'Im_PatrickDempsey.png', 'Im_RobertPattinson.png', 'Im_GeorgeClooney.png'],same,1,0.4166570000015781,2,0,
SASO1010,0,neg,120,neg120_id2_im2.bmp_neg120_id2_im3.bmp,['Im_DanielRadcliffe.png', 'Im_JustinTimberlake.png', 'Im_KeanuReeves.png', 'Im_DanielCraig.png', 'Im_LeonardoDiCaprio.png', 'Im_BradPitt.png', 'Im_BenStiller.png', 'Im_PatrickDempsey.png', 'Im_RobertPattinson.png', 'Im_GeorgeClooney.png'],diff,0,0.41672839999955613,2,0,
SASO1010,0,neg,90,neg90_id5_im20.bmp_neg90_id5_im10.bmp,['Im_DanielRadcliffe.png', 'Im_JustinTimberlake.png', 'Im_KeanuReeves.png', 'Im_DanielCraig.png', 'Im_LeonardoDiCaprio.png', 'Im_BradPitt.png', 'Im_BenStiller.png', 'Im_PatrickDempsey.png', 'Im_RobertPattinson.png', 'Im_GeorgeClooney.png'],same,1,0.41672790000120585,3,0,
SASO1010,0,neg,150,neg150_id3_im17.bmp_neg150_id10_im1.bmp,['Im_DanielRadcliffe.png', 'Im_JustinTimberlake.png', 'Im_KeanuReeves.png', 'Im_DanielCraig.png', 'Im_LeonardoDiCaprio.png', 'Im_BradPitt.png', 'Im_BenStiller.png', 'Im_PatrickDempsey.png', 'Im_RobertPattinson.png', 'Im_GeorgeClooney.png'],same,0,0.9333505000013247,3,0,
SASO1010,0,neg,0,neg0_id10_im17.bmp_neg0_id10_im18.bmp,['Im_DanielRadcliffe.png', 'Im_JustinTimberlake.png', 'Im_KeanuReeves.png', 'Im_DanielCraig.png', 'Im_LeonardoDiCaprio.png', 'Im_BradPitt.png', 'Im_BenStiller.png', 'Im_PatrickDempsey.png', 'Im_RobertPattinson.png', 'Im_GeorgeClooney.png'],same,1,0.5502770999992208,4,0,
SASO1010,0,neg,30,neg30_id11_im10.bmp_neg30_id17_im14.bmp,['Im_DanielRadcliffe.png', 'Im_JustinTimberlake.png', 'Im_KeanuReeves.png', 'Im_DanielCraig.png', 'Im_LeonardoDiCaprio.png', 'Im_BradPitt.png', 'Im_BenStiller.png', 'Im_PatrickDempsey.png', 'Im_RobertPattinson.png', 'Im_GeorgeClooney.png'],same,0,1.2836124999994354,4,0,
SASO1010,0,neg,fs,negfs_id19_im8.bmp_negfs_id19_im27.bmp,['Im_DanielRadcliffe.png', 'Im_JustinTimberlake.png', 'Im_KeanuReeves.png', 'Im_DanielCraig.png', 'Im_LeonardoDiCaprio.png', 'Im_BradPitt.png', 'Im_BenStiller.png', 'Im_PatrickDempsey.png', 'Im_RobertPattinson.png', 'Im_GeorgeClooney.png'],same,1,0.7419249000013224,5,0,
SASO1010,0,neg,30,neg30_id3_im8.bmp_neg30_id3_im17.bmp,['Im_DanielRadcliffe.png', 'Im_JustinTimberlake.png', 'Im_KeanuReeves.png', 'Im_DanielCraig.png', 'Im_LeonardoDiCaprio.png', 'Im_BradPitt.png', 'Im_BenStiller.png', 'Im_PatrickDempsey.png', 'Im_RobertPattinson.png', 'Im_GeorgeClooney.png'],same,1,0.41710779999993974,6,0,
SASO1010,0,neg,60,neg60_id7_im14.bmp_neg60_id13_im29.bmp,['Im_DanielRadcliffe.png', 'Im_JustinTimberlake.png', 'Im_KeanuReeves.png', 'Im_DanielCraig.png', 'Im_LeonardoDiCaprio.png', 'Im_BradPitt.png', 'Im_BenStiller.png', 'Im_PatrickDempsey.png', 'Im_RobertPattinson.png', 'Im_GeorgeClooney.png'],same,0,0.7333810000000085,6,0,
SASO1010,0,neg,90,neg90_id5_im10.bmp_neg90_id5_im1.bmp,['Im_DanielRadcliffe.png', 'Im_JustinTimberlake.png', 'Im_KeanuReeves.png', 'Im_DanielCraig.png', 'Im_LeonardoDiCaprio.png', 'Im_BradPitt.png', 'Im_BenStiller.png', 'Im_PatrickDempsey.png', 'Im_RobertPattinson.png', 'Im_GeorgeClooney.png'],same,1,1.60037469999952,7,0,
SASO1010,0,neg,150,neg150_id4_im7.bmp_neg150_id4_im20.bmp,['Im_DanielRadcliffe.png', 'Im_JustinTimberlake.png', 'Im_KeanuReeves.png', 'Im_DanielCraig.png', 'Im_LeonardoDiCaprio.png', 'Im_BradPitt.png', 'Im_BenStiller.png', 'Im_PatrickDempsey.png', 'Im_RobertPattinson.png', 'Im_GeorgeClooney.png'],same,1,0.41680209999867657,8,0,
SASO1010,1,pos,120,pos120_id17_im14.bmp_pos120_id11_im10.bmp,['Im_DanielRadcliffe.png', 'Im_JustinTimberlake.png', 'Im_KeanuReeves.png', 'Im_DanielCraig.png', 'Im_LeonardoDiCaprio.png', 'Im_BradPitt.png', 'Im_BenStiller.png', 'Im_PatrickDempsey.png', 'Im_RobertPattinson.png', 'Im_GeorgeClooney.png'],same,0,1.1499524000009842,8,0,
SASO1010,1,pos,60,pos60_id5_im10.bmp_pos60_id5_im1.bmp,['Im_DanielRadcliffe.png', 'Im_JustinTimberlake.png', 'Im_KeanuReeves.png', 'Im_DanielCraig.png', 'Im_LeonardoDiCaprio.png', 'Im_BradPitt.png', 'Im_BenStiller.png', 'Im_PatrickDempsey.png', 'Im_RobertPattinson.png', 'Im_GeorgeClooney.png'],same,1,0.4503218999998353,9,0,
SASO1010,1,pos,150,pos150_id17_im8.bmp_pos150_id17_im14.bmp,['Im_DanielRadcliffe.png', 'Im_JustinTimberlake.png', 'Im_KeanuReeves.png', 'Im_DanielCraig.png', 'Im_LeonardoDiCaprio.png', 'Im_BradPitt.png', 'Im_BenStiller.png', 'Im_PatrickDempsey.png', 'Im_RobertPattinson.png', 'Im_GeorgeClooney.png'],same,1,0.4334412999996857,10,0,
SASO1010,1,pos,0,pos0_id2_im3.bmp_pos0_id2_im16.bmp,['Im_DanielRadcliffe.png', 'Im_JustinTimberlake.png', 'Im_KeanuReeves.png', 'Im_DanielCraig.png', 'Im_LeonardoDiCaprio.png', 'Im_BradPitt.png', 'Im_BenStiller.png', 'Im_PatrickDempsey.png', 'Im_RobertPattinson.png', 'Im_GeorgeClooney.png'],same,1,1.0416817000004812,11,0,
SASO1010,1,pos,fs,posfs_id7_im26.bmp_posfs_id19_im4.bmp,['Im_DanielRadcliffe.png', 'Im_JustinTimberlake.png', 'Im_KeanuReeves.png', 'Im_DanielCraig.png', 'Im_LeonardoDiCaprio.png', 'Im_BradPitt.png', 'Im_BenStiller.png', 'Im_PatrickDempsey.png', 'Im_RobertPattinson.png', 'Im_GeorgeClooney.png'],diff,1,0.41683129999910307,12,0,
SASO1010,1,pos,150,pos150_id5_im10.bmp_pos150_id13_im15.bmp,['Im_DanielRadcliffe.png', 'Im_JustinTimberlake.png', 'Im_KeanuReeves.png', 'Im_DanielCraig.png', 'Im_LeonardoDiCaprio.png', 'Im_BradPitt.png', 'Im_BenStiller.png', 'Im_PatrickDempsey.png', 'Im_RobertPattinson.png', 'Im_GeorgeClooney.png'],diff,1,1.0000804000010248,13,0,
SASO1010,1,pos,90,pos90_id3_im6.bmp_pos90_id17_im9.bmp,['Im_DanielRadcliffe.png', 'Im_JustinTimberlake.png', 'Im_KeanuReeves.png', 'Im_DanielCraig.png', 'Im_LeonardoDiCaprio.png', 'Im_BradPitt.png', 'Im_BenStiller.png', 'Im_PatrickDempsey.png', 'Im_RobertPattinson.png', 'Im_GeorgeClooney.png'],diff,1,0.441971399999602,14,0,
SASO1010,1,pos,fs,posfs_id3_im6.bmp_posfs_id3_im8.bmp,['Im_DanielRadcliffe.png', 'Im_JustinTimberlake.png', 'Im_KeanuReeves.png', 'Im_DanielCraig.png', 'Im_LeonardoDiCaprio.png', 'Im_BradPitt.png', 'Im_BenStiller.png', 'Im_PatrickDempsey.png', 'Im_RobertPattinson.png', 'Im_GeorgeClooney.png'],same,1,0.40843409999979485,15,0,
SASO1010,1,pos,90,pos90_id7_im15.bmp_pos90_id7_im14.bmp,['Im_DanielRadcliffe.png', 'Im_JustinTimberlake.png', 'Im_KeanuReeves.png', 'Im_DanielCraig.png', 'Im_LeonardoDiCaprio.png', 'Im_BradPitt.png', 'Im_BenStiller.png', 'Im_PatrickDempsey.png', 'Im_RobertPattinson.png', 'Im_GeorgeClooney.png'],diff,0,0.8169060000000172,15,0,
SASO1010,1,pos,30,pos30_id19_im27.bmp_pos30_id4_im15.bmp,['Im_DanielRadcliffe.png', 'Im_JustinTimberlake.png', 'Im_KeanuReeves.png', 'Im_DanielCraig.png', 'Im_LeonardoDiCaprio.png', 'Im_BradPitt.png', 'Im_BenStiller.png', 'Im_PatrickDempsey.png', 'Im_RobertPattinson.png', 'Im_GeorgeClooney.png'],diff,1,0.41677379999964614,16,0,
SASO1010,1,pos,60,pos60_id5_im1.bmp_pos60_id10_im1.bmp,['Im_DanielRadcliffe.png', 'Im_JustinTimberlake.png', 'Im_KeanuReeves.png', 'Im_DanielCraig.png', 'Im_LeonardoDiCaprio.png', 'Im_BradPitt.png', 'Im_BenStiller.png', 'Im_PatrickDempsey.png', 'Im_RobertPattinson.png', 'Im_GeorgeClooney.png'],diff,1,0.41681400000015856,17,0,
SASO1010,1,pos,120,pos120_id19_im8.bmp_pos120_id11_im1.bmp,['Im_DanielRadcliffe.png', 'Im_JustinTimberlake.png', 'Im_KeanuReeves.png', 'Im_DanielCraig.png', 'Im_LeonardoDiCaprio.png', 'Im_BradPitt.png', 'Im_BenStiller.png', 'Im_PatrickDempsey.png', 'Im_RobertPattinson.png', 'Im_GeorgeClooney.png'],diff,1,0.616728900000453,18,0,
SASO1010,1,pos,30,pos30_id17_im9.bmp_pos30_id3_im6.bmp,['Im_DanielRadcliffe.png', 'Im_JustinTimberlake.png', 'Im_KeanuReeves.png', 'Im_DanielCraig.png', 'Im_LeonardoDiCaprio.png', 'Im_BradPitt.png', 'Im_BenStiller.png', 'Im_PatrickDempsey.png', 'Im_RobertPattinson.png', 'Im_GeorgeClooney.png'],diff,1,0.5667501000007178,19,0,
SASO1010,1,pos,0,pos0_id3_im6.bmp_pos0_id10_im17.bmp,['Im_DanielRadcliffe.png', 'Im_JustinTimberlake.png', 'Im_KeanuReeves.png', 'Im_DanielCraig.png', 'Im_LeonardoDiCaprio.png', 'Im_BradPitt.png', 'Im_BenStiller.png', 'Im_PatrickDempsey.png', 'Im_RobertPattinson.png', 'Im_GeorgeClooney.png'],diff,1,0.42506800000046496,20,0,
SASO1010,2,inv,150,pos150_id4_im20.bmp_pos150_id7_im14.bmp,['Im_DanielRadcliffe.png', 'Im_JustinTimberlake.png', 'Im_KeanuReeves.png', 'Im_DanielCraig.png', 'Im_LeonardoDiCaprio.png', 'Im_BradPitt.png', 'Im_BenStiller.png', 'Im_PatrickDempsey.png', 'Im_RobertPattinson.png', 'Im_GeorgeClooney.png'],diff,1,0.43341289999989385,21,0,
SASO1010,2,inv,0,pos0_id7_im14.bmp_pos0_id7_im26.bmp,['Im_DanielRadcliffe.png', 'Im_JustinTimberlake.png', 'Im_KeanuReeves.png', 'Im_DanielCraig.png', 'Im_LeonardoDiCaprio.png', 'Im_BradPitt.png', 'Im_BenStiller.png', 'Im_PatrickDempsey.png', 'Im_RobertPattinson.png', 'Im_GeorgeClooney.png'],same,1,0.8083095000001776,22,0,
SASO1010,2,inv,120,pos120_id4_im20.bmp_pos120_id4_im15.bmp,['Im_DanielRadcliffe.png', 'Im_JustinTimberlake.png', 'Im_KeanuReeves.png', 'Im_DanielCraig.png', 'Im_LeonardoDiCaprio.png', 'Im_BradPitt.png', 'Im_BenStiller.png', 'Im_PatrickDempsey.png', 'Im_RobertPattinson.png', 'Im_GeorgeClooney.png'],same,1,0.42522420000022976,23,0,
SASO1010,2,inv,120,pos120_id7_im14.bmp_pos120_id13_im29.bmp,['Im_DanielRadcliffe.png', 'Im_JustinTimberlake.png', 'Im_KeanuReeves.png', 'Im_DanielCraig.png', 'Im_LeonardoDiCaprio.png', 'Im_BradPitt.png', 'Im_BenStiller.png', 'Im_PatrickDempsey.png', 'Im_RobertPattinson.png', 'Im_GeorgeClooney.png'],same,0,0.833577299999888,23,0,
SASO1010,2,inv,fs,posfs_id5_im1.bmp_posfs_id5_im10.bmp,['Im_DanielRadcliffe.png', 'Im_JustinTimberlake.png', 'Im_KeanuReeves.png', 'Im_DanielCraig.png', 'Im_LeonardoDiCaprio.png', 'Im_BradPitt.png', 'Im_BenStiller.png', 'Im_PatrickDempsey.png', 'Im_RobertPattinson.png', 'Im_GeorgeClooney.png'],same,1,0.4168199999985518,24,0,
SASO1010,2,inv,60,pos60_id13_im29.bmp_pos60_id7_im14.bmp,['Im_DanielRadcliffe.png', 'Im_JustinTimberlake.png', 'Im_KeanuReeves.png', 'Im_DanielCraig.png', 'Im_LeonardoDiCaprio.png', 'Im_BradPitt.png', 'Im_BenStiller.png', 'Im_PatrickDempsey.png', 'Im_RobertPattinson.png', 'Im_GeorgeClooney.png'],diff,1,0.4167532999999821,25,0,
SASO1010,2,inv,30,pos30_id11_im1.bmp_pos30_id19_im8.bmp,['Im_DanielRadcliffe.png', 'Im_JustinTimberlake.png', 'Im_KeanuReeves.png', 'Im_DanielCraig.png', 'Im_LeonardoDiCaprio.png', 'Im_BradPitt.png', 'Im_BenStiller.png', 'Im_PatrickDempsey.png', 'Im_RobertPattinson.png', 'Im_GeorgeClooney.png'],diff,1,0.5418914000001678,26,0,
SASO1010,2,inv,0,pos0_id2_im3.bmp_pos0_id2_im16.bmp,['Im_DanielRadcliffe.png', 'Im_JustinTimberlake.png', 'Im_KeanuReeves.png', 'Im_DanielCraig.png', 'Im_LeonardoDiCaprio.png', 'Im_BradPitt.png', 'Im_BenStiller.png', 'Im_PatrickDempsey.png', 'Im_RobertPattinson.png', 'Im_GeorgeClooney.png'],same,1,0.5333382999997411,27,0,
SASO1010,2,inv,90,pos90_id2_im16.bmp_pos90_id2_im3.bmp,['Im_DanielRadcliffe.png', 'Im_JustinTimberlake.png', 'Im_KeanuReeves.png', 'Im_DanielCraig.png', 'Im_LeonardoDiCaprio.png', 'Im_BradPitt.png', 'Im_BenStiller.png', 'Im_PatrickDempsey.png', 'Im_RobertPattinson.png', 'Im_GeorgeClooney.png'],same,1,0.6999899000002188,28,0,
SASO1010,2,inv,150,pos150_id4_im20.bmp_pos150_id4_im15.bmp,['Im_DanielRadcliffe.png', 'Im_JustinTimberlake.png', 'Im_KeanuReeves.png', 'Im_DanielCraig.png', 'Im_LeonardoDiCaprio.png', 'Im_BradPitt.png', 'Im_BenStiller.png', 'Im_PatrickDempsey.png', 'Im_RobertPattinson.png', 'Im_GeorgeClooney.png'],same,1,0.4168751999986853,29,0,
SASO1010,2,inv,60,pos60_id10_im1.bmp_pos60_id5_im1.bmp,['Im_DanielRadcliffe.png', 'Im_JustinTimberlake.png', 'Im_KeanuReeves.png', 'Im_DanielCraig.png', 'Im_LeonardoDiCaprio.png', 'Im_BradPitt.png', 'Im_BenStiller.png', 'Im_PatrickDempsey.png', 'Im_RobertPattinson.png', 'Im_GeorgeClooney.png'],diff,1,0.4168272999995679,30,0,
SASO1010,2,inv,fs,posfs_id17_im9.bmp_posfs_id4_im7.bmp,['Im_DanielRadcliffe.png', 'Im_JustinTimberlake.png', 'Im_KeanuReeves.png', 'Im_DanielCraig.png', 'Im_LeonardoDiCaprio.png', 'Im_BradPitt.png', 'Im_BenStiller.png', 'Im_PatrickDempsey.png', 'Im_RobertPattinson.png', 'Im_GeorgeClooney.png'],diff,1,0.41669829999955255,31,0,
SASO1010,2,inv,30,pos30_id2_im2.bmp_pos30_id2_im16.bmp,['Im_DanielRadcliffe.png', 'Im_JustinTimberlake.png', 'Im_KeanuReeves.png', 'Im_DanielCraig.png', 'Im_LeonardoDiCaprio.png', 'Im_BradPitt.png', 'Im_BenStiller.png', 'Im_PatrickDempsey.png', 'Im_RobertPattinson.png', 'Im_GeorgeClooney.png'],same,1,0.5336164000000281,32,0,
SASO1010,2,inv,90,pos90_id3_im6.bmp_pos90_id3_im8.bmp,['Im_DanielRadcliffe.png', 'Im_JustinTimberlake.png', 'Im_KeanuReeves.png', 'Im_DanielCraig.png', 'Im_LeonardoDiCaprio.png', 'Im_BradPitt.png', 'Im_BenStiller.png', 'Im_PatrickDempsey.png', 'Im_RobertPattinson.png', 'Im_GeorgeClooney.png'],same,1,0.6011242999993556,33,0,
SASO1010,3,neg,60,neg60_id11_im2.bmp_neg60_id11_im1.bmp,['Im_DanielRadcliffe.png', 'Im_JustinTimberlake.png', 'Im_KeanuReeves.png', 'Im_DanielCraig.png', 'Im_LeonardoDiCaprio.png', 'Im_BradPitt.png', 'Im_BenStiller.png', 'Im_PatrickDempsey.png', 'Im_RobertPattinson.png', 'Im_GeorgeClooney.png'],same,1,0.42501009999978123,1,78.57142857142857,
SASO1010,3,neg,90,neg90_id19_im8.bmp_neg90_id19_im4.bmp,['Im_DanielRadcliffe.png', 'Im_JustinTimberlake.png', 'Im_KeanuReeves.png', 'Im_DanielCraig.png', 'Im_LeonardoDiCaprio.png', 'Im_BradPitt.png', 'Im_BenStiller.png', 'Im_PatrickDempsey.png', 'Im_RobertPattinson.png', 'Im_GeorgeClooney.png'],diff,0,0.41651699999965786,1,78.57142857142857,
SASO1010,3,neg,60,neg60_id13_im29.bmp_neg60_id13_im15.bmp,['Im_DanielRadcliffe.png', 'Im_JustinTimberlake.png', 'Im_KeanuReeves.png', 'Im_DanielCraig.png', 'Im_LeonardoDiCaprio.png', 'Im_BradPitt.png', 'Im_BenStiller.png', 'Im_PatrickDempsey.png', 'Im_RobertPattinson.png', 'Im_GeorgeClooney.png'],diff,0,0.4250651000002108,1,78.57142857142857,
SASO1010,3,neg,150,neg150_id11_im1.bmp_neg150_id11_im2.bmp,['Im_DanielRadcliffe.png', 'Im_JustinTimberlake.png', 'Im_KeanuReeves.png', 'Im_DanielCraig.png', 'Im_LeonardoDiCaprio.png', 'Im_BradPitt.png', 'Im_BenStiller.png', 'Im_PatrickDempsey.png', 'Im_RobertPattinson.png', 'Im_GeorgeClooney.png'],same,1,0.42542409999987285,2,78.57142857142857,
SASO1010,3,neg,0,neg0_id19_im27.bmp_neg0_id19_im4.bmp,['Im_DanielRadcliffe.png', 'Im_JustinTimberlake.png', 'Im_KeanuReeves.png', 'Im_DanielCraig.png', 'Im_LeonardoDiCaprio.png', 'Im_BradPitt.png', 'Im_BenStiller.png', 'Im_PatrickDempsey.png', 'Im_RobertPattinson.png', 'Im_GeorgeClooney.png'],same,1,0.40856279999934486,3,78.57142857142857,
SASO1010,3,neg,fs,negfs_id13_im10.bmp_negfs_id2_im16.bmp,['Im_DanielRadcliffe.png', 'Im_JustinTimberlake.png', 'Im_KeanuReeves.png', 'Im_DanielCraig.png', 'Im_LeonardoDiCaprio.png', 'Im_BradPitt.png', 'Im_BenStiller.png', 'Im_PatrickDempsey.png', 'Im_RobertPattinson.png', 'Im_GeorgeClooney.png'],diff,1,0.425191199999972,4,78.57142857142857,
SASO1010,3,neg,30,neg30_id10_im18.bmp_neg30_id10_im1.bmp,['Im_DanielRadcliffe.png', 'Im_JustinTimberlake.png', 'Im_KeanuReeves.png', 'Im_DanielCraig.png', 'Im_LeonardoDiCaprio.png', 'Im_BradPitt.png', 'Im_BenStiller.png', 'Im_PatrickDempsey.png', 'Im_RobertPattinson.png', 'Im_GeorgeClooney.png'],diff,0,0.6500082000002294,4,78.57142857142857,
SASO1010,3,neg,150,neg150_id19_im8.bmp_neg150_id11_im1.bmp,['Im_DanielRadcliffe.png', 'Im_JustinTimberlake.png', 'Im_KeanuReeves.png', 'Im_DanielCraig.png', 'Im_LeonardoDiCaprio.png', 'Im_BradPitt.png', 'Im_BenStiller.png', 'Im_PatrickDempsey.png', 'Im_RobertPattinson.png', 'Im_GeorgeClooney.png'],diff,1,0.6503228999990824,5,78.57142857142857,
