Sujet,Trial,Condition,Filter,Imname,Actor0,Actor1,Actor2,Actor3,Actor4,Actor5,Actor6,Actor7,Actor8,Actor9,Answer,Accu,RT,Score,Scoreperc, 
SASO1010,train,inv,fs,posfs_id7_im15.bmp_posfs_id19_im4.bmp,['Im_BenStiller.png', 'Im_KeanuReeves.png', 'Im_JustinTimberlake.png', 'Im_DanielCraig.png', 'Im_DanielRadcliffe.png', 'Im_BradPitt.png', 'Im_RobertPattinson.png', 'Im_LeonardoDiCaprio.png', 'Im_GeorgeClooney.png', 'Im_PatrickDempsey.png'],diff,1,0.7918360999992728,1,0,
SASO1010,train,inv,0,pos0_id10_im17.bmp_pos0_id17_im8.bmp,['Im_BenStiller.png', 'Im_KeanuReeves.png', 'Im_JustinTimberlake.png', 'Im_DanielCraig.png', 'Im_DanielRadcliffe.png', 'Im_BradPitt.png', 'Im_RobertPattinson.png', 'Im_LeonardoDiCaprio.png', 'Im_GeorgeClooney.png', 'Im_PatrickDempsey.png'],diff,1,0.45852799999920535,2,0,
SASO1010,train,inv,120,pos120_id5_im20.bmp_pos120_id5_im1.bmp,['Im_BenStiller.png', 'Im_KeanuReeves.png', 'Im_JustinTimberlake.png', 'Im_DanielCraig.png', 'Im_DanielRadcliffe.png', 'Im_BradPitt.png', 'Im_RobertPattinson.png', 'Im_LeonardoDiCaprio.png', 'Im_GeorgeClooney.png', 'Im_PatrickDempsey.png'],same,1,0.42505270000037854,3,0,
SASO1010,train,inv,30,pos30_id19_im8.bmp_pos30_id19_im4.bmp,['Im_BenStiller.png', 'Im_KeanuReeves.png', 'Im_JustinTimberlake.png', 'Im_DanielCraig.png', 'Im_DanielRadcliffe.png', 'Im_BradPitt.png', 'Im_RobertPattinson.png', 'Im_LeonardoDiCaprio.png', 'Im_GeorgeClooney.png', 'Im_PatrickDempsey.png'],same,1,0.6500601999996434,4,0,
SASO1010,train,inv,150,pos150_id4_im20.bmp_pos150_id4_im7.bmp,['Im_BenStiller.png', 'Im_KeanuReeves.png', 'Im_JustinTimberlake.png', 'Im_DanielCraig.png', 'Im_DanielRadcliffe.png', 'Im_BradPitt.png', 'Im_RobertPattinson.png', 'Im_LeonardoDiCaprio.png', 'Im_GeorgeClooney.png', 'Im_PatrickDempsey.png'],same,1,0.41664680000030785,5,0,
SASO1010,train,inv,150,pos150_id4_im7.bmp_pos150_id4_im15.bmp,['Im_BenStiller.png', 'Im_KeanuReeves.png', 'Im_JustinTimberlake.png', 'Im_DanielCraig.png', 'Im_DanielRadcliffe.png', 'Im_BradPitt.png', 'Im_RobertPattinson.png', 'Im_LeonardoDiCaprio.png', 'Im_GeorgeClooney.png', 'Im_PatrickDempsey.png'],same,1,0.5584603999996034,6,0,
SASO1010,train,inv,60,pos60_id10_im18.bmp_pos60_id10_im17.bmp,['Im_BenStiller.png', 'Im_KeanuReeves.png', 'Im_JustinTimberlake.png', 'Im_DanielCraig.png', 'Im_DanielRadcliffe.png', 'Im_BradPitt.png', 'Im_RobertPattinson.png', 'Im_LeonardoDiCaprio.png', 'Im_GeorgeClooney.png', 'Im_PatrickDempsey.png'],same,1,0.5251613999989786,7,0,
SASO1010,train,inv,90,pos90_id2_im16.bmp_pos90_id13_im10.bmp,['Im_BenStiller.png', 'Im_KeanuReeves.png', 'Im_JustinTimberlake.png', 'Im_DanielCraig.png', 'Im_DanielRadcliffe.png', 'Im_BradPitt.png', 'Im_RobertPattinson.png', 'Im_LeonardoDiCaprio.png', 'Im_GeorgeClooney.png', 'Im_PatrickDempsey.png'],diff,1,0.5418921999989834,8,0,
SASO1010,train,inv,60,pos60_id10_im17.bmp_pos60_id10_im1.bmp,['Im_BenStiller.png', 'Im_KeanuReeves.png', 'Im_JustinTimberlake.png', 'Im_DanielCraig.png', 'Im_DanielRadcliffe.png', 'Im_BradPitt.png', 'Im_RobertPattinson.png', 'Im_LeonardoDiCaprio.png', 'Im_GeorgeClooney.png', 'Im_PatrickDempsey.png'],same,1,0.5417273000002751,9,0,
SASO1010,train,inv,30,pos30_id5_im20.bmp_pos30_id5_im10.bmp,['Im_BenStiller.png', 'Im_KeanuReeves.png', 'Im_JustinTimberlake.png', 'Im_DanielCraig.png', 'Im_DanielRadcliffe.png', 'Im_BradPitt.png', 'Im_RobertPattinson.png', 'Im_LeonardoDiCaprio.png', 'Im_GeorgeClooney.png', 'Im_PatrickDempsey.png'],same,1,0.49199790000056964,10,0,
SASO1010,train,inv,120,pos120_id11_im2.bmp_pos120_id11_im10.bmp,['Im_BenStiller.png', 'Im_KeanuReeves.png', 'Im_JustinTimberlake.png', 'Im_DanielCraig.png', 'Im_DanielRadcliffe.png', 'Im_BradPitt.png', 'Im_RobertPattinson.png', 'Im_LeonardoDiCaprio.png', 'Im_GeorgeClooney.png', 'Im_PatrickDempsey.png'],diff,0,0.4668825000007928,10,0,
SASO1010,train,inv,0,pos0_id3_im6.bmp_pos0_id17_im9.bmp,['Im_BenStiller.png', 'Im_KeanuReeves.png', 'Im_JustinTimberlake.png', 'Im_DanielCraig.png', 'Im_DanielRadcliffe.png', 'Im_BradPitt.png', 'Im_RobertPattinson.png', 'Im_LeonardoDiCaprio.png', 'Im_GeorgeClooney.png', 'Im_PatrickDempsey.png'],diff,1,0.5585995000001276,11,0,
SASO1010,train,inv,fs,posfs_id2_im16.bmp_posfs_id2_im2.bmp,['Im_BenStiller.png', 'Im_KeanuReeves.png', 'Im_JustinTimberlake.png', 'Im_DanielCraig.png', 'Im_DanielRadcliffe.png', 'Im_BradPitt.png', 'Im_RobertPattinson.png', 'Im_LeonardoDiCaprio.png', 'Im_GeorgeClooney.png', 'Im_PatrickDempsey.png'],same,1,0.4918473999987327,12,0,
SASO1010,train,inv,90,pos90_id13_im10.bmp_pos90_id13_im29.bmp,['Im_BenStiller.png', 'Im_KeanuReeves.png', 'Im_JustinTimberlake.png', 'Im_DanielCraig.png', 'Im_DanielRadcliffe.png', 'Im_BradPitt.png', 'Im_RobertPattinson.png', 'Im_LeonardoDiCaprio.png', 'Im_GeorgeClooney.png', 'Im_PatrickDempsey.png'],same,1,0.425077699999747,13,0,
SASO1010,train,neg,150,neg150_id11_im10.bmp_neg150_id11_im1.bmp,['Im_BenStiller.png', 'Im_KeanuReeves.png', 'Im_JustinTimberlake.png', 'Im_DanielCraig.png', 'Im_DanielRadcliffe.png', 'Im_BradPitt.png', 'Im_RobertPattinson.png', 'Im_LeonardoDiCaprio.png', 'Im_GeorgeClooney.png', 'Im_PatrickDempsey.png'],same,1,0.825136499999644,14,0,
SASO1010,train,neg,120,neg120_id19_im27.bmp_neg120_id19_im4.bmp,['Im_BenStiller.png', 'Im_KeanuReeves.png', 'Im_JustinTimberlake.png', 'Im_DanielCraig.png', 'Im_DanielRadcliffe.png', 'Im_BradPitt.png', 'Im_RobertPattinson.png', 'Im_LeonardoDiCaprio.png', 'Im_GeorgeClooney.png', 'Im_PatrickDempsey.png'],same,1,0.45826579999993555,15,0,
SASO1010,train,neg,90,neg90_id19_im8.bmp_neg90_id11_im1.bmp,['Im_BenStiller.png', 'Im_KeanuReeves.png', 'Im_JustinTimberlake.png', 'Im_DanielCraig.png', 'Im_DanielRadcliffe.png', 'Im_BradPitt.png', 'Im_RobertPattinson.png', 'Im_LeonardoDiCaprio.png', 'Im_GeorgeClooney.png', 'Im_PatrickDempsey.png'],same,0,0.6585767000015039,15,0,
SASO1010,train,neg,150,neg150_id2_im16.bmp_neg150_id2_im2.bmp,['Im_BenStiller.png', 'Im_KeanuReeves.png', 'Im_JustinTimberlake.png', 'Im_DanielCraig.png', 'Im_DanielRadcliffe.png', 'Im_BradPitt.png', 'Im_RobertPattinson.png', 'Im_LeonardoDiCaprio.png', 'Im_GeorgeClooney.png', 'Im_PatrickDempsey.png'],same,1,0.6169049999989511,16,0,
SASO1010,train,neg,fs,negfs_id7_im15.bmp_negfs_id7_im26.bmp,['Im_BenStiller.png', 'Im_KeanuReeves.png', 'Im_JustinTimberlake.png', 'Im_DanielCraig.png', 'Im_DanielRadcliffe.png', 'Im_BradPitt.png', 'Im_RobertPattinson.png', 'Im_LeonardoDiCaprio.png', 'Im_GeorgeClooney.png', 'Im_PatrickDempsey.png'],diff,0,0.5421050999993895,16,0,
SASO1010,train,neg,0,neg0_id4_im15.bmp_neg0_id19_im27.bmp,['Im_BenStiller.png', 'Im_KeanuReeves.png', 'Im_JustinTimberlake.png', 'Im_DanielCraig.png', 'Im_DanielRadcliffe.png', 'Im_BradPitt.png', 'Im_RobertPattinson.png', 'Im_LeonardoDiCaprio.png', 'Im_GeorgeClooney.png', 'Im_PatrickDempsey.png'],diff,1,0.9830949000006513,17,0,
SASO1010,train,neg,30,neg30_id2_im2.bmp_neg30_id5_im10.bmp,['Im_BenStiller.png', 'Im_KeanuReeves.png', 'Im_JustinTimberlake.png', 'Im_DanielCraig.png', 'Im_DanielRadcliffe.png', 'Im_BradPitt.png', 'Im_RobertPattinson.png', 'Im_LeonardoDiCaprio.png', 'Im_GeorgeClooney.png', 'Im_PatrickDempsey.png'],diff,1,0.8669108999984019,18,0,
SASO1010,train,neg,120,neg120_id10_im1.bmp_neg120_id10_im18.bmp,['Im_BenStiller.png', 'Im_KeanuReeves.png', 'Im_JustinTimberlake.png', 'Im_DanielCraig.png', 'Im_DanielRadcliffe.png', 'Im_BradPitt.png', 'Im_RobertPattinson.png', 'Im_LeonardoDiCaprio.png', 'Im_GeorgeClooney.png', 'Im_PatrickDempsey.png'],same,1,0.6920349000010901,19,0,
SASO1010,train,neg,90,neg90_id19_im4.bmp_neg90_id19_im27.bmp,['Im_BenStiller.png', 'Im_KeanuReeves.png', 'Im_JustinTimberlake.png', 'Im_DanielCraig.png', 'Im_DanielRadcliffe.png', 'Im_BradPitt.png', 'Im_RobertPattinson.png', 'Im_LeonardoDiCaprio.png', 'Im_GeorgeClooney.png', 'Im_PatrickDempsey.png'],same,1,0.6751526999996713,20,0,
SASO1010,train,neg,60,neg60_id4_im7.bmp_neg60_id4_im15.bmp,['Im_BenStiller.png', 'Im_KeanuReeves.png', 'Im_JustinTimberlake.png', 'Im_DanielCraig.png', 'Im_DanielRadcliffe.png', 'Im_BradPitt.png', 'Im_RobertPattinson.png', 'Im_LeonardoDiCaprio.png', 'Im_GeorgeClooney.png', 'Im_PatrickDempsey.png'],same,1,0.4418918000010308,21,0,
SASO1010,train,neg,0,neg0_id7_im15.bmp_neg0_id7_im14.bmp,['Im_BenStiller.png', 'Im_KeanuReeves.png', 'Im_JustinTimberlake.png', 'Im_DanielCraig.png', 'Im_DanielRadcliffe.png', 'Im_BradPitt.png', 'Im_RobertPattinson.png', 'Im_LeonardoDiCaprio.png', 'Im_GeorgeClooney.png', 'Im_PatrickDempsey.png'],same,1,0.7922278000005463,22,0,
SASO1010,train,neg,60,neg60_id5_im20.bmp_neg60_id5_im1.bmp,['Im_BenStiller.png', 'Im_KeanuReeves.png', 'Im_JustinTimberlake.png', 'Im_DanielCraig.png', 'Im_DanielRadcliffe.png', 'Im_BradPitt.png', 'Im_RobertPattinson.png', 'Im_LeonardoDiCaprio.png', 'Im_GeorgeClooney.png', 'Im_PatrickDempsey.png'],same,1,0.5417344000015873,23,0,
SASO1010,train,neg,30,neg30_id7_im15.bmp_neg30_id7_im14.bmp,['Im_BenStiller.png', 'Im_KeanuReeves.png', 'Im_JustinTimberlake.png', 'Im_DanielCraig.png', 'Im_DanielRadcliffe.png', 'Im_BradPitt.png', 'Im_RobertPattinson.png', 'Im_LeonardoDiCaprio.png', 'Im_GeorgeClooney.png', 'Im_PatrickDempsey.png'],same,1,0.4838247000006959,24,0,
SASO1010,train,neg,fs,negfs_id3_im17.bmp_negfs_id11_im2.bmp,['Im_BenStiller.png', 'Im_KeanuReeves.png', 'Im_JustinTimberlake.png', 'Im_DanielCraig.png', 'Im_DanielRadcliffe.png', 'Im_BradPitt.png', 'Im_RobertPattinson.png', 'Im_LeonardoDiCaprio.png', 'Im_GeorgeClooney.png', 'Im_PatrickDempsey.png'],diff,1,0.5170437000015227,25,0,
SASO1010,train,pos,150,pos150_id19_im27.bmp_pos150_id11_im10.bmp,['Im_BenStiller.png', 'Im_KeanuReeves.png', 'Im_JustinTimberlake.png', 'Im_DanielCraig.png', 'Im_DanielRadcliffe.png', 'Im_BradPitt.png', 'Im_RobertPattinson.png', 'Im_LeonardoDiCaprio.png', 'Im_GeorgeClooney.png', 'Im_PatrickDempsey.png'],diff,1,0.4166749999985768,26,0,
SASO1010,train,pos,fs,posfs_id11_im10.bmp_posfs_id11_im1.bmp,['Im_BenStiller.png', 'Im_KeanuReeves.png', 'Im_JustinTimberlake.png', 'Im_DanielCraig.png', 'Im_DanielRadcliffe.png', 'Im_BradPitt.png', 'Im_RobertPattinson.png', 'Im_LeonardoDiCaprio.png', 'Im_GeorgeClooney.png', 'Im_PatrickDempsey.png'],same,1,0.49159340000005614,27,0,
SASO1010,train,pos,60,pos60_id19_im27.bmp_pos60_id11_im10.bmp,['Im_BenStiller.png', 'Im_KeanuReeves.png', 'Im_JustinTimberlake.png', 'Im_DanielCraig.png', 'Im_DanielRadcliffe.png', 'Im_BradPitt.png', 'Im_RobertPattinson.png', 'Im_LeonardoDiCaprio.png', 'Im_GeorgeClooney.png', 'Im_PatrickDempsey.png'],diff,1,0.4751553000005515,28,0,
SASO1010,train,pos,120,pos120_id3_im17.bmp_pos120_id10_im1.bmp,['Im_BenStiller.png', 'Im_KeanuReeves.png', 'Im_JustinTimberlake.png', 'Im_DanielCraig.png', 'Im_DanielRadcliffe.png', 'Im_BradPitt.png', 'Im_RobertPattinson.png', 'Im_LeonardoDiCaprio.png', 'Im_GeorgeClooney.png', 'Im_PatrickDempsey.png'],diff,1,0.8916752000004635,29,0,
SASO1010,train,pos,90,pos90_id13_im10.bmp_pos90_id13_im29.bmp,['Im_BenStiller.png', 'Im_KeanuReeves.png', 'Im_JustinTimberlake.png', 'Im_DanielCraig.png', 'Im_DanielRadcliffe.png', 'Im_BradPitt.png', 'Im_RobertPattinson.png', 'Im_LeonardoDiCaprio.png', 'Im_GeorgeClooney.png', 'Im_PatrickDempsey.png'],same,1,1.1167977999994037,30,0,
SASO1010,train,pos,150,pos150_id10_im18.bmp_pos150_id11_im2.bmp,['Im_BenStiller.png', 'Im_KeanuReeves.png', 'Im_JustinTimberlake.png', 'Im_DanielCraig.png', 'Im_DanielRadcliffe.png', 'Im_BradPitt.png', 'Im_RobertPattinson.png', 'Im_LeonardoDiCaprio.png', 'Im_GeorgeClooney.png', 'Im_PatrickDempsey.png'],diff,1,0.42505549999987124,31,0,
SASO1010,train,pos,120,pos120_id4_im7.bmp_pos120_id17_im8.bmp,['Im_BenStiller.png', 'Im_KeanuReeves.png', 'Im_JustinTimberlake.png', 'Im_DanielCraig.png', 'Im_DanielRadcliffe.png', 'Im_BradPitt.png', 'Im_RobertPattinson.png', 'Im_LeonardoDiCaprio.png', 'Im_GeorgeClooney.png', 'Im_PatrickDempsey.png'],diff,1,0.42524369999955525,32,0,
SASO1010,train,pos,90,pos90_id3_im8.bmp_pos90_id17_im14.bmp,['Im_BenStiller.png', 'Im_KeanuReeves.png', 'Im_JustinTimberlake.png', 'Im_DanielCraig.png', 'Im_DanielRadcliffe.png', 'Im_BradPitt.png', 'Im_RobertPattinson.png', 'Im_LeonardoDiCaprio.png', 'Im_GeorgeClooney.png', 'Im_PatrickDempsey.png'],diff,1,1.0833529999999882,33,0,
SASO1010,train,pos,30,pos30_id5_im1.bmp_pos30_id10_im1.bmp,['Im_BenStiller.png', 'Im_KeanuReeves.png', 'Im_JustinTimberlake.png', 'Im_DanielCraig.png', 'Im_DanielRadcliffe.png', 'Im_BradPitt.png', 'Im_RobertPattinson.png', 'Im_LeonardoDiCaprio.png', 'Im_GeorgeClooney.png', 'Im_PatrickDempsey.png'],diff,1,0.4250456999998278,34,0,
SASO1010,train,pos,60,pos60_id2_im2.bmp_pos60_id2_im16.bmp,['Im_BenStiller.png', 'Im_KeanuReeves.png', 'Im_JustinTimberlake.png', 'Im_DanielCraig.png', 'Im_DanielRadcliffe.png', 'Im_BradPitt.png', 'Im_RobertPattinson.png', 'Im_LeonardoDiCaprio.png', 'Im_GeorgeClooney.png', 'Im_PatrickDempsey.png'],same,1,0.8586744000003819,35,0,
SASO1010,train,pos,30,pos30_id10_im17.bmp_pos30_id17_im8.bmp,['Im_BenStiller.png', 'Im_KeanuReeves.png', 'Im_JustinTimberlake.png', 'Im_DanielCraig.png', 'Im_DanielRadcliffe.png', 'Im_BradPitt.png', 'Im_RobertPattinson.png', 'Im_LeonardoDiCaprio.png', 'Im_GeorgeClooney.png', 'Im_PatrickDempsey.png'],diff,1,0.4167442999987543,36,0,
SASO1010,train,pos,0,pos0_id3_im8.bmp_pos0_id17_im14.bmp,['Im_BenStiller.png', 'Im_KeanuReeves.png', 'Im_JustinTimberlake.png', 'Im_DanielCraig.png', 'Im_DanielRadcliffe.png', 'Im_BradPitt.png', 'Im_RobertPattinson.png', 'Im_LeonardoDiCaprio.png', 'Im_GeorgeClooney.png', 'Im_PatrickDempsey.png'],diff,1,0.47526029999971797,37,0,
SASO1010,train,pos,0,pos0_id7_im15.bmp_pos0_id7_im14.bmp,['Im_BenStiller.png', 'Im_KeanuReeves.png', 'Im_JustinTimberlake.png', 'Im_DanielCraig.png', 'Im_DanielRadcliffe.png', 'Im_BradPitt.png', 'Im_RobertPattinson.png', 'Im_LeonardoDiCaprio.png', 'Im_GeorgeClooney.png', 'Im_PatrickDempsey.png'],same,1,0.4085426000001462,38,0,
SASO1010,train,pos,fs,posfs_id5_im1.bmp_posfs_id5_im20.bmp,['Im_BenStiller.png', 'Im_KeanuReeves.png', 'Im_JustinTimberlake.png', 'Im_DanielCraig.png', 'Im_DanielRadcliffe.png', 'Im_BradPitt.png', 'Im_RobertPattinson.png', 'Im_LeonardoDiCaprio.png', 'Im_GeorgeClooney.png', 'Im_PatrickDempsey.png'],same,1,0.4417370999999548,39,0,
SASO1010,train,inv,150,pos150_id17_im14.bmp_pos150_id17_im9.bmp,['Im_BenStiller.png', 'Im_KeanuReeves.png', 'Im_JustinTimberlake.png', 'Im_DanielCraig.png', 'Im_DanielRadcliffe.png', 'Im_BradPitt.png', 'Im_RobertPattinson.png', 'Im_LeonardoDiCaprio.png', 'Im_GeorgeClooney.png', 'Im_PatrickDempsey.png'],same,1,0.45849900000030175,1,92.85714285714286,
SASO1010,train,inv,fs,posfs_id11_im10.bmp_posfs_id19_im27.bmp,['Im_BenStiller.png', 'Im_KeanuReeves.png', 'Im_JustinTimberlake.png', 'Im_DanielCraig.png', 'Im_DanielRadcliffe.png', 'Im_BradPitt.png', 'Im_RobertPattinson.png', 'Im_LeonardoDiCaprio.png', 'Im_GeorgeClooney.png', 'Im_PatrickDempsey.png'],diff,1,0.4834900000005291,2,92.85714285714286,
SASO1010,train,inv,fs,posfs_id10_im17.bmp_posfs_id3_im6.bmp,['Im_BenStiller.png', 'Im_KeanuReeves.png', 'Im_JustinTimberlake.png', 'Im_DanielCraig.png', 'Im_DanielRadcliffe.png', 'Im_BradPitt.png', 'Im_RobertPattinson.png', 'Im_LeonardoDiCaprio.png', 'Im_GeorgeClooney.png', 'Im_PatrickDempsey.png'],diff,1,0.9419615999995585,3,92.85714285714286,
SASO1010,train,inv,60,pos60_id3_im6.bmp_pos60_id3_im17.bmp,['Im_BenStiller.png', 'Im_KeanuReeves.png', 'Im_JustinTimberlake.png', 'Im_DanielCraig.png', 'Im_DanielRadcliffe.png', 'Im_BradPitt.png', 'Im_RobertPattinson.png', 'Im_LeonardoDiCaprio.png', 'Im_GeorgeClooney.png', 'Im_PatrickDempsey.png'],same,1,0.4167634999994334,4,92.85714285714286,
SASO1010,train,inv,90,pos90_id13_im29.bmp_pos90_id13_im15.bmp,['Im_BenStiller.png', 'Im_KeanuReeves.png', 'Im_JustinTimberlake.png', 'Im_DanielCraig.png', 'Im_DanielRadcliffe.png', 'Im_BradPitt.png', 'Im_RobertPattinson.png', 'Im_LeonardoDiCaprio.png', 'Im_GeorgeClooney.png', 'Im_PatrickDempsey.png'],same,1,0.5587942000001931,5,92.85714285714286,
SASO1010,train,inv,30,pos30_id17_im14.bmp_pos30_id3_im8.bmp,['Im_BenStiller.png', 'Im_KeanuReeves.png', 'Im_JustinTimberlake.png', 'Im_DanielCraig.png', 'Im_DanielRadcliffe.png', 'Im_BradPitt.png', 'Im_RobertPattinson.png', 'Im_LeonardoDiCaprio.png', 'Im_GeorgeClooney.png', 'Im_PatrickDempsey.png'],diff,1,0.41674740000053134,6,92.85714285714286,
SASO1010,train,inv,120,pos120_id13_im15.bmp_pos120_id5_im10.bmp,['Im_BenStiller.png', 'Im_KeanuReeves.png', 'Im_JustinTimberlake.png', 'Im_DanielCraig.png', 'Im_DanielRadcliffe.png', 'Im_BradPitt.png', 'Im_RobertPattinson.png', 'Im_LeonardoDiCaprio.png', 'Im_GeorgeClooney.png', 'Im_PatrickDempsey.png'],diff,1,0.4167572000005748,7,92.85714285714286,
SASO1010,train,inv,0,pos0_id4_im20.bmp_pos0_id4_im7.bmp,['Im_BenStiller.png', 'Im_KeanuReeves.png', 'Im_JustinTimberlake.png', 'Im_DanielCraig.png', 'Im_DanielRadcliffe.png', 'Im_BradPitt.png', 'Im_RobertPattinson.png', 'Im_LeonardoDiCaprio.png', 'Im_GeorgeClooney.png', 'Im_PatrickDempsey.png'],same,1,0.4167525000011665,8,92.85714285714286,
SASO1010,train,inv,60,pos60_id17_im14.bmp_pos60_id3_im8.bmp,['Im_BenStiller.png', 'Im_KeanuReeves.png', 'Im_JustinTimberlake.png', 'Im_DanielCraig.png', 'Im_DanielRadcliffe.png', 'Im_BradPitt.png', 'Im_RobertPattinson.png', 'Im_LeonardoDiCaprio.png', 'Im_GeorgeClooney.png', 'Im_PatrickDempsey.png'],diff,1,0.6836108000006789,9,92.85714285714286,
SASO1010,train,inv,150,pos150_id11_im2.bmp_pos150_id10_im18.bmp,['Im_BenStiller.png', 'Im_KeanuReeves.png', 'Im_JustinTimberlake.png', 'Im_DanielCraig.png', 'Im_DanielRadcliffe.png', 'Im_BradPitt.png', 'Im_RobertPattinson.png', 'Im_LeonardoDiCaprio.png', 'Im_GeorgeClooney.png', 'Im_PatrickDempsey.png'],diff,1,0.7247501999991073,10,92.85714285714286,
SASO1010,train,inv,30,pos30_id10_im17.bmp_pos30_id10_im18.bmp,['Im_BenStiller.png', 'Im_KeanuReeves.png', 'Im_JustinTimberlake.png', 'Im_DanielCraig.png', 'Im_DanielRadcliffe.png', 'Im_BradPitt.png', 'Im_RobertPattinson.png', 'Im_LeonardoDiCaprio.png', 'Im_GeorgeClooney.png', 'Im_PatrickDempsey.png'],diff,0,0.8500748999995267,10,92.85714285714286,
SASO1010,train,inv,90,pos90_id2_im16.bmp_pos90_id7_im15.bmp,['Im_BenStiller.png', 'Im_KeanuReeves.png', 'Im_JustinTimberlake.png', 'Im_DanielCraig.png', 'Im_DanielRadcliffe.png', 'Im_BradPitt.png', 'Im_RobertPattinson.png', 'Im_LeonardoDiCaprio.png', 'Im_GeorgeClooney.png', 'Im_PatrickDempsey.png'],diff,1,0.5747584999990067,11,92.85714285714286,
SASO1010,train,inv,120,pos120_id3_im17.bmp_pos120_id3_im8.bmp,['Im_BenStiller.png', 'Im_KeanuReeves.png', 'Im_JustinTimberlake.png', 'Im_DanielCraig.png', 'Im_DanielRadcliffe.png', 'Im_BradPitt.png', 'Im_RobertPattinson.png', 'Im_LeonardoDiCaprio.png', 'Im_GeorgeClooney.png', 'Im_PatrickDempsey.png'],same,1,0.5500775000000431,12,92.85714285714286,
SASO1010,train,inv,0,pos0_id17_im8.bmp_pos0_id17_im14.bmp,['Im_BenStiller.png', 'Im_KeanuReeves.png', 'Im_JustinTimberlake.png', 'Im_DanielCraig.png', 'Im_DanielRadcliffe.png', 'Im_BradPitt.png', 'Im_RobertPattinson.png', 'Im_LeonardoDiCaprio.png', 'Im_GeorgeClooney.png', 'Im_PatrickDempsey.png'],same,1,0.7499270999996952,13,92.85714285714286,
SASO1010,train,neg,60,neg60_id10_im18.bmp_neg60_id11_im2.bmp,['Im_BenStiller.png', 'Im_KeanuReeves.png', 'Im_JustinTimberlake.png', 'Im_DanielCraig.png', 'Im_DanielRadcliffe.png', 'Im_BradPitt.png', 'Im_RobertPattinson.png', 'Im_LeonardoDiCaprio.png', 'Im_GeorgeClooney.png', 'Im_PatrickDempsey.png'],diff,1,0.57511710000108,14,92.85714285714286,
SASO1010,train,neg,90,neg90_id2_im16.bmp_neg90_id7_im15.bmp,['Im_BenStiller.png', 'Im_KeanuReeves.png', 'Im_JustinTimberlake.png', 'Im_DanielCraig.png', 'Im_DanielRadcliffe.png', 'Im_BradPitt.png', 'Im_RobertPattinson.png', 'Im_LeonardoDiCaprio.png', 'Im_GeorgeClooney.png', 'Im_PatrickDempsey.png'],diff,1,1.425020399999994,15,92.85714285714286,
SASO1010,train,neg,90,neg90_id3_im17.bmp_neg90_id3_im8.bmp,['Im_BenStiller.png', 'Im_KeanuReeves.png', 'Im_JustinTimberlake.png', 'Im_DanielCraig.png', 'Im_DanielRadcliffe.png', 'Im_BradPitt.png', 'Im_RobertPattinson.png', 'Im_LeonardoDiCaprio.png', 'Im_GeorgeClooney.png', 'Im_PatrickDempsey.png'],diff,0,0.724579800000356,15,92.85714285714286,
SASO1010,train,neg,0,neg0_id13_im29.bmp_neg0_id7_im14.bmp,['Im_BenStiller.png', 'Im_KeanuReeves.png', 'Im_JustinTimberlake.png', 'Im_DanielCraig.png', 'Im_DanielRadcliffe.png', 'Im_BradPitt.png', 'Im_RobertPattinson.png', 'Im_LeonardoDiCaprio.png', 'Im_GeorgeClooney.png', 'Im_PatrickDempsey.png'],same,0,1.0667282000013074,15,92.85714285714286,
SASO1010,train,neg,120,neg120_id11_im1.bmp_neg120_id13_im15.bmp,['Im_BenStiller.png', 'Im_KeanuReeves.png', 'Im_JustinTimberlake.png', 'Im_DanielCraig.png', 'Im_DanielRadcliffe.png', 'Im_BradPitt.png', 'Im_RobertPattinson.png', 'Im_LeonardoDiCaprio.png', 'Im_GeorgeClooney.png', 'Im_PatrickDempsey.png'],diff,1,0.5999873999990086,16,92.85714285714286,
SASO1010,train,neg,60,neg60_id13_im29.bmp_neg60_id19_im8.bmp,['Im_BenStiller.png', 'Im_KeanuReeves.png', 'Im_JustinTimberlake.png', 'Im_DanielCraig.png', 'Im_DanielRadcliffe.png', 'Im_BradPitt.png', 'Im_RobertPattinson.png', 'Im_LeonardoDiCaprio.png', 'Im_GeorgeClooney.png', 'Im_PatrickDempsey.png'],same,0,0.5167317000014009,16,92.85714285714286,
SASO1010,train,neg,150,neg150_id7_im26.bmp_neg150_id7_im15.bmp,['Im_BenStiller.png', 'Im_KeanuReeves.png', 'Im_JustinTimberlake.png', 'Im_DanielCraig.png', 'Im_DanielRadcliffe.png', 'Im_BradPitt.png', 'Im_RobertPattinson.png', 'Im_LeonardoDiCaprio.png', 'Im_GeorgeClooney.png', 'Im_PatrickDempsey.png'],same,1,0.4500939000008657,17,92.85714285714286,
SASO1010,train,neg,150,neg150_id19_im27.bmp_neg150_id4_im15.bmp,['Im_BenStiller.png', 'Im_KeanuReeves.png', 'Im_JustinTimberlake.png', 'Im_DanielCraig.png', 'Im_DanielRadcliffe.png', 'Im_BradPitt.png', 'Im_RobertPattinson.png', 'Im_LeonardoDiCaprio.png', 'Im_GeorgeClooney.png', 'Im_PatrickDempsey.png'],diff,1,0.8253851000008581,18,92.85714285714286,
SASO1010,train,neg,30,neg30_id19_im4.bmp_neg30_id7_im26.bmp,['Im_BenStiller.png', 'Im_KeanuReeves.png', 'Im_JustinTimberlake.png', 'Im_DanielCraig.png', 'Im_DanielRadcliffe.png', 'Im_BradPitt.png', 'Im_RobertPattinson.png', 'Im_LeonardoDiCaprio.png', 'Im_GeorgeClooney.png', 'Im_PatrickDempsey.png'],diff,1,1.7002430000011373,19,92.85714285714286,
SASO1010,train,neg,120,neg120_id13_im29.bmp_neg120_id19_im8.bmp,['Im_BenStiller.png', 'Im_KeanuReeves.png', 'Im_JustinTimberlake.png', 'Im_DanielCraig.png', 'Im_DanielRadcliffe.png', 'Im_BradPitt.png', 'Im_RobertPattinson.png', 'Im_LeonardoDiCaprio.png', 'Im_GeorgeClooney.png', 'Im_PatrickDempsey.png'],same,0,1.166709200000696,19,92.85714285714286,
SASO1010,train,neg,30,neg30_id11_im1.bmp_neg30_id19_im8.bmp,['Im_BenStiller.png', 'Im_KeanuReeves.png', 'Im_JustinTimberlake.png', 'Im_DanielCraig.png', 'Im_DanielRadcliffe.png', 'Im_BradPitt.png', 'Im_RobertPattinson.png', 'Im_LeonardoDiCaprio.png', 'Im_GeorgeClooney.png', 'Im_PatrickDempsey.png'],diff,1,0.5583282000006875,20,92.85714285714286,
SASO1010,train,neg,0,neg0_id7_im26.bmp_neg0_id7_im15.bmp,['Im_BenStiller.png', 'Im_KeanuReeves.png', 'Im_JustinTimberlake.png', 'Im_DanielCraig.png', 'Im_DanielRadcliffe.png', 'Im_BradPitt.png', 'Im_RobertPattinson.png', 'Im_LeonardoDiCaprio.png', 'Im_GeorgeClooney.png', 'Im_PatrickDempsey.png'],same,1,1.1919574000003195,21,92.85714285714286,
SASO1010,train,neg,fs,negfs_id3_im17.bmp_negfs_id3_im6.bmp,['Im_BenStiller.png', 'Im_KeanuReeves.png', 'Im_JustinTimberlake.png', 'Im_DanielCraig.png', 'Im_DanielRadcliffe.png', 'Im_BradPitt.png', 'Im_RobertPattinson.png', 'Im_LeonardoDiCaprio.png', 'Im_GeorgeClooney.png', 'Im_PatrickDempsey.png'],diff,0,1.491491099999621,21,92.85714285714286,
SASO1010,train,neg,fs,negfs_id4_im7.bmp_negfs_id4_im20.bmp,['Im_BenStiller.png', 'Im_KeanuReeves.png', 'Im_JustinTimberlake.png', 'Im_DanielCraig.png', 'Im_DanielRadcliffe.png', 'Im_BradPitt.png', 'Im_RobertPattinson.png', 'Im_LeonardoDiCaprio.png', 'Im_GeorgeClooney.png', 'Im_PatrickDempsey.png'],same,1,0.49126740000065183,22,92.85714285714286,
SASO1010,train,pos,30,pos30_id19_im8.bmp_pos30_id11_im1.bmp,['Im_BenStiller.png', 'Im_KeanuReeves.png', 'Im_JustinTimberlake.png', 'Im_DanielCraig.png', 'Im_DanielRadcliffe.png', 'Im_BradPitt.png', 'Im_RobertPattinson.png', 'Im_LeonardoDiCaprio.png', 'Im_GeorgeClooney.png', 'Im_PatrickDempsey.png'],diff,1,0.408381900000677,23,92.85714285714286,
SASO1010,train,pos,120,pos120_id13_im29.bmp_pos120_id7_im14.bmp,['Im_BenStiller.png', 'Im_KeanuReeves.png', 'Im_JustinTimberlake.png', 'Im_DanielCraig.png', 'Im_DanielRadcliffe.png', 'Im_BradPitt.png', 'Im_RobertPattinson.png', 'Im_LeonardoDiCaprio.png', 'Im_GeorgeClooney.png', 'Im_PatrickDempsey.png'],diff,1,0.45821410000098695,24,92.85714285714286,
SASO1010,train,pos,0,pos0_id2_im2.bmp_pos0_id2_im3.bmp,['Im_BenStiller.png', 'Im_KeanuReeves.png', 'Im_JustinTimberlake.png', 'Im_DanielCraig.png', 'Im_DanielRadcliffe.png', 'Im_BradPitt.png', 'Im_RobertPattinson.png', 'Im_LeonardoDiCaprio.png', 'Im_GeorgeClooney.png', 'Im_PatrickDempsey.png'],same,1,0.408380799999577,25,92.85714285714286,
SASO1010,train,pos,150,pos150_id13_im29.bmp_pos150_id7_im14.bmp,['Im_BenStiller.png', 'Im_KeanuReeves.png', 'Im_JustinTimberlake.png', 'Im_DanielCraig.png', 'Im_DanielRadcliffe.png', 'Im_BradPitt.png', 'Im_RobertPattinson.png', 'Im_LeonardoDiCaprio.png', 'Im_GeorgeClooney.png', 'Im_PatrickDempsey.png'],diff,1,0.4166886000002705,26,92.85714285714286,
SASO1010,train,pos,120,pos120_id7_im14.bmp_pos120_id4_im20.bmp,['Im_BenStiller.png', 'Im_KeanuReeves.png', 'Im_JustinTimberlake.png', 'Im_DanielCraig.png', 'Im_DanielRadcliffe.png', 'Im_BradPitt.png', 'Im_RobertPattinson.png', 'Im_LeonardoDiCaprio.png', 'Im_GeorgeClooney.png', 'Im_PatrickDempsey.png'],diff,1,0.43360889999894425,27,92.85714285714286,
SASO1010,train,pos,90,pos90_id13_im29.bmp_pos90_id7_im14.bmp,['Im_BenStiller.png', 'Im_KeanuReeves.png', 'Im_JustinTimberlake.png', 'Im_DanielCraig.png', 'Im_DanielRadcliffe.png', 'Im_BradPitt.png', 'Im_RobertPattinson.png', 'Im_LeonardoDiCaprio.png', 'Im_GeorgeClooney.png', 'Im_PatrickDempsey.png'],diff,1,0.425062500000422,28,92.85714285714286,
SASO1010,train,pos,0,pos0_id5_im1.bmp_pos0_id10_im1.bmp,['Im_BenStiller.png', 'Im_KeanuReeves.png', 'Im_JustinTimberlake.png', 'Im_DanielCraig.png', 'Im_DanielRadcliffe.png', 'Im_BradPitt.png', 'Im_RobertPattinson.png', 'Im_LeonardoDiCaprio.png', 'Im_GeorgeClooney.png', 'Im_PatrickDempsey.png'],diff,1,0.416641100000561,29,92.85714285714286,
SASO1010,train,pos,fs,posfs_id13_im15.bmp_posfs_id13_im29.bmp,['Im_BenStiller.png', 'Im_KeanuReeves.png', 'Im_JustinTimberlake.png', 'Im_DanielCraig.png', 'Im_DanielRadcliffe.png', 'Im_BradPitt.png', 'Im_RobertPattinson.png', 'Im_LeonardoDiCaprio.png', 'Im_GeorgeClooney.png', 'Im_PatrickDempsey.png'],same,1,0.7335825999998633,30,92.85714285714286,
SASO1010,train,pos,60,pos60_id11_im1.bmp_pos60_id11_im10.bmp,['Im_BenStiller.png', 'Im_KeanuReeves.png', 'Im_JustinTimberlake.png', 'Im_DanielCraig.png', 'Im_DanielRadcliffe.png', 'Im_BradPitt.png', 'Im_RobertPattinson.png', 'Im_LeonardoDiCaprio.png', 'Im_GeorgeClooney.png', 'Im_PatrickDempsey.png'],same,1,0.4084776999989117,31,92.85714285714286,
SASO1010,train,pos,90,pos90_id19_im8.bmp_pos90_id13_im29.bmp,['Im_BenStiller.png', 'Im_KeanuReeves.png', 'Im_JustinTimberlake.png', 'Im_DanielCraig.png', 'Im_DanielRadcliffe.png', 'Im_BradPitt.png', 'Im_RobertPattinson.png', 'Im_LeonardoDiCaprio.png', 'Im_GeorgeClooney.png', 'Im_PatrickDempsey.png'],diff,1,0.9335901999984344,32,92.85714285714286,
SASO1010,train,pos,60,pos60_id11_im10.bmp_pos60_id11_im2.bmp,['Im_BenStiller.png', 'Im_KeanuReeves.png', 'Im_JustinTimberlake.png', 'Im_DanielCraig.png', 'Im_DanielRadcliffe.png', 'Im_BradPitt.png', 'Im_RobertPattinson.png', 'Im_LeonardoDiCaprio.png', 'Im_GeorgeClooney.png', 'Im_PatrickDempsey.png'],same,1,1.0252656000011484,33,92.85714285714286,
SASO1010,train,pos,150,pos150_id3_im6.bmp_pos150_id3_im17.bmp,['Im_BenStiller.png', 'Im_KeanuReeves.png', 'Im_JustinTimberlake.png', 'Im_DanielCraig.png', 'Im_DanielRadcliffe.png', 'Im_BradPitt.png', 'Im_RobertPattinson.png', 'Im_LeonardoDiCaprio.png', 'Im_GeorgeClooney.png', 'Im_PatrickDempsey.png'],same,1,0.5083355999995547,34,92.85714285714286,
SASO1010,train,pos,fs,posfs_id7_im15.bmp_posfs_id2_im16.bmp,['Im_BenStiller.png', 'Im_KeanuReeves.png', 'Im_JustinTimberlake.png', 'Im_DanielCraig.png', 'Im_DanielRadcliffe.png', 'Im_BradPitt.png', 'Im_RobertPattinson.png', 'Im_LeonardoDiCaprio.png', 'Im_GeorgeClooney.png', 'Im_PatrickDempsey.png'],diff,1,0.41621260000101756,35,92.85714285714286,
SASO1010,train,pos,30,pos30_id11_im10.bmp_pos30_id17_im14.bmp,['Im_BenStiller.png', 'Im_KeanuReeves.png', 'Im_JustinTimberlake.png', 'Im_DanielCraig.png', 'Im_DanielRadcliffe.png', 'Im_BradPitt.png', 'Im_RobertPattinson.png', 'Im_LeonardoDiCaprio.png', 'Im_GeorgeClooney.png', 'Im_PatrickDempsey.png'],diff,1,0.5586296000001312,36,92.85714285714286,
SASO1010,0,pos,90,pos90_id11_im10.bmp_pos90_id11_im1.bmp,['Im_BenStiller.png', 'Im_KeanuReeves.png', 'Im_JustinTimberlake.png', 'Im_DanielCraig.png', 'Im_DanielRadcliffe.png', 'Im_BradPitt.png', 'Im_RobertPattinson.png', 'Im_LeonardoDiCaprio.png', 'Im_GeorgeClooney.png', 'Im_PatrickDempsey.png'],diff,0,0.5087305000015476,0,0,
SASO1010,0,pos,120,pos120_id3_im6.bmp_pos120_id3_im8.bmp,['Im_BenStiller.png', 'Im_KeanuReeves.png', 'Im_JustinTimberlake.png', 'Im_DanielCraig.png', 'Im_DanielRadcliffe.png', 'Im_BradPitt.png', 'Im_RobertPattinson.png', 'Im_LeonardoDiCaprio.png', 'Im_GeorgeClooney.png', 'Im_PatrickDempsey.png'],same,1,0.5499730999999883,1,0,
SASO1010,0,pos,60,pos60_id7_im14.bmp_pos60_id13_im29.bmp,['Im_BenStiller.png', 'Im_KeanuReeves.png', 'Im_JustinTimberlake.png', 'Im_DanielCraig.png', 'Im_DanielRadcliffe.png', 'Im_BradPitt.png', 'Im_RobertPattinson.png', 'Im_LeonardoDiCaprio.png', 'Im_GeorgeClooney.png', 'Im_PatrickDempsey.png'],diff,1,0.425040899999658,2,0,
SASO1010,0,pos,120,pos120_id2_im3.bmp_pos120_id2_im2.bmp,['Im_BenStiller.png', 'Im_KeanuReeves.png', 'Im_JustinTimberlake.png', 'Im_DanielCraig.png', 'Im_DanielRadcliffe.png', 'Im_BradPitt.png', 'Im_RobertPattinson.png', 'Im_LeonardoDiCaprio.png', 'Im_GeorgeClooney.png', 'Im_PatrickDempsey.png'],same,1,0.43339539999942644,3,0,
SASO1010,0,pos,fs,posfs_id4_im20.bmp_posfs_id4_im15.bmp,['Im_BenStiller.png', 'Im_KeanuReeves.png', 'Im_JustinTimberlake.png', 'Im_DanielCraig.png', 'Im_DanielRadcliffe.png', 'Im_BradPitt.png', 'Im_RobertPattinson.png', 'Im_LeonardoDiCaprio.png', 'Im_GeorgeClooney.png', 'Im_PatrickDempsey.png'],same,1,0.5085798000000068,4,0,
SASO1010,0,pos,30,pos30_id19_im27.bmp_pos30_id19_im8.bmp,['Im_BenStiller.png', 'Im_KeanuReeves.png', 'Im_JustinTimberlake.png', 'Im_DanielCraig.png', 'Im_DanielRadcliffe.png', 'Im_BradPitt.png', 'Im_RobertPattinson.png', 'Im_LeonardoDiCaprio.png', 'Im_GeorgeClooney.png', 'Im_PatrickDempsey.png'],same,1,0.7335544999987178,5,0,
SASO1010,0,pos,150,pos150_id2_im2.bmp_pos150_id5_im20.bmp,['Im_BenStiller.png', 'Im_KeanuReeves.png', 'Im_JustinTimberlake.png', 'Im_DanielCraig.png', 'Im_DanielRadcliffe.png', 'Im_BradPitt.png', 'Im_RobertPattinson.png', 'Im_LeonardoDiCaprio.png', 'Im_GeorgeClooney.png', 'Im_PatrickDempsey.png'],diff,1,0.4668552000002819,6,0,
SASO1010,0,pos,90,pos90_id5_im10.bmp_pos90_id5_im20.bmp,['Im_BenStiller.png', 'Im_KeanuReeves.png', 'Im_JustinTimberlake.png', 'Im_DanielCraig.png', 'Im_DanielRadcliffe.png', 'Im_BradPitt.png', 'Im_RobertPattinson.png', 'Im_LeonardoDiCaprio.png', 'Im_GeorgeClooney.png', 'Im_PatrickDempsey.png'],same,1,0.7001431000007869,7,0,
SASO1010,0,pos,0,pos0_id17_im8.bmp_pos0_id17_im9.bmp,['Im_BenStiller.png', 'Im_KeanuReeves.png', 'Im_JustinTimberlake.png', 'Im_DanielCraig.png', 'Im_DanielRadcliffe.png', 'Im_BradPitt.png', 'Im_RobertPattinson.png', 'Im_LeonardoDiCaprio.png', 'Im_GeorgeClooney.png', 'Im_PatrickDempsey.png'],same,1,0.42510609999953886,8,0,
SASO1010,0,pos,60,pos60_id13_im29.bmp_pos60_id19_im8.bmp,['Im_BenStiller.png', 'Im_KeanuReeves.png', 'Im_JustinTimberlake.png', 'Im_DanielCraig.png', 'Im_DanielRadcliffe.png', 'Im_BradPitt.png', 'Im_RobertPattinson.png', 'Im_LeonardoDiCaprio.png', 'Im_GeorgeClooney.png', 'Im_PatrickDempsey.png'],diff,1,0.7502232999995613,9,0,
SASO1010,0,pos,0,pos0_id3_im8.bmp_pos0_id7_im26.bmp,['Im_BenStiller.png', 'Im_KeanuReeves.png', 'Im_JustinTimberlake.png', 'Im_DanielCraig.png', 'Im_DanielRadcliffe.png', 'Im_BradPitt.png', 'Im_RobertPattinson.png', 'Im_LeonardoDiCaprio.png', 'Im_GeorgeClooney.png', 'Im_PatrickDempsey.png'],diff,1,0.45006950000060897,10,0,
SASO1010,0,pos,150,pos150_id17_im14.bmp_pos150_id11_im10.bmp,['Im_BenStiller.png', 'Im_KeanuReeves.png', 'Im_JustinTimberlake.png', 'Im_DanielCraig.png', 'Im_DanielRadcliffe.png', 'Im_BradPitt.png', 'Im_RobertPattinson.png', 'Im_LeonardoDiCaprio.png', 'Im_GeorgeClooney.png', 'Im_PatrickDempsey.png'],same,0,0.6167934999994031,10,0,
SASO1010,0,pos,fs,posfs_id5_im1.bmp_posfs_id10_im1.bmp,['Im_BenStiller.png', 'Im_KeanuReeves.png', 'Im_JustinTimberlake.png', 'Im_DanielCraig.png', 'Im_DanielRadcliffe.png', 'Im_BradPitt.png', 'Im_RobertPattinson.png', 'Im_LeonardoDiCaprio.png', 'Im_GeorgeClooney.png', 'Im_PatrickDempsey.png'],diff,1,0.8668113000003359,11,0,
SASO1010,0,pos,30,pos30_id5_im20.bmp_pos30_id2_im2.bmp,['Im_BenStiller.png', 'Im_KeanuReeves.png', 'Im_JustinTimberlake.png', 'Im_DanielCraig.png', 'Im_DanielRadcliffe.png', 'Im_BradPitt.png', 'Im_RobertPattinson.png', 'Im_LeonardoDiCaprio.png', 'Im_GeorgeClooney.png', 'Im_PatrickDempsey.png'],diff,1,1.0833954000008816,12,0,
SASO1010,1,neg,120,neg120_id2_im3.bmp_neg120_id2_im16.bmp,['Im_BenStiller.png', 'Im_KeanuReeves.png', 'Im_JustinTimberlake.png', 'Im_DanielCraig.png', 'Im_DanielRadcliffe.png', 'Im_BradPitt.png', 'Im_RobertPattinson.png', 'Im_LeonardoDiCaprio.png', 'Im_GeorgeClooney.png', 'Im_PatrickDempsey.png'],same,1,0.6835153000010905,13,0,
SASO1010,1,neg,0,neg0_id19_im8.bmp_neg0_id19_im27.bmp,['Im_BenStiller.png', 'Im_KeanuReeves.png', 'Im_JustinTimberlake.png', 'Im_DanielCraig.png', 'Im_DanielRadcliffe.png', 'Im_BradPitt.png', 'Im_RobertPattinson.png', 'Im_LeonardoDiCaprio.png', 'Im_GeorgeClooney.png', 'Im_PatrickDempsey.png'],same,1,0.45008969999980764,14,0,
SASO1010,1,neg,fs,negfs_id11_im2.bmp_negfs_id10_im18.bmp,['Im_BenStiller.png', 'Im_KeanuReeves.png', 'Im_JustinTimberlake.png', 'Im_DanielCraig.png', 'Im_DanielRadcliffe.png', 'Im_BradPitt.png', 'Im_RobertPattinson.png', 'Im_LeonardoDiCaprio.png', 'Im_GeorgeClooney.png', 'Im_PatrickDempsey.png'],diff,1,0.41679169999952137,15,0,
SASO1010,1,neg,150,neg150_id13_im15.bmp_neg150_id13_im10.bmp,['Im_BenStiller.png', 'Im_KeanuReeves.png', 'Im_JustinTimberlake.png', 'Im_DanielCraig.png', 'Im_DanielRadcliffe.png', 'Im_BradPitt.png', 'Im_RobertPattinson.png', 'Im_LeonardoDiCaprio.png', 'Im_GeorgeClooney.png', 'Im_PatrickDempsey.png'],same,1,0.4250302999989799,16,0,
SASO1010,1,neg,90,neg90_id17_im14.bmp_neg90_id11_im10.bmp,['Im_BenStiller.png', 'Im_KeanuReeves.png', 'Im_JustinTimberlake.png', 'Im_DanielCraig.png', 'Im_DanielRadcliffe.png', 'Im_BradPitt.png', 'Im_RobertPattinson.png', 'Im_LeonardoDiCaprio.png', 'Im_GeorgeClooney.png', 'Im_PatrickDempsey.png'],diff,1,0.4167447000018001,17,0,
SASO1010,1,neg,30,neg30_id3_im8.bmp_neg30_id3_im6.bmp,['Im_BenStiller.png', 'Im_KeanuReeves.png', 'Im_JustinTimberlake.png', 'Im_DanielCraig.png', 'Im_DanielRadcliffe.png', 'Im_BradPitt.png', 'Im_RobertPattinson.png', 'Im_LeonardoDiCaprio.png', 'Im_GeorgeClooney.png', 'Im_PatrickDempsey.png'],same,1,0.41671620000124676,18,0,
SASO1010,1,neg,60,neg60_id10_im17.bmp_neg60_id10_im1.bmp,['Im_BenStiller.png', 'Im_KeanuReeves.png', 'Im_JustinTimberlake.png', 'Im_DanielCraig.png', 'Im_DanielRadcliffe.png', 'Im_BradPitt.png', 'Im_RobertPattinson.png', 'Im_LeonardoDiCaprio.png', 'Im_GeorgeClooney.png', 'Im_PatrickDempsey.png'],same,1,0.5419874999988679,19,0,
SASO1010,1,neg,150,neg150_id4_im7.bmp_neg150_id17_im9.bmp,['Im_BenStiller.png', 'Im_KeanuReeves.png', 'Im_JustinTimberlake.png', 'Im_DanielCraig.png', 'Im_DanielRadcliffe.png', 'Im_BradPitt.png', 'Im_RobertPattinson.png', 'Im_LeonardoDiCaprio.png', 'Im_GeorgeClooney.png', 'Im_PatrickDempsey.png'],diff,1,0.4250747999994928,20,0,
SASO1010,1,neg,0,neg0_id3_im8.bmp_neg0_id7_im26.bmp,['Im_BenStiller.png', 'Im_KeanuReeves.png', 'Im_JustinTimberlake.png', 'Im_DanielCraig.png', 'Im_DanielRadcliffe.png', 'Im_BradPitt.png', 'Im_RobertPattinson.png', 'Im_LeonardoDiCaprio.png', 'Im_GeorgeClooney.png', 'Im_PatrickDempsey.png'],diff,1,0.416970999998739,21,0,
SASO1010,1,neg,120,neg120_id13_im10.bmp_neg120_id13_im15.bmp,['Im_BenStiller.png', 'Im_KeanuReeves.png', 'Im_JustinTimberlake.png', 'Im_DanielCraig.png', 'Im_DanielRadcliffe.png', 'Im_BradPitt.png', 'Im_RobertPattinson.png', 'Im_LeonardoDiCaprio.png', 'Im_GeorgeClooney.png', 'Im_PatrickDempsey.png'],diff,0,0.4584751000002143,21,0,
SASO1010,1,neg,60,neg60_id3_im17.bmp_neg60_id11_im2.bmp,['Im_BenStiller.png', 'Im_KeanuReeves.png', 'Im_JustinTimberlake.png', 'Im_DanielCraig.png', 'Im_DanielRadcliffe.png', 'Im_BradPitt.png', 'Im_RobertPattinson.png', 'Im_LeonardoDiCaprio.png', 'Im_GeorgeClooney.png', 'Im_PatrickDempsey.png'],diff,1,0.5000662000002194,22,0,
SASO1010,1,neg,fs,negfs_id3_im8.bmp_negfs_id3_im17.bmp,['Im_BenStiller.png', 'Im_KeanuReeves.png', 'Im_JustinTimberlake.png', 'Im_DanielCraig.png', 'Im_DanielRadcliffe.png', 'Im_BradPitt.png', 'Im_RobertPattinson.png', 'Im_LeonardoDiCaprio.png', 'Im_GeorgeClooney.png', 'Im_PatrickDempsey.png'],same,1,0.4336029999994935,23,0,
SASO1010,1,neg,90,neg90_id7_im15.bmp_neg90_id7_im14.bmp,['Im_BenStiller.png', 'Im_KeanuReeves.png', 'Im_JustinTimberlake.png', 'Im_DanielCraig.png', 'Im_DanielRadcliffe.png', 'Im_BradPitt.png', 'Im_RobertPattinson.png', 'Im_LeonardoDiCaprio.png', 'Im_GeorgeClooney.png', 'Im_PatrickDempsey.png'],diff,0,0.4167581000001519,23,0,
SASO1010,1,neg,30,neg30_id10_im1.bmp_neg30_id10_im17.bmp,['Im_BenStiller.png', 'Im_KeanuReeves.png', 'Im_JustinTimberlake.png', 'Im_DanielCraig.png', 'Im_DanielRadcliffe.png', 'Im_BradPitt.png', 'Im_RobertPattinson.png', 'Im_LeonardoDiCaprio.png', 'Im_GeorgeClooney.png', 'Im_PatrickDempsey.png'],diff,0,0.40844530000140367,23,0,
SASO1010,2,pos,60,pos60_id10_im1.bmp_pos60_id10_im18.bmp,['Im_BenStiller.png', 'Im_KeanuReeves.png', 'Im_JustinTimberlake.png', 'Im_DanielCraig.png', 'Im_DanielRadcliffe.png', 'Im_BradPitt.png', 'Im_RobertPattinson.png', 'Im_LeonardoDiCaprio.png', 'Im_GeorgeClooney.png', 'Im_PatrickDempsey.png'],same,1,0.5084260999992694,24,0,
SASO1010,2,pos,0,pos0_id11_im1.bmp_pos0_id11_im2.bmp,['Im_BenStiller.png', 'Im_KeanuReeves.png', 'Im_JustinTimberlake.png', 'Im_DanielCraig.png', 'Im_DanielRadcliffe.png', 'Im_BradPitt.png', 'Im_RobertPattinson.png', 'Im_LeonardoDiCaprio.png', 'Im_GeorgeClooney.png', 'Im_PatrickDempsey.png'],diff,0,0.41661089999979595,24,0,
SASO1010,2,pos,120,pos120_id10_im1.bmp_pos120_id10_im18.bmp,['Im_BenStiller.png', 'Im_KeanuReeves.png', 'Im_JustinTimberlake.png', 'Im_DanielCraig.png', 'Im_DanielRadcliffe.png', 'Im_BradPitt.png', 'Im_RobertPattinson.png', 'Im_LeonardoDiCaprio.png', 'Im_GeorgeClooney.png', 'Im_PatrickDempsey.png'],same,1,0.5834942999990744,25,0,
SASO1010,2,pos,30,pos30_id7_im26.bmp_pos30_id3_im8.bmp,['Im_BenStiller.png', 'Im_KeanuReeves.png', 'Im_JustinTimberlake.png', 'Im_DanielCraig.png', 'Im_DanielRadcliffe.png', 'Im_BradPitt.png', 'Im_RobertPattinson.png', 'Im_LeonardoDiCaprio.png', 'Im_GeorgeClooney.png', 'Im_PatrickDempsey.png'],diff,1,0.5500948000008066,26,0,
SASO1010,2,pos,fs,posfs_id5_im20.bmp_posfs_id13_im10.bmp,['Im_BenStiller.png', 'Im_KeanuReeves.png', 'Im_JustinTimberlake.png', 'Im_DanielCraig.png', 'Im_DanielRadcliffe.png', 'Im_BradPitt.png', 'Im_RobertPattinson.png', 'Im_LeonardoDiCaprio.png', 'Im_GeorgeClooney.png', 'Im_PatrickDempsey.png'],diff,1,0.4502575999995315,27,0,
SASO1010,2,pos,150,pos150_id5_im1.bmp_pos150_id5_im10.bmp,['Im_BenStiller.png', 'Im_KeanuReeves.png', 'Im_JustinTimberlake.png', 'Im_DanielCraig.png', 'Im_DanielRadcliffe.png', 'Im_BradPitt.png', 'Im_RobertPattinson.png', 'Im_LeonardoDiCaprio.png', 'Im_GeorgeClooney.png', 'Im_PatrickDempsey.png'],same,1,0.4332852000006824,28,0,
SASO1010,2,pos,90,pos90_id17_im9.bmp_pos90_id17_im14.bmp,['Im_BenStiller.png', 'Im_KeanuReeves.png', 'Im_JustinTimberlake.png', 'Im_DanielCraig.png', 'Im_DanielRadcliffe.png', 'Im_BradPitt.png', 'Im_RobertPattinson.png', 'Im_LeonardoDiCaprio.png', 'Im_GeorgeClooney.png', 'Im_PatrickDempsey.png'],same,1,0.41677809999964666,29,0,
SASO1010,2,pos,30,pos30_id2_im3.bmp_pos30_id4_im20.bmp,['Im_BenStiller.png', 'Im_KeanuReeves.png', 'Im_JustinTimberlake.png', 'Im_DanielCraig.png', 'Im_DanielRadcliffe.png', 'Im_BradPitt.png', 'Im_RobertPattinson.png', 'Im_LeonardoDiCaprio.png', 'Im_GeorgeClooney.png', 'Im_PatrickDempsey.png'],diff,1,0.40841179999915767,30,0,
SASO1010,2,pos,fs,posfs_id17_im9.bmp_posfs_id4_im7.bmp,['Im_BenStiller.png', 'Im_KeanuReeves.png', 'Im_JustinTimberlake.png', 'Im_DanielCraig.png', 'Im_DanielRadcliffe.png', 'Im_BradPitt.png', 'Im_RobertPattinson.png', 'Im_LeonardoDiCaprio.png', 'Im_GeorgeClooney.png', 'Im_PatrickDempsey.png'],diff,1,0.4167096999990463,31,0,
SASO1010,2,pos,150,pos150_id2_im3.bmp_pos150_id2_im16.bmp,['Im_BenStiller.png', 'Im_KeanuReeves.png', 'Im_JustinTimberlake.png', 'Im_DanielCraig.png', 'Im_DanielRadcliffe.png', 'Im_BradPitt.png', 'Im_RobertPattinson.png', 'Im_LeonardoDiCaprio.png', 'Im_GeorgeClooney.png', 'Im_PatrickDempsey.png'],same,1,0.8084989999988466,32,0,
SASO1010,2,pos,0,pos0_id10_im17.bmp_pos0_id10_im18.bmp,['Im_BenStiller.png', 'Im_KeanuReeves.png', 'Im_JustinTimberlake.png', 'Im_DanielCraig.png', 'Im_DanielRadcliffe.png', 'Im_BradPitt.png', 'Im_RobertPattinson.png', 'Im_LeonardoDiCaprio.png', 'Im_GeorgeClooney.png', 'Im_PatrickDempsey.png'],same,1,0.42509419999987585,33,0,
SASO1010,2,pos,60,pos60_id17_im14.bmp_pos60_id11_im10.bmp,['Im_BenStiller.png', 'Im_KeanuReeves.png', 'Im_JustinTimberlake.png', 'Im_DanielCraig.png', 'Im_DanielRadcliffe.png', 'Im_BradPitt.png', 'Im_RobertPattinson.png', 'Im_LeonardoDiCaprio.png', 'Im_GeorgeClooney.png', 'Im_PatrickDempsey.png'],diff,1,0.4250296000009257,34,0,
SASO1010,2,pos,120,pos120_id10_im17.bmp_pos120_id3_im6.bmp,['Im_BenStiller.png', 'Im_KeanuReeves.png', 'Im_JustinTimberlake.png', 'Im_DanielCraig.png', 'Im_DanielRadcliffe.png', 'Im_BradPitt.png', 'Im_RobertPattinson.png', 'Im_LeonardoDiCaprio.png', 'Im_GeorgeClooney.png', 'Im_PatrickDempsey.png'],diff,1,0.6583878000001278,35,0,
SASO1010,2,pos,90,pos90_id10_im1.bmp_pos90_id10_im17.bmp,['Im_BenStiller.png', 'Im_KeanuReeves.png', 'Im_JustinTimberlake.png', 'Im_DanielCraig.png', 'Im_DanielRadcliffe.png', 'Im_BradPitt.png', 'Im_RobertPattinson.png', 'Im_LeonardoDiCaprio.png', 'Im_GeorgeClooney.png', 'Im_PatrickDempsey.png'],diff,0,0.8502062999996269,35,0,
SASO1010,3,inv,60,pos60_id3_im17.bmp_pos60_id3_im8.bmp,['Im_BenStiller.png', 'Im_KeanuReeves.png', 'Im_JustinTimberlake.png', 'Im_DanielCraig.png', 'Im_DanielRadcliffe.png', 'Im_BradPitt.png', 'Im_RobertPattinson.png', 'Im_LeonardoDiCaprio.png', 'Im_GeorgeClooney.png', 'Im_PatrickDempsey.png'],diff,0,0.4669722000016918,0,83.33333333333333,
SASO1010,3,inv,60,pos60_id3_im8.bmp_pos60_id3_im6.bmp,['Im_BenStiller.png', 'Im_KeanuReeves.png', 'Im_JustinTimberlake.png', 'Im_DanielCraig.png', 'Im_DanielRadcliffe.png', 'Im_BradPitt.png', 'Im_RobertPattinson.png', 'Im_LeonardoDiCaprio.png', 'Im_GeorgeClooney.png', 'Im_PatrickDempsey.png'],same,1,1.2003325999994559,1,83.33333333333333,
SASO1010,3,inv,fs,posfs_id10_im18.bmp_posfs_id2_im3.bmp,['Im_BenStiller.png', 'Im_KeanuReeves.png', 'Im_JustinTimberlake.png', 'Im_DanielCraig.png', 'Im_DanielRadcliffe.png', 'Im_BradPitt.png', 'Im_RobertPattinson.png', 'Im_LeonardoDiCaprio.png', 'Im_GeorgeClooney.png', 'Im_PatrickDempsey.png'],diff,1,0.416711399999258,2,83.33333333333333,
SASO1010,3,inv,0,pos0_id11_im2.bmp_pos0_id10_im18.bmp,['Im_BenStiller.png', 'Im_KeanuReeves.png', 'Im_JustinTimberlake.png', 'Im_DanielCraig.png', 'Im_DanielRadcliffe.png', 'Im_BradPitt.png', 'Im_RobertPattinson.png', 'Im_LeonardoDiCaprio.png', 'Im_GeorgeClooney.png', 'Im_PatrickDempsey.png'],diff,1,0.42511970000123256,3,83.33333333333333,
SASO1010,3,inv,30,pos30_id7_im26.bmp_pos30_id19_im4.bmp,['Im_BenStiller.png', 'Im_KeanuReeves.png', 'Im_JustinTimberlake.png', 'Im_DanielCraig.png', 'Im_DanielRadcliffe.png', 'Im_BradPitt.png', 'Im_RobertPattinson.png', 'Im_LeonardoDiCaprio.png', 'Im_GeorgeClooney.png', 'Im_PatrickDempsey.png'],diff,1,0.9167226999998093,4,83.33333333333333,
SASO1010,3,inv,90,pos90_id13_im15.bmp_pos90_id13_im10.bmp,['Im_BenStiller.png', 'Im_KeanuReeves.png', 'Im_JustinTimberlake.png', 'Im_DanielCraig.png', 'Im_DanielRadcliffe.png', 'Im_BradPitt.png', 'Im_RobertPattinson.png', 'Im_LeonardoDiCaprio.png', 'Im_GeorgeClooney.png', 'Im_PatrickDempsey.png'],same,1,0.6667617999992217,5,83.33333333333333,
SASO1010,3,inv,30,pos30_id17_im14.bmp_pos30_id11_im10.bmp,['Im_BenStiller.png', 'Im_KeanuReeves.png', 'Im_JustinTimberlake.png', 'Im_DanielCraig.png', 'Im_DanielRadcliffe.png', 'Im_BradPitt.png', 'Im_RobertPattinson.png', 'Im_LeonardoDiCaprio.png', 'Im_GeorgeClooney.png', 'Im_PatrickDempsey.png'],diff,1,0.45823640000162413,6,83.33333333333333,
SASO1010,3,inv,0,pos0_id13_im15.bmp_pos0_id11_im1.bmp,['Im_BenStiller.png', 'Im_KeanuReeves.png', 'Im_JustinTimberlake.png', 'Im_DanielCraig.png', 'Im_DanielRadcliffe.png', 'Im_BradPitt.png', 'Im_RobertPattinson.png', 'Im_LeonardoDiCaprio.png', 'Im_GeorgeClooney.png', 'Im_PatrickDempsey.png'],diff,1,0.5085472999999183,7,83.33333333333333,
SASO1010,3,inv,150,pos150_id17_im8.bmp_pos150_id10_im17.bmp,['Im_BenStiller.png', 'Im_KeanuReeves.png', 'Im_JustinTimberlake.png', 'Im_DanielCraig.png', 'Im_DanielRadcliffe.png', 'Im_BradPitt.png', 'Im_RobertPattinson.png', 'Im_LeonardoDiCaprio.png', 'Im_GeorgeClooney.png', 'Im_PatrickDempsey.png'],diff,1,1.0502324999997654,8,83.33333333333333,
SASO1010,3,inv,fs,posfs_id5_im20.bmp_posfs_id5_im10.bmp,['Im_BenStiller.png', 'Im_KeanuReeves.png', 'Im_JustinTimberlake.png', 'Im_DanielCraig.png', 'Im_DanielRadcliffe.png', 'Im_BradPitt.png', 'Im_RobertPattinson.png', 'Im_LeonardoDiCaprio.png', 'Im_GeorgeClooney.png', 'Im_PatrickDempsey.png'],same,1,0.4167667000001529,9,83.33333333333333,
SASO1010,3,inv,150,pos150_id10_im17.bmp_pos150_id10_im18.bmp,['Im_BenStiller.png', 'Im_KeanuReeves.png', 'Im_JustinTimberlake.png', 'Im_DanielCraig.png', 'Im_DanielRadcliffe.png', 'Im_BradPitt.png', 'Im_RobertPattinson.png', 'Im_LeonardoDiCaprio.png', 'Im_GeorgeClooney.png', 'Im_PatrickDempsey.png'],diff,0,0.43336470000031113,9,83.33333333333333,
SASO1010,3,inv,90,pos90_id17_im14.bmp_pos90_id11_im10.bmp,['Im_BenStiller.png', 'Im_KeanuReeves.png', 'Im_JustinTimberlake.png', 'Im_DanielCraig.png', 'Im_DanielRadcliffe.png', 'Im_BradPitt.png', 'Im_RobertPattinson.png', 'Im_LeonardoDiCaprio.png', 'Im_GeorgeClooney.png', 'Im_PatrickDempsey.png'],diff,1,0.4166349999995873,10,83.33333333333333,
SASO1010,3,inv,120,pos120_id5_im1.bmp_pos120_id10_im1.bmp,['Im_BenStiller.png', 'Im_KeanuReeves.png', 'Im_JustinTimberlake.png', 'Im_DanielCraig.png', 'Im_DanielRadcliffe.png', 'Im_BradPitt.png', 'Im_RobertPattinson.png', 'Im_LeonardoDiCaprio.png', 'Im_GeorgeClooney.png', 'Im_PatrickDempsey.png'],diff,1,0.40838740000071994,11,83.33333333333333,
SASO1010,3,inv,120,pos120_id13_im29.bmp_pos120_id19_im8.bmp,['Im_BenStiller.png', 'Im_KeanuReeves.png', 'Im_JustinTimberlake.png', 'Im_DanielCraig.png', 'Im_DanielRadcliffe.png', 'Im_BradPitt.png', 'Im_RobertPattinson.png', 'Im_LeonardoDiCaprio.png', 'Im_GeorgeClooney.png', 'Im_PatrickDempsey.png'],same,0,0.9336139000006369,11,83.33333333333333,
SASO1010,4,pos,150,pos150_id19_im4.bmp_pos150_id7_im15.bmp,['Im_BenStiller.png', 'Im_KeanuReeves.png', 'Im_JustinTimberlake.png', 'Im_DanielCraig.png', 'Im_DanielRadcliffe.png', 'Im_BradPitt.png', 'Im_RobertPattinson.png', 'Im_LeonardoDiCaprio.png', 'Im_GeorgeClooney.png', 'Im_PatrickDempsey.png'],diff,1,0.4334239999989222,12,83.33333333333333,
SASO1010,4,pos,30,pos30_id13_im29.bmp_pos30_id7_im14.bmp,['Im_BenStiller.png', 'Im_KeanuReeves.png', 'Im_JustinTimberlake.png', 'Im_DanielCraig.png', 'Im_DanielRadcliffe.png', 'Im_BradPitt.png', 'Im_RobertPattinson.png', 'Im_LeonardoDiCaprio.png', 'Im_GeorgeClooney.png', 'Im_PatrickDempsey.png'],diff,1,0.4166039000010642,13,83.33333333333333,
SASO1010,4,pos,150,pos150_id11_im1.bmp_pos150_id11_im2.bmp,['Im_BenStiller.png', 'Im_KeanuReeves.png', 'Im_JustinTimberlake.png', 'Im_DanielCraig.png', 'Im_DanielRadcliffe.png', 'Im_BradPitt.png', 'Im_RobertPattinson.png', 'Im_LeonardoDiCaprio.png', 'Im_GeorgeClooney.png', 'Im_PatrickDempsey.png'],same,1,0.47521420000157377,14,83.33333333333333,
SASO1010,4,pos,fs,posfs_id2_im2.bmp_posfs_id2_im16.bmp,['Im_BenStiller.png', 'Im_KeanuReeves.png', 'Im_JustinTimberlake.png', 'Im_DanielCraig.png', 'Im_DanielRadcliffe.png', 'Im_BradPitt.png', 'Im_RobertPattinson.png', 'Im_LeonardoDiCaprio.png', 'Im_GeorgeClooney.png', 'Im_PatrickDempsey.png'],diff,0,0.8002558999996836,14,83.33333333333333,
SASO1010,4,pos,120,pos120_id19_im4.bmp_pos120_id7_im26.bmp,['Im_BenStiller.png', 'Im_KeanuReeves.png', 'Im_JustinTimberlake.png', 'Im_DanielCraig.png', 'Im_DanielRadcliffe.png', 'Im_BradPitt.png', 'Im_RobertPattinson.png', 'Im_LeonardoDiCaprio.png', 'Im_GeorgeClooney.png', 'Im_PatrickDempsey.png'],diff,1,0.6835971000000427,15,83.33333333333333,
SASO1010,4,pos,fs,posfs_id4_im15.bmp_posfs_id4_im7.bmp,['Im_BenStiller.png', 'Im_KeanuReeves.png', 'Im_JustinTimberlake.png', 'Im_DanielCraig.png', 'Im_DanielRadcliffe.png', 'Im_BradPitt.png', 'Im_RobertPattinson.png', 'Im_LeonardoDiCaprio.png', 'Im_GeorgeClooney.png', 'Im_PatrickDempsey.png'],same,1,0.42513789999975415,16,83.33333333333333,
SASO1010,4,pos,60,pos60_id19_im8.bmp_pos60_id11_im1.bmp,['Im_BenStiller.png', 'Im_KeanuReeves.png', 'Im_JustinTimberlake.png', 'Im_DanielCraig.png', 'Im_DanielRadcliffe.png', 'Im_BradPitt.png', 'Im_RobertPattinson.png', 'Im_LeonardoDiCaprio.png', 'Im_GeorgeClooney.png', 'Im_PatrickDempsey.png'],diff,1,0.42507339999974647,17,83.33333333333333,
SASO1010,4,pos,30,pos30_id10_im18.bmp_pos30_id11_im2.bmp,['Im_BenStiller.png', 'Im_KeanuReeves.png', 'Im_JustinTimberlake.png', 'Im_DanielCraig.png', 'Im_DanielRadcliffe.png', 'Im_BradPitt.png', 'Im_RobertPattinson.png', 'Im_LeonardoDiCaprio.png', 'Im_GeorgeClooney.png', 'Im_PatrickDempsey.png'],diff,1,0.4167799999995623,18,83.33333333333333,
SASO1010,4,pos,0,pos0_id19_im27.bmp_pos0_id11_im10.bmp,['Im_BenStiller.png', 'Im_KeanuReeves.png', 'Im_JustinTimberlake.png', 'Im_DanielCraig.png', 'Im_DanielRadcliffe.png', 'Im_BradPitt.png', 'Im_RobertPattinson.png', 'Im_LeonardoDiCaprio.png', 'Im_GeorgeClooney.png', 'Im_PatrickDempsey.png'],diff,1,0.41673400000036054,19,83.33333333333333,
SASO1010,4,pos,0,pos0_id13_im15.bmp_pos0_id5_im10.bmp,['Im_BenStiller.png', 'Im_KeanuReeves.png', 'Im_JustinTimberlake.png', 'Im_DanielCraig.png', 'Im_DanielRadcliffe.png', 'Im_BradPitt.png', 'Im_RobertPattinson.png', 'Im_LeonardoDiCaprio.png', 'Im_GeorgeClooney.png', 'Im_PatrickDempsey.png'],diff,1,0.7999958999989758,20,83.33333333333333,
SASO1010,4,pos,90,pos90_id19_im8.bmp_pos90_id19_im4.bmp,['Im_BenStiller.png', 'Im_KeanuReeves.png', 'Im_JustinTimberlake.png', 'Im_DanielCraig.png', 'Im_DanielRadcliffe.png', 'Im_BradPitt.png', 'Im_RobertPattinson.png', 'Im_LeonardoDiCaprio.png', 'Im_GeorgeClooney.png', 'Im_PatrickDempsey.png'],same,1,0.5833112000000256,21,83.33333333333333,
SASO1010,4,pos,60,pos60_id19_im27.bmp_pos60_id19_im8.bmp,['Im_BenStiller.png', 'Im_KeanuReeves.png', 'Im_JustinTimberlake.png', 'Im_DanielCraig.png', 'Im_DanielRadcliffe.png', 'Im_BradPitt.png', 'Im_RobertPattinson.png', 'Im_LeonardoDiCaprio.png', 'Im_GeorgeClooney.png', 'Im_PatrickDempsey.png'],same,1,0.46696070000143663,22,83.33333333333333,
SASO1010,4,pos,120,pos120_id19_im8.bmp_pos120_id19_im4.bmp,['Im_BenStiller.png', 'Im_KeanuReeves.png', 'Im_JustinTimberlake.png', 'Im_DanielCraig.png', 'Im_DanielRadcliffe.png', 'Im_BradPitt.png', 'Im_RobertPattinson.png', 'Im_LeonardoDiCaprio.png', 'Im_GeorgeClooney.png', 'Im_PatrickDempsey.png'],same,1,0.46683889999985695,23,83.33333333333333,
SASO1010,4,pos,90,pos90_id19_im8.bmp_pos90_id11_im1.bmp,['Im_BenStiller.png', 'Im_KeanuReeves.png', 'Im_JustinTimberlake.png', 'Im_DanielCraig.png', 'Im_DanielRadcliffe.png', 'Im_BradPitt.png', 'Im_RobertPattinson.png', 'Im_LeonardoDiCaprio.png', 'Im_GeorgeClooney.png', 'Im_PatrickDempsey.png'],diff,1,0.4250571000011405,24,83.33333333333333,
SASO1010,5,neg,150,neg150_id11_im10.bmp_neg150_id11_im2.bmp,['Im_BenStiller.png', 'Im_KeanuReeves.png', 'Im_JustinTimberlake.png', 'Im_DanielCraig.png', 'Im_DanielRadcliffe.png', 'Im_BradPitt.png', 'Im_RobertPattinson.png', 'Im_LeonardoDiCaprio.png', 'Im_GeorgeClooney.png', 'Im_PatrickDempsey.png'],same,1,0.7999242999994749,25,83.33333333333333,
SASO1010,5,neg,90,neg90_id3_im6.bmp_neg90_id17_im9.bmp,['Im_BenStiller.png', 'Im_KeanuReeves.png', 'Im_JustinTimberlake.png', 'Im_DanielCraig.png', 'Im_DanielRadcliffe.png', 'Im_BradPitt.png', 'Im_RobertPattinson.png', 'Im_LeonardoDiCaprio.png', 'Im_GeorgeClooney.png', 'Im_PatrickDempsey.png'],same,0,0.42501780000020517,25,83.33333333333333,
SASO1010,5,neg,fs,negfs_id10_im1.bmp_negfs_id10_im17.bmp,['Im_BenStiller.png', 'Im_KeanuReeves.png', 'Im_JustinTimberlake.png', 'Im_DanielCraig.png', 'Im_DanielRadcliffe.png', 'Im_BradPitt.png', 'Im_RobertPattinson.png', 'Im_LeonardoDiCaprio.png', 'Im_GeorgeClooney.png', 'Im_PatrickDempsey.png'],same,1,0.63332199999968,26,83.33333333333333,
SASO1010,5,neg,0,neg0_id2_im2.bmp_neg0_id5_im10.bmp,['Im_BenStiller.png', 'Im_KeanuReeves.png', 'Im_JustinTimberlake.png', 'Im_DanielCraig.png', 'Im_DanielRadcliffe.png', 'Im_BradPitt.png', 'Im_RobertPattinson.png', 'Im_LeonardoDiCaprio.png', 'Im_GeorgeClooney.png', 'Im_PatrickDempsey.png'],diff,1,0.41663689999950293,27,83.33333333333333,
SASO1010,5,neg,60,neg60_id5_im20.bmp_neg60_id13_im10.bmp,['Im_BenStiller.png', 'Im_KeanuReeves.png', 'Im_JustinTimberlake.png', 'Im_DanielCraig.png', 'Im_DanielRadcliffe.png', 'Im_BradPitt.png', 'Im_RobertPattinson.png', 'Im_LeonardoDiCaprio.png', 'Im_GeorgeClooney.png', 'Im_PatrickDempsey.png'],same,0,0.6334824000005028,27,83.33333333333333,
SASO1010,5,neg,120,neg120_id3_im17.bmp_neg120_id3_im6.bmp,['Im_BenStiller.png', 'Im_KeanuReeves.png', 'Im_JustinTimberlake.png', 'Im_DanielCraig.png', 'Im_DanielRadcliffe.png', 'Im_BradPitt.png', 'Im_RobertPattinson.png', 'Im_LeonardoDiCaprio.png', 'Im_GeorgeClooney.png', 'Im_PatrickDempsey.png'],same,1,0.5582801000000472,28,83.33333333333333,
SASO1010,5,neg,60,neg60_id10_im18.bmp_neg60_id2_im3.bmp,['Im_BenStiller.png', 'Im_KeanuReeves.png', 'Im_JustinTimberlake.png', 'Im_DanielCraig.png', 'Im_DanielRadcliffe.png', 'Im_BradPitt.png', 'Im_RobertPattinson.png', 'Im_LeonardoDiCaprio.png', 'Im_GeorgeClooney.png', 'Im_PatrickDempsey.png'],diff,1,0.508372700000109,29,83.33333333333333,
SASO1010,5,neg,90,neg90_id19_im27.bmp_neg90_id19_im8.bmp,['Im_BenStiller.png', 'Im_KeanuReeves.png', 'Im_JustinTimberlake.png', 'Im_DanielCraig.png', 'Im_DanielRadcliffe.png', 'Im_BradPitt.png', 'Im_RobertPattinson.png', 'Im_LeonardoDiCaprio.png', 'Im_GeorgeClooney.png', 'Im_PatrickDempsey.png'],same,1,0.5500281000004179,30,83.33333333333333,
SASO1010,5,neg,30,neg30_id4_im7.bmp_neg30_id4_im20.bmp,['Im_BenStiller.png', 'Im_KeanuReeves.png', 'Im_JustinTimberlake.png', 'Im_DanielCraig.png', 'Im_DanielRadcliffe.png', 'Im_BradPitt.png', 'Im_RobertPattinson.png', 'Im_LeonardoDiCaprio.png', 'Im_GeorgeClooney.png', 'Im_PatrickDempsey.png'],same,1,0.5003634999993665,31,83.33333333333333,
SASO1010,5,neg,150,neg150_id2_im2.bmp_neg150_id2_im3.bmp,['Im_BenStiller.png', 'Im_KeanuReeves.png', 'Im_JustinTimberlake.png', 'Im_DanielCraig.png', 'Im_DanielRadcliffe.png', 'Im_BradPitt.png', 'Im_RobertPattinson.png', 'Im_LeonardoDiCaprio.png', 'Im_GeorgeClooney.png', 'Im_PatrickDempsey.png'],same,1,0.4502503000003344,32,83.33333333333333,
SASO1010,5,neg,0,neg0_id4_im20.bmp_neg0_id4_im7.bmp,['Im_BenStiller.png', 'Im_KeanuReeves.png', 'Im_JustinTimberlake.png', 'Im_DanielCraig.png', 'Im_DanielRadcliffe.png', 'Im_BradPitt.png', 'Im_RobertPattinson.png', 'Im_LeonardoDiCaprio.png', 'Im_GeorgeClooney.png', 'Im_PatrickDempsey.png'],same,1,0.41672730000027514,33,83.33333333333333,
SASO1010,5,neg,120,neg120_id4_im7.bmp_neg120_id17_im9.bmp,['Im_BenStiller.png', 'Im_KeanuReeves.png', 'Im_JustinTimberlake.png', 'Im_DanielCraig.png', 'Im_DanielRadcliffe.png', 'Im_BradPitt.png', 'Im_RobertPattinson.png', 'Im_LeonardoDiCaprio.png', 'Im_GeorgeClooney.png', 'Im_PatrickDempsey.png'],diff,1,0.5166365999994014,34,83.33333333333333,
SASO1010,5,neg,30,neg30_id17_im9.bmp_neg30_id17_im8.bmp,['Im_BenStiller.png', 'Im_KeanuReeves.png', 'Im_JustinTimberlake.png', 'Im_DanielCraig.png', 'Im_DanielRadcliffe.png', 'Im_BradPitt.png', 'Im_RobertPattinson.png', 'Im_LeonardoDiCaprio.png', 'Im_GeorgeClooney.png', 'Im_PatrickDempsey.png'],same,1,0.6506232000010641,35,83.33333333333333,
SASO1010,5,neg,fs,negfs_id3_im6.bmp_negfs_id10_im17.bmp,['Im_BenStiller.png', 'Im_KeanuReeves.png', 'Im_JustinTimberlake.png', 'Im_DanielCraig.png', 'Im_DanielRadcliffe.png', 'Im_BradPitt.png', 'Im_RobertPattinson.png', 'Im_LeonardoDiCaprio.png', 'Im_GeorgeClooney.png', 'Im_PatrickDempsey.png'],diff,1,0.4250809000004665,36,83.33333333333333,
SASO1010,6,inv,150,pos150_id19_im4.bmp_pos150_id7_im15.bmp,['Im_BenStiller.png', 'Im_KeanuReeves.png', 'Im_JustinTimberlake.png', 'Im_DanielCraig.png', 'Im_DanielRadcliffe.png', 'Im_BradPitt.png', 'Im_RobertPattinson.png', 'Im_LeonardoDiCaprio.png', 'Im_GeorgeClooney.png', 'Im_PatrickDempsey.png'],diff,1,0.43336079999971844,1,85.71428571428571,
SASO1010,6,inv,30,pos30_id13_im29.bmp_pos30_id19_im8.bmp,['Im_BenStiller.png', 'Im_KeanuReeves.png', 'Im_JustinTimberlake.png', 'Im_DanielCraig.png', 'Im_DanielRadcliffe.png', 'Im_BradPitt.png', 'Im_RobertPattinson.png', 'Im_LeonardoDiCaprio.png', 'Im_GeorgeClooney.png', 'Im_PatrickDempsey.png'],diff,1,0.5002672999999049,2,85.71428571428571,
SASO1010,6,inv,30,pos30_id4_im20.bmp_pos30_id7_im14.bmp,['Im_BenStiller.png', 'Im_KeanuReeves.png', 'Im_JustinTimberlake.png', 'Im_DanielCraig.png', 'Im_DanielRadcliffe.png', 'Im_BradPitt.png', 'Im_RobertPattinson.png', 'Im_LeonardoDiCaprio.png', 'Im_GeorgeClooney.png', 'Im_PatrickDempsey.png'],diff,1,0.42508660000021337,3,85.71428571428571,
SASO1010,6,inv,0,pos0_id5_im20.bmp_pos0_id13_im10.bmp,['Im_BenStiller.png', 'Im_KeanuReeves.png', 'Im_JustinTimberlake.png', 'Im_DanielCraig.png', 'Im_DanielRadcliffe.png', 'Im_BradPitt.png', 'Im_RobertPattinson.png', 'Im_LeonardoDiCaprio.png', 'Im_GeorgeClooney.png', 'Im_PatrickDempsey.png'],same,0,0.5417597999985446,3,85.71428571428571,
SASO1010,6,inv,120,pos120_id3_im17.bmp_pos120_id3_im6.bmp,['Im_BenStiller.png', 'Im_KeanuReeves.png', 'Im_JustinTimberlake.png', 'Im_DanielCraig.png', 'Im_DanielRadcliffe.png', 'Im_BradPitt.png', 'Im_RobertPattinson.png', 'Im_LeonardoDiCaprio.png', 'Im_GeorgeClooney.png', 'Im_PatrickDempsey.png'],diff,0,0.5582482999998319,3,85.71428571428571,
SASO1010,6,inv,60,pos60_id17_im8.bmp_pos60_id17_im9.bmp,['Im_BenStiller.png', 'Im_KeanuReeves.png', 'Im_JustinTimberlake.png', 'Im_DanielCraig.png', 'Im_DanielRadcliffe.png', 'Im_BradPitt.png', 'Im_RobertPattinson.png', 'Im_LeonardoDiCaprio.png', 'Im_GeorgeClooney.png', 'Im_PatrickDempsey.png'],same,1,0.6753556999992725,4,85.71428571428571,
SASO1010,6,inv,fs,posfs_id13_im29.bmp_posfs_id7_im14.bmp,['Im_BenStiller.png', 'Im_KeanuReeves.png', 'Im_JustinTimberlake.png', 'Im_DanielCraig.png', 'Im_DanielRadcliffe.png', 'Im_BradPitt.png', 'Im_RobertPattinson.png', 'Im_LeonardoDiCaprio.png', 'Im_GeorgeClooney.png', 'Im_PatrickDempsey.png'],diff,1,0.5170154000006733,5,85.71428571428571,
SASO1010,6,inv,120,pos120_id3_im8.bmp_pos120_id17_im14.bmp,['Im_BenStiller.png', 'Im_KeanuReeves.png', 'Im_JustinTimberlake.png', 'Im_DanielCraig.png', 'Im_DanielRadcliffe.png', 'Im_BradPitt.png', 'Im_RobertPattinson.png', 'Im_LeonardoDiCaprio.png', 'Im_GeorgeClooney.png', 'Im_PatrickDempsey.png'],same,0,0.5596396000000823,5,85.71428571428571,
SASO1010,6,inv,0,pos0_id3_im8.bmp_pos0_id17_im14.bmp,['Im_BenStiller.png', 'Im_KeanuReeves.png', 'Im_JustinTimberlake.png', 'Im_DanielCraig.png', 'Im_DanielRadcliffe.png', 'Im_BradPitt.png', 'Im_RobertPattinson.png', 'Im_LeonardoDiCaprio.png', 'Im_GeorgeClooney.png', 'Im_PatrickDempsey.png'],diff,1,0.6668052999993961,6,85.71428571428571,
SASO1010,6,inv,fs,posfs_id17_im9.bmp_posfs_id3_im6.bmp,['Im_BenStiller.png', 'Im_KeanuReeves.png', 'Im_JustinTimberlake.png', 'Im_DanielCraig.png', 'Im_DanielRadcliffe.png', 'Im_BradPitt.png', 'Im_RobertPattinson.png', 'Im_LeonardoDiCaprio.png', 'Im_GeorgeClooney.png', 'Im_PatrickDempsey.png'],diff,1,0.41655290000016976,7,85.71428571428571,
SASO1010,6,inv,90,pos90_id2_im2.bmp_pos90_id2_im3.bmp,['Im_BenStiller.png', 'Im_KeanuReeves.png', 'Im_JustinTimberlake.png', 'Im_DanielCraig.png', 'Im_DanielRadcliffe.png', 'Im_BradPitt.png', 'Im_RobertPattinson.png', 'Im_LeonardoDiCaprio.png', 'Im_GeorgeClooney.png', 'Im_PatrickDempsey.png'],same,1,0.566707400001178,8,85.71428571428571,
SASO1010,6,inv,150,pos150_id13_im29.bmp_pos150_id13_im10.bmp,['Im_BenStiller.png', 'Im_KeanuReeves.png', 'Im_JustinTimberlake.png', 'Im_DanielCraig.png', 'Im_DanielRadcliffe.png', 'Im_BradPitt.png', 'Im_RobertPattinson.png', 'Im_LeonardoDiCaprio.png', 'Im_GeorgeClooney.png', 'Im_PatrickDempsey.png'],diff,0,0.5002139999996871,8,85.71428571428571,
SASO1010,6,inv,90,pos90_id17_im9.bmp_pos90_id17_im14.bmp,['Im_BenStiller.png', 'Im_KeanuReeves.png', 'Im_JustinTimberlake.png', 'Im_DanielCraig.png', 'Im_DanielRadcliffe.png', 'Im_BradPitt.png', 'Im_RobertPattinson.png', 'Im_LeonardoDiCaprio.png', 'Im_GeorgeClooney.png', 'Im_PatrickDempsey.png'],same,1,0.9505078000001959,9,85.71428571428571,
SASO1010,6,inv,60,pos60_id11_im10.bmp_pos60_id17_im14.bmp,['Im_BenStiller.png', 'Im_KeanuReeves.png', 'Im_JustinTimberlake.png', 'Im_DanielCraig.png', 'Im_DanielRadcliffe.png', 'Im_BradPitt.png', 'Im_RobertPattinson.png', 'Im_LeonardoDiCaprio.png', 'Im_GeorgeClooney.png', 'Im_PatrickDempsey.png'],diff,1,0.4665707000003749,10,85.71428571428571,
SASO1010,7,inv,90,pos90_id4_im20.bmp_pos90_id2_im3.bmp,['Im_BenStiller.png', 'Im_KeanuReeves.png', 'Im_JustinTimberlake.png', 'Im_DanielCraig.png', 'Im_DanielRadcliffe.png', 'Im_BradPitt.png', 'Im_RobertPattinson.png', 'Im_LeonardoDiCaprio.png', 'Im_GeorgeClooney.png', 'Im_PatrickDempsey.png'],same,0,1.1585039000001416,10,85.71428571428571,
SASO1010,7,inv,60,pos60_id19_im27.bmp_pos60_id11_im10.bmp,['Im_BenStiller.png', 'Im_KeanuReeves.png', 'Im_JustinTimberlake.png', 'Im_DanielCraig.png', 'Im_DanielRadcliffe.png', 'Im_BradPitt.png', 'Im_RobertPattinson.png', 'Im_LeonardoDiCaprio.png', 'Im_GeorgeClooney.png', 'Im_PatrickDempsey.png'],diff,1,0.6669767000003048,11,85.71428571428571,
SASO1010,7,inv,0,pos0_id7_im15.bmp_pos0_id2_im16.bmp,['Im_BenStiller.png', 'Im_KeanuReeves.png', 'Im_JustinTimberlake.png', 'Im_DanielCraig.png', 'Im_DanielRadcliffe.png', 'Im_BradPitt.png', 'Im_RobertPattinson.png', 'Im_LeonardoDiCaprio.png', 'Im_GeorgeClooney.png', 'Im_PatrickDempsey.png'],diff,1,1.0177812000001722,12,85.71428571428571,
SASO1010,7,inv,120,pos120_id3_im6.bmp_pos120_id10_im17.bmp,['Im_BenStiller.png', 'Im_KeanuReeves.png', 'Im_JustinTimberlake.png', 'Im_DanielCraig.png', 'Im_DanielRadcliffe.png', 'Im_BradPitt.png', 'Im_RobertPattinson.png', 'Im_LeonardoDiCaprio.png', 'Im_GeorgeClooney.png', 'Im_PatrickDempsey.png'],diff,1,0.8337377000007109,13,85.71428571428571,
SASO1010,7,inv,150,pos150_id17_im9.bmp_pos150_id4_im7.bmp,['Im_BenStiller.png', 'Im_KeanuReeves.png', 'Im_JustinTimberlake.png', 'Im_DanielCraig.png', 'Im_DanielRadcliffe.png', 'Im_BradPitt.png', 'Im_RobertPattinson.png', 'Im_LeonardoDiCaprio.png', 'Im_GeorgeClooney.png', 'Im_PatrickDempsey.png'],diff,1,0.4083787999988999,14,85.71428571428571,
SASO1010,7,inv,fs,posfs_id4_im20.bmp_posfs_id4_im15.bmp,['Im_BenStiller.png', 'Im_KeanuReeves.png', 'Im_JustinTimberlake.png', 'Im_DanielCraig.png', 'Im_DanielRadcliffe.png', 'Im_BradPitt.png', 'Im_RobertPattinson.png', 'Im_LeonardoDiCaprio.png', 'Im_GeorgeClooney.png', 'Im_PatrickDempsey.png'],same,1,0.42507020000084594,15,85.71428571428571,
SASO1010,7,inv,60,pos60_id13_im10.bmp_pos60_id13_im15.bmp,['Im_BenStiller.png', 'Im_KeanuReeves.png', 'Im_JustinTimberlake.png', 'Im_DanielCraig.png', 'Im_DanielRadcliffe.png', 'Im_BradPitt.png', 'Im_RobertPattinson.png', 'Im_LeonardoDiCaprio.png', 'Im_GeorgeClooney.png', 'Im_PatrickDempsey.png'],same,1,0.6669400999999198,16,85.71428571428571,
SASO1010,7,inv,90,pos90_id4_im7.bmp_pos90_id17_im9.bmp,['Im_BenStiller.png', 'Im_KeanuReeves.png', 'Im_JustinTimberlake.png', 'Im_DanielCraig.png', 'Im_DanielRadcliffe.png', 'Im_BradPitt.png', 'Im_RobertPattinson.png', 'Im_LeonardoDiCaprio.png', 'Im_GeorgeClooney.png', 'Im_PatrickDempsey.png'],diff,1,0.5169255000000703,17,85.71428571428571,
SASO1010,7,inv,fs,posfs_id7_im26.bmp_posfs_id7_im15.bmp,['Im_BenStiller.png', 'Im_KeanuReeves.png', 'Im_JustinTimberlake.png', 'Im_DanielCraig.png', 'Im_DanielRadcliffe.png', 'Im_BradPitt.png', 'Im_RobertPattinson.png', 'Im_LeonardoDiCaprio.png', 'Im_GeorgeClooney.png', 'Im_PatrickDempsey.png'],same,1,0.4167436000007001,18,85.71428571428571,
SASO1010,7,inv,30,pos30_id7_im15.bmp_pos30_id7_im26.bmp,['Im_BenStiller.png', 'Im_KeanuReeves.png', 'Im_JustinTimberlake.png', 'Im_DanielCraig.png', 'Im_DanielRadcliffe.png', 'Im_BradPitt.png', 'Im_RobertPattinson.png', 'Im_LeonardoDiCaprio.png', 'Im_GeorgeClooney.png', 'Im_PatrickDempsey.png'],same,1,0.7082651999990048,19,85.71428571428571,
SASO1010,7,inv,150,pos150_id3_im8.bmp_pos150_id17_im14.bmp,['Im_BenStiller.png', 'Im_KeanuReeves.png', 'Im_JustinTimberlake.png', 'Im_DanielCraig.png', 'Im_DanielRadcliffe.png', 'Im_BradPitt.png', 'Im_RobertPattinson.png', 'Im_LeonardoDiCaprio.png', 'Im_GeorgeClooney.png', 'Im_PatrickDempsey.png'],same,0,0.733313900000212,19,85.71428571428571,
SASO1010,7,inv,120,pos120_id13_im10.bmp_pos120_id2_im16.bmp,['Im_BenStiller.png', 'Im_KeanuReeves.png', 'Im_JustinTimberlake.png', 'Im_DanielCraig.png', 'Im_DanielRadcliffe.png', 'Im_BradPitt.png', 'Im_RobertPattinson.png', 'Im_LeonardoDiCaprio.png', 'Im_GeorgeClooney.png', 'Im_PatrickDempsey.png'],same,0,0.6833504000005632,19,85.71428571428571,
SASO1010,7,inv,30,pos30_id13_im15.bmp_pos30_id11_im1.bmp,['Im_BenStiller.png', 'Im_KeanuReeves.png', 'Im_JustinTimberlake.png', 'Im_DanielCraig.png', 'Im_DanielRadcliffe.png', 'Im_BradPitt.png', 'Im_RobertPattinson.png', 'Im_LeonardoDiCaprio.png', 'Im_GeorgeClooney.png', 'Im_PatrickDempsey.png'],same,0,0.5000672000005579,19,85.71428571428571,
SASO1010,7,inv,0,pos0_id5_im10.bmp_pos0_id2_im2.bmp,['Im_BenStiller.png', 'Im_KeanuReeves.png', 'Im_JustinTimberlake.png', 'Im_DanielCraig.png', 'Im_DanielRadcliffe.png', 'Im_BradPitt.png', 'Im_RobertPattinson.png', 'Im_LeonardoDiCaprio.png', 'Im_GeorgeClooney.png', 'Im_PatrickDempsey.png'],diff,1,0.5000674000002618,20,85.71428571428571,
SASO1010,8,neg,fs,negfs_id10_im18.bmp_negfs_id10_im1.bmp,['Im_BenStiller.png', 'Im_KeanuReeves.png', 'Im_JustinTimberlake.png', 'Im_DanielCraig.png', 'Im_DanielRadcliffe.png', 'Im_BradPitt.png', 'Im_RobertPattinson.png', 'Im_LeonardoDiCaprio.png', 'Im_GeorgeClooney.png', 'Im_PatrickDempsey.png'],same,1,0.9750686999996105,21,85.71428571428571,
SASO1010,8,neg,0,neg0_id3_im6.bmp_neg0_id17_im9.bmp,['Im_BenStiller.png', 'Im_KeanuReeves.png', 'Im_JustinTimberlake.png', 'Im_DanielCraig.png', 'Im_DanielRadcliffe.png', 'Im_BradPitt.png', 'Im_RobertPattinson.png', 'Im_LeonardoDiCaprio.png', 'Im_GeorgeClooney.png', 'Im_PatrickDempsey.png'],diff,1,0.9671042999998463,22,85.71428571428571,
SASO1010,8,neg,30,neg30_id10_im17.bmp_neg30_id17_im8.bmp,['Im_BenStiller.png', 'Im_KeanuReeves.png', 'Im_JustinTimberlake.png', 'Im_DanielCraig.png', 'Im_DanielRadcliffe.png', 'Im_BradPitt.png', 'Im_RobertPattinson.png', 'Im_LeonardoDiCaprio.png', 'Im_GeorgeClooney.png', 'Im_PatrickDempsey.png'],diff,1,0.7089274999998452,23,85.71428571428571,
SASO1010,8,neg,120,neg120_id4_im7.bmp_neg120_id4_im20.bmp,['Im_BenStiller.png', 'Im_KeanuReeves.png', 'Im_JustinTimberlake.png', 'Im_DanielCraig.png', 'Im_DanielRadcliffe.png', 'Im_BradPitt.png', 'Im_RobertPattinson.png', 'Im_LeonardoDiCaprio.png', 'Im_GeorgeClooney.png', 'Im_PatrickDempsey.png'],same,1,0.6750487999997858,24,85.71428571428571,
SASO1010,8,neg,60,neg60_id5_im20.bmp_neg60_id5_im10.bmp,['Im_BenStiller.png', 'Im_KeanuReeves.png', 'Im_JustinTimberlake.png', 'Im_DanielCraig.png', 'Im_DanielRadcliffe.png', 'Im_BradPitt.png', 'Im_RobertPattinson.png', 'Im_LeonardoDiCaprio.png', 'Im_GeorgeClooney.png', 'Im_PatrickDempsey.png'],same,1,0.7167147999989538,25,85.71428571428571,
SASO1010,8,neg,120,neg120_id11_im1.bmp_neg120_id19_im8.bmp,['Im_BenStiller.png', 'Im_KeanuReeves.png', 'Im_JustinTimberlake.png', 'Im_DanielCraig.png', 'Im_DanielRadcliffe.png', 'Im_BradPitt.png', 'Im_RobertPattinson.png', 'Im_LeonardoDiCaprio.png', 'Im_GeorgeClooney.png', 'Im_PatrickDempsey.png'],diff,1,0.4834984000008262,26,85.71428571428571,
SASO1010,8,neg,90,neg90_id7_im26.bmp_neg90_id3_im8.bmp,['Im_BenStiller.png', 'Im_KeanuReeves.png', 'Im_JustinTimberlake.png', 'Im_DanielCraig.png', 'Im_DanielRadcliffe.png', 'Im_BradPitt.png', 'Im_RobertPattinson.png', 'Im_LeonardoDiCaprio.png', 'Im_GeorgeClooney.png', 'Im_PatrickDempsey.png'],same,0,0.6254072000010638,26,85.71428571428571,
SASO1010,8,neg,150,neg150_id17_im14.bmp_neg150_id17_im8.bmp,['Im_BenStiller.png', 'Im_KeanuReeves.png', 'Im_JustinTimberlake.png', 'Im_DanielCraig.png', 'Im_DanielRadcliffe.png', 'Im_BradPitt.png', 'Im_RobertPattinson.png', 'Im_LeonardoDiCaprio.png', 'Im_GeorgeClooney.png', 'Im_PatrickDempsey.png'],diff,0,0.46688039999935427,26,85.71428571428571,
SASO1010,8,neg,0,neg0_id10_im17.bmp_neg0_id17_im8.bmp,['Im_BenStiller.png', 'Im_KeanuReeves.png', 'Im_JustinTimberlake.png', 'Im_DanielCraig.png', 'Im_DanielRadcliffe.png', 'Im_BradPitt.png', 'Im_RobertPattinson.png', 'Im_LeonardoDiCaprio.png', 'Im_GeorgeClooney.png', 'Im_PatrickDempsey.png'],diff,1,0.5583467000014934,27,85.71428571428571,
SASO1010,8,neg,fs,negfs_id5_im10.bmp_negfs_id2_im2.bmp,['Im_BenStiller.png', 'Im_KeanuReeves.png', 'Im_JustinTimberlake.png', 'Im_DanielCraig.png', 'Im_DanielRadcliffe.png', 'Im_BradPitt.png', 'Im_RobertPattinson.png', 'Im_LeonardoDiCaprio.png', 'Im_GeorgeClooney.png', 'Im_PatrickDempsey.png'],diff,1,0.40843710000081046,28,85.71428571428571,
SASO1010,8,neg,90,neg90_id19_im4.bmp_neg90_id7_im15.bmp,['Im_BenStiller.png', 'Im_KeanuReeves.png', 'Im_JustinTimberlake.png', 'Im_DanielCraig.png', 'Im_DanielRadcliffe.png', 'Im_BradPitt.png', 'Im_RobertPattinson.png', 'Im_LeonardoDiCaprio.png', 'Im_GeorgeClooney.png', 'Im_PatrickDempsey.png'],diff,1,0.9835271000010835,29,85.71428571428571,
SASO1010,8,neg,150,neg150_id5_im1.bmp_neg150_id10_im1.bmp,['Im_BenStiller.png', 'Im_KeanuReeves.png', 'Im_JustinTimberlake.png', 'Im_DanielCraig.png', 'Im_DanielRadcliffe.png', 'Im_BradPitt.png', 'Im_RobertPattinson.png', 'Im_LeonardoDiCaprio.png', 'Im_GeorgeClooney.png', 'Im_PatrickDempsey.png'],diff,1,0.40835970000080124,30,85.71428571428571,
SASO1010,8,neg,60,neg60_id19_im4.bmp_neg60_id7_im15.bmp,['Im_BenStiller.png', 'Im_KeanuReeves.png', 'Im_JustinTimberlake.png', 'Im_DanielCraig.png', 'Im_DanielRadcliffe.png', 'Im_BradPitt.png', 'Im_RobertPattinson.png', 'Im_LeonardoDiCaprio.png', 'Im_GeorgeClooney.png', 'Im_PatrickDempsey.png'],diff,1,0.4251921000013681,31,85.71428571428571,
SASO1010,8,neg,30,neg30_id13_im10.bmp_neg30_id13_im15.bmp,['Im_BenStiller.png', 'Im_KeanuReeves.png', 'Im_JustinTimberlake.png', 'Im_DanielCraig.png', 'Im_DanielRadcliffe.png', 'Im_BradPitt.png', 'Im_RobertPattinson.png', 'Im_LeonardoDiCaprio.png', 'Im_GeorgeClooney.png', 'Im_PatrickDempsey.png'],diff,0,0.4668688000001566,31,85.71428571428571,
SASO1010,9,pos,30,pos30_id7_im14.bmp_pos30_id4_im20.bmp,['Im_BenStiller.png', 'Im_KeanuReeves.png', 'Im_JustinTimberlake.png', 'Im_DanielCraig.png', 'Im_DanielRadcliffe.png', 'Im_BradPitt.png', 'Im_RobertPattinson.png', 'Im_LeonardoDiCaprio.png', 'Im_GeorgeClooney.png', 'Im_PatrickDempsey.png'],diff,1,0.5667424000002939,1,73.80952380952381,
SASO1010,9,pos,fs,posfs_id2_im3.bmp_posfs_id4_im20.bmp,['Im_BenStiller.png', 'Im_KeanuReeves.png', 'Im_JustinTimberlake.png', 'Im_DanielCraig.png', 'Im_DanielRadcliffe.png', 'Im_BradPitt.png', 'Im_RobertPattinson.png', 'Im_LeonardoDiCaprio.png', 'Im_GeorgeClooney.png', 'Im_PatrickDempsey.png'],diff,1,0.41672769999968295,2,73.80952380952381,
SASO1010,9,pos,60,pos60_id4_im20.bmp_pos60_id4_im7.bmp,['Im_BenStiller.png', 'Im_KeanuReeves.png', 'Im_JustinTimberlake.png', 'Im_DanielCraig.png', 'Im_DanielRadcliffe.png', 'Im_BradPitt.png', 'Im_RobertPattinson.png', 'Im_LeonardoDiCaprio.png', 'Im_GeorgeClooney.png', 'Im_PatrickDempsey.png'],same,1,0.42518290000043635,3,73.80952380952381,
SASO1010,9,pos,120,pos120_id3_im8.bmp_pos120_id3_im17.bmp,['Im_BenStiller.png', 'Im_KeanuReeves.png', 'Im_JustinTimberlake.png', 'Im_DanielCraig.png', 'Im_DanielRadcliffe.png', 'Im_BradPitt.png', 'Im_RobertPattinson.png', 'Im_LeonardoDiCaprio.png', 'Im_GeorgeClooney.png', 'Im_PatrickDempsey.png'],same,1,0.6502497000001313,4,73.80952380952381,
SASO1010,9,pos,90,pos90_id19_im27.bmp_pos90_id11_im10.bmp,['Im_BenStiller.png', 'Im_KeanuReeves.png', 'Im_JustinTimberlake.png', 'Im_DanielCraig.png', 'Im_DanielRadcliffe.png', 'Im_BradPitt.png', 'Im_RobertPattinson.png', 'Im_LeonardoDiCaprio.png', 'Im_GeorgeClooney.png', 'Im_PatrickDempsey.png'],diff,1,0.4500152000000526,5,73.80952380952381,
SASO1010,9,pos,90,pos90_id10_im17.bmp_pos90_id10_im18.bmp,['Im_BenStiller.png', 'Im_KeanuReeves.png', 'Im_JustinTimberlake.png', 'Im_DanielCraig.png', 'Im_DanielRadcliffe.png', 'Im_BradPitt.png', 'Im_RobertPattinson.png', 'Im_LeonardoDiCaprio.png', 'Im_GeorgeClooney.png', 'Im_PatrickDempsey.png'],same,1,0.4169000000001688,6,73.80952380952381,
SASO1010,9,pos,150,pos150_id11_im2.bmp_pos150_id11_im10.bmp,['Im_BenStiller.png', 'Im_KeanuReeves.png', 'Im_JustinTimberlake.png', 'Im_DanielCraig.png', 'Im_DanielRadcliffe.png', 'Im_BradPitt.png', 'Im_RobertPattinson.png', 'Im_LeonardoDiCaprio.png', 'Im_GeorgeClooney.png', 'Im_PatrickDempsey.png'],same,1,0.91667790000065,7,73.80952380952381,
SASO1010,9,pos,60,pos60_id17_im8.bmp_pos60_id4_im7.bmp,['Im_BenStiller.png', 'Im_KeanuReeves.png', 'Im_JustinTimberlake.png', 'Im_DanielCraig.png', 'Im_DanielRadcliffe.png', 'Im_BradPitt.png', 'Im_RobertPattinson.png', 'Im_LeonardoDiCaprio.png', 'Im_GeorgeClooney.png', 'Im_PatrickDempsey.png'],diff,1,0.4166535999993357,8,73.80952380952381,
SASO1010,9,pos,120,pos120_id17_im9.bmp_pos120_id17_im8.bmp,['Im_BenStiller.png', 'Im_KeanuReeves.png', 'Im_JustinTimberlake.png', 'Im_DanielCraig.png', 'Im_DanielRadcliffe.png', 'Im_BradPitt.png', 'Im_RobertPattinson.png', 'Im_LeonardoDiCaprio.png', 'Im_GeorgeClooney.png', 'Im_PatrickDempsey.png'],same,1,0.42501739999897836,9,73.80952380952381,
SASO1010,9,pos,fs,posfs_id4_im20.bmp_posfs_id4_im7.bmp,['Im_BenStiller.png', 'Im_KeanuReeves.png', 'Im_JustinTimberlake.png', 'Im_DanielCraig.png', 'Im_DanielRadcliffe.png', 'Im_BradPitt.png', 'Im_RobertPattinson.png', 'Im_LeonardoDiCaprio.png', 'Im_GeorgeClooney.png', 'Im_PatrickDempsey.png'],same,1,0.41688650000105554,10,73.80952380952381,
SASO1010,9,pos,0,pos0_id5_im1.bmp_pos0_id5_im10.bmp,['Im_BenStiller.png', 'Im_KeanuReeves.png', 'Im_JustinTimberlake.png', 'Im_DanielCraig.png', 'Im_DanielRadcliffe.png', 'Im_BradPitt.png', 'Im_RobertPattinson.png', 'Im_LeonardoDiCaprio.png', 'Im_GeorgeClooney.png', 'Im_PatrickDempsey.png'],same,1,0.4251631000006455,11,73.80952380952381,
SASO1010,9,pos,0,pos0_id7_im15.bmp_pos0_id2_im16.bmp,['Im_BenStiller.png', 'Im_KeanuReeves.png', 'Im_JustinTimberlake.png', 'Im_DanielCraig.png', 'Im_DanielRadcliffe.png', 'Im_BradPitt.png', 'Im_RobertPattinson.png', 'Im_LeonardoDiCaprio.png', 'Im_GeorgeClooney.png', 'Im_PatrickDempsey.png'],diff,1,0.4250960999997915,12,73.80952380952381,
SASO1010,9,pos,30,pos30_id11_im10.bmp_pos30_id11_im2.bmp,['Im_BenStiller.png', 'Im_KeanuReeves.png', 'Im_JustinTimberlake.png', 'Im_DanielCraig.png', 'Im_DanielRadcliffe.png', 'Im_BradPitt.png', 'Im_RobertPattinson.png', 'Im_LeonardoDiCaprio.png', 'Im_GeorgeClooney.png', 'Im_PatrickDempsey.png'],same,1,0.6084664999998495,13,73.80952380952381,
SASO1010,9,pos,150,pos150_id3_im8.bmp_pos150_id7_im26.bmp,['Im_BenStiller.png', 'Im_KeanuReeves.png', 'Im_JustinTimberlake.png', 'Im_DanielCraig.png', 'Im_DanielRadcliffe.png', 'Im_BradPitt.png', 'Im_RobertPattinson.png', 'Im_LeonardoDiCaprio.png', 'Im_GeorgeClooney.png', 'Im_PatrickDempsey.png'],diff,1,0.4249584000008326,14,73.80952380952381,
SASO1010,10,pos,60,pos60_id7_im15.bmp_pos60_id7_im14.bmp,['Im_BenStiller.png', 'Im_KeanuReeves.png', 'Im_JustinTimberlake.png', 'Im_DanielCraig.png', 'Im_DanielRadcliffe.png', 'Im_BradPitt.png', 'Im_RobertPattinson.png', 'Im_LeonardoDiCaprio.png', 'Im_GeorgeClooney.png', 'Im_PatrickDempsey.png'],same,1,0.4170721999998932,15,73.80952380952381,
SASO1010,10,pos,60,pos60_id3_im17.bmp_pos60_id3_im6.bmp,['Im_BenStiller.png', 'Im_KeanuReeves.png', 'Im_JustinTimberlake.png', 'Im_DanielCraig.png', 'Im_DanielRadcliffe.png', 'Im_BradPitt.png', 'Im_RobertPattinson.png', 'Im_LeonardoDiCaprio.png', 'Im_GeorgeClooney.png', 'Im_PatrickDempsey.png'],diff,0,0.42488589999993565,15,73.80952380952381,
SASO1010,10,pos,0,pos0_id5_im20.bmp_pos0_id2_im2.bmp,['Im_BenStiller.png', 'Im_KeanuReeves.png', 'Im_JustinTimberlake.png', 'Im_DanielCraig.png', 'Im_DanielRadcliffe.png', 'Im_BradPitt.png', 'Im_RobertPattinson.png', 'Im_LeonardoDiCaprio.png', 'Im_GeorgeClooney.png', 'Im_PatrickDempsey.png'],diff,1,0.41675150000082795,16,73.80952380952381,
SASO1010,10,pos,90,pos90_id10_im17.bmp_pos90_id3_im6.bmp,['Im_BenStiller.png', 'Im_KeanuReeves.png', 'Im_JustinTimberlake.png', 'Im_DanielCraig.png', 'Im_DanielRadcliffe.png', 'Im_BradPitt.png', 'Im_RobertPattinson.png', 'Im_LeonardoDiCaprio.png', 'Im_GeorgeClooney.png', 'Im_PatrickDempsey.png'],same,0,0.6336025999989943,16,73.80952380952381,
SASO1010,10,pos,120,pos120_id3_im17.bmp_pos120_id11_im2.bmp,['Im_BenStiller.png', 'Im_KeanuReeves.png', 'Im_JustinTimberlake.png', 'Im_DanielCraig.png', 'Im_DanielRadcliffe.png', 'Im_BradPitt.png', 'Im_RobertPattinson.png', 'Im_LeonardoDiCaprio.png', 'Im_GeorgeClooney.png', 'Im_PatrickDempsey.png'],diff,1,0.42499820000011823,17,73.80952380952381,
SASO1010,10,pos,150,pos150_id19_im8.bmp_pos150_id13_im29.bmp,['Im_BenStiller.png', 'Im_KeanuReeves.png', 'Im_JustinTimberlake.png', 'Im_DanielCraig.png', 'Im_DanielRadcliffe.png', 'Im_BradPitt.png', 'Im_RobertPattinson.png', 'Im_LeonardoDiCaprio.png', 'Im_GeorgeClooney.png', 'Im_PatrickDempsey.png'],diff,1,0.7341340000002674,18,73.80952380952381,
SASO1010,10,pos,120,pos120_id5_im20.bmp_pos120_id5_im1.bmp,['Im_BenStiller.png', 'Im_KeanuReeves.png', 'Im_JustinTimberlake.png', 'Im_DanielCraig.png', 'Im_DanielRadcliffe.png', 'Im_BradPitt.png', 'Im_RobertPattinson.png', 'Im_LeonardoDiCaprio.png', 'Im_GeorgeClooney.png', 'Im_PatrickDempsey.png'],same,1,0.41675020000002405,19,73.80952380952381,
SASO1010,10,pos,90,pos90_id19_im4.bmp_pos90_id19_im27.bmp,['Im_BenStiller.png', 'Im_KeanuReeves.png', 'Im_JustinTimberlake.png', 'Im_DanielCraig.png', 'Im_DanielRadcliffe.png', 'Im_BradPitt.png', 'Im_RobertPattinson.png', 'Im_LeonardoDiCaprio.png', 'Im_GeorgeClooney.png', 'Im_PatrickDempsey.png'],same,1,0.4166791000006924,20,73.80952380952381,
SASO1010,10,pos,0,pos0_id7_im26.bmp_pos0_id7_im14.bmp,['Im_BenStiller.png', 'Im_KeanuReeves.png', 'Im_JustinTimberlake.png', 'Im_DanielCraig.png', 'Im_DanielRadcliffe.png', 'Im_BradPitt.png', 'Im_RobertPattinson.png', 'Im_LeonardoDiCaprio.png', 'Im_GeorgeClooney.png', 'Im_PatrickDempsey.png'],same,1,0.6757242000003316,21,73.80952380952381,
SASO1010,10,pos,150,pos150_id7_im26.bmp_pos150_id19_im4.bmp,['Im_BenStiller.png', 'Im_KeanuReeves.png', 'Im_JustinTimberlake.png', 'Im_DanielCraig.png', 'Im_DanielRadcliffe.png', 'Im_BradPitt.png', 'Im_RobertPattinson.png', 'Im_LeonardoDiCaprio.png', 'Im_GeorgeClooney.png', 'Im_PatrickDempsey.png'],diff,1,0.533210900000995,22,73.80952380952381,
SASO1010,10,pos,fs,posfs_id13_im29.bmp_posfs_id7_im14.bmp,['Im_BenStiller.png', 'Im_KeanuReeves.png', 'Im_JustinTimberlake.png', 'Im_DanielCraig.png', 'Im_DanielRadcliffe.png', 'Im_BradPitt.png', 'Im_RobertPattinson.png', 'Im_LeonardoDiCaprio.png', 'Im_GeorgeClooney.png', 'Im_PatrickDempsey.png'],diff,1,0.41693560000021535,23,73.80952380952381,
SASO1010,10,pos,30,pos30_id19_im8.bmp_pos30_id19_im4.bmp,['Im_BenStiller.png', 'Im_KeanuReeves.png', 'Im_JustinTimberlake.png', 'Im_DanielCraig.png', 'Im_DanielRadcliffe.png', 'Im_BradPitt.png', 'Im_RobertPattinson.png', 'Im_LeonardoDiCaprio.png', 'Im_GeorgeClooney.png', 'Im_PatrickDempsey.png'],same,1,1.0834343999995326,24,73.80952380952381,
SASO1010,10,pos,fs,posfs_id5_im10.bmp_posfs_id5_im1.bmp,['Im_BenStiller.png', 'Im_KeanuReeves.png', 'Im_JustinTimberlake.png', 'Im_DanielCraig.png', 'Im_DanielRadcliffe.png', 'Im_BradPitt.png', 'Im_RobertPattinson.png', 'Im_LeonardoDiCaprio.png', 'Im_GeorgeClooney.png', 'Im_PatrickDempsey.png'],same,1,0.48348079999959737,25,73.80952380952381,
SASO1010,10,pos,30,pos30_id3_im6.bmp_pos30_id10_im17.bmp,['Im_BenStiller.png', 'Im_KeanuReeves.png', 'Im_JustinTimberlake.png', 'Im_DanielCraig.png', 'Im_DanielRadcliffe.png', 'Im_BradPitt.png', 'Im_RobertPattinson.png', 'Im_LeonardoDiCaprio.png', 'Im_GeorgeClooney.png', 'Im_PatrickDempsey.png'],diff,1,0.5087320000002364,26,73.80952380952381,
SASO1010,11,inv,60,pos60_id17_im14.bmp_pos60_id17_im8.bmp,['Im_BenStiller.png', 'Im_KeanuReeves.png', 'Im_JustinTimberlake.png', 'Im_DanielCraig.png', 'Im_DanielRadcliffe.png', 'Im_BradPitt.png', 'Im_RobertPattinson.png', 'Im_LeonardoDiCaprio.png', 'Im_GeorgeClooney.png', 'Im_PatrickDempsey.png'],diff,0,0.7003010000007635,26,73.80952380952381,
SASO1010,11,inv,150,pos150_id19_im4.bmp_pos150_id19_im27.bmp,['Im_BenStiller.png', 'Im_KeanuReeves.png', 'Im_JustinTimberlake.png', 'Im_DanielCraig.png', 'Im_DanielRadcliffe.png', 'Im_BradPitt.png', 'Im_RobertPattinson.png', 'Im_LeonardoDiCaprio.png', 'Im_GeorgeClooney.png', 'Im_PatrickDempsey.png'],diff,0,0.674984699999186,26,73.80952380952381,
SASO1010,11,inv,0,pos0_id19_im8.bmp_pos0_id13_im29.bmp,['Im_BenStiller.png', 'Im_KeanuReeves.png', 'Im_JustinTimberlake.png', 'Im_DanielCraig.png', 'Im_DanielRadcliffe.png', 'Im_BradPitt.png', 'Im_RobertPattinson.png', 'Im_LeonardoDiCaprio.png', 'Im_GeorgeClooney.png', 'Im_PatrickDempsey.png'],same,0,0.6332714000000124,26,73.80952380952381,
SASO1010,11,inv,120,pos120_id7_im14.bmp_pos120_id7_im26.bmp,['Im_BenStiller.png', 'Im_KeanuReeves.png', 'Im_JustinTimberlake.png', 'Im_DanielCraig.png', 'Im_DanielRadcliffe.png', 'Im_BradPitt.png', 'Im_RobertPattinson.png', 'Im_LeonardoDiCaprio.png', 'Im_GeorgeClooney.png', 'Im_PatrickDempsey.png'],same,1,1.0499859999999899,27,73.80952380952381,
SASO1010,11,inv,fs,posfs_id19_im8.bmp_posfs_id19_im27.bmp,['Im_BenStiller.png', 'Im_KeanuReeves.png', 'Im_JustinTimberlake.png', 'Im_DanielCraig.png', 'Im_DanielRadcliffe.png', 'Im_BradPitt.png', 'Im_RobertPattinson.png', 'Im_LeonardoDiCaprio.png', 'Im_GeorgeClooney.png', 'Im_PatrickDempsey.png'],same,1,1.4168544000003749,28,73.80952380952381,
SASO1010,11,inv,30,pos30_id13_im10.bmp_pos30_id13_im15.bmp,['Im_BenStiller.png', 'Im_KeanuReeves.png', 'Im_JustinTimberlake.png', 'Im_DanielCraig.png', 'Im_DanielRadcliffe.png', 'Im_BradPitt.png', 'Im_RobertPattinson.png', 'Im_LeonardoDiCaprio.png', 'Im_GeorgeClooney.png', 'Im_PatrickDempsey.png'],diff,0,0.5334602000002633,28,73.80952380952381,
SASO1010,11,inv,90,pos90_id11_im1.bmp_pos90_id19_im8.bmp,['Im_BenStiller.png', 'Im_KeanuReeves.png', 'Im_JustinTimberlake.png', 'Im_DanielCraig.png', 'Im_DanielRadcliffe.png', 'Im_BradPitt.png', 'Im_RobertPattinson.png', 'Im_LeonardoDiCaprio.png', 'Im_GeorgeClooney.png', 'Im_PatrickDempsey.png'],same,0,0.758254800000941,28,73.80952380952381,
SASO1010,11,inv,90,pos90_id3_im8.bmp_pos90_id17_im14.bmp,['Im_BenStiller.png', 'Im_KeanuReeves.png', 'Im_JustinTimberlake.png', 'Im_DanielCraig.png', 'Im_DanielRadcliffe.png', 'Im_BradPitt.png', 'Im_RobertPattinson.png', 'Im_LeonardoDiCaprio.png', 'Im_GeorgeClooney.png', 'Im_PatrickDempsey.png'],diff,1,0.833593600000313,29,73.80952380952381,
SASO1010,11,inv,120,pos120_id7_im15.bmp_pos120_id7_im26.bmp,['Im_BenStiller.png', 'Im_KeanuReeves.png', 'Im_JustinTimberlake.png', 'Im_DanielCraig.png', 'Im_DanielRadcliffe.png', 'Im_BradPitt.png', 'Im_RobertPattinson.png', 'Im_LeonardoDiCaprio.png', 'Im_GeorgeClooney.png', 'Im_PatrickDempsey.png'],same,1,0.600281900000482,30,73.80952380952381,
SASO1010,11,inv,30,pos30_id3_im8.bmp_pos30_id3_im17.bmp,['Im_BenStiller.png', 'Im_KeanuReeves.png', 'Im_JustinTimberlake.png', 'Im_DanielCraig.png', 'Im_DanielRadcliffe.png', 'Im_BradPitt.png', 'Im_RobertPattinson.png', 'Im_LeonardoDiCaprio.png', 'Im_GeorgeClooney.png', 'Im_PatrickDempsey.png'],same,1,0.46730589999970107,31,73.80952380952381,
SASO1010,11,inv,fs,posfs_id17_im9.bmp_posfs_id17_im14.bmp,['Im_BenStiller.png', 'Im_KeanuReeves.png', 'Im_JustinTimberlake.png', 'Im_DanielCraig.png', 'Im_DanielRadcliffe.png', 'Im_BradPitt.png', 'Im_RobertPattinson.png', 'Im_LeonardoDiCaprio.png', 'Im_GeorgeClooney.png', 'Im_PatrickDempsey.png'],same,1,0.5836226999999781,32,73.80952380952381,
SASO1010,11,inv,0,pos0_id3_im17.bmp_pos0_id3_im6.bmp,['Im_BenStiller.png', 'Im_KeanuReeves.png', 'Im_JustinTimberlake.png', 'Im_DanielCraig.png', 'Im_DanielRadcliffe.png', 'Im_BradPitt.png', 'Im_RobertPattinson.png', 'Im_LeonardoDiCaprio.png', 'Im_GeorgeClooney.png', 'Im_PatrickDempsey.png'],same,1,0.42502320000130567,33,73.80952380952381,
SASO1010,11,inv,60,pos60_id2_im2.bmp_pos60_id2_im3.bmp,['Im_BenStiller.png', 'Im_KeanuReeves.png', 'Im_JustinTimberlake.png', 'Im_DanielCraig.png', 'Im_DanielRadcliffe.png', 'Im_BradPitt.png', 'Im_RobertPattinson.png', 'Im_LeonardoDiCaprio.png', 'Im_GeorgeClooney.png', 'Im_PatrickDempsey.png'],same,1,0.9334281999999803,34,73.80952380952381,
SASO1010,11,inv,150,pos150_id13_im15.bmp_pos150_id5_im10.bmp,['Im_BenStiller.png', 'Im_KeanuReeves.png', 'Im_JustinTimberlake.png', 'Im_DanielCraig.png', 'Im_DanielRadcliffe.png', 'Im_BradPitt.png', 'Im_RobertPattinson.png', 'Im_LeonardoDiCaprio.png', 'Im_GeorgeClooney.png', 'Im_PatrickDempsey.png'],diff,1,0.7499198999994405,35,73.80952380952381,
SASO1010,12,neg,0,neg0_id13_im10.bmp_neg0_id2_im16.bmp,['Im_BenStiller.png', 'Im_KeanuReeves.png', 'Im_JustinTimberlake.png', 'Im_DanielCraig.png', 'Im_DanielRadcliffe.png', 'Im_BradPitt.png', 'Im_RobertPattinson.png', 'Im_LeonardoDiCaprio.png', 'Im_GeorgeClooney.png', 'Im_PatrickDempsey.png'],diff,1,1.1000122000004922,1,83.33333333333333,
SASO1010,12,neg,fs,negfs_id19_im4.bmp_negfs_id19_im8.bmp,['Im_BenStiller.png', 'Im_KeanuReeves.png', 'Im_JustinTimberlake.png', 'Im_DanielCraig.png', 'Im_DanielRadcliffe.png', 'Im_BradPitt.png', 'Im_RobertPattinson.png', 'Im_LeonardoDiCaprio.png', 'Im_GeorgeClooney.png', 'Im_PatrickDempsey.png'],same,1,0.4167808000001969,2,83.33333333333333,
SASO1010,12,neg,60,neg60_id17_im9.bmp_neg60_id17_im14.bmp,['Im_BenStiller.png', 'Im_KeanuReeves.png', 'Im_JustinTimberlake.png', 'Im_DanielCraig.png', 'Im_DanielRadcliffe.png', 'Im_BradPitt.png', 'Im_RobertPattinson.png', 'Im_LeonardoDiCaprio.png', 'Im_GeorgeClooney.png', 'Im_PatrickDempsey.png'],same,1,0.5083233000004839,3,83.33333333333333,
SASO1010,12,neg,150,neg150_id13_im10.bmp_neg150_id2_im16.bmp,['Im_BenStiller.png', 'Im_KeanuReeves.png', 'Im_JustinTimberlake.png', 'Im_DanielCraig.png', 'Im_DanielRadcliffe.png', 'Im_BradPitt.png', 'Im_RobertPattinson.png', 'Im_LeonardoDiCaprio.png', 'Im_GeorgeClooney.png', 'Im_PatrickDempsey.png'],diff,1,0.5251237000011315,4,83.33333333333333,
SASO1010,12,neg,120,neg120_id10_im1.bmp_neg120_id3_im17.bmp,['Im_BenStiller.png', 'Im_KeanuReeves.png', 'Im_JustinTimberlake.png', 'Im_DanielCraig.png', 'Im_DanielRadcliffe.png', 'Im_BradPitt.png', 'Im_RobertPattinson.png', 'Im_LeonardoDiCaprio.png', 'Im_GeorgeClooney.png', 'Im_PatrickDempsey.png'],diff,1,0.42511759999979404,5,83.33333333333333,
SASO1010,12,neg,30,neg30_id10_im18.bmp_neg30_id10_im17.bmp,['Im_BenStiller.png', 'Im_KeanuReeves.png', 'Im_JustinTimberlake.png', 'Im_DanielCraig.png', 'Im_DanielRadcliffe.png', 'Im_BradPitt.png', 'Im_RobertPattinson.png', 'Im_LeonardoDiCaprio.png', 'Im_GeorgeClooney.png', 'Im_PatrickDempsey.png'],same,1,0.5002824000002875,6,83.33333333333333,
SASO1010,12,neg,90,neg90_id11_im1.bmp_neg90_id13_im15.bmp,['Im_BenStiller.png', 'Im_KeanuReeves.png', 'Im_JustinTimberlake.png', 'Im_DanielCraig.png', 'Im_DanielRadcliffe.png', 'Im_BradPitt.png', 'Im_RobertPattinson.png', 'Im_LeonardoDiCaprio.png', 'Im_GeorgeClooney.png', 'Im_PatrickDempsey.png'],diff,1,0.42508039999847824,7,83.33333333333333,
SASO1010,12,neg,30,neg30_id11_im2.bmp_neg30_id11_im1.bmp,['Im_BenStiller.png', 'Im_KeanuReeves.png', 'Im_JustinTimberlake.png', 'Im_DanielCraig.png', 'Im_DanielRadcliffe.png', 'Im_BradPitt.png', 'Im_RobertPattinson.png', 'Im_LeonardoDiCaprio.png', 'Im_GeorgeClooney.png', 'Im_PatrickDempsey.png'],same,1,0.5081561999995756,8,83.33333333333333,
SASO1010,12,neg,150,neg150_id2_im3.bmp_neg150_id4_im20.bmp,['Im_BenStiller.png', 'Im_KeanuReeves.png', 'Im_JustinTimberlake.png', 'Im_DanielCraig.png', 'Im_DanielRadcliffe.png', 'Im_BradPitt.png', 'Im_RobertPattinson.png', 'Im_LeonardoDiCaprio.png', 'Im_GeorgeClooney.png', 'Im_PatrickDempsey.png'],diff,1,0.42511650000051304,9,83.33333333333333,
SASO1010,12,neg,60,neg60_id2_im16.bmp_neg60_id2_im3.bmp,['Im_BenStiller.png', 'Im_KeanuReeves.png', 'Im_JustinTimberlake.png', 'Im_DanielCraig.png', 'Im_DanielRadcliffe.png', 'Im_BradPitt.png', 'Im_RobertPattinson.png', 'Im_LeonardoDiCaprio.png', 'Im_GeorgeClooney.png', 'Im_PatrickDempsey.png'],same,1,0.5000563000012335,10,83.33333333333333,
SASO1010,12,neg,0,neg0_id2_im16.bmp_neg0_id7_im15.bmp,['Im_BenStiller.png', 'Im_KeanuReeves.png', 'Im_JustinTimberlake.png', 'Im_DanielCraig.png', 'Im_DanielRadcliffe.png', 'Im_BradPitt.png', 'Im_RobertPattinson.png', 'Im_LeonardoDiCaprio.png', 'Im_GeorgeClooney.png', 'Im_PatrickDempsey.png'],same,0,0.725145700000212,10,83.33333333333333,
SASO1010,12,neg,120,neg120_id5_im1.bmp_neg120_id5_im10.bmp,['Im_BenStiller.png', 'Im_KeanuReeves.png', 'Im_JustinTimberlake.png', 'Im_DanielCraig.png', 'Im_DanielRadcliffe.png', 'Im_BradPitt.png', 'Im_RobertPattinson.png', 'Im_LeonardoDiCaprio.png', 'Im_GeorgeClooney.png', 'Im_PatrickDempsey.png'],same,1,0.42522879999887664,11,83.33333333333333,
SASO1010,12,neg,90,neg90_id11_im10.bmp_neg90_id19_im27.bmp,['Im_BenStiller.png', 'Im_KeanuReeves.png', 'Im_JustinTimberlake.png', 'Im_DanielCraig.png', 'Im_DanielRadcliffe.png', 'Im_BradPitt.png', 'Im_RobertPattinson.png', 'Im_LeonardoDiCaprio.png', 'Im_GeorgeClooney.png', 'Im_PatrickDempsey.png'],diff,1,0.4749632000002748,12,83.33333333333333,
SASO1010,12,neg,fs,negfs_id17_im9.bmp_negfs_id17_im8.bmp,['Im_BenStiller.png', 'Im_KeanuReeves.png', 'Im_JustinTimberlake.png', 'Im_DanielCraig.png', 'Im_DanielRadcliffe.png', 'Im_BradPitt.png', 'Im_RobertPattinson.png', 'Im_LeonardoDiCaprio.png', 'Im_GeorgeClooney.png', 'Im_PatrickDempsey.png'],diff,0,2.5084177999997337,12,83.33333333333333,
SASO1010,13,pos,150,pos150_id19_im27.bmp_pos150_id4_im15.bmp,['Im_BenStiller.png', 'Im_KeanuReeves.png', 'Im_JustinTimberlake.png', 'Im_DanielCraig.png', 'Im_DanielRadcliffe.png', 'Im_BradPitt.png', 'Im_RobertPattinson.png', 'Im_LeonardoDiCaprio.png', 'Im_GeorgeClooney.png', 'Im_PatrickDempsey.png'],diff,1,0.7091278999996575,13,83.33333333333333,
SASO1010,13,pos,30,pos30_id13_im15.bmp_pos30_id11_im1.bmp,['Im_BenStiller.png', 'Im_KeanuReeves.png', 'Im_JustinTimberlake.png', 'Im_DanielCraig.png', 'Im_DanielRadcliffe.png', 'Im_BradPitt.png', 'Im_RobertPattinson.png', 'Im_LeonardoDiCaprio.png', 'Im_GeorgeClooney.png', 'Im_PatrickDempsey.png'],diff,1,0.5167289999990317,14,83.33333333333333,
SASO1010,13,pos,30,pos30_id7_im15.bmp_pos30_id7_im26.bmp,['Im_BenStiller.png', 'Im_KeanuReeves.png', 'Im_JustinTimberlake.png', 'Im_DanielCraig.png', 'Im_DanielRadcliffe.png', 'Im_BradPitt.png', 'Im_RobertPattinson.png', 'Im_LeonardoDiCaprio.png', 'Im_GeorgeClooney.png', 'Im_PatrickDempsey.png'],same,1,0.716968699998688,15,83.33333333333333,
SASO1010,13,pos,60,pos60_id17_im9.bmp_pos60_id17_im8.bmp,['Im_BenStiller.png', 'Im_KeanuReeves.png', 'Im_JustinTimberlake.png', 'Im_DanielCraig.png', 'Im_DanielRadcliffe.png', 'Im_BradPitt.png', 'Im_RobertPattinson.png', 'Im_LeonardoDiCaprio.png', 'Im_GeorgeClooney.png', 'Im_PatrickDempsey.png'],same,1,0.558660200000304,16,83.33333333333333,
SASO1010,13,pos,0,pos0_id7_im26.bmp_pos0_id19_im4.bmp,['Im_BenStiller.png', 'Im_KeanuReeves.png', 'Im_JustinTimberlake.png', 'Im_DanielCraig.png', 'Im_DanielRadcliffe.png', 'Im_BradPitt.png', 'Im_RobertPattinson.png', 'Im_LeonardoDiCaprio.png', 'Im_GeorgeClooney.png', 'Im_PatrickDempsey.png'],diff,1,0.5753119999990304,17,83.33333333333333,
SASO1010,13,pos,60,pos60_id2_im2.bmp_pos60_id5_im20.bmp,['Im_BenStiller.png', 'Im_KeanuReeves.png', 'Im_JustinTimberlake.png', 'Im_DanielCraig.png', 'Im_DanielRadcliffe.png', 'Im_BradPitt.png', 'Im_RobertPattinson.png', 'Im_LeonardoDiCaprio.png', 'Im_GeorgeClooney.png', 'Im_PatrickDempsey.png'],diff,1,0.51669050000055,18,83.33333333333333,
SASO1010,13,pos,0,pos0_id4_im15.bmp_pos0_id5_im1.bmp,['Im_BenStiller.png', 'Im_KeanuReeves.png', 'Im_JustinTimberlake.png', 'Im_DanielCraig.png', 'Im_DanielRadcliffe.png', 'Im_BradPitt.png', 'Im_RobertPattinson.png', 'Im_LeonardoDiCaprio.png', 'Im_GeorgeClooney.png', 'Im_PatrickDempsey.png'],diff,1,0.4919319999989966,19,83.33333333333333,
SASO1010,13,pos,120,pos120_id19_im8.bmp_pos120_id13_im29.bmp,['Im_BenStiller.png', 'Im_KeanuReeves.png', 'Im_JustinTimberlake.png', 'Im_DanielCraig.png', 'Im_DanielRadcliffe.png', 'Im_BradPitt.png', 'Im_RobertPattinson.png', 'Im_LeonardoDiCaprio.png', 'Im_GeorgeClooney.png', 'Im_PatrickDempsey.png'],same,0,0.7500275000002148,19,83.33333333333333,
SASO1010,13,pos,90,pos90_id2_im2.bmp_pos90_id5_im10.bmp,['Im_BenStiller.png', 'Im_KeanuReeves.png', 'Im_JustinTimberlake.png', 'Im_DanielCraig.png', 'Im_DanielRadcliffe.png', 'Im_BradPitt.png', 'Im_RobertPattinson.png', 'Im_LeonardoDiCaprio.png', 'Im_GeorgeClooney.png', 'Im_PatrickDempsey.png'],diff,1,0.6252933999985544,20,83.33333333333333,
SASO1010,13,pos,90,pos90_id5_im1.bmp_pos90_id5_im20.bmp,['Im_BenStiller.png', 'Im_KeanuReeves.png', 'Im_JustinTimberlake.png', 'Im_DanielCraig.png', 'Im_DanielRadcliffe.png', 'Im_BradPitt.png', 'Im_RobertPattinson.png', 'Im_LeonardoDiCaprio.png', 'Im_GeorgeClooney.png', 'Im_PatrickDempsey.png'],same,1,0.7418775999994978,21,83.33333333333333,
SASO1010,13,pos,fs,posfs_id19_im27.bmp_posfs_id4_im15.bmp,['Im_BenStiller.png', 'Im_KeanuReeves.png', 'Im_JustinTimberlake.png', 'Im_DanielCraig.png', 'Im_DanielRadcliffe.png', 'Im_BradPitt.png', 'Im_RobertPattinson.png', 'Im_LeonardoDiCaprio.png', 'Im_GeorgeClooney.png', 'Im_PatrickDempsey.png'],diff,1,1.2336218000000372,22,83.33333333333333,
SASO1010,13,pos,120,pos120_id11_im2.bmp_pos120_id10_im18.bmp,['Im_BenStiller.png', 'Im_KeanuReeves.png', 'Im_JustinTimberlake.png', 'Im_DanielCraig.png', 'Im_DanielRadcliffe.png', 'Im_BradPitt.png', 'Im_RobertPattinson.png', 'Im_LeonardoDiCaprio.png', 'Im_GeorgeClooney.png', 'Im_PatrickDempsey.png'],diff,1,0.8668300000008458,23,83.33333333333333,
SASO1010,13,pos,150,pos150_id17_im14.bmp_pos150_id17_im9.bmp,['Im_BenStiller.png', 'Im_KeanuReeves.png', 'Im_JustinTimberlake.png', 'Im_DanielCraig.png', 'Im_DanielRadcliffe.png', 'Im_BradPitt.png', 'Im_RobertPattinson.png', 'Im_LeonardoDiCaprio.png', 'Im_GeorgeClooney.png', 'Im_PatrickDempsey.png'],same,1,0.4168266999986372,24,83.33333333333333,
SASO1010,13,pos,fs,posfs_id3_im17.bmp_posfs_id10_im1.bmp,['Im_BenStiller.png', 'Im_KeanuReeves.png', 'Im_JustinTimberlake.png', 'Im_DanielCraig.png', 'Im_DanielRadcliffe.png', 'Im_BradPitt.png', 'Im_RobertPattinson.png', 'Im_LeonardoDiCaprio.png', 'Im_GeorgeClooney.png', 'Im_PatrickDempsey.png'],diff,1,0.4250835000002553,25,83.33333333333333,
SASO1010,14,inv,30,pos30_id11_im2.bmp_pos30_id11_im1.bmp,['Im_BenStiller.png', 'Im_KeanuReeves.png', 'Im_JustinTimberlake.png', 'Im_DanielCraig.png', 'Im_DanielRadcliffe.png', 'Im_BradPitt.png', 'Im_RobertPattinson.png', 'Im_LeonardoDiCaprio.png', 'Im_GeorgeClooney.png', 'Im_PatrickDempsey.png'],same,1,0.5583910000004835,26,83.33333333333333,
SASO1010,14,inv,90,pos90_id4_im15.bmp_pos90_id5_im1.bmp,['Im_BenStiller.png', 'Im_KeanuReeves.png', 'Im_JustinTimberlake.png', 'Im_DanielCraig.png', 'Im_DanielRadcliffe.png', 'Im_BradPitt.png', 'Im_RobertPattinson.png', 'Im_LeonardoDiCaprio.png', 'Im_GeorgeClooney.png', 'Im_PatrickDempsey.png'],diff,1,0.608293400000548,27,83.33333333333333,
SASO1010,14,inv,0,pos0_id19_im4.bmp_pos0_id7_im26.bmp,['Im_BenStiller.png', 'Im_KeanuReeves.png', 'Im_JustinTimberlake.png', 'Im_DanielCraig.png', 'Im_DanielRadcliffe.png', 'Im_BradPitt.png', 'Im_RobertPattinson.png', 'Im_LeonardoDiCaprio.png', 'Im_GeorgeClooney.png', 'Im_PatrickDempsey.png'],diff,1,0.4583576999993966,28,83.33333333333333,
SASO1010,14,inv,fs,posfs_id17_im8.bmp_posfs_id10_im17.bmp,['Im_BenStiller.png', 'Im_KeanuReeves.png', 'Im_JustinTimberlake.png', 'Im_DanielCraig.png', 'Im_DanielRadcliffe.png', 'Im_BradPitt.png', 'Im_RobertPattinson.png', 'Im_LeonardoDiCaprio.png', 'Im_GeorgeClooney.png', 'Im_PatrickDempsey.png'],diff,1,0.4250327000008838,29,83.33333333333333,
SASO1010,14,inv,30,pos30_id7_im15.bmp_pos30_id7_im14.bmp,['Im_BenStiller.png', 'Im_KeanuReeves.png', 'Im_JustinTimberlake.png', 'Im_DanielCraig.png', 'Im_DanielRadcliffe.png', 'Im_BradPitt.png', 'Im_RobertPattinson.png', 'Im_LeonardoDiCaprio.png', 'Im_GeorgeClooney.png', 'Im_PatrickDempsey.png'],same,1,0.45062079999843263,30,83.33333333333333,
SASO1010,14,inv,150,pos150_id3_im8.bmp_pos150_id3_im17.bmp,['Im_BenStiller.png', 'Im_KeanuReeves.png', 'Im_JustinTimberlake.png', 'Im_DanielCraig.png', 'Im_DanielRadcliffe.png', 'Im_BradPitt.png', 'Im_RobertPattinson.png', 'Im_LeonardoDiCaprio.png', 'Im_GeorgeClooney.png', 'Im_PatrickDempsey.png'],same,1,0.9083269000002474,31,83.33333333333333,
SASO1010,14,inv,120,pos120_id2_im2.bmp_pos120_id5_im10.bmp,['Im_BenStiller.png', 'Im_KeanuReeves.png', 'Im_JustinTimberlake.png', 'Im_DanielCraig.png', 'Im_DanielRadcliffe.png', 'Im_BradPitt.png', 'Im_RobertPattinson.png', 'Im_LeonardoDiCaprio.png', 'Im_GeorgeClooney.png', 'Im_PatrickDempsey.png'],diff,1,0.7667989000001398,32,83.33333333333333,
SASO1010,14,inv,0,pos0_id10_im1.bmp_pos0_id10_im18.bmp,['Im_BenStiller.png', 'Im_KeanuReeves.png', 'Im_JustinTimberlake.png', 'Im_DanielCraig.png', 'Im_DanielRadcliffe.png', 'Im_BradPitt.png', 'Im_RobertPattinson.png', 'Im_LeonardoDiCaprio.png', 'Im_GeorgeClooney.png', 'Im_PatrickDempsey.png'],same,1,0.6753922000007151,33,83.33333333333333,
SASO1010,14,inv,90,pos90_id7_im26.bmp_pos90_id7_im14.bmp,['Im_BenStiller.png', 'Im_KeanuReeves.png', 'Im_JustinTimberlake.png', 'Im_DanielCraig.png', 'Im_DanielRadcliffe.png', 'Im_BradPitt.png', 'Im_RobertPattinson.png', 'Im_LeonardoDiCaprio.png', 'Im_GeorgeClooney.png', 'Im_PatrickDempsey.png'],same,1,0.9582528000009916,34,83.33333333333333,
SASO1010,14,inv,120,pos120_id4_im7.bmp_pos120_id4_im15.bmp,['Im_BenStiller.png', 'Im_KeanuReeves.png', 'Im_JustinTimberlake.png', 'Im_DanielCraig.png', 'Im_DanielRadcliffe.png', 'Im_BradPitt.png', 'Im_RobertPattinson.png', 'Im_LeonardoDiCaprio.png', 'Im_GeorgeClooney.png', 'Im_PatrickDempsey.png'],diff,0,1.0250706000006176,34,83.33333333333333,
SASO1010,14,inv,60,pos60_id19_im8.bmp_pos60_id19_im27.bmp,['Im_BenStiller.png', 'Im_KeanuReeves.png', 'Im_JustinTimberlake.png', 'Im_DanielCraig.png', 'Im_DanielRadcliffe.png', 'Im_BradPitt.png', 'Im_RobertPattinson.png', 'Im_LeonardoDiCaprio.png', 'Im_GeorgeClooney.png', 'Im_PatrickDempsey.png'],same,1,0.5833644999984244,35,83.33333333333333,
