Sujet,Trial,Condition,Filter,Imname,Actor0,Actor1,Actor2,Actor3,Actor4,Actor5,Actor6,Actor7,Actor8,Actor9,Answer,Accu,RT,Score,Scoreperc, 
SASO1010,train,inv,150,pos150_id19_im4.bmp_pos150_id7_im15.bmp,['Im_BenStiller.png', 'Im_KeanuReeves.png', 'Im_GeorgeClooney.png', 'Im_DanielRadcliffe.png', 'Im_BradPitt.png', 'Im_LeonardoDiCaprio.png', 'Im_JustinTimberlake.png', 'Im_RobertPattinson.png', 'Im_PatrickDempsey.png', 'Im_DanielCraig.png'],diff,1,0.6919235999994271,1,0,
SASO1010,train,inv,30,pos30_id19_im8.bmp_pos30_id13_im29.bmp,['Im_BenStiller.png', 'Im_KeanuReeves.png', 'Im_GeorgeClooney.png', 'Im_DanielRadcliffe.png', 'Im_BradPitt.png', 'Im_LeonardoDiCaprio.png', 'Im_JustinTimberlake.png', 'Im_RobertPattinson.png', 'Im_PatrickDempsey.png', 'Im_DanielCraig.png'],diff,1,0.46646160000000236,2,0,
SASO1010,train,inv,30,pos30_id7_im14.bmp_pos30_id4_im20.bmp,['Im_BenStiller.png', 'Im_KeanuReeves.png', 'Im_GeorgeClooney.png', 'Im_DanielRadcliffe.png', 'Im_BradPitt.png', 'Im_LeonardoDiCaprio.png', 'Im_JustinTimberlake.png', 'Im_RobertPattinson.png', 'Im_PatrickDempsey.png', 'Im_DanielCraig.png'],diff,1,0.6083982000000105,3,0,
SASO1010,train,inv,0,pos0_id13_im10.bmp_pos0_id5_im20.bmp,['Im_BenStiller.png', 'Im_KeanuReeves.png', 'Im_GeorgeClooney.png', 'Im_DanielRadcliffe.png', 'Im_BradPitt.png', 'Im_LeonardoDiCaprio.png', 'Im_JustinTimberlake.png', 'Im_RobertPattinson.png', 'Im_PatrickDempsey.png', 'Im_DanielCraig.png'],same,0,0.6252280999997311,3,0,
SASO1010,train,inv,120,pos120_id3_im17.bmp_pos120_id3_im6.bmp,['Im_BenStiller.png', 'Im_KeanuReeves.png', 'Im_GeorgeClooney.png', 'Im_DanielRadcliffe.png', 'Im_BradPitt.png', 'Im_LeonardoDiCaprio.png', 'Im_JustinTimberlake.png', 'Im_RobertPattinson.png', 'Im_PatrickDempsey.png', 'Im_DanielCraig.png'],same,1,0.6665671999999176,4,0,
SASO1010,train,inv,60,pos60_id17_im8.bmp_pos60_id17_im9.bmp,['Im_BenStiller.png', 'Im_KeanuReeves.png', 'Im_GeorgeClooney.png', 'Im_DanielRadcliffe.png', 'Im_BradPitt.png', 'Im_LeonardoDiCaprio.png', 'Im_JustinTimberlake.png', 'Im_RobertPattinson.png', 'Im_PatrickDempsey.png', 'Im_DanielCraig.png'],diff,0,0.5174294999997073,4,0,
SASO1010,train,inv,fs,posfs_id7_im14.bmp_posfs_id13_im29.bmp,['Im_BenStiller.png', 'Im_KeanuReeves.png', 'Im_GeorgeClooney.png', 'Im_DanielRadcliffe.png', 'Im_BradPitt.png', 'Im_LeonardoDiCaprio.png', 'Im_JustinTimberlake.png', 'Im_RobertPattinson.png', 'Im_PatrickDempsey.png', 'Im_DanielCraig.png'],diff,1,0.416762199999539,5,0,
SASO1010,train,inv,120,pos120_id3_im8.bmp_pos120_id17_im14.bmp,['Im_BenStiller.png', 'Im_KeanuReeves.png', 'Im_GeorgeClooney.png', 'Im_DanielRadcliffe.png', 'Im_BradPitt.png', 'Im_LeonardoDiCaprio.png', 'Im_JustinTimberlake.png', 'Im_RobertPattinson.png', 'Im_PatrickDempsey.png', 'Im_DanielCraig.png'],diff,1,0.5999029000004157,6,0,
SASO1010,train,inv,0,pos0_id17_im14.bmp_pos0_id3_im8.bmp,['Im_BenStiller.png', 'Im_KeanuReeves.png', 'Im_GeorgeClooney.png', 'Im_DanielRadcliffe.png', 'Im_BradPitt.png', 'Im_LeonardoDiCaprio.png', 'Im_JustinTimberlake.png', 'Im_RobertPattinson.png', 'Im_PatrickDempsey.png', 'Im_DanielCraig.png'],diff,1,0.6501592000004166,7,0,
SASO1010,train,inv,fs,posfs_id17_im9.bmp_posfs_id3_im6.bmp,['Im_BenStiller.png', 'Im_KeanuReeves.png', 'Im_GeorgeClooney.png', 'Im_DanielRadcliffe.png', 'Im_BradPitt.png', 'Im_LeonardoDiCaprio.png', 'Im_JustinTimberlake.png', 'Im_RobertPattinson.png', 'Im_PatrickDempsey.png', 'Im_DanielCraig.png'],diff,1,0.41670330000033573,8,0,
SASO1010,train,inv,90,pos90_id2_im2.bmp_pos90_id2_im3.bmp,['Im_BenStiller.png', 'Im_KeanuReeves.png', 'Im_GeorgeClooney.png', 'Im_DanielRadcliffe.png', 'Im_BradPitt.png', 'Im_LeonardoDiCaprio.png', 'Im_JustinTimberlake.png', 'Im_RobertPattinson.png', 'Im_PatrickDempsey.png', 'Im_DanielCraig.png'],same,1,0.49172079999971174,9,0,
SASO1010,train,inv,150,pos150_id13_im29.bmp_pos150_id13_im10.bmp,['Im_BenStiller.png', 'Im_KeanuReeves.png', 'Im_GeorgeClooney.png', 'Im_DanielRadcliffe.png', 'Im_BradPitt.png', 'Im_LeonardoDiCaprio.png', 'Im_JustinTimberlake.png', 'Im_RobertPattinson.png', 'Im_PatrickDempsey.png', 'Im_DanielCraig.png'],same,1,0.4249199999994744,10,0,
SASO1010,train,inv,90,pos90_id17_im14.bmp_pos90_id17_im9.bmp,['Im_BenStiller.png', 'Im_KeanuReeves.png', 'Im_GeorgeClooney.png', 'Im_DanielRadcliffe.png', 'Im_BradPitt.png', 'Im_LeonardoDiCaprio.png', 'Im_JustinTimberlake.png', 'Im_RobertPattinson.png', 'Im_PatrickDempsey.png', 'Im_DanielCraig.png'],same,1,0.5080417999997735,11,0,
SASO1010,train,inv,60,pos60_id17_im14.bmp_pos60_id11_im10.bmp,['Im_BenStiller.png', 'Im_KeanuReeves.png', 'Im_GeorgeClooney.png', 'Im_DanielRadcliffe.png', 'Im_BradPitt.png', 'Im_LeonardoDiCaprio.png', 'Im_JustinTimberlake.png', 'Im_RobertPattinson.png', 'Im_PatrickDempsey.png', 'Im_DanielCraig.png'],diff,1,0.44211639999957697,12,0,
SASO1010,train,inv,90,pos90_id2_im3.bmp_pos90_id4_im20.bmp,['Im_BenStiller.png', 'Im_KeanuReeves.png', 'Im_GeorgeClooney.png', 'Im_DanielRadcliffe.png', 'Im_BradPitt.png', 'Im_LeonardoDiCaprio.png', 'Im_JustinTimberlake.png', 'Im_RobertPattinson.png', 'Im_PatrickDempsey.png', 'Im_DanielCraig.png'],diff,1,0.4169534000002386,13,0,
SASO1010,train,inv,60,pos60_id11_im10.bmp_pos60_id19_im27.bmp,['Im_BenStiller.png', 'Im_KeanuReeves.png', 'Im_GeorgeClooney.png', 'Im_DanielRadcliffe.png', 'Im_BradPitt.png', 'Im_LeonardoDiCaprio.png', 'Im_JustinTimberlake.png', 'Im_RobertPattinson.png', 'Im_PatrickDempsey.png', 'Im_DanielCraig.png'],diff,1,0.7752496000002793,14,0,
SASO1010,train,inv,0,pos0_id7_im15.bmp_pos0_id2_im16.bmp,['Im_BenStiller.png', 'Im_KeanuReeves.png', 'Im_GeorgeClooney.png', 'Im_DanielRadcliffe.png', 'Im_BradPitt.png', 'Im_LeonardoDiCaprio.png', 'Im_JustinTimberlake.png', 'Im_RobertPattinson.png', 'Im_PatrickDempsey.png', 'Im_DanielCraig.png'],same,0,0.5252810000001773,14,0,
SASO1010,train,inv,120,pos120_id10_im17.bmp_pos120_id3_im6.bmp,['Im_BenStiller.png', 'Im_KeanuReeves.png', 'Im_GeorgeClooney.png', 'Im_DanielRadcliffe.png', 'Im_BradPitt.png', 'Im_LeonardoDiCaprio.png', 'Im_JustinTimberlake.png', 'Im_RobertPattinson.png', 'Im_PatrickDempsey.png', 'Im_DanielCraig.png'],diff,1,0.7166229000004023,15,0,
SASO1010,train,inv,150,pos150_id17_im9.bmp_pos150_id4_im7.bmp,['Im_BenStiller.png', 'Im_KeanuReeves.png', 'Im_GeorgeClooney.png', 'Im_DanielRadcliffe.png', 'Im_BradPitt.png', 'Im_LeonardoDiCaprio.png', 'Im_JustinTimberlake.png', 'Im_RobertPattinson.png', 'Im_PatrickDempsey.png', 'Im_DanielCraig.png'],diff,1,0.883406300000388,16,0,
SASO1010,train,inv,fs,posfs_id4_im15.bmp_posfs_id4_im20.bmp,['Im_BenStiller.png', 'Im_KeanuReeves.png', 'Im_GeorgeClooney.png', 'Im_DanielRadcliffe.png', 'Im_BradPitt.png', 'Im_LeonardoDiCaprio.png', 'Im_JustinTimberlake.png', 'Im_RobertPattinson.png', 'Im_PatrickDempsey.png', 'Im_DanielCraig.png'],diff,0,0.4502714999998716,16,0,
SASO1010,train,inv,60,pos60_id13_im10.bmp_pos60_id13_im15.bmp,['Im_BenStiller.png', 'Im_KeanuReeves.png', 'Im_GeorgeClooney.png', 'Im_DanielRadcliffe.png', 'Im_BradPitt.png', 'Im_LeonardoDiCaprio.png', 'Im_JustinTimberlake.png', 'Im_RobertPattinson.png', 'Im_PatrickDempsey.png', 'Im_DanielCraig.png'],diff,0,1.0584140999999363,16,0,
SASO1010,train,inv,90,pos90_id17_im9.bmp_pos90_id4_im7.bmp,['Im_BenStiller.png', 'Im_KeanuReeves.png', 'Im_GeorgeClooney.png', 'Im_DanielRadcliffe.png', 'Im_BradPitt.png', 'Im_LeonardoDiCaprio.png', 'Im_JustinTimberlake.png', 'Im_RobertPattinson.png', 'Im_PatrickDempsey.png', 'Im_DanielCraig.png'],diff,1,0.5583832000002076,17,0,
SASO1010,train,inv,fs,posfs_id7_im15.bmp_posfs_id7_im26.bmp,['Im_BenStiller.png', 'Im_KeanuReeves.png', 'Im_GeorgeClooney.png', 'Im_DanielRadcliffe.png', 'Im_BradPitt.png', 'Im_LeonardoDiCaprio.png', 'Im_JustinTimberlake.png', 'Im_RobertPattinson.png', 'Im_PatrickDempsey.png', 'Im_DanielCraig.png'],same,1,0.5250383999991755,18,0,
SASO1010,train,inv,30,pos30_id7_im15.bmp_pos30_id7_im26.bmp,['Im_BenStiller.png', 'Im_KeanuReeves.png', 'Im_GeorgeClooney.png', 'Im_DanielRadcliffe.png', 'Im_BradPitt.png', 'Im_LeonardoDiCaprio.png', 'Im_JustinTimberlake.png', 'Im_RobertPattinson.png', 'Im_PatrickDempsey.png', 'Im_DanielCraig.png'],same,1,0.4167524999993475,19,0,
SASO1010,train,inv,150,pos150_id17_im14.bmp_pos150_id3_im8.bmp,['Im_BenStiller.png', 'Im_KeanuReeves.png', 'Im_GeorgeClooney.png', 'Im_DanielRadcliffe.png', 'Im_BradPitt.png', 'Im_LeonardoDiCaprio.png', 'Im_JustinTimberlake.png', 'Im_RobertPattinson.png', 'Im_PatrickDempsey.png', 'Im_DanielCraig.png'],diff,1,0.6086959000003844,20,0,
SASO1010,train,inv,120,pos120_id13_im10.bmp_pos120_id2_im16.bmp,['Im_BenStiller.png', 'Im_KeanuReeves.png', 'Im_GeorgeClooney.png', 'Im_DanielRadcliffe.png', 'Im_BradPitt.png', 'Im_LeonardoDiCaprio.png', 'Im_JustinTimberlake.png', 'Im_RobertPattinson.png', 'Im_PatrickDempsey.png', 'Im_DanielCraig.png'],diff,1,0.625088799999503,21,0,
SASO1010,train,inv,30,pos30_id13_im15.bmp_pos30_id11_im1.bmp,['Im_BenStiller.png', 'Im_KeanuReeves.png', 'Im_GeorgeClooney.png', 'Im_DanielRadcliffe.png', 'Im_BradPitt.png', 'Im_LeonardoDiCaprio.png', 'Im_JustinTimberlake.png', 'Im_RobertPattinson.png', 'Im_PatrickDempsey.png', 'Im_DanielCraig.png'],diff,1,0.5083916000003228,22,0,
SASO1010,train,inv,0,pos0_id2_im2.bmp_pos0_id5_im10.bmp,['Im_BenStiller.png', 'Im_KeanuReeves.png', 'Im_GeorgeClooney.png', 'Im_DanielRadcliffe.png', 'Im_BradPitt.png', 'Im_LeonardoDiCaprio.png', 'Im_JustinTimberlake.png', 'Im_RobertPattinson.png', 'Im_PatrickDempsey.png', 'Im_DanielCraig.png'],diff,1,0.6753019999996468,23,0,
SASO1010,train,neg,fs,negfs_id10_im1.bmp_negfs_id10_im18.bmp,['Im_BenStiller.png', 'Im_KeanuReeves.png', 'Im_GeorgeClooney.png', 'Im_DanielRadcliffe.png', 'Im_BradPitt.png', 'Im_LeonardoDiCaprio.png', 'Im_JustinTimberlake.png', 'Im_RobertPattinson.png', 'Im_PatrickDempsey.png', 'Im_DanielCraig.png'],same,1,0.47508269999980257,24,0,
SASO1010,train,neg,0,neg0_id17_im9.bmp_neg0_id3_im6.bmp,['Im_BenStiller.png', 'Im_KeanuReeves.png', 'Im_GeorgeClooney.png', 'Im_DanielRadcliffe.png', 'Im_BradPitt.png', 'Im_LeonardoDiCaprio.png', 'Im_JustinTimberlake.png', 'Im_RobertPattinson.png', 'Im_PatrickDempsey.png', 'Im_DanielCraig.png'],diff,1,0.5418838999994477,25,0,
SASO1010,train,neg,30,neg30_id17_im8.bmp_neg30_id10_im17.bmp,['Im_BenStiller.png', 'Im_KeanuReeves.png', 'Im_GeorgeClooney.png', 'Im_DanielRadcliffe.png', 'Im_BradPitt.png', 'Im_LeonardoDiCaprio.png', 'Im_JustinTimberlake.png', 'Im_RobertPattinson.png', 'Im_PatrickDempsey.png', 'Im_DanielCraig.png'],same,0,0.8748454999995374,25,0,
SASO1010,train,neg,120,neg120_id4_im7.bmp_neg120_id4_im20.bmp,['Im_BenStiller.png', 'Im_KeanuReeves.png', 'Im_GeorgeClooney.png', 'Im_DanielRadcliffe.png', 'Im_BradPitt.png', 'Im_LeonardoDiCaprio.png', 'Im_JustinTimberlake.png', 'Im_RobertPattinson.png', 'Im_PatrickDempsey.png', 'Im_DanielCraig.png'],same,1,0.5752707000001465,26,0,
SASO1010,train,neg,60,neg60_id5_im10.bmp_neg60_id5_im20.bmp,['Im_BenStiller.png', 'Im_KeanuReeves.png', 'Im_GeorgeClooney.png', 'Im_DanielRadcliffe.png', 'Im_BradPitt.png', 'Im_LeonardoDiCaprio.png', 'Im_JustinTimberlake.png', 'Im_RobertPattinson.png', 'Im_PatrickDempsey.png', 'Im_DanielCraig.png'],same,1,0.48317580000002636,27,0,
SASO1010,train,neg,120,neg120_id11_im1.bmp_neg120_id19_im8.bmp,['Im_BenStiller.png', 'Im_KeanuReeves.png', 'Im_GeorgeClooney.png', 'Im_DanielRadcliffe.png', 'Im_BradPitt.png', 'Im_LeonardoDiCaprio.png', 'Im_JustinTimberlake.png', 'Im_RobertPattinson.png', 'Im_PatrickDempsey.png', 'Im_DanielCraig.png'],diff,1,0.7504171000000497,28,0,
SASO1010,train,neg,90,neg90_id7_im26.bmp_neg90_id3_im8.bmp,['Im_BenStiller.png', 'Im_KeanuReeves.png', 'Im_GeorgeClooney.png', 'Im_DanielRadcliffe.png', 'Im_BradPitt.png', 'Im_LeonardoDiCaprio.png', 'Im_JustinTimberlake.png', 'Im_RobertPattinson.png', 'Im_PatrickDempsey.png', 'Im_DanielCraig.png'],same,0,0.8833885000003647,28,0,
SASO1010,train,neg,150,neg150_id17_im14.bmp_neg150_id17_im8.bmp,['Im_BenStiller.png', 'Im_KeanuReeves.png', 'Im_GeorgeClooney.png', 'Im_DanielRadcliffe.png', 'Im_BradPitt.png', 'Im_LeonardoDiCaprio.png', 'Im_JustinTimberlake.png', 'Im_RobertPattinson.png', 'Im_PatrickDempsey.png', 'Im_DanielCraig.png'],same,1,0.4416689999998198,29,0,
SASO1010,train,neg,0,neg0_id10_im17.bmp_neg0_id17_im8.bmp,['Im_BenStiller.png', 'Im_KeanuReeves.png', 'Im_GeorgeClooney.png', 'Im_DanielRadcliffe.png', 'Im_BradPitt.png', 'Im_LeonardoDiCaprio.png', 'Im_JustinTimberlake.png', 'Im_RobertPattinson.png', 'Im_PatrickDempsey.png', 'Im_DanielCraig.png'],diff,1,0.5668943000000581,30,0,
SASO1010,train,neg,fs,negfs_id5_im10.bmp_negfs_id2_im2.bmp,['Im_BenStiller.png', 'Im_KeanuReeves.png', 'Im_GeorgeClooney.png', 'Im_DanielRadcliffe.png', 'Im_BradPitt.png', 'Im_LeonardoDiCaprio.png', 'Im_JustinTimberlake.png', 'Im_RobertPattinson.png', 'Im_PatrickDempsey.png', 'Im_DanielCraig.png'],diff,1,0.4333488000002035,31,0,
SASO1010,train,neg,90,neg90_id19_im4.bmp_neg90_id7_im15.bmp,['Im_BenStiller.png', 'Im_KeanuReeves.png', 'Im_GeorgeClooney.png', 'Im_DanielRadcliffe.png', 'Im_BradPitt.png', 'Im_LeonardoDiCaprio.png', 'Im_JustinTimberlake.png', 'Im_RobertPattinson.png', 'Im_PatrickDempsey.png', 'Im_DanielCraig.png'],diff,1,0.7917034000001877,32,0,
SASO1010,train,neg,150,neg150_id10_im1.bmp_neg150_id5_im1.bmp,['Im_BenStiller.png', 'Im_KeanuReeves.png', 'Im_GeorgeClooney.png', 'Im_DanielRadcliffe.png', 'Im_BradPitt.png', 'Im_LeonardoDiCaprio.png', 'Im_JustinTimberlake.png', 'Im_RobertPattinson.png', 'Im_PatrickDempsey.png', 'Im_DanielCraig.png'],same,0,1.1751378999997542,32,0,
SASO1010,train,neg,60,neg60_id7_im15.bmp_neg60_id19_im4.bmp,['Im_BenStiller.png', 'Im_KeanuReeves.png', 'Im_GeorgeClooney.png', 'Im_DanielRadcliffe.png', 'Im_BradPitt.png', 'Im_LeonardoDiCaprio.png', 'Im_JustinTimberlake.png', 'Im_RobertPattinson.png', 'Im_PatrickDempsey.png', 'Im_DanielCraig.png'],diff,1,1.1586213000000498,33,0,
SASO1010,train,neg,30,neg30_id13_im15.bmp_neg30_id13_im10.bmp,['Im_BenStiller.png', 'Im_KeanuReeves.png', 'Im_GeorgeClooney.png', 'Im_DanielRadcliffe.png', 'Im_BradPitt.png', 'Im_LeonardoDiCaprio.png', 'Im_JustinTimberlake.png', 'Im_RobertPattinson.png', 'Im_PatrickDempsey.png', 'Im_DanielCraig.png'],diff,0,0.6082195999997566,33,0,
SASO1010,train,pos,30,pos30_id7_im14.bmp_pos30_id4_im20.bmp,['Im_BenStiller.png', 'Im_KeanuReeves.png', 'Im_GeorgeClooney.png', 'Im_DanielRadcliffe.png', 'Im_BradPitt.png', 'Im_LeonardoDiCaprio.png', 'Im_JustinTimberlake.png', 'Im_RobertPattinson.png', 'Im_PatrickDempsey.png', 'Im_DanielCraig.png'],diff,1,0.41673009999976784,1,78.57142857142857,
SASO1010,train,pos,fs,posfs_id4_im20.bmp_posfs_id2_im3.bmp,['Im_BenStiller.png', 'Im_KeanuReeves.png', 'Im_GeorgeClooney.png', 'Im_DanielRadcliffe.png', 'Im_BradPitt.png', 'Im_LeonardoDiCaprio.png', 'Im_JustinTimberlake.png', 'Im_RobertPattinson.png', 'Im_PatrickDempsey.png', 'Im_DanielCraig.png'],diff,1,0.4249969999991663,2,78.57142857142857,
SASO1010,train,pos,60,pos60_id4_im7.bmp_pos60_id4_im20.bmp,['Im_BenStiller.png', 'Im_KeanuReeves.png', 'Im_GeorgeClooney.png', 'Im_DanielRadcliffe.png', 'Im_BradPitt.png', 'Im_LeonardoDiCaprio.png', 'Im_JustinTimberlake.png', 'Im_RobertPattinson.png', 'Im_PatrickDempsey.png', 'Im_DanielCraig.png'],same,1,0.43368850000024395,3,78.57142857142857,
SASO1010,train,pos,120,pos120_id3_im17.bmp_pos120_id3_im8.bmp,['Im_BenStiller.png', 'Im_KeanuReeves.png', 'Im_GeorgeClooney.png', 'Im_DanielRadcliffe.png', 'Im_BradPitt.png', 'Im_LeonardoDiCaprio.png', 'Im_JustinTimberlake.png', 'Im_RobertPattinson.png', 'Im_PatrickDempsey.png', 'Im_DanielCraig.png'],same,1,0.5419655999994575,4,78.57142857142857,
SASO1010,train,pos,90,pos90_id19_im27.bmp_pos90_id11_im10.bmp,['Im_BenStiller.png', 'Im_KeanuReeves.png', 'Im_GeorgeClooney.png', 'Im_DanielRadcliffe.png', 'Im_BradPitt.png', 'Im_LeonardoDiCaprio.png', 'Im_JustinTimberlake.png', 'Im_RobertPattinson.png', 'Im_PatrickDempsey.png', 'Im_DanielCraig.png'],diff,1,0.8750209999998333,5,78.57142857142857,
SASO1010,train,pos,90,pos90_id10_im18.bmp_pos90_id10_im17.bmp,['Im_BenStiller.png', 'Im_KeanuReeves.png', 'Im_GeorgeClooney.png', 'Im_DanielRadcliffe.png', 'Im_BradPitt.png', 'Im_LeonardoDiCaprio.png', 'Im_JustinTimberlake.png', 'Im_RobertPattinson.png', 'Im_PatrickDempsey.png', 'Im_DanielCraig.png'],diff,0,0.9586116999998922,5,78.57142857142857,
SASO1010,train,pos,150,pos150_id11_im2.bmp_pos150_id11_im10.bmp,['Im_BenStiller.png', 'Im_KeanuReeves.png', 'Im_GeorgeClooney.png', 'Im_DanielRadcliffe.png', 'Im_BradPitt.png', 'Im_LeonardoDiCaprio.png', 'Im_JustinTimberlake.png', 'Im_RobertPattinson.png', 'Im_PatrickDempsey.png', 'Im_DanielCraig.png'],same,1,1.1750786000002336,6,78.57142857142857,
SASO1010,train,pos,60,pos60_id17_im8.bmp_pos60_id4_im7.bmp,['Im_BenStiller.png', 'Im_KeanuReeves.png', 'Im_GeorgeClooney.png', 'Im_DanielRadcliffe.png', 'Im_BradPitt.png', 'Im_LeonardoDiCaprio.png', 'Im_JustinTimberlake.png', 'Im_RobertPattinson.png', 'Im_PatrickDempsey.png', 'Im_DanielCraig.png'],diff,1,0.4334940999997343,7,78.57142857142857,
SASO1010,train,pos,120,pos120_id17_im8.bmp_pos120_id17_im9.bmp,['Im_BenStiller.png', 'Im_KeanuReeves.png', 'Im_GeorgeClooney.png', 'Im_DanielRadcliffe.png', 'Im_BradPitt.png', 'Im_LeonardoDiCaprio.png', 'Im_JustinTimberlake.png', 'Im_RobertPattinson.png', 'Im_PatrickDempsey.png', 'Im_DanielCraig.png'],same,1,0.5500422999994043,8,78.57142857142857,
SASO1010,train,pos,fs,posfs_id4_im7.bmp_posfs_id4_im20.bmp,['Im_BenStiller.png', 'Im_KeanuReeves.png', 'Im_GeorgeClooney.png', 'Im_DanielRadcliffe.png', 'Im_BradPitt.png', 'Im_LeonardoDiCaprio.png', 'Im_JustinTimberlake.png', 'Im_RobertPattinson.png', 'Im_PatrickDempsey.png', 'Im_DanielCraig.png'],same,1,0.5915619999996125,9,78.57142857142857,
SASO1010,train,pos,0,pos0_id5_im1.bmp_pos0_id5_im10.bmp,['Im_BenStiller.png', 'Im_KeanuReeves.png', 'Im_GeorgeClooney.png', 'Im_DanielRadcliffe.png', 'Im_BradPitt.png', 'Im_LeonardoDiCaprio.png', 'Im_JustinTimberlake.png', 'Im_RobertPattinson.png', 'Im_PatrickDempsey.png', 'Im_DanielCraig.png'],same,1,0.40839210000012827,10,78.57142857142857,
SASO1010,train,pos,0,pos0_id7_im15.bmp_pos0_id2_im16.bmp,['Im_BenStiller.png', 'Im_KeanuReeves.png', 'Im_GeorgeClooney.png', 'Im_DanielRadcliffe.png', 'Im_BradPitt.png', 'Im_LeonardoDiCaprio.png', 'Im_JustinTimberlake.png', 'Im_RobertPattinson.png', 'Im_PatrickDempsey.png', 'Im_DanielCraig.png'],diff,1,0.41671410000071774,11,78.57142857142857,
SASO1010,train,pos,30,pos30_id11_im2.bmp_pos30_id11_im10.bmp,['Im_BenStiller.png', 'Im_KeanuReeves.png', 'Im_GeorgeClooney.png', 'Im_DanielRadcliffe.png', 'Im_BradPitt.png', 'Im_LeonardoDiCaprio.png', 'Im_JustinTimberlake.png', 'Im_RobertPattinson.png', 'Im_PatrickDempsey.png', 'Im_DanielCraig.png'],same,1,0.4250730999992811,12,78.57142857142857,
SASO1010,train,pos,150,pos150_id7_im26.bmp_pos150_id3_im8.bmp,['Im_BenStiller.png', 'Im_KeanuReeves.png', 'Im_GeorgeClooney.png', 'Im_DanielRadcliffe.png', 'Im_BradPitt.png', 'Im_LeonardoDiCaprio.png', 'Im_JustinTimberlake.png', 'Im_RobertPattinson.png', 'Im_PatrickDempsey.png', 'Im_DanielCraig.png'],diff,1,0.9915690000007089,13,78.57142857142857,
SASO1010,train,pos,60,pos60_id7_im14.bmp_pos60_id7_im15.bmp,['Im_BenStiller.png', 'Im_KeanuReeves.png', 'Im_GeorgeClooney.png', 'Im_DanielRadcliffe.png', 'Im_BradPitt.png', 'Im_LeonardoDiCaprio.png', 'Im_JustinTimberlake.png', 'Im_RobertPattinson.png', 'Im_PatrickDempsey.png', 'Im_DanielCraig.png'],same,1,0.8836510000000999,14,78.57142857142857,
SASO1010,train,pos,60,pos60_id3_im6.bmp_pos60_id3_im17.bmp,['Im_BenStiller.png', 'Im_KeanuReeves.png', 'Im_GeorgeClooney.png', 'Im_DanielRadcliffe.png', 'Im_BradPitt.png', 'Im_LeonardoDiCaprio.png', 'Im_JustinTimberlake.png', 'Im_RobertPattinson.png', 'Im_PatrickDempsey.png', 'Im_DanielCraig.png'],same,1,0.42512059999990015,15,78.57142857142857,
SASO1010,train,pos,0,pos0_id5_im20.bmp_pos0_id2_im2.bmp,['Im_BenStiller.png', 'Im_KeanuReeves.png', 'Im_GeorgeClooney.png', 'Im_DanielRadcliffe.png', 'Im_BradPitt.png', 'Im_LeonardoDiCaprio.png', 'Im_JustinTimberlake.png', 'Im_RobertPattinson.png', 'Im_PatrickDempsey.png', 'Im_DanielCraig.png'],diff,1,0.40837660000033793,16,78.57142857142857,
SASO1010,train,pos,90,pos90_id10_im17.bmp_pos90_id3_im6.bmp,['Im_BenStiller.png', 'Im_KeanuReeves.png', 'Im_GeorgeClooney.png', 'Im_DanielRadcliffe.png', 'Im_BradPitt.png', 'Im_LeonardoDiCaprio.png', 'Im_JustinTimberlake.png', 'Im_RobertPattinson.png', 'Im_PatrickDempsey.png', 'Im_DanielCraig.png'],diff,1,0.8249630999998772,17,78.57142857142857,
SASO1010,train,pos,120,pos120_id11_im2.bmp_pos120_id3_im17.bmp,['Im_BenStiller.png', 'Im_KeanuReeves.png', 'Im_GeorgeClooney.png', 'Im_DanielRadcliffe.png', 'Im_BradPitt.png', 'Im_LeonardoDiCaprio.png', 'Im_JustinTimberlake.png', 'Im_RobertPattinson.png', 'Im_PatrickDempsey.png', 'Im_DanielCraig.png'],diff,1,0.4252059000000372,18,78.57142857142857,
SASO1010,train,pos,150,pos150_id13_im29.bmp_pos150_id19_im8.bmp,['Im_BenStiller.png', 'Im_KeanuReeves.png', 'Im_GeorgeClooney.png', 'Im_DanielRadcliffe.png', 'Im_BradPitt.png', 'Im_LeonardoDiCaprio.png', 'Im_JustinTimberlake.png', 'Im_RobertPattinson.png', 'Im_PatrickDempsey.png', 'Im_DanielCraig.png'],diff,1,0.9919509000001199,19,78.57142857142857,
SASO1010,train,pos,120,pos120_id5_im20.bmp_pos120_id5_im1.bmp,['Im_BenStiller.png', 'Im_KeanuReeves.png', 'Im_GeorgeClooney.png', 'Im_DanielRadcliffe.png', 'Im_BradPitt.png', 'Im_LeonardoDiCaprio.png', 'Im_JustinTimberlake.png', 'Im_RobertPattinson.png', 'Im_PatrickDempsey.png', 'Im_DanielCraig.png'],same,1,0.8336074999997436,20,78.57142857142857,
SASO1010,train,pos,90,pos90_id19_im4.bmp_pos90_id19_im27.bmp,['Im_BenStiller.png', 'Im_KeanuReeves.png', 'Im_GeorgeClooney.png', 'Im_DanielRadcliffe.png', 'Im_BradPitt.png', 'Im_LeonardoDiCaprio.png', 'Im_JustinTimberlake.png', 'Im_RobertPattinson.png', 'Im_PatrickDempsey.png', 'Im_DanielCraig.png'],diff,0,0.8415899000001446,20,78.57142857142857,
SASO1010,train,pos,0,pos0_id7_im26.bmp_pos0_id7_im14.bmp,['Im_BenStiller.png', 'Im_KeanuReeves.png', 'Im_GeorgeClooney.png', 'Im_DanielRadcliffe.png', 'Im_BradPitt.png', 'Im_LeonardoDiCaprio.png', 'Im_JustinTimberlake.png', 'Im_RobertPattinson.png', 'Im_PatrickDempsey.png', 'Im_DanielCraig.png'],same,1,1.000250000000051,21,78.57142857142857,
SASO1010,train,pos,150,pos150_id19_im4.bmp_pos150_id7_im26.bmp,['Im_BenStiller.png', 'Im_KeanuReeves.png', 'Im_GeorgeClooney.png', 'Im_DanielRadcliffe.png', 'Im_BradPitt.png', 'Im_LeonardoDiCaprio.png', 'Im_JustinTimberlake.png', 'Im_RobertPattinson.png', 'Im_PatrickDempsey.png', 'Im_DanielCraig.png'],diff,1,0.4250425999998697,22,78.57142857142857,
SASO1010,train,pos,fs,posfs_id7_im14.bmp_posfs_id13_im29.bmp,['Im_BenStiller.png', 'Im_KeanuReeves.png', 'Im_GeorgeClooney.png', 'Im_DanielRadcliffe.png', 'Im_BradPitt.png', 'Im_LeonardoDiCaprio.png', 'Im_JustinTimberlake.png', 'Im_RobertPattinson.png', 'Im_PatrickDempsey.png', 'Im_DanielCraig.png'],diff,1,0.41669939999974304,23,78.57142857142857,
SASO1010,train,pos,30,pos30_id19_im8.bmp_pos30_id19_im4.bmp,['Im_BenStiller.png', 'Im_KeanuReeves.png', 'Im_GeorgeClooney.png', 'Im_DanielRadcliffe.png', 'Im_BradPitt.png', 'Im_LeonardoDiCaprio.png', 'Im_JustinTimberlake.png', 'Im_RobertPattinson.png', 'Im_PatrickDempsey.png', 'Im_DanielCraig.png'],same,1,0.6833091000007698,24,78.57142857142857,
SASO1010,train,pos,fs,posfs_id5_im1.bmp_posfs_id5_im10.bmp,['Im_BenStiller.png', 'Im_KeanuReeves.png', 'Im_GeorgeClooney.png', 'Im_DanielRadcliffe.png', 'Im_BradPitt.png', 'Im_LeonardoDiCaprio.png', 'Im_JustinTimberlake.png', 'Im_RobertPattinson.png', 'Im_PatrickDempsey.png', 'Im_DanielCraig.png'],same,1,0.42501999999967666,25,78.57142857142857,
SASO1010,train,pos,30,pos30_id3_im6.bmp_pos30_id10_im17.bmp,['Im_BenStiller.png', 'Im_KeanuReeves.png', 'Im_GeorgeClooney.png', 'Im_DanielRadcliffe.png', 'Im_BradPitt.png', 'Im_LeonardoDiCaprio.png', 'Im_JustinTimberlake.png', 'Im_RobertPattinson.png', 'Im_PatrickDempsey.png', 'Im_DanielCraig.png'],diff,1,0.47512640000059037,26,78.57142857142857,
SASO1010,train,inv,60,pos60_id17_im14.bmp_pos60_id17_im8.bmp,['Im_BenStiller.png', 'Im_KeanuReeves.png', 'Im_GeorgeClooney.png', 'Im_DanielRadcliffe.png', 'Im_BradPitt.png', 'Im_LeonardoDiCaprio.png', 'Im_JustinTimberlake.png', 'Im_RobertPattinson.png', 'Im_PatrickDempsey.png', 'Im_DanielCraig.png'],diff,0,0.48366059999989375,26,78.57142857142857,
SASO1010,train,inv,150,pos150_id19_im27.bmp_pos150_id19_im4.bmp,['Im_BenStiller.png', 'Im_KeanuReeves.png', 'Im_GeorgeClooney.png', 'Im_DanielRadcliffe.png', 'Im_BradPitt.png', 'Im_LeonardoDiCaprio.png', 'Im_JustinTimberlake.png', 'Im_RobertPattinson.png', 'Im_PatrickDempsey.png', 'Im_DanielCraig.png'],diff,0,1.1834196999998312,26,78.57142857142857,
SASO1010,train,inv,0,pos0_id19_im8.bmp_pos0_id13_im29.bmp,['Im_BenStiller.png', 'Im_KeanuReeves.png', 'Im_GeorgeClooney.png', 'Im_DanielRadcliffe.png', 'Im_BradPitt.png', 'Im_LeonardoDiCaprio.png', 'Im_JustinTimberlake.png', 'Im_RobertPattinson.png', 'Im_PatrickDempsey.png', 'Im_DanielCraig.png'],diff,1,0.8262070000000676,27,78.57142857142857,
SASO1010,train,inv,120,pos120_id7_im14.bmp_pos120_id7_im26.bmp,['Im_BenStiller.png', 'Im_KeanuReeves.png', 'Im_GeorgeClooney.png', 'Im_DanielRadcliffe.png', 'Im_BradPitt.png', 'Im_LeonardoDiCaprio.png', 'Im_JustinTimberlake.png', 'Im_RobertPattinson.png', 'Im_PatrickDempsey.png', 'Im_DanielCraig.png'],same,1,0.5583747999999105,28,78.57142857142857,
SASO1010,train,inv,fs,posfs_id19_im27.bmp_posfs_id19_im8.bmp,['Im_BenStiller.png', 'Im_KeanuReeves.png', 'Im_GeorgeClooney.png', 'Im_DanielRadcliffe.png', 'Im_BradPitt.png', 'Im_LeonardoDiCaprio.png', 'Im_JustinTimberlake.png', 'Im_RobertPattinson.png', 'Im_PatrickDempsey.png', 'Im_DanielCraig.png'],same,1,0.5749067999995532,29,78.57142857142857,
SASO1010,train,inv,30,pos30_id13_im10.bmp_pos30_id13_im15.bmp,['Im_BenStiller.png', 'Im_KeanuReeves.png', 'Im_GeorgeClooney.png', 'Im_DanielRadcliffe.png', 'Im_BradPitt.png', 'Im_LeonardoDiCaprio.png', 'Im_JustinTimberlake.png', 'Im_RobertPattinson.png', 'Im_PatrickDempsey.png', 'Im_DanielCraig.png'],diff,0,0.7920181999998022,29,78.57142857142857,
SASO1010,train,inv,90,pos90_id11_im1.bmp_pos90_id19_im8.bmp,['Im_BenStiller.png', 'Im_KeanuReeves.png', 'Im_GeorgeClooney.png', 'Im_DanielRadcliffe.png', 'Im_BradPitt.png', 'Im_LeonardoDiCaprio.png', 'Im_JustinTimberlake.png', 'Im_RobertPattinson.png', 'Im_PatrickDempsey.png', 'Im_DanielCraig.png'],same,0,0.8083388999993986,29,78.57142857142857,
SASO1010,train,inv,90,pos90_id3_im8.bmp_pos90_id17_im14.bmp,['Im_BenStiller.png', 'Im_KeanuReeves.png', 'Im_GeorgeClooney.png', 'Im_DanielRadcliffe.png', 'Im_BradPitt.png', 'Im_LeonardoDiCaprio.png', 'Im_JustinTimberlake.png', 'Im_RobertPattinson.png', 'Im_PatrickDempsey.png', 'Im_DanielCraig.png'],diff,1,0.5003661999999167,30,78.57142857142857,
SASO1010,train,inv,120,pos120_id7_im26.bmp_pos120_id7_im15.bmp,['Im_BenStiller.png', 'Im_KeanuReeves.png', 'Im_GeorgeClooney.png', 'Im_DanielRadcliffe.png', 'Im_BradPitt.png', 'Im_LeonardoDiCaprio.png', 'Im_JustinTimberlake.png', 'Im_RobertPattinson.png', 'Im_PatrickDempsey.png', 'Im_DanielCraig.png'],same,1,1.9252755999996225,31,78.57142857142857,
SASO1010,train,inv,30,pos30_id3_im17.bmp_pos30_id3_im8.bmp,['Im_BenStiller.png', 'Im_KeanuReeves.png', 'Im_GeorgeClooney.png', 'Im_DanielRadcliffe.png', 'Im_BradPitt.png', 'Im_LeonardoDiCaprio.png', 'Im_JustinTimberlake.png', 'Im_RobertPattinson.png', 'Im_PatrickDempsey.png', 'Im_DanielCraig.png'],diff,0,1.2832211999993888,31,78.57142857142857,
SASO1010,train,inv,fs,posfs_id17_im14.bmp_posfs_id17_im9.bmp,['Im_BenStiller.png', 'Im_KeanuReeves.png', 'Im_GeorgeClooney.png', 'Im_DanielRadcliffe.png', 'Im_BradPitt.png', 'Im_LeonardoDiCaprio.png', 'Im_JustinTimberlake.png', 'Im_RobertPattinson.png', 'Im_PatrickDempsey.png', 'Im_DanielCraig.png'],same,1,0.9252323000000615,32,78.57142857142857,
SASO1010,train,inv,0,pos0_id3_im17.bmp_pos0_id3_im6.bmp,['Im_BenStiller.png', 'Im_KeanuReeves.png', 'Im_GeorgeClooney.png', 'Im_DanielRadcliffe.png', 'Im_BradPitt.png', 'Im_LeonardoDiCaprio.png', 'Im_JustinTimberlake.png', 'Im_RobertPattinson.png', 'Im_PatrickDempsey.png', 'Im_DanielCraig.png'],diff,0,1.9417069000000993,32,78.57142857142857,
SASO1010,train,inv,60,pos60_id2_im2.bmp_pos60_id2_im3.bmp,['Im_BenStiller.png', 'Im_KeanuReeves.png', 'Im_GeorgeClooney.png', 'Im_DanielRadcliffe.png', 'Im_BradPitt.png', 'Im_LeonardoDiCaprio.png', 'Im_JustinTimberlake.png', 'Im_RobertPattinson.png', 'Im_PatrickDempsey.png', 'Im_DanielCraig.png'],same,1,0.9085242000001017,33,78.57142857142857,
SASO1010,train,inv,150,pos150_id5_im10.bmp_pos150_id13_im15.bmp,['Im_BenStiller.png', 'Im_KeanuReeves.png', 'Im_GeorgeClooney.png', 'Im_DanielRadcliffe.png', 'Im_BradPitt.png', 'Im_LeonardoDiCaprio.png', 'Im_JustinTimberlake.png', 'Im_RobertPattinson.png', 'Im_PatrickDempsey.png', 'Im_DanielCraig.png'],same,0,0.6508282000004328,33,78.57142857142857,
SASO1010,0,neg,60,neg60_id4_im20.bmp_neg60_id4_im7.bmp,['Im_BenStiller.png', 'Im_KeanuReeves.png', 'Im_GeorgeClooney.png', 'Im_DanielRadcliffe.png', 'Im_BradPitt.png', 'Im_LeonardoDiCaprio.png', 'Im_JustinTimberlake.png', 'Im_RobertPattinson.png', 'Im_PatrickDempsey.png', 'Im_DanielCraig.png'],same,1,0.5333966999996846,1,0,
SASO1010,0,neg,120,neg120_id3_im6.bmp_neg120_id3_im8.bmp,['Im_BenStiller.png', 'Im_KeanuReeves.png', 'Im_GeorgeClooney.png', 'Im_DanielRadcliffe.png', 'Im_BradPitt.png', 'Im_LeonardoDiCaprio.png', 'Im_JustinTimberlake.png', 'Im_RobertPattinson.png', 'Im_PatrickDempsey.png', 'Im_DanielCraig.png'],same,1,0.42489650000061374,2,0,
SASO1010,0,neg,150,neg150_id4_im7.bmp_neg150_id17_im8.bmp,['Im_BenStiller.png', 'Im_KeanuReeves.png', 'Im_GeorgeClooney.png', 'Im_DanielRadcliffe.png', 'Im_BradPitt.png', 'Im_LeonardoDiCaprio.png', 'Im_JustinTimberlake.png', 'Im_RobertPattinson.png', 'Im_PatrickDempsey.png', 'Im_DanielCraig.png'],diff,1,0.4920871000003899,3,0,
SASO1010,0,neg,120,neg120_id17_im9.bmp_neg120_id17_im14.bmp,['Im_BenStiller.png', 'Im_KeanuReeves.png', 'Im_GeorgeClooney.png', 'Im_DanielRadcliffe.png', 'Im_BradPitt.png', 'Im_LeonardoDiCaprio.png', 'Im_JustinTimberlake.png', 'Im_RobertPattinson.png', 'Im_PatrickDempsey.png', 'Im_DanielCraig.png'],same,1,0.4750106000001324,4,0,
SASO1010,0,neg,30,neg30_id5_im10.bmp_neg30_id5_im1.bmp,['Im_BenStiller.png', 'Im_KeanuReeves.png', 'Im_GeorgeClooney.png', 'Im_DanielRadcliffe.png', 'Im_BradPitt.png', 'Im_LeonardoDiCaprio.png', 'Im_JustinTimberlake.png', 'Im_RobertPattinson.png', 'Im_PatrickDempsey.png', 'Im_DanielCraig.png'],same,1,0.416525300000103,5,0,
SASO1010,0,neg,fs,negfs_id3_im17.bmp_negfs_id10_im1.bmp,['Im_BenStiller.png', 'Im_KeanuReeves.png', 'Im_GeorgeClooney.png', 'Im_DanielRadcliffe.png', 'Im_BradPitt.png', 'Im_LeonardoDiCaprio.png', 'Im_JustinTimberlake.png', 'Im_RobertPattinson.png', 'Im_PatrickDempsey.png', 'Im_DanielCraig.png'],diff,1,0.4917108999998163,6,0,
SASO1010,0,neg,0,neg0_id13_im29.bmp_neg0_id13_im15.bmp,['Im_BenStiller.png', 'Im_KeanuReeves.png', 'Im_GeorgeClooney.png', 'Im_DanielRadcliffe.png', 'Im_BradPitt.png', 'Im_LeonardoDiCaprio.png', 'Im_JustinTimberlake.png', 'Im_RobertPattinson.png', 'Im_PatrickDempsey.png', 'Im_DanielCraig.png'],diff,0,0.5500677999998516,6,0,
SASO1010,0,neg,30,neg30_id19_im8.bmp_neg30_id13_im29.bmp,['Im_BenStiller.png', 'Im_KeanuReeves.png', 'Im_GeorgeClooney.png', 'Im_DanielRadcliffe.png', 'Im_BradPitt.png', 'Im_LeonardoDiCaprio.png', 'Im_JustinTimberlake.png', 'Im_RobertPattinson.png', 'Im_PatrickDempsey.png', 'Im_DanielCraig.png'],diff,1,1.7335469999998168,7,0,
SASO1010,0,neg,60,neg60_id3_im6.bmp_neg60_id10_im17.bmp,['Im_BenStiller.png', 'Im_KeanuReeves.png', 'Im_GeorgeClooney.png', 'Im_DanielRadcliffe.png', 'Im_BradPitt.png', 'Im_LeonardoDiCaprio.png', 'Im_JustinTimberlake.png', 'Im_RobertPattinson.png', 'Im_PatrickDempsey.png', 'Im_DanielCraig.png'],diff,1,1.5749176999997871,8,0,
SASO1010,0,neg,90,neg90_id2_im2.bmp_neg90_id5_im10.bmp,['Im_BenStiller.png', 'Im_KeanuReeves.png', 'Im_GeorgeClooney.png', 'Im_DanielRadcliffe.png', 'Im_BradPitt.png', 'Im_LeonardoDiCaprio.png', 'Im_JustinTimberlake.png', 'Im_RobertPattinson.png', 'Im_PatrickDempsey.png', 'Im_DanielCraig.png'],diff,1,0.4917155000002822,9,0,
SASO1010,0,neg,150,neg150_id7_im26.bmp_neg150_id19_im4.bmp,['Im_BenStiller.png', 'Im_KeanuReeves.png', 'Im_GeorgeClooney.png', 'Im_DanielRadcliffe.png', 'Im_BradPitt.png', 'Im_LeonardoDiCaprio.png', 'Im_JustinTimberlake.png', 'Im_RobertPattinson.png', 'Im_PatrickDempsey.png', 'Im_DanielCraig.png'],diff,1,0.9086410999998407,10,0,
SASO1010,0,neg,0,neg0_id13_im15.bmp_neg0_id11_im1.bmp,['Im_BenStiller.png', 'Im_KeanuReeves.png', 'Im_GeorgeClooney.png', 'Im_DanielRadcliffe.png', 'Im_BradPitt.png', 'Im_LeonardoDiCaprio.png', 'Im_JustinTimberlake.png', 'Im_RobertPattinson.png', 'Im_PatrickDempsey.png', 'Im_DanielCraig.png'],diff,1,0.7833999000004042,11,0,
SASO1010,0,neg,90,neg90_id2_im2.bmp_neg90_id2_im3.bmp,['Im_BenStiller.png', 'Im_KeanuReeves.png', 'Im_GeorgeClooney.png', 'Im_DanielRadcliffe.png', 'Im_BradPitt.png', 'Im_LeonardoDiCaprio.png', 'Im_JustinTimberlake.png', 'Im_RobertPattinson.png', 'Im_PatrickDempsey.png', 'Im_DanielCraig.png'],diff,0,0.5834898000002795,11,0,
SASO1010,0,neg,fs,negfs_id4_im15.bmp_negfs_id4_im20.bmp,['Im_BenStiller.png', 'Im_KeanuReeves.png', 'Im_GeorgeClooney.png', 'Im_DanielRadcliffe.png', 'Im_BradPitt.png', 'Im_LeonardoDiCaprio.png', 'Im_JustinTimberlake.png', 'Im_RobertPattinson.png', 'Im_PatrickDempsey.png', 'Im_DanielCraig.png'],same,1,0.6585260000001654,12,0,
SASO1010,1,inv,90,pos90_id19_im27.bmp_pos90_id11_im10.bmp,['Im_BenStiller.png', 'Im_KeanuReeves.png', 'Im_GeorgeClooney.png', 'Im_DanielRadcliffe.png', 'Im_BradPitt.png', 'Im_LeonardoDiCaprio.png', 'Im_JustinTimberlake.png', 'Im_RobertPattinson.png', 'Im_PatrickDempsey.png', 'Im_DanielCraig.png'],diff,1,0.591950199999701,13,0,
SASO1010,1,inv,0,pos0_id3_im17.bmp_pos0_id3_im8.bmp,['Im_BenStiller.png', 'Im_KeanuReeves.png', 'Im_GeorgeClooney.png', 'Im_DanielRadcliffe.png', 'Im_BradPitt.png', 'Im_LeonardoDiCaprio.png', 'Im_JustinTimberlake.png', 'Im_RobertPattinson.png', 'Im_PatrickDempsey.png', 'Im_DanielCraig.png'],same,1,0.45852650000051653,14,0,
SASO1010,1,inv,150,pos150_id13_im10.bmp_pos150_id13_im15.bmp,['Im_BenStiller.png', 'Im_KeanuReeves.png', 'Im_GeorgeClooney.png', 'Im_DanielRadcliffe.png', 'Im_BradPitt.png', 'Im_LeonardoDiCaprio.png', 'Im_JustinTimberlake.png', 'Im_RobertPattinson.png', 'Im_PatrickDempsey.png', 'Im_DanielCraig.png'],same,1,0.575072800000271,15,0,
SASO1010,1,inv,30,pos30_id3_im17.bmp_pos30_id11_im2.bmp,['Im_BenStiller.png', 'Im_KeanuReeves.png', 'Im_GeorgeClooney.png', 'Im_DanielRadcliffe.png', 'Im_BradPitt.png', 'Im_LeonardoDiCaprio.png', 'Im_JustinTimberlake.png', 'Im_RobertPattinson.png', 'Im_PatrickDempsey.png', 'Im_DanielCraig.png'],diff,1,0.5000817999998617,16,0,
SASO1010,1,inv,0,pos0_id13_im15.bmp_pos0_id5_im10.bmp,['Im_BenStiller.png', 'Im_KeanuReeves.png', 'Im_GeorgeClooney.png', 'Im_DanielRadcliffe.png', 'Im_BradPitt.png', 'Im_LeonardoDiCaprio.png', 'Im_JustinTimberlake.png', 'Im_RobertPattinson.png', 'Im_PatrickDempsey.png', 'Im_DanielCraig.png'],diff,1,1.2583982000005562,17,0,
SASO1010,1,inv,120,pos120_id17_im8.bmp_pos120_id4_im7.bmp,['Im_BenStiller.png', 'Im_KeanuReeves.png', 'Im_GeorgeClooney.png', 'Im_DanielRadcliffe.png', 'Im_BradPitt.png', 'Im_LeonardoDiCaprio.png', 'Im_JustinTimberlake.png', 'Im_RobertPattinson.png', 'Im_PatrickDempsey.png', 'Im_DanielCraig.png'],diff,1,0.766816999999719,18,0,
SASO1010,1,inv,120,pos120_id11_im10.bmp_pos120_id19_im27.bmp,['Im_BenStiller.png', 'Im_KeanuReeves.png', 'Im_GeorgeClooney.png', 'Im_DanielRadcliffe.png', 'Im_BradPitt.png', 'Im_LeonardoDiCaprio.png', 'Im_JustinTimberlake.png', 'Im_RobertPattinson.png', 'Im_PatrickDempsey.png', 'Im_DanielCraig.png'],diff,1,0.7084177000006093,19,0,
SASO1010,1,inv,60,pos60_id13_im29.bmp_pos60_id13_im10.bmp,['Im_BenStiller.png', 'Im_KeanuReeves.png', 'Im_GeorgeClooney.png', 'Im_DanielRadcliffe.png', 'Im_BradPitt.png', 'Im_LeonardoDiCaprio.png', 'Im_JustinTimberlake.png', 'Im_RobertPattinson.png', 'Im_PatrickDempsey.png', 'Im_DanielCraig.png'],same,1,1.0416713000004165,20,0,
SASO1010,1,inv,fs,posfs_id11_im1.bmp_posfs_id11_im10.bmp,['Im_BenStiller.png', 'Im_KeanuReeves.png', 'Im_GeorgeClooney.png', 'Im_DanielRadcliffe.png', 'Im_BradPitt.png', 'Im_LeonardoDiCaprio.png', 'Im_JustinTimberlake.png', 'Im_RobertPattinson.png', 'Im_PatrickDempsey.png', 'Im_DanielCraig.png'],same,1,0.4082942999993975,21,0,
SASO1010,1,inv,fs,posfs_id13_im10.bmp_posfs_id5_im20.bmp,['Im_BenStiller.png', 'Im_KeanuReeves.png', 'Im_GeorgeClooney.png', 'Im_DanielRadcliffe.png', 'Im_BradPitt.png', 'Im_LeonardoDiCaprio.png', 'Im_JustinTimberlake.png', 'Im_RobertPattinson.png', 'Im_PatrickDempsey.png', 'Im_DanielCraig.png'],diff,1,0.4417073000004166,22,0,
SASO1010,1,inv,60,pos60_id10_im1.bmp_pos60_id10_im18.bmp,['Im_BenStiller.png', 'Im_KeanuReeves.png', 'Im_GeorgeClooney.png', 'Im_DanielRadcliffe.png', 'Im_BradPitt.png', 'Im_LeonardoDiCaprio.png', 'Im_JustinTimberlake.png', 'Im_RobertPattinson.png', 'Im_PatrickDempsey.png', 'Im_DanielCraig.png'],same,1,0.8417177000001175,23,0,
SASO1010,1,inv,150,pos150_id5_im20.bmp_pos150_id5_im10.bmp,['Im_BenStiller.png', 'Im_KeanuReeves.png', 'Im_GeorgeClooney.png', 'Im_DanielRadcliffe.png', 'Im_BradPitt.png', 'Im_LeonardoDiCaprio.png', 'Im_JustinTimberlake.png', 'Im_RobertPattinson.png', 'Im_PatrickDempsey.png', 'Im_DanielCraig.png'],diff,0,1.1499321000001146,23,0,
SASO1010,1,inv,30,pos30_id17_im8.bmp_pos30_id10_im17.bmp,['Im_BenStiller.png', 'Im_KeanuReeves.png', 'Im_GeorgeClooney.png', 'Im_DanielRadcliffe.png', 'Im_BradPitt.png', 'Im_LeonardoDiCaprio.png', 'Im_JustinTimberlake.png', 'Im_RobertPattinson.png', 'Im_PatrickDempsey.png', 'Im_DanielCraig.png'],same,0,0.4250785000003816,23,0,
SASO1010,1,inv,90,pos90_id13_im15.bmp_pos90_id5_im10.bmp,['Im_BenStiller.png', 'Im_KeanuReeves.png', 'Im_GeorgeClooney.png', 'Im_DanielRadcliffe.png', 'Im_BradPitt.png', 'Im_LeonardoDiCaprio.png', 'Im_JustinTimberlake.png', 'Im_RobertPattinson.png', 'Im_PatrickDempsey.png', 'Im_DanielCraig.png'],diff,1,0.41681640000024345,24,0,
SASO1010,2,pos,60,pos60_id4_im15.bmp_pos60_id5_im1.bmp,['Im_BenStiller.png', 'Im_KeanuReeves.png', 'Im_GeorgeClooney.png', 'Im_DanielRadcliffe.png', 'Im_BradPitt.png', 'Im_LeonardoDiCaprio.png', 'Im_JustinTimberlake.png', 'Im_RobertPattinson.png', 'Im_PatrickDempsey.png', 'Im_DanielCraig.png'],diff,1,0.4500787999995737,25,0,
SASO1010,2,pos,30,pos30_id2_im16.bmp_pos30_id7_im15.bmp,['Im_BenStiller.png', 'Im_KeanuReeves.png', 'Im_GeorgeClooney.png', 'Im_DanielRadcliffe.png', 'Im_BradPitt.png', 'Im_LeonardoDiCaprio.png', 'Im_JustinTimberlake.png', 'Im_RobertPattinson.png', 'Im_PatrickDempsey.png', 'Im_DanielCraig.png'],diff,1,0.42506129999947007,26,0,
SASO1010,2,pos,150,pos150_id10_im17.bmp_pos150_id3_im6.bmp,['Im_BenStiller.png', 'Im_KeanuReeves.png', 'Im_GeorgeClooney.png', 'Im_DanielRadcliffe.png', 'Im_BradPitt.png', 'Im_LeonardoDiCaprio.png', 'Im_JustinTimberlake.png', 'Im_RobertPattinson.png', 'Im_PatrickDempsey.png', 'Im_DanielCraig.png'],diff,1,1.666753399999834,27,0,
SASO1010,2,pos,fs,posfs_id5_im10.bmp_posfs_id13_im15.bmp,['Im_BenStiller.png', 'Im_KeanuReeves.png', 'Im_GeorgeClooney.png', 'Im_DanielRadcliffe.png', 'Im_BradPitt.png', 'Im_LeonardoDiCaprio.png', 'Im_JustinTimberlake.png', 'Im_RobertPattinson.png', 'Im_PatrickDempsey.png', 'Im_DanielCraig.png'],diff,1,0.4167415000001711,28,0,
SASO1010,2,pos,120,pos120_id10_im17.bmp_pos120_id10_im1.bmp,['Im_BenStiller.png', 'Im_KeanuReeves.png', 'Im_GeorgeClooney.png', 'Im_DanielRadcliffe.png', 'Im_BradPitt.png', 'Im_LeonardoDiCaprio.png', 'Im_JustinTimberlake.png', 'Im_RobertPattinson.png', 'Im_PatrickDempsey.png', 'Im_DanielCraig.png'],same,1,1.0418297000005623,29,0,
SASO1010,2,pos,120,pos120_id10_im17.bmp_pos120_id10_im18.bmp,['Im_BenStiller.png', 'Im_KeanuReeves.png', 'Im_GeorgeClooney.png', 'Im_DanielRadcliffe.png', 'Im_BradPitt.png', 'Im_LeonardoDiCaprio.png', 'Im_JustinTimberlake.png', 'Im_RobertPattinson.png', 'Im_PatrickDempsey.png', 'Im_DanielCraig.png'],same,1,0.43361189999995986,30,0,
SASO1010,2,pos,60,pos60_id10_im18.bmp_pos60_id10_im17.bmp,['Im_BenStiller.png', 'Im_KeanuReeves.png', 'Im_GeorgeClooney.png', 'Im_DanielRadcliffe.png', 'Im_BradPitt.png', 'Im_LeonardoDiCaprio.png', 'Im_JustinTimberlake.png', 'Im_RobertPattinson.png', 'Im_PatrickDempsey.png', 'Im_DanielCraig.png'],same,1,0.4165611999997054,31,0,
SASO1010,2,pos,0,pos0_id13_im15.bmp_pos0_id13_im10.bmp,['Im_BenStiller.png', 'Im_KeanuReeves.png', 'Im_GeorgeClooney.png', 'Im_DanielRadcliffe.png', 'Im_BradPitt.png', 'Im_LeonardoDiCaprio.png', 'Im_JustinTimberlake.png', 'Im_RobertPattinson.png', 'Im_PatrickDempsey.png', 'Im_DanielCraig.png'],same,1,0.5748259000001781,32,0,
SASO1010,2,pos,0,pos0_id13_im15.bmp_pos0_id13_im29.bmp,['Im_BenStiller.png', 'Im_KeanuReeves.png', 'Im_GeorgeClooney.png', 'Im_DanielRadcliffe.png', 'Im_BradPitt.png', 'Im_LeonardoDiCaprio.png', 'Im_JustinTimberlake.png', 'Im_RobertPattinson.png', 'Im_PatrickDempsey.png', 'Im_DanielCraig.png'],same,1,0.5000479000000269,33,0,
SASO1010,2,pos,30,pos30_id2_im16.bmp_pos30_id2_im3.bmp,['Im_BenStiller.png', 'Im_KeanuReeves.png', 'Im_GeorgeClooney.png', 'Im_DanielRadcliffe.png', 'Im_BradPitt.png', 'Im_LeonardoDiCaprio.png', 'Im_JustinTimberlake.png', 'Im_RobertPattinson.png', 'Im_PatrickDempsey.png', 'Im_DanielCraig.png'],same,1,0.6251359999996566,34,0,
SASO1010,2,pos,90,pos90_id4_im7.bmp_pos90_id17_im8.bmp,['Im_BenStiller.png', 'Im_KeanuReeves.png', 'Im_GeorgeClooney.png', 'Im_DanielRadcliffe.png', 'Im_BradPitt.png', 'Im_LeonardoDiCaprio.png', 'Im_JustinTimberlake.png', 'Im_RobertPattinson.png', 'Im_PatrickDempsey.png', 'Im_DanielCraig.png'],diff,1,0.46694290000050387,35,0,
SASO1010,2,pos,150,pos150_id10_im1.bmp_pos150_id3_im17.bmp,['Im_BenStiller.png', 'Im_KeanuReeves.png', 'Im_GeorgeClooney.png', 'Im_DanielRadcliffe.png', 'Im_BradPitt.png', 'Im_LeonardoDiCaprio.png', 'Im_JustinTimberlake.png', 'Im_RobertPattinson.png', 'Im_PatrickDempsey.png', 'Im_DanielCraig.png'],diff,1,0.4167830000005779,36,0,
SASO1010,2,pos,90,pos90_id4_im15.bmp_pos90_id4_im20.bmp,['Im_BenStiller.png', 'Im_KeanuReeves.png', 'Im_GeorgeClooney.png', 'Im_DanielRadcliffe.png', 'Im_BradPitt.png', 'Im_LeonardoDiCaprio.png', 'Im_JustinTimberlake.png', 'Im_RobertPattinson.png', 'Im_PatrickDempsey.png', 'Im_DanielCraig.png'],same,1,0.41676300000017363,37,0,
SASO1010,2,pos,fs,posfs_id17_im8.bmp_posfs_id4_im7.bmp,['Im_BenStiller.png', 'Im_KeanuReeves.png', 'Im_GeorgeClooney.png', 'Im_DanielRadcliffe.png', 'Im_BradPitt.png', 'Im_LeonardoDiCaprio.png', 'Im_JustinTimberlake.png', 'Im_RobertPattinson.png', 'Im_PatrickDempsey.png', 'Im_DanielCraig.png'],diff,1,0.4752680000001419,38,0,
SASO1010,3,neg,0,neg0_id19_im27.bmp_neg0_id11_im10.bmp,['Im_BenStiller.png', 'Im_KeanuReeves.png', 'Im_GeorgeClooney.png', 'Im_DanielRadcliffe.png', 'Im_BradPitt.png', 'Im_LeonardoDiCaprio.png', 'Im_JustinTimberlake.png', 'Im_RobertPattinson.png', 'Im_PatrickDempsey.png', 'Im_DanielCraig.png'],diff,1,0.8921868000006725,1,90.47619047619048,
SASO1010,3,neg,30,neg30_id11_im10.bmp_neg30_id19_im27.bmp,['Im_BenStiller.png', 'Im_KeanuReeves.png', 'Im_GeorgeClooney.png', 'Im_DanielRadcliffe.png', 'Im_BradPitt.png', 'Im_LeonardoDiCaprio.png', 'Im_JustinTimberlake.png', 'Im_RobertPattinson.png', 'Im_PatrickDempsey.png', 'Im_DanielCraig.png'],diff,1,0.91702290000012,2,90.47619047619048,
SASO1010,3,neg,150,neg150_id10_im1.bmp_neg150_id10_im18.bmp,['Im_BenStiller.png', 'Im_KeanuReeves.png', 'Im_GeorgeClooney.png', 'Im_DanielRadcliffe.png', 'Im_BradPitt.png', 'Im_LeonardoDiCaprio.png', 'Im_JustinTimberlake.png', 'Im_RobertPattinson.png', 'Im_PatrickDempsey.png', 'Im_DanielCraig.png'],same,1,0.6000653000000966,3,90.47619047619048,
SASO1010,3,neg,30,neg30_id19_im27.bmp_neg30_id19_im4.bmp,['Im_BenStiller.png', 'Im_KeanuReeves.png', 'Im_GeorgeClooney.png', 'Im_DanielRadcliffe.png', 'Im_BradPitt.png', 'Im_LeonardoDiCaprio.png', 'Im_JustinTimberlake.png', 'Im_RobertPattinson.png', 'Im_PatrickDempsey.png', 'Im_DanielCraig.png'],same,1,0.47503340000002936,4,90.47619047619048,
SASO1010,3,neg,90,neg90_id5_im1.bmp_neg90_id4_im15.bmp,['Im_BenStiller.png', 'Im_KeanuReeves.png', 'Im_GeorgeClooney.png', 'Im_DanielRadcliffe.png', 'Im_BradPitt.png', 'Im_LeonardoDiCaprio.png', 'Im_JustinTimberlake.png', 'Im_RobertPattinson.png', 'Im_PatrickDempsey.png', 'Im_DanielCraig.png'],diff,1,0.43324499999926047,5,90.47619047619048,
SASO1010,3,neg,60,neg60_id13_im10.bmp_neg60_id2_im16.bmp,['Im_BenStiller.png', 'Im_KeanuReeves.png', 'Im_GeorgeClooney.png', 'Im_DanielRadcliffe.png', 'Im_BradPitt.png', 'Im_LeonardoDiCaprio.png', 'Im_JustinTimberlake.png', 'Im_RobertPattinson.png', 'Im_PatrickDempsey.png', 'Im_DanielCraig.png'],same,0,1.408252299999731,5,90.47619047619048,
SASO1010,3,neg,0,neg0_id7_im26.bmp_neg0_id7_im14.bmp,['Im_BenStiller.png', 'Im_KeanuReeves.png', 'Im_GeorgeClooney.png', 'Im_DanielRadcliffe.png', 'Im_BradPitt.png', 'Im_LeonardoDiCaprio.png', 'Im_JustinTimberlake.png', 'Im_RobertPattinson.png', 'Im_PatrickDempsey.png', 'Im_DanielCraig.png'],same,1,0.9667649000002712,6,90.47619047619048,
SASO1010,3,neg,120,neg120_id17_im9.bmp_neg120_id3_im6.bmp,['Im_BenStiller.png', 'Im_KeanuReeves.png', 'Im_GeorgeClooney.png', 'Im_DanielRadcliffe.png', 'Im_BradPitt.png', 'Im_LeonardoDiCaprio.png', 'Im_JustinTimberlake.png', 'Im_RobertPattinson.png', 'Im_PatrickDempsey.png', 'Im_DanielCraig.png'],diff,1,0.41678330000013375,7,90.47619047619048,
SASO1010,3,neg,90,neg90_id10_im1.bmp_neg90_id10_im17.bmp,['Im_BenStiller.png', 'Im_KeanuReeves.png', 'Im_GeorgeClooney.png', 'Im_DanielRadcliffe.png', 'Im_BradPitt.png', 'Im_LeonardoDiCaprio.png', 'Im_JustinTimberlake.png', 'Im_RobertPattinson.png', 'Im_PatrickDempsey.png', 'Im_DanielCraig.png'],same,1,0.6337002000000211,8,90.47619047619048,
SASO1010,3,neg,150,neg150_id19_im4.bmp_neg150_id19_im27.bmp,['Im_BenStiller.png', 'Im_KeanuReeves.png', 'Im_GeorgeClooney.png', 'Im_DanielRadcliffe.png', 'Im_BradPitt.png', 'Im_LeonardoDiCaprio.png', 'Im_JustinTimberlake.png', 'Im_RobertPattinson.png', 'Im_PatrickDempsey.png', 'Im_DanielCraig.png'],same,1,0.8752003999998124,9,90.47619047619048,
SASO1010,3,neg,fs,negfs_id11_im10.bmp_negfs_id17_im14.bmp,['Im_BenStiller.png', 'Im_KeanuReeves.png', 'Im_GeorgeClooney.png', 'Im_DanielRadcliffe.png', 'Im_BradPitt.png', 'Im_LeonardoDiCaprio.png', 'Im_JustinTimberlake.png', 'Im_RobertPattinson.png', 'Im_PatrickDempsey.png', 'Im_DanielCraig.png'],diff,1,0.42502039999999397,10,90.47619047619048,
SASO1010,3,neg,fs,negfs_id4_im15.bmp_negfs_id19_im27.bmp,['Im_BenStiller.png', 'Im_KeanuReeves.png', 'Im_GeorgeClooney.png', 'Im_DanielRadcliffe.png', 'Im_BradPitt.png', 'Im_LeonardoDiCaprio.png', 'Im_JustinTimberlake.png', 'Im_RobertPattinson.png', 'Im_PatrickDempsey.png', 'Im_DanielCraig.png'],diff,1,0.4419777000002796,11,90.47619047619048,
SASO1010,3,neg,60,neg60_id11_im1.bmp_neg60_id19_im8.bmp,['Im_BenStiller.png', 'Im_KeanuReeves.png', 'Im_GeorgeClooney.png', 'Im_DanielRadcliffe.png', 'Im_BradPitt.png', 'Im_LeonardoDiCaprio.png', 'Im_JustinTimberlake.png', 'Im_RobertPattinson.png', 'Im_PatrickDempsey.png', 'Im_DanielCraig.png'],same,0,0.9503193999998985,11,90.47619047619048,
SASO1010,3,neg,120,neg120_id17_im8.bmp_neg120_id4_im7.bmp,['Im_BenStiller.png', 'Im_KeanuReeves.png', 'Im_GeorgeClooney.png', 'Im_DanielRadcliffe.png', 'Im_BradPitt.png', 'Im_LeonardoDiCaprio.png', 'Im_JustinTimberlake.png', 'Im_RobertPattinson.png', 'Im_PatrickDempsey.png', 'Im_DanielCraig.png'],same,0,0.850089399999888,11,90.47619047619048,
SASO1010,4,pos,90,pos90_id2_im2.bmp_pos90_id5_im20.bmp,['Im_BenStiller.png', 'Im_KeanuReeves.png', 'Im_GeorgeClooney.png', 'Im_DanielRadcliffe.png', 'Im_BradPitt.png', 'Im_LeonardoDiCaprio.png', 'Im_JustinTimberlake.png', 'Im_RobertPattinson.png', 'Im_PatrickDempsey.png', 'Im_DanielCraig.png'],diff,1,0.6667180000004009,12,90.47619047619048,
SASO1010,4,pos,fs,posfs_id13_im10.bmp_posfs_id13_im29.bmp,['Im_BenStiller.png', 'Im_KeanuReeves.png', 'Im_GeorgeClooney.png', 'Im_DanielRadcliffe.png', 'Im_BradPitt.png', 'Im_LeonardoDiCaprio.png', 'Im_JustinTimberlake.png', 'Im_RobertPattinson.png', 'Im_PatrickDempsey.png', 'Im_DanielCraig.png'],same,1,0.7499079999997775,13,90.47619047619048,
SASO1010,4,pos,120,pos120_id2_im2.bmp_pos120_id5_im10.bmp,['Im_BenStiller.png', 'Im_KeanuReeves.png', 'Im_GeorgeClooney.png', 'Im_DanielRadcliffe.png', 'Im_BradPitt.png', 'Im_LeonardoDiCaprio.png', 'Im_JustinTimberlake.png', 'Im_RobertPattinson.png', 'Im_PatrickDempsey.png', 'Im_DanielCraig.png'],diff,1,0.942144499999813,14,90.47619047619048,
SASO1010,4,pos,90,pos90_id17_im8.bmp_pos90_id17_im9.bmp,['Im_BenStiller.png', 'Im_KeanuReeves.png', 'Im_GeorgeClooney.png', 'Im_DanielRadcliffe.png', 'Im_BradPitt.png', 'Im_LeonardoDiCaprio.png', 'Im_JustinTimberlake.png', 'Im_RobertPattinson.png', 'Im_PatrickDempsey.png', 'Im_DanielCraig.png'],same,1,0.6333657000004678,15,90.47619047619048,
SASO1010,4,pos,150,pos150_id2_im2.bmp_pos150_id5_im10.bmp,['Im_BenStiller.png', 'Im_KeanuReeves.png', 'Im_GeorgeClooney.png', 'Im_DanielRadcliffe.png', 'Im_BradPitt.png', 'Im_LeonardoDiCaprio.png', 'Im_JustinTimberlake.png', 'Im_RobertPattinson.png', 'Im_PatrickDempsey.png', 'Im_DanielCraig.png'],diff,1,0.5337394999996832,16,90.47619047619048,
SASO1010,4,pos,0,pos0_id4_im7.bmp_pos0_id4_im20.bmp,['Im_BenStiller.png', 'Im_KeanuReeves.png', 'Im_GeorgeClooney.png', 'Im_DanielRadcliffe.png', 'Im_BradPitt.png', 'Im_LeonardoDiCaprio.png', 'Im_JustinTimberlake.png', 'Im_RobertPattinson.png', 'Im_PatrickDempsey.png', 'Im_DanielCraig.png'],same,1,0.4250785000003816,17,90.47619047619048,
SASO1010,4,pos,30,pos30_id17_im9.bmp_pos30_id17_im14.bmp,['Im_BenStiller.png', 'Im_KeanuReeves.png', 'Im_GeorgeClooney.png', 'Im_DanielRadcliffe.png', 'Im_BradPitt.png', 'Im_LeonardoDiCaprio.png', 'Im_JustinTimberlake.png', 'Im_RobertPattinson.png', 'Im_PatrickDempsey.png', 'Im_DanielCraig.png'],same,1,0.4167496999998548,18,90.47619047619048,
SASO1010,4,pos,0,pos0_id4_im20.bmp_pos0_id7_im14.bmp,['Im_BenStiller.png', 'Im_KeanuReeves.png', 'Im_GeorgeClooney.png', 'Im_DanielRadcliffe.png', 'Im_BradPitt.png', 'Im_LeonardoDiCaprio.png', 'Im_JustinTimberlake.png', 'Im_RobertPattinson.png', 'Im_PatrickDempsey.png', 'Im_DanielCraig.png'],diff,1,0.42507949999981065,19,90.47619047619048,
SASO1010,4,pos,60,pos60_id2_im16.bmp_pos60_id2_im3.bmp,['Im_BenStiller.png', 'Im_KeanuReeves.png', 'Im_GeorgeClooney.png', 'Im_DanielRadcliffe.png', 'Im_BradPitt.png', 'Im_LeonardoDiCaprio.png', 'Im_JustinTimberlake.png', 'Im_RobertPattinson.png', 'Im_PatrickDempsey.png', 'Im_DanielCraig.png'],same,1,0.6167599999998856,20,90.47619047619048,
SASO1010,4,pos,fs,posfs_id2_im2.bmp_posfs_id2_im3.bmp,['Im_BenStiller.png', 'Im_KeanuReeves.png', 'Im_GeorgeClooney.png', 'Im_DanielRadcliffe.png', 'Im_BradPitt.png', 'Im_LeonardoDiCaprio.png', 'Im_JustinTimberlake.png', 'Im_RobertPattinson.png', 'Im_PatrickDempsey.png', 'Im_DanielCraig.png'],same,1,0.4666357000005519,21,90.47619047619048,
SASO1010,4,pos,150,pos150_id3_im6.bmp_pos150_id3_im8.bmp,['Im_BenStiller.png', 'Im_KeanuReeves.png', 'Im_GeorgeClooney.png', 'Im_DanielRadcliffe.png', 'Im_BradPitt.png', 'Im_LeonardoDiCaprio.png', 'Im_JustinTimberlake.png', 'Im_RobertPattinson.png', 'Im_PatrickDempsey.png', 'Im_DanielCraig.png'],same,1,0.4166848000004393,22,90.47619047619048,
SASO1010,4,pos,120,pos120_id5_im10.bmp_pos120_id5_im1.bmp,['Im_BenStiller.png', 'Im_KeanuReeves.png', 'Im_GeorgeClooney.png', 'Im_DanielRadcliffe.png', 'Im_BradPitt.png', 'Im_LeonardoDiCaprio.png', 'Im_JustinTimberlake.png', 'Im_RobertPattinson.png', 'Im_PatrickDempsey.png', 'Im_DanielCraig.png'],same,1,0.41676230000030046,23,90.47619047619048,
SASO1010,4,pos,60,pos60_id7_im14.bmp_pos60_id4_im20.bmp,['Im_BenStiller.png', 'Im_KeanuReeves.png', 'Im_GeorgeClooney.png', 'Im_DanielRadcliffe.png', 'Im_BradPitt.png', 'Im_LeonardoDiCaprio.png', 'Im_JustinTimberlake.png', 'Im_RobertPattinson.png', 'Im_PatrickDempsey.png', 'Im_DanielCraig.png'],diff,1,0.4249053000003187,24,90.47619047619048,
SASO1010,4,pos,30,pos30_id19_im8.bmp_pos30_id13_im29.bmp,['Im_BenStiller.png', 'Im_KeanuReeves.png', 'Im_GeorgeClooney.png', 'Im_DanielRadcliffe.png', 'Im_BradPitt.png', 'Im_LeonardoDiCaprio.png', 'Im_JustinTimberlake.png', 'Im_RobertPattinson.png', 'Im_PatrickDempsey.png', 'Im_DanielCraig.png'],diff,1,1.3419275000005655,25,90.47619047619048,
SASO1010,5,inv,fs,posfs_id5_im20.bmp_posfs_id5_im1.bmp,['Im_BenStiller.png', 'Im_KeanuReeves.png', 'Im_GeorgeClooney.png', 'Im_DanielRadcliffe.png', 'Im_BradPitt.png', 'Im_LeonardoDiCaprio.png', 'Im_JustinTimberlake.png', 'Im_RobertPattinson.png', 'Im_PatrickDempsey.png', 'Im_DanielCraig.png'],same,1,0.8341669000001275,26,90.47619047619048,
SASO1010,5,inv,90,pos90_id17_im9.bmp_pos90_id17_im8.bmp,['Im_BenStiller.png', 'Im_KeanuReeves.png', 'Im_GeorgeClooney.png', 'Im_DanielRadcliffe.png', 'Im_BradPitt.png', 'Im_LeonardoDiCaprio.png', 'Im_JustinTimberlake.png', 'Im_RobertPattinson.png', 'Im_PatrickDempsey.png', 'Im_DanielCraig.png'],same,1,0.8752934000003734,27,90.47619047619048,
SASO1010,5,inv,0,pos0_id2_im2.bmp_pos0_id5_im20.bmp,['Im_BenStiller.png', 'Im_KeanuReeves.png', 'Im_GeorgeClooney.png', 'Im_DanielRadcliffe.png', 'Im_BradPitt.png', 'Im_LeonardoDiCaprio.png', 'Im_JustinTimberlake.png', 'Im_RobertPattinson.png', 'Im_PatrickDempsey.png', 'Im_DanielCraig.png'],diff,1,0.7337825999993584,28,90.47619047619048,
SASO1010,5,inv,90,pos90_id3_im6.bmp_pos90_id3_im17.bmp,['Im_BenStiller.png', 'Im_KeanuReeves.png', 'Im_GeorgeClooney.png', 'Im_DanielRadcliffe.png', 'Im_BradPitt.png', 'Im_LeonardoDiCaprio.png', 'Im_JustinTimberlake.png', 'Im_RobertPattinson.png', 'Im_PatrickDempsey.png', 'Im_DanielCraig.png'],diff,0,0.5999756000001071,28,90.47619047619048,
SASO1010,5,inv,150,pos150_id3_im17.bmp_pos150_id11_im2.bmp,['Im_BenStiller.png', 'Im_KeanuReeves.png', 'Im_GeorgeClooney.png', 'Im_DanielRadcliffe.png', 'Im_BradPitt.png', 'Im_LeonardoDiCaprio.png', 'Im_JustinTimberlake.png', 'Im_RobertPattinson.png', 'Im_PatrickDempsey.png', 'Im_DanielCraig.png'],diff,1,0.5336385999999038,29,90.47619047619048,
SASO1010,5,inv,120,pos120_id17_im14.bmp_pos120_id11_im10.bmp,['Im_BenStiller.png', 'Im_KeanuReeves.png', 'Im_GeorgeClooney.png', 'Im_DanielRadcliffe.png', 'Im_BradPitt.png', 'Im_LeonardoDiCaprio.png', 'Im_JustinTimberlake.png', 'Im_RobertPattinson.png', 'Im_PatrickDempsey.png', 'Im_DanielCraig.png'],diff,1,0.5166821000002528,30,90.47619047619048,
SASO1010,5,inv,120,pos120_id4_im15.bmp_pos120_id19_im27.bmp,['Im_BenStiller.png', 'Im_KeanuReeves.png', 'Im_GeorgeClooney.png', 'Im_DanielRadcliffe.png', 'Im_BradPitt.png', 'Im_LeonardoDiCaprio.png', 'Im_JustinTimberlake.png', 'Im_RobertPattinson.png', 'Im_PatrickDempsey.png', 'Im_DanielCraig.png'],diff,1,1.158331200000248,31,90.47619047619048,
SASO1010,5,inv,fs,posfs_id2_im16.bmp_posfs_id7_im15.bmp,['Im_BenStiller.png', 'Im_KeanuReeves.png', 'Im_GeorgeClooney.png', 'Im_DanielRadcliffe.png', 'Im_BradPitt.png', 'Im_LeonardoDiCaprio.png', 'Im_JustinTimberlake.png', 'Im_RobertPattinson.png', 'Im_PatrickDempsey.png', 'Im_DanielCraig.png'],diff,1,0.45030339999993885,32,90.47619047619048,
SASO1010,5,inv,30,pos30_id3_im6.bmp_pos30_id3_im8.bmp,['Im_BenStiller.png', 'Im_KeanuReeves.png', 'Im_GeorgeClooney.png', 'Im_DanielRadcliffe.png', 'Im_BradPitt.png', 'Im_LeonardoDiCaprio.png', 'Im_JustinTimberlake.png', 'Im_RobertPattinson.png', 'Im_PatrickDempsey.png', 'Im_DanielCraig.png'],same,1,0.5249170000006416,33,90.47619047619048,
SASO1010,5,inv,60,pos60_id19_im4.bmp_pos60_id7_im15.bmp,['Im_BenStiller.png', 'Im_KeanuReeves.png', 'Im_GeorgeClooney.png', 'Im_DanielRadcliffe.png', 'Im_BradPitt.png', 'Im_LeonardoDiCaprio.png', 'Im_JustinTimberlake.png', 'Im_RobertPattinson.png', 'Im_PatrickDempsey.png', 'Im_DanielCraig.png'],diff,1,0.8002814000001308,34,90.47619047619048,
SASO1010,5,inv,30,pos30_id11_im2.bmp_pos30_id10_im18.bmp,['Im_BenStiller.png', 'Im_KeanuReeves.png', 'Im_GeorgeClooney.png', 'Im_DanielRadcliffe.png', 'Im_BradPitt.png', 'Im_LeonardoDiCaprio.png', 'Im_JustinTimberlake.png', 'Im_RobertPattinson.png', 'Im_PatrickDempsey.png', 'Im_DanielCraig.png'],diff,1,0.4169131999997262,35,90.47619047619048,
SASO1010,5,inv,150,pos150_id5_im10.bmp_pos150_id2_im2.bmp,['Im_BenStiller.png', 'Im_KeanuReeves.png', 'Im_GeorgeClooney.png', 'Im_DanielRadcliffe.png', 'Im_BradPitt.png', 'Im_LeonardoDiCaprio.png', 'Im_JustinTimberlake.png', 'Im_RobertPattinson.png', 'Im_PatrickDempsey.png', 'Im_DanielCraig.png'],diff,1,0.4250945000003412,36,90.47619047619048,
SASO1010,5,inv,60,pos60_id17_im9.bmp_pos60_id4_im7.bmp,['Im_BenStiller.png', 'Im_KeanuReeves.png', 'Im_GeorgeClooney.png', 'Im_DanielRadcliffe.png', 'Im_BradPitt.png', 'Im_LeonardoDiCaprio.png', 'Im_JustinTimberlake.png', 'Im_RobertPattinson.png', 'Im_PatrickDempsey.png', 'Im_DanielCraig.png'],diff,1,0.41675990000021557,37,90.47619047619048,
SASO1010,5,inv,0,pos0_id2_im3.bmp_pos0_id4_im20.bmp,['Im_BenStiller.png', 'Im_KeanuReeves.png', 'Im_GeorgeClooney.png', 'Im_DanielRadcliffe.png', 'Im_BradPitt.png', 'Im_LeonardoDiCaprio.png', 'Im_JustinTimberlake.png', 'Im_RobertPattinson.png', 'Im_PatrickDempsey.png', 'Im_DanielCraig.png'],diff,1,0.46712250000018685,38,90.47619047619048,
SASO1010,6,neg,150,neg150_id10_im17.bmp_neg150_id3_im6.bmp,['Im_BenStiller.png', 'Im_KeanuReeves.png', 'Im_GeorgeClooney.png', 'Im_DanielRadcliffe.png', 'Im_BradPitt.png', 'Im_LeonardoDiCaprio.png', 'Im_JustinTimberlake.png', 'Im_RobertPattinson.png', 'Im_PatrickDempsey.png', 'Im_DanielCraig.png'],diff,1,0.46673869999995077,1,90.47619047619048,
SASO1010,6,neg,0,neg0_id5_im20.bmp_neg0_id5_im10.bmp,['Im_BenStiller.png', 'Im_KeanuReeves.png', 'Im_GeorgeClooney.png', 'Im_DanielRadcliffe.png', 'Im_BradPitt.png', 'Im_LeonardoDiCaprio.png', 'Im_JustinTimberlake.png', 'Im_RobertPattinson.png', 'Im_PatrickDempsey.png', 'Im_DanielCraig.png'],diff,0,0.4419481999993877,1,90.47619047619048,
SASO1010,6,neg,60,neg60_id2_im2.bmp_neg60_id5_im10.bmp,['Im_BenStiller.png', 'Im_KeanuReeves.png', 'Im_GeorgeClooney.png', 'Im_DanielRadcliffe.png', 'Im_BradPitt.png', 'Im_LeonardoDiCaprio.png', 'Im_JustinTimberlake.png', 'Im_RobertPattinson.png', 'Im_PatrickDempsey.png', 'Im_DanielCraig.png'],diff,1,0.8416629999992438,2,90.47619047619048,
SASO1010,6,neg,120,neg120_id7_im14.bmp_neg120_id7_im26.bmp,['Im_BenStiller.png', 'Im_KeanuReeves.png', 'Im_GeorgeClooney.png', 'Im_DanielRadcliffe.png', 'Im_BradPitt.png', 'Im_LeonardoDiCaprio.png', 'Im_JustinTimberlake.png', 'Im_RobertPattinson.png', 'Im_PatrickDempsey.png', 'Im_DanielCraig.png'],same,1,0.40865609999946173,3,90.47619047619048,
SASO1010,6,neg,60,neg60_id7_im14.bmp_neg60_id7_im26.bmp,['Im_BenStiller.png', 'Im_KeanuReeves.png', 'Im_GeorgeClooney.png', 'Im_DanielRadcliffe.png', 'Im_BradPitt.png', 'Im_LeonardoDiCaprio.png', 'Im_JustinTimberlake.png', 'Im_RobertPattinson.png', 'Im_PatrickDempsey.png', 'Im_DanielCraig.png'],same,1,0.4836019000003944,4,90.47619047619048,
SASO1010,6,neg,fs,negfs_id5_im1.bmp_negfs_id10_im1.bmp,['Im_BenStiller.png', 'Im_KeanuReeves.png', 'Im_GeorgeClooney.png', 'Im_DanielRadcliffe.png', 'Im_BradPitt.png', 'Im_LeonardoDiCaprio.png', 'Im_JustinTimberlake.png', 'Im_RobertPattinson.png', 'Im_PatrickDempsey.png', 'Im_DanielCraig.png'],diff,1,0.42508810000072117,5,90.47619047619048,
SASO1010,6,neg,fs,negfs_id5_im10.bmp_negfs_id5_im1.bmp,['Im_BenStiller.png', 'Im_KeanuReeves.png', 'Im_GeorgeClooney.png', 'Im_DanielRadcliffe.png', 'Im_BradPitt.png', 'Im_LeonardoDiCaprio.png', 'Im_JustinTimberlake.png', 'Im_RobertPattinson.png', 'Im_PatrickDempsey.png', 'Im_DanielCraig.png'],same,1,0.42516389999946114,6,90.47619047619048,
SASO1010,6,neg,30,neg30_id19_im27.bmp_neg30_id19_im8.bmp,['Im_BenStiller.png', 'Im_KeanuReeves.png', 'Im_GeorgeClooney.png', 'Im_DanielRadcliffe.png', 'Im_BradPitt.png', 'Im_LeonardoDiCaprio.png', 'Im_JustinTimberlake.png', 'Im_RobertPattinson.png', 'Im_PatrickDempsey.png', 'Im_DanielCraig.png'],same,1,0.6666057000002183,7,90.47619047619048,
SASO1010,6,neg,30,neg30_id3_im8.bmp_neg30_id7_im26.bmp,['Im_BenStiller.png', 'Im_KeanuReeves.png', 'Im_GeorgeClooney.png', 'Im_DanielRadcliffe.png', 'Im_BradPitt.png', 'Im_LeonardoDiCaprio.png', 'Im_JustinTimberlake.png', 'Im_RobertPattinson.png', 'Im_PatrickDempsey.png', 'Im_DanielCraig.png'],same,0,0.5502446999998938,7,90.47619047619048,
SASO1010,6,neg,150,neg150_id19_im8.bmp_neg150_id19_im4.bmp,['Im_BenStiller.png', 'Im_KeanuReeves.png', 'Im_GeorgeClooney.png', 'Im_DanielRadcliffe.png', 'Im_BradPitt.png', 'Im_LeonardoDiCaprio.png', 'Im_JustinTimberlake.png', 'Im_RobertPattinson.png', 'Im_PatrickDempsey.png', 'Im_DanielCraig.png'],same,1,1.0001926999993884,8,90.47619047619048,
SASO1010,6,neg,90,neg90_id11_im2.bmp_neg90_id11_im1.bmp,['Im_BenStiller.png', 'Im_KeanuReeves.png', 'Im_GeorgeClooney.png', 'Im_DanielRadcliffe.png', 'Im_BradPitt.png', 'Im_LeonardoDiCaprio.png', 'Im_JustinTimberlake.png', 'Im_RobertPattinson.png', 'Im_PatrickDempsey.png', 'Im_DanielCraig.png'],diff,0,0.83357739999974,8,90.47619047619048,
SASO1010,6,neg,90,neg90_id7_im14.bmp_neg90_id7_im26.bmp,['Im_BenStiller.png', 'Im_KeanuReeves.png', 'Im_GeorgeClooney.png', 'Im_DanielRadcliffe.png', 'Im_BradPitt.png', 'Im_LeonardoDiCaprio.png', 'Im_JustinTimberlake.png', 'Im_RobertPattinson.png', 'Im_PatrickDempsey.png', 'Im_DanielCraig.png'],same,1,0.41660610000053566,9,90.47619047619048,
SASO1010,6,neg,0,neg0_id11_im2.bmp_neg0_id11_im10.bmp,['Im_BenStiller.png', 'Im_KeanuReeves.png', 'Im_GeorgeClooney.png', 'Im_DanielRadcliffe.png', 'Im_BradPitt.png', 'Im_LeonardoDiCaprio.png', 'Im_JustinTimberlake.png', 'Im_RobertPattinson.png', 'Im_PatrickDempsey.png', 'Im_DanielCraig.png'],same,1,0.4418522000005396,10,90.47619047619048,
SASO1010,6,neg,120,neg120_id5_im20.bmp_neg120_id13_im10.bmp,['Im_BenStiller.png', 'Im_KeanuReeves.png', 'Im_GeorgeClooney.png', 'Im_DanielRadcliffe.png', 'Im_BradPitt.png', 'Im_LeonardoDiCaprio.png', 'Im_JustinTimberlake.png', 'Im_RobertPattinson.png', 'Im_PatrickDempsey.png', 'Im_DanielCraig.png'],same,0,0.6084363999998459,10,90.47619047619048,
SASO1010,7,pos,60,pos60_id13_im10.bmp_pos60_id2_im16.bmp,['Im_BenStiller.png', 'Im_KeanuReeves.png', 'Im_GeorgeClooney.png', 'Im_DanielRadcliffe.png', 'Im_BradPitt.png', 'Im_LeonardoDiCaprio.png', 'Im_JustinTimberlake.png', 'Im_RobertPattinson.png', 'Im_PatrickDempsey.png', 'Im_DanielCraig.png'],diff,1,0.9833963000000949,11,90.47619047619048,
SASO1010,7,pos,90,pos90_id7_im26.bmp_pos90_id7_im14.bmp,['Im_BenStiller.png', 'Im_KeanuReeves.png', 'Im_GeorgeClooney.png', 'Im_DanielRadcliffe.png', 'Im_BradPitt.png', 'Im_LeonardoDiCaprio.png', 'Im_JustinTimberlake.png', 'Im_RobertPattinson.png', 'Im_PatrickDempsey.png', 'Im_DanielCraig.png'],same,1,0.6084031999998842,12,90.47619047619048,
SASO1010,7,pos,60,pos60_id4_im7.bmp_pos60_id4_im15.bmp,['Im_BenStiller.png', 'Im_KeanuReeves.png', 'Im_GeorgeClooney.png', 'Im_DanielRadcliffe.png', 'Im_BradPitt.png', 'Im_LeonardoDiCaprio.png', 'Im_JustinTimberlake.png', 'Im_RobertPattinson.png', 'Im_PatrickDempsey.png', 'Im_DanielCraig.png'],same,1,0.4083138999994844,13,90.47619047619048,
SASO1010,7,pos,120,pos120_id7_im15.bmp_pos120_id19_im4.bmp,['Im_BenStiller.png', 'Im_KeanuReeves.png', 'Im_GeorgeClooney.png', 'Im_DanielRadcliffe.png', 'Im_BradPitt.png', 'Im_LeonardoDiCaprio.png', 'Im_JustinTimberlake.png', 'Im_RobertPattinson.png', 'Im_PatrickDempsey.png', 'Im_DanielCraig.png'],diff,1,0.44155640000008134,14,90.47619047619048,
SASO1010,7,pos,fs,posfs_id10_im17.bmp_posfs_id10_im18.bmp,['Im_BenStiller.png', 'Im_KeanuReeves.png', 'Im_GeorgeClooney.png', 'Im_DanielRadcliffe.png', 'Im_BradPitt.png', 'Im_LeonardoDiCaprio.png', 'Im_JustinTimberlake.png', 'Im_RobertPattinson.png', 'Im_PatrickDempsey.png', 'Im_DanielCraig.png'],same,1,0.4083133000003727,15,90.47619047619048,
SASO1010,7,pos,150,pos150_id13_im10.bmp_pos150_id13_im15.bmp,['Im_BenStiller.png', 'Im_KeanuReeves.png', 'Im_GeorgeClooney.png', 'Im_DanielRadcliffe.png', 'Im_BradPitt.png', 'Im_LeonardoDiCaprio.png', 'Im_JustinTimberlake.png', 'Im_RobertPattinson.png', 'Im_PatrickDempsey.png', 'Im_DanielCraig.png'],same,1,0.808740299999954,16,90.47619047619048,
SASO1010,7,pos,0,pos0_id10_im17.bmp_pos0_id10_im1.bmp,['Im_BenStiller.png', 'Im_KeanuReeves.png', 'Im_GeorgeClooney.png', 'Im_DanielRadcliffe.png', 'Im_BradPitt.png', 'Im_LeonardoDiCaprio.png', 'Im_JustinTimberlake.png', 'Im_RobertPattinson.png', 'Im_PatrickDempsey.png', 'Im_DanielCraig.png'],same,1,0.43343000000004395,17,90.47619047619048,
SASO1010,7,pos,150,pos150_id13_im15.bmp_pos150_id11_im1.bmp,['Im_BenStiller.png', 'Im_KeanuReeves.png', 'Im_GeorgeClooney.png', 'Im_DanielRadcliffe.png', 'Im_BradPitt.png', 'Im_LeonardoDiCaprio.png', 'Im_JustinTimberlake.png', 'Im_RobertPattinson.png', 'Im_PatrickDempsey.png', 'Im_DanielCraig.png'],diff,1,0.4167459999998755,18,90.47619047619048,
SASO1010,7,pos,30,pos30_id4_im15.bmp_pos30_id4_im7.bmp,['Im_BenStiller.png', 'Im_KeanuReeves.png', 'Im_GeorgeClooney.png', 'Im_DanielRadcliffe.png', 'Im_BradPitt.png', 'Im_LeonardoDiCaprio.png', 'Im_JustinTimberlake.png', 'Im_RobertPattinson.png', 'Im_PatrickDempsey.png', 'Im_DanielCraig.png'],same,1,1.0835529999994833,19,90.47619047619048,
SASO1010,7,pos,30,pos30_id3_im6.bmp_pos30_id3_im17.bmp,['Im_BenStiller.png', 'Im_KeanuReeves.png', 'Im_GeorgeClooney.png', 'Im_DanielRadcliffe.png', 'Im_BradPitt.png', 'Im_LeonardoDiCaprio.png', 'Im_JustinTimberlake.png', 'Im_RobertPattinson.png', 'Im_PatrickDempsey.png', 'Im_DanielCraig.png'],same,1,0.700318100000004,20,90.47619047619048,
SASO1010,7,pos,90,pos90_id7_im14.bmp_pos90_id4_im20.bmp,['Im_BenStiller.png', 'Im_KeanuReeves.png', 'Im_GeorgeClooney.png', 'Im_DanielRadcliffe.png', 'Im_BradPitt.png', 'Im_LeonardoDiCaprio.png', 'Im_JustinTimberlake.png', 'Im_RobertPattinson.png', 'Im_PatrickDempsey.png', 'Im_DanielCraig.png'],diff,1,0.41660660000070493,21,90.47619047619048,
SASO1010,7,pos,fs,posfs_id2_im16.bmp_posfs_id2_im3.bmp,['Im_BenStiller.png', 'Im_KeanuReeves.png', 'Im_GeorgeClooney.png', 'Im_DanielRadcliffe.png', 'Im_BradPitt.png', 'Im_LeonardoDiCaprio.png', 'Im_JustinTimberlake.png', 'Im_RobertPattinson.png', 'Im_PatrickDempsey.png', 'Im_DanielCraig.png'],same,1,0.4250959999999395,22,90.47619047619048,
SASO1010,7,pos,0,pos0_id13_im15.bmp_pos0_id11_im1.bmp,['Im_BenStiller.png', 'Im_KeanuReeves.png', 'Im_GeorgeClooney.png', 'Im_DanielRadcliffe.png', 'Im_BradPitt.png', 'Im_LeonardoDiCaprio.png', 'Im_JustinTimberlake.png', 'Im_RobertPattinson.png', 'Im_PatrickDempsey.png', 'Im_DanielCraig.png'],diff,1,0.7581149000006917,23,90.47619047619048,
SASO1010,7,pos,120,pos120_id13_im29.bmp_pos120_id13_im10.bmp,['Im_BenStiller.png', 'Im_KeanuReeves.png', 'Im_GeorgeClooney.png', 'Im_DanielRadcliffe.png', 'Im_BradPitt.png', 'Im_LeonardoDiCaprio.png', 'Im_JustinTimberlake.png', 'Im_RobertPattinson.png', 'Im_PatrickDempsey.png', 'Im_DanielCraig.png'],same,1,0.4333614999995916,24,90.47619047619048,
SASO1010,8,inv,fs,posfs_id5_im1.bmp_posfs_id10_im1.bmp,['Im_BenStiller.png', 'Im_KeanuReeves.png', 'Im_GeorgeClooney.png', 'Im_DanielRadcliffe.png', 'Im_BradPitt.png', 'Im_LeonardoDiCaprio.png', 'Im_JustinTimberlake.png', 'Im_RobertPattinson.png', 'Im_PatrickDempsey.png', 'Im_DanielCraig.png'],diff,1,0.500565700000152,25,90.47619047619048,
SASO1010,8,inv,60,pos60_id11_im10.bmp_pos60_id11_im1.bmp,['Im_BenStiller.png', 'Im_KeanuReeves.png', 'Im_GeorgeClooney.png', 'Im_DanielRadcliffe.png', 'Im_BradPitt.png', 'Im_LeonardoDiCaprio.png', 'Im_JustinTimberlake.png', 'Im_RobertPattinson.png', 'Im_PatrickDempsey.png', 'Im_DanielCraig.png'],same,1,0.5750115999999252,26,90.47619047619048,
SASO1010,8,inv,0,pos0_id10_im17.bmp_pos0_id10_im1.bmp,['Im_BenStiller.png', 'Im_KeanuReeves.png', 'Im_GeorgeClooney.png', 'Im_DanielRadcliffe.png', 'Im_BradPitt.png', 'Im_LeonardoDiCaprio.png', 'Im_JustinTimberlake.png', 'Im_RobertPattinson.png', 'Im_PatrickDempsey.png', 'Im_DanielCraig.png'],same,1,0.41667360000064946,27,90.47619047619048,
SASO1010,8,inv,90,pos90_id3_im17.bmp_pos90_id11_im2.bmp,['Im_BenStiller.png', 'Im_KeanuReeves.png', 'Im_GeorgeClooney.png', 'Im_DanielRadcliffe.png', 'Im_BradPitt.png', 'Im_LeonardoDiCaprio.png', 'Im_JustinTimberlake.png', 'Im_RobertPattinson.png', 'Im_PatrickDempsey.png', 'Im_DanielCraig.png'],diff,1,0.5001726999998937,28,90.47619047619048,
SASO1010,8,inv,90,pos90_id5_im20.bmp_pos90_id5_im10.bmp,['Im_BenStiller.png', 'Im_KeanuReeves.png', 'Im_GeorgeClooney.png', 'Im_DanielRadcliffe.png', 'Im_BradPitt.png', 'Im_LeonardoDiCaprio.png', 'Im_JustinTimberlake.png', 'Im_RobertPattinson.png', 'Im_PatrickDempsey.png', 'Im_DanielCraig.png'],same,1,0.5920888000000559,29,90.47619047619048,
SASO1010,8,inv,150,pos150_id11_im10.bmp_pos150_id11_im1.bmp,['Im_BenStiller.png', 'Im_KeanuReeves.png', 'Im_GeorgeClooney.png', 'Im_DanielRadcliffe.png', 'Im_BradPitt.png', 'Im_LeonardoDiCaprio.png', 'Im_JustinTimberlake.png', 'Im_RobertPattinson.png', 'Im_PatrickDempsey.png', 'Im_DanielCraig.png'],same,1,0.4167294999997466,30,90.47619047619048,
SASO1010,8,inv,120,pos120_id7_im14.bmp_pos120_id4_im20.bmp,['Im_BenStiller.png', 'Im_KeanuReeves.png', 'Im_GeorgeClooney.png', 'Im_DanielRadcliffe.png', 'Im_BradPitt.png', 'Im_LeonardoDiCaprio.png', 'Im_JustinTimberlake.png', 'Im_RobertPattinson.png', 'Im_PatrickDempsey.png', 'Im_DanielCraig.png'],diff,1,0.4168400999997175,31,90.47619047619048,
SASO1010,8,inv,30,pos30_id13_im10.bmp_pos30_id2_im16.bmp,['Im_BenStiller.png', 'Im_KeanuReeves.png', 'Im_GeorgeClooney.png', 'Im_DanielRadcliffe.png', 'Im_BradPitt.png', 'Im_LeonardoDiCaprio.png', 'Im_JustinTimberlake.png', 'Im_RobertPattinson.png', 'Im_PatrickDempsey.png', 'Im_DanielCraig.png'],diff,1,0.41684929999973974,32,90.47619047619048,
SASO1010,8,inv,60,pos60_id2_im16.bmp_pos60_id2_im3.bmp,['Im_BenStiller.png', 'Im_KeanuReeves.png', 'Im_GeorgeClooney.png', 'Im_DanielRadcliffe.png', 'Im_BradPitt.png', 'Im_LeonardoDiCaprio.png', 'Im_JustinTimberlake.png', 'Im_RobertPattinson.png', 'Im_PatrickDempsey.png', 'Im_DanielCraig.png'],same,1,0.416750299999876,33,90.47619047619048,
SASO1010,8,inv,120,pos120_id17_im14.bmp_pos120_id17_im9.bmp,['Im_BenStiller.png', 'Im_KeanuReeves.png', 'Im_GeorgeClooney.png', 'Im_DanielRadcliffe.png', 'Im_BradPitt.png', 'Im_LeonardoDiCaprio.png', 'Im_JustinTimberlake.png', 'Im_RobertPattinson.png', 'Im_PatrickDempsey.png', 'Im_DanielCraig.png'],diff,0,0.4250090999994427,33,90.47619047619048,
SASO1010,8,inv,fs,posfs_id3_im8.bmp_posfs_id3_im17.bmp,['Im_BenStiller.png', 'Im_KeanuReeves.png', 'Im_GeorgeClooney.png', 'Im_DanielRadcliffe.png', 'Im_BradPitt.png', 'Im_LeonardoDiCaprio.png', 'Im_JustinTimberlake.png', 'Im_RobertPattinson.png', 'Im_PatrickDempsey.png', 'Im_DanielCraig.png'],same,1,0.4668957000003502,34,90.47619047619048,
SASO1010,8,inv,150,pos150_id13_im15.bmp_pos150_id13_im29.bmp,['Im_BenStiller.png', 'Im_KeanuReeves.png', 'Im_GeorgeClooney.png', 'Im_DanielRadcliffe.png', 'Im_BradPitt.png', 'Im_LeonardoDiCaprio.png', 'Im_JustinTimberlake.png', 'Im_RobertPattinson.png', 'Im_PatrickDempsey.png', 'Im_DanielCraig.png'],same,1,0.6583912999994936,35,90.47619047619048,
SASO1010,8,inv,0,pos0_id3_im8.bmp_pos0_id3_im6.bmp,['Im_BenStiller.png', 'Im_KeanuReeves.png', 'Im_GeorgeClooney.png', 'Im_DanielRadcliffe.png', 'Im_BradPitt.png', 'Im_LeonardoDiCaprio.png', 'Im_JustinTimberlake.png', 'Im_RobertPattinson.png', 'Im_PatrickDempsey.png', 'Im_DanielCraig.png'],same,1,0.4168598000005659,36,90.47619047619048,
SASO1010,8,inv,30,pos30_id17_im9.bmp_pos30_id3_im6.bmp,['Im_BenStiller.png', 'Im_KeanuReeves.png', 'Im_GeorgeClooney.png', 'Im_DanielRadcliffe.png', 'Im_BradPitt.png', 'Im_LeonardoDiCaprio.png', 'Im_JustinTimberlake.png', 'Im_RobertPattinson.png', 'Im_PatrickDempsey.png', 'Im_DanielCraig.png'],same,0,0.4419545000000653,36,90.47619047619048,
SASO1010,9,neg,0,neg0_id5_im10.bmp_neg0_id5_im1.bmp,['Im_BenStiller.png', 'Im_KeanuReeves.png', 'Im_GeorgeClooney.png', 'Im_DanielRadcliffe.png', 'Im_BradPitt.png', 'Im_LeonardoDiCaprio.png', 'Im_JustinTimberlake.png', 'Im_RobertPattinson.png', 'Im_PatrickDempsey.png', 'Im_DanielCraig.png'],same,1,0.5586320000002161,1,85.71428571428571,
SASO1010,9,neg,120,neg120_id7_im15.bmp_neg120_id7_im26.bmp,['Im_BenStiller.png', 'Im_KeanuReeves.png', 'Im_GeorgeClooney.png', 'Im_DanielRadcliffe.png', 'Im_BradPitt.png', 'Im_LeonardoDiCaprio.png', 'Im_JustinTimberlake.png', 'Im_RobertPattinson.png', 'Im_PatrickDempsey.png', 'Im_DanielCraig.png'],same,1,0.825492399999348,2,85.71428571428571,
SASO1010,9,neg,0,neg0_id17_im8.bmp_neg0_id4_im7.bmp,['Im_BenStiller.png', 'Im_KeanuReeves.png', 'Im_GeorgeClooney.png', 'Im_DanielRadcliffe.png', 'Im_BradPitt.png', 'Im_LeonardoDiCaprio.png', 'Im_JustinTimberlake.png', 'Im_RobertPattinson.png', 'Im_PatrickDempsey.png', 'Im_DanielCraig.png'],diff,1,0.6083439999993061,3,85.71428571428571,
SASO1010,9,neg,90,neg90_id10_im18.bmp_neg90_id11_im2.bmp,['Im_BenStiller.png', 'Im_KeanuReeves.png', 'Im_GeorgeClooney.png', 'Im_DanielRadcliffe.png', 'Im_BradPitt.png', 'Im_LeonardoDiCaprio.png', 'Im_JustinTimberlake.png', 'Im_RobertPattinson.png', 'Im_PatrickDempsey.png', 'Im_DanielCraig.png'],diff,1,0.5667256999995516,4,85.71428571428571,
SASO1010,9,neg,90,neg90_id5_im20.bmp_neg90_id13_im10.bmp,['Im_BenStiller.png', 'Im_KeanuReeves.png', 'Im_GeorgeClooney.png', 'Im_DanielRadcliffe.png', 'Im_BradPitt.png', 'Im_LeonardoDiCaprio.png', 'Im_JustinTimberlake.png', 'Im_RobertPattinson.png', 'Im_PatrickDempsey.png', 'Im_DanielCraig.png'],diff,1,0.5417873000005784,5,85.71428571428571,
SASO1010,9,neg,150,neg150_id2_im16.bmp_neg150_id7_im15.bmp,['Im_BenStiller.png', 'Im_KeanuReeves.png', 'Im_GeorgeClooney.png', 'Im_DanielRadcliffe.png', 'Im_BradPitt.png', 'Im_LeonardoDiCaprio.png', 'Im_JustinTimberlake.png', 'Im_RobertPattinson.png', 'Im_PatrickDempsey.png', 'Im_DanielCraig.png'],diff,1,0.4250966999998127,6,85.71428571428571,
SASO1010,9,neg,60,neg60_id3_im6.bmp_neg60_id3_im17.bmp,['Im_BenStiller.png', 'Im_KeanuReeves.png', 'Im_GeorgeClooney.png', 'Im_DanielRadcliffe.png', 'Im_BradPitt.png', 'Im_LeonardoDiCaprio.png', 'Im_JustinTimberlake.png', 'Im_RobertPattinson.png', 'Im_PatrickDempsey.png', 'Im_DanielCraig.png'],same,1,0.4334016000002521,7,85.71428571428571,
SASO1010,9,neg,120,neg120_id17_im8.bmp_neg120_id17_im9.bmp,['Im_BenStiller.png', 'Im_KeanuReeves.png', 'Im_GeorgeClooney.png', 'Im_DanielRadcliffe.png', 'Im_BradPitt.png', 'Im_LeonardoDiCaprio.png', 'Im_JustinTimberlake.png', 'Im_RobertPattinson.png', 'Im_PatrickDempsey.png', 'Im_DanielCraig.png'],diff,0,2.083117299999685,7,85.71428571428571,
SASO1010,9,neg,30,neg30_id19_im8.bmp_neg30_id19_im4.bmp,['Im_BenStiller.png', 'Im_KeanuReeves.png', 'Im_GeorgeClooney.png', 'Im_DanielRadcliffe.png', 'Im_BradPitt.png', 'Im_LeonardoDiCaprio.png', 'Im_JustinTimberlake.png', 'Im_RobertPattinson.png', 'Im_PatrickDempsey.png', 'Im_DanielCraig.png'],diff,0,0.583392399999866,7,85.71428571428571,
SASO1010,9,neg,30,neg30_id2_im16.bmp_neg30_id2_im3.bmp,['Im_BenStiller.png', 'Im_KeanuReeves.png', 'Im_GeorgeClooney.png', 'Im_DanielRadcliffe.png', 'Im_BradPitt.png', 'Im_LeonardoDiCaprio.png', 'Im_JustinTimberlake.png', 'Im_RobertPattinson.png', 'Im_PatrickDempsey.png', 'Im_DanielCraig.png'],same,1,0.4251851999997598,8,85.71428571428571,
SASO1010,9,neg,fs,negfs_id4_im7.bmp_negfs_id17_im8.bmp,['Im_BenStiller.png', 'Im_KeanuReeves.png', 'Im_GeorgeClooney.png', 'Im_DanielRadcliffe.png', 'Im_BradPitt.png', 'Im_LeonardoDiCaprio.png', 'Im_JustinTimberlake.png', 'Im_RobertPattinson.png', 'Im_PatrickDempsey.png', 'Im_DanielCraig.png'],diff,1,0.4170151000007536,9,85.71428571428571,
SASO1010,9,neg,fs,negfs_id2_im16.bmp_negfs_id2_im2.bmp,['Im_BenStiller.png', 'Im_KeanuReeves.png', 'Im_GeorgeClooney.png', 'Im_DanielRadcliffe.png', 'Im_BradPitt.png', 'Im_LeonardoDiCaprio.png', 'Im_JustinTimberlake.png', 'Im_RobertPattinson.png', 'Im_PatrickDempsey.png', 'Im_DanielCraig.png'],same,1,0.4083952999999383,10,85.71428571428571,
SASO1010,9,neg,60,neg60_id13_im10.bmp_neg60_id13_im29.bmp,['Im_BenStiller.png', 'Im_KeanuReeves.png', 'Im_GeorgeClooney.png', 'Im_DanielRadcliffe.png', 'Im_BradPitt.png', 'Im_LeonardoDiCaprio.png', 'Im_JustinTimberlake.png', 'Im_RobertPattinson.png', 'Im_PatrickDempsey.png', 'Im_DanielCraig.png'],diff,0,0.43344729999989795,10,85.71428571428571,
SASO1010,9,neg,150,neg150_id7_im14.bmp_neg150_id13_im29.bmp,['Im_BenStiller.png', 'Im_KeanuReeves.png', 'Im_GeorgeClooney.png', 'Im_DanielRadcliffe.png', 'Im_BradPitt.png', 'Im_LeonardoDiCaprio.png', 'Im_JustinTimberlake.png', 'Im_RobertPattinson.png', 'Im_PatrickDempsey.png', 'Im_DanielCraig.png'],diff,1,0.6918015999999625,11,85.71428571428571,
SASO1010,10,inv,0,pos0_id19_im27.bmp_pos0_id19_im8.bmp,['Im_BenStiller.png', 'Im_KeanuReeves.png', 'Im_GeorgeClooney.png', 'Im_DanielRadcliffe.png', 'Im_BradPitt.png', 'Im_LeonardoDiCaprio.png', 'Im_JustinTimberlake.png', 'Im_RobertPattinson.png', 'Im_PatrickDempsey.png', 'Im_DanielCraig.png'],same,1,0.4503893999999491,12,85.71428571428571,
SASO1010,10,inv,120,pos120_id10_im1.bmp_pos120_id3_im17.bmp,['Im_BenStiller.png', 'Im_KeanuReeves.png', 'Im_GeorgeClooney.png', 'Im_DanielRadcliffe.png', 'Im_BradPitt.png', 'Im_LeonardoDiCaprio.png', 'Im_JustinTimberlake.png', 'Im_RobertPattinson.png', 'Im_PatrickDempsey.png', 'Im_DanielCraig.png'],diff,1,0.8498888000003717,13,85.71428571428571,
SASO1010,10,inv,90,pos90_id11_im1.bmp_pos90_id11_im10.bmp,['Im_BenStiller.png', 'Im_KeanuReeves.png', 'Im_GeorgeClooney.png', 'Im_DanielRadcliffe.png', 'Im_BradPitt.png', 'Im_LeonardoDiCaprio.png', 'Im_JustinTimberlake.png', 'Im_RobertPattinson.png', 'Im_PatrickDempsey.png', 'Im_DanielCraig.png'],diff,0,0.7415682000000743,13,85.71428571428571,
SASO1010,10,inv,60,pos60_id4_im7.bmp_pos60_id4_im15.bmp,['Im_BenStiller.png', 'Im_KeanuReeves.png', 'Im_GeorgeClooney.png', 'Im_DanielRadcliffe.png', 'Im_BradPitt.png', 'Im_LeonardoDiCaprio.png', 'Im_JustinTimberlake.png', 'Im_RobertPattinson.png', 'Im_PatrickDempsey.png', 'Im_DanielCraig.png'],diff,0,0.6835377999996126,13,85.71428571428571,
SASO1010,10,inv,150,pos150_id5_im20.bmp_pos150_id5_im1.bmp,['Im_BenStiller.png', 'Im_KeanuReeves.png', 'Im_GeorgeClooney.png', 'Im_DanielRadcliffe.png', 'Im_BradPitt.png', 'Im_LeonardoDiCaprio.png', 'Im_JustinTimberlake.png', 'Im_RobertPattinson.png', 'Im_PatrickDempsey.png', 'Im_DanielCraig.png'],diff,0,0.7082595000001675,13,85.71428571428571,
SASO1010,10,inv,fs,posfs_id3_im8.bmp_posfs_id7_im26.bmp,['Im_BenStiller.png', 'Im_KeanuReeves.png', 'Im_GeorgeClooney.png', 'Im_DanielRadcliffe.png', 'Im_BradPitt.png', 'Im_LeonardoDiCaprio.png', 'Im_JustinTimberlake.png', 'Im_RobertPattinson.png', 'Im_PatrickDempsey.png', 'Im_DanielCraig.png'],diff,1,0.6418689000001905,14,85.71428571428571,
SASO1010,10,inv,30,pos30_id3_im6.bmp_pos30_id10_im17.bmp,['Im_BenStiller.png', 'Im_KeanuReeves.png', 'Im_GeorgeClooney.png', 'Im_DanielRadcliffe.png', 'Im_BradPitt.png', 'Im_LeonardoDiCaprio.png', 'Im_JustinTimberlake.png', 'Im_RobertPattinson.png', 'Im_PatrickDempsey.png', 'Im_DanielCraig.png'],diff,1,0.5336213999999018,15,85.71428571428571,
SASO1010,10,inv,60,pos60_id19_im8.bmp_pos60_id19_im4.bmp,['Im_BenStiller.png', 'Im_KeanuReeves.png', 'Im_GeorgeClooney.png', 'Im_DanielRadcliffe.png', 'Im_BradPitt.png', 'Im_LeonardoDiCaprio.png', 'Im_JustinTimberlake.png', 'Im_RobertPattinson.png', 'Im_PatrickDempsey.png', 'Im_DanielCraig.png'],same,1,0.833218300000226,16,85.71428571428571,
SASO1010,10,inv,fs,posfs_id13_im10.bmp_posfs_id2_im16.bmp,['Im_BenStiller.png', 'Im_KeanuReeves.png', 'Im_GeorgeClooney.png', 'Im_DanielRadcliffe.png', 'Im_BradPitt.png', 'Im_LeonardoDiCaprio.png', 'Im_JustinTimberlake.png', 'Im_RobertPattinson.png', 'Im_PatrickDempsey.png', 'Im_DanielCraig.png'],diff,1,0.42482140000083746,17,85.71428571428571,
SASO1010,10,inv,90,pos90_id10_im1.bmp_pos90_id5_im1.bmp,['Im_BenStiller.png', 'Im_KeanuReeves.png', 'Im_GeorgeClooney.png', 'Im_DanielRadcliffe.png', 'Im_BradPitt.png', 'Im_LeonardoDiCaprio.png', 'Im_JustinTimberlake.png', 'Im_RobertPattinson.png', 'Im_PatrickDempsey.png', 'Im_DanielCraig.png'],diff,1,0.7836083000001963,18,85.71428571428571,
SASO1010,10,inv,120,pos120_id5_im20.bmp_pos120_id2_im2.bmp,['Im_BenStiller.png', 'Im_KeanuReeves.png', 'Im_GeorgeClooney.png', 'Im_DanielRadcliffe.png', 'Im_BradPitt.png', 'Im_LeonardoDiCaprio.png', 'Im_JustinTimberlake.png', 'Im_RobertPattinson.png', 'Im_PatrickDempsey.png', 'Im_DanielCraig.png'],diff,1,0.6416888000003382,19,85.71428571428571,
SASO1010,10,inv,150,pos150_id2_im3.bmp_pos150_id2_im2.bmp,['Im_BenStiller.png', 'Im_KeanuReeves.png', 'Im_GeorgeClooney.png', 'Im_DanielRadcliffe.png', 'Im_BradPitt.png', 'Im_LeonardoDiCaprio.png', 'Im_JustinTimberlake.png', 'Im_RobertPattinson.png', 'Im_PatrickDempsey.png', 'Im_DanielCraig.png'],same,1,0.6252973999999085,20,85.71428571428571,
SASO1010,10,inv,30,pos30_id5_im20.bmp_pos30_id5_im1.bmp,['Im_BenStiller.png', 'Im_KeanuReeves.png', 'Im_GeorgeClooney.png', 'Im_DanielRadcliffe.png', 'Im_BradPitt.png', 'Im_LeonardoDiCaprio.png', 'Im_JustinTimberlake.png', 'Im_RobertPattinson.png', 'Im_PatrickDempsey.png', 'Im_DanielCraig.png'],diff,0,0.4252782000003208,20,85.71428571428571,
SASO1010,10,inv,0,pos0_id5_im1.bmp_pos0_id5_im20.bmp,['Im_BenStiller.png', 'Im_KeanuReeves.png', 'Im_GeorgeClooney.png', 'Im_DanielRadcliffe.png', 'Im_BradPitt.png', 'Im_LeonardoDiCaprio.png', 'Im_JustinTimberlake.png', 'Im_RobertPattinson.png', 'Im_PatrickDempsey.png', 'Im_DanielCraig.png'],diff,0,0.4083731999999145,20,85.71428571428571,
SASO1010,11,pos,90,pos90_id4_im15.bmp_pos90_id19_im27.bmp,['Im_BenStiller.png', 'Im_KeanuReeves.png', 'Im_GeorgeClooney.png', 'Im_DanielRadcliffe.png', 'Im_BradPitt.png', 'Im_LeonardoDiCaprio.png', 'Im_JustinTimberlake.png', 'Im_RobertPattinson.png', 'Im_PatrickDempsey.png', 'Im_DanielCraig.png'],diff,1,1.0667294000004404,21,85.71428571428571,
SASO1010,11,pos,30,pos30_id7_im14.bmp_pos30_id7_im15.bmp,['Im_BenStiller.png', 'Im_KeanuReeves.png', 'Im_GeorgeClooney.png', 'Im_DanielRadcliffe.png', 'Im_BradPitt.png', 'Im_LeonardoDiCaprio.png', 'Im_JustinTimberlake.png', 'Im_RobertPattinson.png', 'Im_PatrickDempsey.png', 'Im_DanielCraig.png'],diff,0,0.6668725000008635,21,85.71428571428571,
SASO1010,11,pos,fs,posfs_id17_im8.bmp_posfs_id17_im14.bmp,['Im_BenStiller.png', 'Im_KeanuReeves.png', 'Im_GeorgeClooney.png', 'Im_DanielRadcliffe.png', 'Im_BradPitt.png', 'Im_LeonardoDiCaprio.png', 'Im_JustinTimberlake.png', 'Im_RobertPattinson.png', 'Im_PatrickDempsey.png', 'Im_DanielCraig.png'],same,1,0.7084906999998566,22,85.71428571428571,
SASO1010,11,pos,0,pos0_id11_im10.bmp_pos0_id17_im14.bmp,['Im_BenStiller.png', 'Im_KeanuReeves.png', 'Im_GeorgeClooney.png', 'Im_DanielRadcliffe.png', 'Im_BradPitt.png', 'Im_LeonardoDiCaprio.png', 'Im_JustinTimberlake.png', 'Im_RobertPattinson.png', 'Im_PatrickDempsey.png', 'Im_DanielCraig.png'],diff,1,0.4418544000000111,23,85.71428571428571,
SASO1010,11,pos,120,pos120_id17_im9.bmp_pos120_id17_im14.bmp,['Im_BenStiller.png', 'Im_KeanuReeves.png', 'Im_GeorgeClooney.png', 'Im_DanielRadcliffe.png', 'Im_BradPitt.png', 'Im_LeonardoDiCaprio.png', 'Im_JustinTimberlake.png', 'Im_RobertPattinson.png', 'Im_PatrickDempsey.png', 'Im_DanielCraig.png'],same,1,0.45040119999976014,24,85.71428571428571,
SASO1010,11,pos,60,pos60_id13_im29.bmp_pos60_id13_im15.bmp,['Im_BenStiller.png', 'Im_KeanuReeves.png', 'Im_GeorgeClooney.png', 'Im_DanielRadcliffe.png', 'Im_BradPitt.png', 'Im_LeonardoDiCaprio.png', 'Im_JustinTimberlake.png', 'Im_RobertPattinson.png', 'Im_PatrickDempsey.png', 'Im_DanielCraig.png'],same,1,0.4334648999993078,25,85.71428571428571,
SASO1010,11,pos,150,pos150_id4_im7.bmp_pos150_id17_im9.bmp,['Im_BenStiller.png', 'Im_KeanuReeves.png', 'Im_GeorgeClooney.png', 'Im_DanielRadcliffe.png', 'Im_BradPitt.png', 'Im_LeonardoDiCaprio.png', 'Im_JustinTimberlake.png', 'Im_RobertPattinson.png', 'Im_PatrickDempsey.png', 'Im_DanielCraig.png'],diff,1,0.41670799999974406,26,85.71428571428571,
SASO1010,11,pos,60,pos60_id19_im27.bmp_pos60_id19_im4.bmp,['Im_BenStiller.png', 'Im_KeanuReeves.png', 'Im_GeorgeClooney.png', 'Im_DanielRadcliffe.png', 'Im_BradPitt.png', 'Im_LeonardoDiCaprio.png', 'Im_JustinTimberlake.png', 'Im_RobertPattinson.png', 'Im_PatrickDempsey.png', 'Im_DanielCraig.png'],same,1,0.4250879999999597,27,85.71428571428571,
SASO1010,11,pos,90,pos90_id17_im9.bmp_pos90_id4_im7.bmp,['Im_BenStiller.png', 'Im_KeanuReeves.png', 'Im_GeorgeClooney.png', 'Im_DanielRadcliffe.png', 'Im_BradPitt.png', 'Im_LeonardoDiCaprio.png', 'Im_JustinTimberlake.png', 'Im_RobertPattinson.png', 'Im_PatrickDempsey.png', 'Im_DanielCraig.png'],diff,1,0.5667684000000008,28,85.71428571428571,
SASO1010,11,pos,150,pos150_id7_im15.bmp_pos150_id7_im14.bmp,['Im_BenStiller.png', 'Im_KeanuReeves.png', 'Im_GeorgeClooney.png', 'Im_DanielRadcliffe.png', 'Im_BradPitt.png', 'Im_LeonardoDiCaprio.png', 'Im_JustinTimberlake.png', 'Im_RobertPattinson.png', 'Im_PatrickDempsey.png', 'Im_DanielCraig.png'],same,1,0.8920753000002151,29,85.71428571428571,
SASO1010,11,pos,30,pos30_id4_im15.bmp_pos30_id4_im20.bmp,['Im_BenStiller.png', 'Im_KeanuReeves.png', 'Im_GeorgeClooney.png', 'Im_DanielRadcliffe.png', 'Im_BradPitt.png', 'Im_LeonardoDiCaprio.png', 'Im_JustinTimberlake.png', 'Im_RobertPattinson.png', 'Im_PatrickDempsey.png', 'Im_DanielCraig.png'],same,1,0.4085904000003211,30,85.71428571428571,
SASO1010,11,pos,0,pos0_id5_im20.bmp_pos0_id5_im1.bmp,['Im_BenStiller.png', 'Im_KeanuReeves.png', 'Im_GeorgeClooney.png', 'Im_DanielRadcliffe.png', 'Im_BradPitt.png', 'Im_LeonardoDiCaprio.png', 'Im_JustinTimberlake.png', 'Im_RobertPattinson.png', 'Im_PatrickDempsey.png', 'Im_DanielCraig.png'],same,1,0.7249547999999777,31,85.71428571428571,
SASO1010,11,pos,120,pos120_id7_im14.bmp_pos120_id7_im26.bmp,['Im_BenStiller.png', 'Im_KeanuReeves.png', 'Im_GeorgeClooney.png', 'Im_DanielRadcliffe.png', 'Im_BradPitt.png', 'Im_LeonardoDiCaprio.png', 'Im_JustinTimberlake.png', 'Im_RobertPattinson.png', 'Im_PatrickDempsey.png', 'Im_DanielCraig.png'],same,1,0.4168093999996927,32,85.71428571428571,
SASO1010,11,pos,fs,posfs_id13_im15.bmp_posfs_id11_im1.bmp,['Im_BenStiller.png', 'Im_KeanuReeves.png', 'Im_GeorgeClooney.png', 'Im_DanielRadcliffe.png', 'Im_BradPitt.png', 'Im_LeonardoDiCaprio.png', 'Im_JustinTimberlake.png', 'Im_RobertPattinson.png', 'Im_PatrickDempsey.png', 'Im_DanielCraig.png'],diff,1,0.45837829999982205,33,85.71428571428571,
SASO1010,12,neg,90,neg90_id5_im1.bmp_neg90_id5_im20.bmp,['Im_BenStiller.png', 'Im_KeanuReeves.png', 'Im_GeorgeClooney.png', 'Im_DanielRadcliffe.png', 'Im_BradPitt.png', 'Im_LeonardoDiCaprio.png', 'Im_JustinTimberlake.png', 'Im_RobertPattinson.png', 'Im_PatrickDempsey.png', 'Im_DanielCraig.png'],same,1,0.8000296000000162,1,78.57142857142857,
SASO1010,12,neg,120,neg120_id13_im15.bmp_neg120_id13_im29.bmp,['Im_BenStiller.png', 'Im_KeanuReeves.png', 'Im_GeorgeClooney.png', 'Im_DanielRadcliffe.png', 'Im_BradPitt.png', 'Im_LeonardoDiCaprio.png', 'Im_JustinTimberlake.png', 'Im_RobertPattinson.png', 'Im_PatrickDempsey.png', 'Im_DanielCraig.png'],same,1,0.8088891999996122,2,78.57142857142857,
SASO1010,12,neg,60,neg60_id11_im10.bmp_neg60_id19_im27.bmp,['Im_BenStiller.png', 'Im_KeanuReeves.png', 'Im_GeorgeClooney.png', 'Im_DanielRadcliffe.png', 'Im_BradPitt.png', 'Im_LeonardoDiCaprio.png', 'Im_JustinTimberlake.png', 'Im_RobertPattinson.png', 'Im_PatrickDempsey.png', 'Im_DanielCraig.png'],diff,1,0.6917072999995071,3,78.57142857142857,
SASO1010,12,neg,0,neg0_id11_im1.bmp_neg0_id11_im10.bmp,['Im_BenStiller.png', 'Im_KeanuReeves.png', 'Im_GeorgeClooney.png', 'Im_DanielRadcliffe.png', 'Im_BradPitt.png', 'Im_LeonardoDiCaprio.png', 'Im_JustinTimberlake.png', 'Im_RobertPattinson.png', 'Im_PatrickDempsey.png', 'Im_DanielCraig.png'],same,1,0.416584800000237,4,78.57142857142857,
SASO1010,12,neg,150,neg150_id7_im15.bmp_neg150_id19_im4.bmp,['Im_BenStiller.png', 'Im_KeanuReeves.png', 'Im_GeorgeClooney.png', 'Im_DanielRadcliffe.png', 'Im_BradPitt.png', 'Im_LeonardoDiCaprio.png', 'Im_JustinTimberlake.png', 'Im_RobertPattinson.png', 'Im_PatrickDempsey.png', 'Im_DanielCraig.png'],diff,1,0.9836015000000771,5,78.57142857142857,
SASO1010,12,neg,30,neg30_id11_im10.bmp_neg30_id11_im1.bmp,['Im_BenStiller.png', 'Im_KeanuReeves.png', 'Im_GeorgeClooney.png', 'Im_DanielRadcliffe.png', 'Im_BradPitt.png', 'Im_LeonardoDiCaprio.png', 'Im_JustinTimberlake.png', 'Im_RobertPattinson.png', 'Im_PatrickDempsey.png', 'Im_DanielCraig.png'],diff,0,0.58335790000001,5,78.57142857142857,
SASO1010,12,neg,120,neg120_id13_im29.bmp_neg120_id13_im10.bmp,['Im_BenStiller.png', 'Im_KeanuReeves.png', 'Im_GeorgeClooney.png', 'Im_DanielRadcliffe.png', 'Im_BradPitt.png', 'Im_LeonardoDiCaprio.png', 'Im_JustinTimberlake.png', 'Im_RobertPattinson.png', 'Im_PatrickDempsey.png', 'Im_DanielCraig.png'],same,1,0.40823569999975007,6,78.57142857142857,
SASO1010,12,neg,fs,negfs_id2_im2.bmp_negfs_id5_im20.bmp,['Im_BenStiller.png', 'Im_KeanuReeves.png', 'Im_GeorgeClooney.png', 'Im_DanielRadcliffe.png', 'Im_BradPitt.png', 'Im_LeonardoDiCaprio.png', 'Im_JustinTimberlake.png', 'Im_RobertPattinson.png', 'Im_PatrickDempsey.png', 'Im_DanielCraig.png'],diff,1,0.5250848000005135,7,78.57142857142857,
SASO1010,12,neg,150,neg150_id4_im20.bmp_neg150_id4_im15.bmp,['Im_BenStiller.png', 'Im_KeanuReeves.png', 'Im_GeorgeClooney.png', 'Im_DanielRadcliffe.png', 'Im_BradPitt.png', 'Im_LeonardoDiCaprio.png', 'Im_JustinTimberlake.png', 'Im_RobertPattinson.png', 'Im_PatrickDempsey.png', 'Im_DanielCraig.png'],same,1,0.4333875000002081,8,78.57142857142857,
SASO1010,12,neg,fs,negfs_id13_im15.bmp_negfs_id13_im10.bmp,['Im_BenStiller.png', 'Im_KeanuReeves.png', 'Im_GeorgeClooney.png', 'Im_DanielRadcliffe.png', 'Im_BradPitt.png', 'Im_LeonardoDiCaprio.png', 'Im_JustinTimberlake.png', 'Im_RobertPattinson.png', 'Im_PatrickDempsey.png', 'Im_DanielCraig.png'],same,1,1.183400499999152,9,78.57142857142857,
SASO1010,12,neg,30,neg30_id17_im8.bmp_neg30_id4_im7.bmp,['Im_BenStiller.png', 'Im_KeanuReeves.png', 'Im_GeorgeClooney.png', 'Im_DanielRadcliffe.png', 'Im_BradPitt.png', 'Im_LeonardoDiCaprio.png', 'Im_JustinTimberlake.png', 'Im_RobertPattinson.png', 'Im_PatrickDempsey.png', 'Im_DanielCraig.png'],diff,1,0.5002906999998231,10,78.57142857142857,
SASO1010,12,neg,60,neg60_id2_im16.bmp_neg60_id7_im15.bmp,['Im_BenStiller.png', 'Im_KeanuReeves.png', 'Im_GeorgeClooney.png', 'Im_DanielRadcliffe.png', 'Im_BradPitt.png', 'Im_LeonardoDiCaprio.png', 'Im_JustinTimberlake.png', 'Im_RobertPattinson.png', 'Im_PatrickDempsey.png', 'Im_DanielCraig.png'],diff,1,0.6000426000000516,11,78.57142857142857,
SASO1010,12,neg,90,neg90_id2_im2.bmp_neg90_id2_im16.bmp,['Im_BenStiller.png', 'Im_KeanuReeves.png', 'Im_GeorgeClooney.png', 'Im_DanielRadcliffe.png', 'Im_BradPitt.png', 'Im_LeonardoDiCaprio.png', 'Im_JustinTimberlake.png', 'Im_RobertPattinson.png', 'Im_PatrickDempsey.png', 'Im_DanielCraig.png'],same,1,0.65006429999994,12,78.57142857142857,
SASO1010,12,neg,0,neg0_id11_im1.bmp_neg0_id11_im2.bmp,['Im_BenStiller.png', 'Im_KeanuReeves.png', 'Im_GeorgeClooney.png', 'Im_DanielRadcliffe.png', 'Im_BradPitt.png', 'Im_LeonardoDiCaprio.png', 'Im_JustinTimberlake.png', 'Im_RobertPattinson.png', 'Im_PatrickDempsey.png', 'Im_DanielCraig.png'],diff,0,0.5002229000001535,12,78.57142857142857,
SASO1010,13,inv,120,pos120_id13_im10.bmp_pos120_id5_im20.bmp,['Im_BenStiller.png', 'Im_KeanuReeves.png', 'Im_GeorgeClooney.png', 'Im_DanielRadcliffe.png', 'Im_BradPitt.png', 'Im_LeonardoDiCaprio.png', 'Im_JustinTimberlake.png', 'Im_RobertPattinson.png', 'Im_PatrickDempsey.png', 'Im_DanielCraig.png'],diff,1,0.5334130999999616,13,78.57142857142857,
SASO1010,13,inv,120,pos120_id4_im7.bmp_pos120_id17_im9.bmp,['Im_BenStiller.png', 'Im_KeanuReeves.png', 'Im_GeorgeClooney.png', 'Im_DanielRadcliffe.png', 'Im_BradPitt.png', 'Im_LeonardoDiCaprio.png', 'Im_JustinTimberlake.png', 'Im_RobertPattinson.png', 'Im_PatrickDempsey.png', 'Im_DanielCraig.png'],diff,1,0.7332854999995106,14,78.57142857142857,
SASO1010,13,inv,0,pos0_id10_im18.bmp_pos0_id2_im3.bmp,['Im_BenStiller.png', 'Im_KeanuReeves.png', 'Im_GeorgeClooney.png', 'Im_DanielRadcliffe.png', 'Im_BradPitt.png', 'Im_LeonardoDiCaprio.png', 'Im_JustinTimberlake.png', 'Im_RobertPattinson.png', 'Im_PatrickDempsey.png', 'Im_DanielCraig.png'],diff,1,0.4498036000004504,15,78.57142857142857,
SASO1010,13,inv,0,pos0_id2_im16.bmp_pos0_id13_im10.bmp,['Im_BenStiller.png', 'Im_KeanuReeves.png', 'Im_GeorgeClooney.png', 'Im_DanielRadcliffe.png', 'Im_BradPitt.png', 'Im_LeonardoDiCaprio.png', 'Im_JustinTimberlake.png', 'Im_RobertPattinson.png', 'Im_PatrickDempsey.png', 'Im_DanielCraig.png'],diff,1,0.7252723999999944,16,78.57142857142857,
SASO1010,13,inv,30,pos30_id7_im26.bmp_pos30_id3_im8.bmp,['Im_BenStiller.png', 'Im_KeanuReeves.png', 'Im_GeorgeClooney.png', 'Im_DanielRadcliffe.png', 'Im_BradPitt.png', 'Im_LeonardoDiCaprio.png', 'Im_JustinTimberlake.png', 'Im_RobertPattinson.png', 'Im_PatrickDempsey.png', 'Im_DanielCraig.png'],diff,1,0.5502922999994553,17,78.57142857142857,
SASO1010,13,inv,60,pos60_id19_im8.bmp_pos60_id13_im29.bmp,['Im_BenStiller.png', 'Im_KeanuReeves.png', 'Im_GeorgeClooney.png', 'Im_DanielRadcliffe.png', 'Im_BradPitt.png', 'Im_LeonardoDiCaprio.png', 'Im_JustinTimberlake.png', 'Im_RobertPattinson.png', 'Im_PatrickDempsey.png', 'Im_DanielCraig.png'],diff,1,0.43342959999972663,18,78.57142857142857,
SASO1010,13,inv,fs,posfs_id19_im8.bmp_posfs_id13_im29.bmp,['Im_BenStiller.png', 'Im_KeanuReeves.png', 'Im_GeorgeClooney.png', 'Im_DanielRadcliffe.png', 'Im_BradPitt.png', 'Im_LeonardoDiCaprio.png', 'Im_JustinTimberlake.png', 'Im_RobertPattinson.png', 'Im_PatrickDempsey.png', 'Im_DanielCraig.png'],diff,1,0.5833228999999847,19,78.57142857142857,
SASO1010,13,inv,90,pos90_id19_im27.bmp_pos90_id4_im15.bmp,['Im_BenStiller.png', 'Im_KeanuReeves.png', 'Im_GeorgeClooney.png', 'Im_DanielRadcliffe.png', 'Im_BradPitt.png', 'Im_LeonardoDiCaprio.png', 'Im_JustinTimberlake.png', 'Im_RobertPattinson.png', 'Im_PatrickDempsey.png', 'Im_DanielCraig.png'],diff,1,0.7083566999999675,20,78.57142857142857,
SASO1010,13,inv,60,pos60_id3_im17.bmp_pos60_id10_im1.bmp,['Im_BenStiller.png', 'Im_KeanuReeves.png', 'Im_GeorgeClooney.png', 'Im_DanielRadcliffe.png', 'Im_BradPitt.png', 'Im_LeonardoDiCaprio.png', 'Im_JustinTimberlake.png', 'Im_RobertPattinson.png', 'Im_PatrickDempsey.png', 'Im_DanielCraig.png'],diff,1,0.7169671000001472,21,78.57142857142857,
SASO1010,13,inv,150,pos150_id3_im17.bmp_pos150_id10_im1.bmp,['Im_BenStiller.png', 'Im_KeanuReeves.png', 'Im_GeorgeClooney.png', 'Im_DanielRadcliffe.png', 'Im_BradPitt.png', 'Im_LeonardoDiCaprio.png', 'Im_JustinTimberlake.png', 'Im_RobertPattinson.png', 'Im_PatrickDempsey.png', 'Im_DanielCraig.png'],diff,1,0.4583593999996083,22,78.57142857142857,
SASO1010,13,inv,fs,posfs_id3_im6.bmp_posfs_id3_im8.bmp,['Im_BenStiller.png', 'Im_KeanuReeves.png', 'Im_GeorgeClooney.png', 'Im_DanielRadcliffe.png', 'Im_BradPitt.png', 'Im_LeonardoDiCaprio.png', 'Im_JustinTimberlake.png', 'Im_RobertPattinson.png', 'Im_PatrickDempsey.png', 'Im_DanielCraig.png'],same,1,0.42510440000023664,23,78.57142857142857,
SASO1010,13,inv,150,pos150_id11_im1.bmp_pos150_id19_im8.bmp,['Im_BenStiller.png', 'Im_KeanuReeves.png', 'Im_GeorgeClooney.png', 'Im_DanielRadcliffe.png', 'Im_BradPitt.png', 'Im_LeonardoDiCaprio.png', 'Im_JustinTimberlake.png', 'Im_RobertPattinson.png', 'Im_PatrickDempsey.png', 'Im_DanielCraig.png'],diff,1,0.933361800000057,24,78.57142857142857,
SASO1010,13,inv,90,pos90_id7_im26.bmp_pos90_id19_im4.bmp,['Im_BenStiller.png', 'Im_KeanuReeves.png', 'Im_GeorgeClooney.png', 'Im_DanielRadcliffe.png', 'Im_BradPitt.png', 'Im_LeonardoDiCaprio.png', 'Im_JustinTimberlake.png', 'Im_RobertPattinson.png', 'Im_PatrickDempsey.png', 'Im_DanielCraig.png'],same,0,1.5834404999995968,24,78.57142857142857,
SASO1010,13,inv,30,pos30_id7_im15.bmp_pos30_id19_im4.bmp,['Im_BenStiller.png', 'Im_KeanuReeves.png', 'Im_GeorgeClooney.png', 'Im_DanielRadcliffe.png', 'Im_BradPitt.png', 'Im_LeonardoDiCaprio.png', 'Im_JustinTimberlake.png', 'Im_RobertPattinson.png', 'Im_PatrickDempsey.png', 'Im_DanielCraig.png'],diff,1,0.47502559999975347,25,78.57142857142857,
SASO1010,14,neg,60,neg60_id4_im20.bmp_neg60_id7_im14.bmp,['Im_BenStiller.png', 'Im_KeanuReeves.png', 'Im_GeorgeClooney.png', 'Im_DanielRadcliffe.png', 'Im_BradPitt.png', 'Im_LeonardoDiCaprio.png', 'Im_JustinTimberlake.png', 'Im_RobertPattinson.png', 'Im_PatrickDempsey.png', 'Im_DanielCraig.png'],diff,1,0.4250136000000566,26,78.57142857142857,
SASO1010,14,neg,150,neg150_id17_im8.bmp_neg150_id17_im9.bmp,['Im_BenStiller.png', 'Im_KeanuReeves.png', 'Im_GeorgeClooney.png', 'Im_DanielRadcliffe.png', 'Im_BradPitt.png', 'Im_LeonardoDiCaprio.png', 'Im_JustinTimberlake.png', 'Im_RobertPattinson.png', 'Im_PatrickDempsey.png', 'Im_DanielCraig.png'],same,1,0.43319229999997333,27,78.57142857142857,
SASO1010,14,neg,fs,negfs_id2_im3.bmp_negfs_id10_im18.bmp,['Im_BenStiller.png', 'Im_KeanuReeves.png', 'Im_GeorgeClooney.png', 'Im_DanielRadcliffe.png', 'Im_BradPitt.png', 'Im_LeonardoDiCaprio.png', 'Im_JustinTimberlake.png', 'Im_RobertPattinson.png', 'Im_PatrickDempsey.png', 'Im_DanielCraig.png'],diff,1,0.4251970999994228,28,78.57142857142857,
SASO1010,14,neg,30,neg30_id11_im10.bmp_neg30_id11_im2.bmp,['Im_BenStiller.png', 'Im_KeanuReeves.png', 'Im_GeorgeClooney.png', 'Im_DanielRadcliffe.png', 'Im_BradPitt.png', 'Im_LeonardoDiCaprio.png', 'Im_JustinTimberlake.png', 'Im_RobertPattinson.png', 'Im_PatrickDempsey.png', 'Im_DanielCraig.png'],same,1,0.5336797999998453,29,78.57142857142857,
SASO1010,14,neg,60,neg60_id11_im1.bmp_neg60_id11_im10.bmp,['Im_BenStiller.png', 'Im_KeanuReeves.png', 'Im_GeorgeClooney.png', 'Im_DanielRadcliffe.png', 'Im_BradPitt.png', 'Im_LeonardoDiCaprio.png', 'Im_JustinTimberlake.png', 'Im_RobertPattinson.png', 'Im_PatrickDempsey.png', 'Im_DanielCraig.png'],diff,0,0.5834112000002278,29,78.57142857142857,
SASO1010,14,neg,120,neg120_id4_im20.bmp_neg120_id7_im14.bmp,['Im_BenStiller.png', 'Im_KeanuReeves.png', 'Im_GeorgeClooney.png', 'Im_DanielRadcliffe.png', 'Im_BradPitt.png', 'Im_LeonardoDiCaprio.png', 'Im_JustinTimberlake.png', 'Im_RobertPattinson.png', 'Im_PatrickDempsey.png', 'Im_DanielCraig.png'],diff,1,0.4585810999997193,30,78.57142857142857,
SASO1010,14,neg,0,neg0_id4_im20.bmp_neg0_id4_im15.bmp,['Im_BenStiller.png', 'Im_KeanuReeves.png', 'Im_GeorgeClooney.png', 'Im_DanielRadcliffe.png', 'Im_BradPitt.png', 'Im_LeonardoDiCaprio.png', 'Im_JustinTimberlake.png', 'Im_RobertPattinson.png', 'Im_PatrickDempsey.png', 'Im_DanielCraig.png'],same,1,0.42489630000000034,31,78.57142857142857,
SASO1010,14,neg,30,neg30_id5_im10.bmp_neg30_id5_im20.bmp,['Im_BenStiller.png', 'Im_KeanuReeves.png', 'Im_GeorgeClooney.png', 'Im_DanielRadcliffe.png', 'Im_BradPitt.png', 'Im_LeonardoDiCaprio.png', 'Im_JustinTimberlake.png', 'Im_RobertPattinson.png', 'Im_PatrickDempsey.png', 'Im_DanielCraig.png'],same,1,0.6499042999994344,32,78.57142857142857,
SASO1010,14,neg,150,neg150_id10_im17.bmp_neg150_id17_im8.bmp,['Im_BenStiller.png', 'Im_KeanuReeves.png', 'Im_GeorgeClooney.png', 'Im_DanielRadcliffe.png', 'Im_BradPitt.png', 'Im_LeonardoDiCaprio.png', 'Im_JustinTimberlake.png', 'Im_RobertPattinson.png', 'Im_PatrickDempsey.png', 'Im_DanielCraig.png'],diff,1,0.5168942999998762,33,78.57142857142857,
SASO1010,14,neg,90,neg90_id10_im18.bmp_neg90_id10_im17.bmp,['Im_BenStiller.png', 'Im_KeanuReeves.png', 'Im_GeorgeClooney.png', 'Im_DanielRadcliffe.png', 'Im_BradPitt.png', 'Im_LeonardoDiCaprio.png', 'Im_JustinTimberlake.png', 'Im_RobertPattinson.png', 'Im_PatrickDempsey.png', 'Im_DanielCraig.png'],same,1,0.42511839999951917,34,78.57142857142857,
SASO1010,14,neg,fs,negfs_id2_im2.bmp_negfs_id2_im3.bmp,['Im_BenStiller.png', 'Im_KeanuReeves.png', 'Im_GeorgeClooney.png', 'Im_DanielRadcliffe.png', 'Im_BradPitt.png', 'Im_LeonardoDiCaprio.png', 'Im_JustinTimberlake.png', 'Im_RobertPattinson.png', 'Im_PatrickDempsey.png', 'Im_DanielCraig.png'],diff,0,0.4168283999997584,34,78.57142857142857,
