Sujet,Trial,Condition,Filter,Imname,Actor0,Actor1,Actor2,Actor3,Actor4,Actor5,Actor6,Actor7,Actor8,Actor9,Answer,Accu,RT,Score,Scoreperc, 
SEMY0204,train,inv,90,pos90_id4_im15.bmp_pos90_id4_im7.bmp,['Im_KeanuReeves.png', 'Im_BradPitt.png', 'Im_DanielRadcliffe.png', 'Im_GeorgeClooney.png', 'Im_RyanGosling.png', 'Im_OrlandoBloom.png', 'Im_DanielCraig.png', 'Im_RyanReynolds.png', 'Im_MattDamon.png', 'Im_LeonardoDiCaprio.png'],same,1,0.8336622999922838,1,0,
SEMY0204,train,inv,120,pos120_id3_im17.bmp_pos120_id3_im6.bmp,['Im_KeanuReeves.png', 'Im_BradPitt.png', 'Im_DanielRadcliffe.png', 'Im_GeorgeClooney.png', 'Im_RyanGosling.png', 'Im_OrlandoBloom.png', 'Im_DanielCraig.png', 'Im_RyanReynolds.png', 'Im_MattDamon.png', 'Im_LeonardoDiCaprio.png'],same,1,0.4917260000074748,2,0,
SEMY0204,train,inv,fs,posfs_id13_im15.bmp_posfs_id13_im10.bmp,['Im_KeanuReeves.png', 'Im_BradPitt.png', 'Im_DanielRadcliffe.png', 'Im_GeorgeClooney.png', 'Im_RyanGosling.png', 'Im_OrlandoBloom.png', 'Im_DanielCraig.png', 'Im_RyanReynolds.png', 'Im_MattDamon.png', 'Im_LeonardoDiCaprio.png'],same,1,0.3999061999784317,3,0,
SEMY0204,train,inv,60,pos60_id20_im3.bmp_pos60_id20_im12.bmp,['Im_KeanuReeves.png', 'Im_BradPitt.png', 'Im_DanielRadcliffe.png', 'Im_GeorgeClooney.png', 'Im_RyanGosling.png', 'Im_OrlandoBloom.png', 'Im_DanielCraig.png', 'Im_RyanReynolds.png', 'Im_MattDamon.png', 'Im_LeonardoDiCaprio.png'],same,1,0.4167250999889802,4,0,
SEMY0204,train,inv,0,pos0_id5_im1.bmp_pos0_id11_im1.bmp,['Im_KeanuReeves.png', 'Im_BradPitt.png', 'Im_DanielRadcliffe.png', 'Im_GeorgeClooney.png', 'Im_RyanGosling.png', 'Im_OrlandoBloom.png', 'Im_DanielCraig.png', 'Im_RyanReynolds.png', 'Im_MattDamon.png', 'Im_LeonardoDiCaprio.png'],diff,1,0.7666752000222914,5,0,
SEMY0204,train,inv,fs,posfs_id13_im15.bmp_posfs_id13_im29.bmp,['Im_KeanuReeves.png', 'Im_BradPitt.png', 'Im_DanielRadcliffe.png', 'Im_GeorgeClooney.png', 'Im_RyanGosling.png', 'Im_OrlandoBloom.png', 'Im_DanielCraig.png', 'Im_RyanReynolds.png', 'Im_MattDamon.png', 'Im_LeonardoDiCaprio.png'],same,1,0.4085080999939237,6,0,
SEMY0204,train,inv,30,pos30_id20_im3.bmp_pos30_id7_im15.bmp,['Im_KeanuReeves.png', 'Im_BradPitt.png', 'Im_DanielRadcliffe.png', 'Im_GeorgeClooney.png', 'Im_RyanGosling.png', 'Im_OrlandoBloom.png', 'Im_DanielCraig.png', 'Im_RyanReynolds.png', 'Im_MattDamon.png', 'Im_LeonardoDiCaprio.png'],diff,1,0.41656489999149926,7,0,
SEMY0204,train,inv,120,pos120_id16_im19.bmp_pos120_id3_im8.bmp,['Im_KeanuReeves.png', 'Im_BradPitt.png', 'Im_DanielRadcliffe.png', 'Im_GeorgeClooney.png', 'Im_RyanGosling.png', 'Im_OrlandoBloom.png', 'Im_DanielCraig.png', 'Im_RyanReynolds.png', 'Im_MattDamon.png', 'Im_LeonardoDiCaprio.png'],same,0,0.4165942000108771,7,0,
SEMY0204,train,inv,150,pos150_id14_im18.bmp_pos150_id14_im24.bmp,['Im_KeanuReeves.png', 'Im_BradPitt.png', 'Im_DanielRadcliffe.png', 'Im_GeorgeClooney.png', 'Im_RyanGosling.png', 'Im_OrlandoBloom.png', 'Im_DanielCraig.png', 'Im_RyanReynolds.png', 'Im_MattDamon.png', 'Im_LeonardoDiCaprio.png'],same,1,0.41682240000227466,8,0,
SEMY0204,train,inv,150,pos150_id4_im7.bmp_pos150_id4_im20.bmp,['Im_KeanuReeves.png', 'Im_BradPitt.png', 'Im_DanielRadcliffe.png', 'Im_GeorgeClooney.png', 'Im_RyanGosling.png', 'Im_OrlandoBloom.png', 'Im_DanielCraig.png', 'Im_RyanReynolds.png', 'Im_MattDamon.png', 'Im_LeonardoDiCaprio.png'],same,1,0.5503118000051472,9,0,
SEMY0204,train,inv,0,pos0_id13_im10.bmp_pos0_id14_im18.bmp,['Im_KeanuReeves.png', 'Im_BradPitt.png', 'Im_DanielRadcliffe.png', 'Im_GeorgeClooney.png', 'Im_RyanGosling.png', 'Im_OrlandoBloom.png', 'Im_DanielCraig.png', 'Im_RyanReynolds.png', 'Im_MattDamon.png', 'Im_LeonardoDiCaprio.png'],diff,1,0.6832018999848515,10,0,
SEMY0204,train,inv,90,pos90_id20_im3.bmp_pos90_id20_im12.bmp,['Im_KeanuReeves.png', 'Im_BradPitt.png', 'Im_DanielRadcliffe.png', 'Im_GeorgeClooney.png', 'Im_RyanGosling.png', 'Im_OrlandoBloom.png', 'Im_DanielCraig.png', 'Im_RyanReynolds.png', 'Im_MattDamon.png', 'Im_LeonardoDiCaprio.png'],same,1,0.4168148000026122,11,0,
SEMY0204,train,inv,60,pos60_id16_im3.bmp_pos60_id16_im2.bmp,['Im_KeanuReeves.png', 'Im_BradPitt.png', 'Im_DanielRadcliffe.png', 'Im_GeorgeClooney.png', 'Im_RyanGosling.png', 'Im_OrlandoBloom.png', 'Im_DanielCraig.png', 'Im_RyanReynolds.png', 'Im_MattDamon.png', 'Im_LeonardoDiCaprio.png'],same,1,0.41684589997748844,12,0,
SEMY0204,train,inv,30,pos30_id13_im15.bmp_pos30_id13_im10.bmp,['Im_KeanuReeves.png', 'Im_BradPitt.png', 'Im_DanielRadcliffe.png', 'Im_GeorgeClooney.png', 'Im_RyanGosling.png', 'Im_OrlandoBloom.png', 'Im_DanielCraig.png', 'Im_RyanReynolds.png', 'Im_MattDamon.png', 'Im_LeonardoDiCaprio.png'],same,1,0.41683460000786,13,0,
SEMY0204,train,inv,30,pos30_id4_im7.bmp_pos30_id16_im2.bmp,['Im_KeanuReeves.png', 'Im_BradPitt.png', 'Im_DanielRadcliffe.png', 'Im_GeorgeClooney.png', 'Im_RyanGosling.png', 'Im_OrlandoBloom.png', 'Im_DanielCraig.png', 'Im_RyanReynolds.png', 'Im_MattDamon.png', 'Im_LeonardoDiCaprio.png'],diff,1,0.45819860001211055,14,0,
SEMY0204,train,inv,150,pos150_id16_im3.bmp_pos150_id16_im19.bmp,['Im_KeanuReeves.png', 'Im_BradPitt.png', 'Im_DanielRadcliffe.png', 'Im_GeorgeClooney.png', 'Im_RyanGosling.png', 'Im_OrlandoBloom.png', 'Im_DanielCraig.png', 'Im_RyanReynolds.png', 'Im_MattDamon.png', 'Im_LeonardoDiCaprio.png'],same,1,0.5000775000080466,15,0,
SEMY0204,train,inv,120,pos120_id16_im2.bmp_pos120_id16_im19.bmp,['Im_KeanuReeves.png', 'Im_BradPitt.png', 'Im_DanielRadcliffe.png', 'Im_GeorgeClooney.png', 'Im_RyanGosling.png', 'Im_OrlandoBloom.png', 'Im_DanielCraig.png', 'Im_RyanReynolds.png', 'Im_MattDamon.png', 'Im_LeonardoDiCaprio.png'],diff,0,0.9500384999846574,15,0,
SEMY0204,train,inv,150,pos150_id3_im8.bmp_pos150_id3_im17.bmp,['Im_KeanuReeves.png', 'Im_BradPitt.png', 'Im_DanielRadcliffe.png', 'Im_GeorgeClooney.png', 'Im_RyanGosling.png', 'Im_OrlandoBloom.png', 'Im_DanielCraig.png', 'Im_RyanReynolds.png', 'Im_MattDamon.png', 'Im_LeonardoDiCaprio.png'],diff,0,0.44195949999266304,15,0,
SEMY0204,train,inv,90,pos90_id3_im6.bmp_pos90_id11_im10.bmp,['Im_KeanuReeves.png', 'Im_BradPitt.png', 'Im_DanielRadcliffe.png', 'Im_GeorgeClooney.png', 'Im_RyanGosling.png', 'Im_OrlandoBloom.png', 'Im_DanielCraig.png', 'Im_RyanReynolds.png', 'Im_MattDamon.png', 'Im_LeonardoDiCaprio.png'],diff,1,0.5420692999905441,16,0,
SEMY0204,train,inv,fs,posfs_id13_im15.bmp_posfs_id20_im12.bmp,['Im_KeanuReeves.png', 'Im_BradPitt.png', 'Im_DanielRadcliffe.png', 'Im_GeorgeClooney.png', 'Im_RyanGosling.png', 'Im_OrlandoBloom.png', 'Im_DanielCraig.png', 'Im_RyanReynolds.png', 'Im_MattDamon.png', 'Im_LeonardoDiCaprio.png'],diff,1,0.41667679999955,17,0,
SEMY0204,train,inv,120,pos120_id16_im2.bmp_pos120_id16_im3.bmp,['Im_KeanuReeves.png', 'Im_BradPitt.png', 'Im_DanielRadcliffe.png', 'Im_GeorgeClooney.png', 'Im_RyanGosling.png', 'Im_OrlandoBloom.png', 'Im_DanielCraig.png', 'Im_RyanReynolds.png', 'Im_MattDamon.png', 'Im_LeonardoDiCaprio.png'],same,1,0.4248706999933347,18,0,
SEMY0204,train,inv,0,pos0_id13_im29.bmp_pos0_id13_im10.bmp,['Im_KeanuReeves.png', 'Im_BradPitt.png', 'Im_DanielRadcliffe.png', 'Im_GeorgeClooney.png', 'Im_RyanGosling.png', 'Im_OrlandoBloom.png', 'Im_DanielCraig.png', 'Im_RyanReynolds.png', 'Im_MattDamon.png', 'Im_LeonardoDiCaprio.png'],same,1,0.5001341999741271,19,0,
SEMY0204,train,inv,fs,posfs_id11_im1.bmp_posfs_id5_im1.bmp,['Im_KeanuReeves.png', 'Im_BradPitt.png', 'Im_DanielRadcliffe.png', 'Im_GeorgeClooney.png', 'Im_RyanGosling.png', 'Im_OrlandoBloom.png', 'Im_DanielCraig.png', 'Im_RyanReynolds.png', 'Im_MattDamon.png', 'Im_LeonardoDiCaprio.png'],diff,1,0.4168464000103995,20,0,
SEMY0204,train,inv,60,pos60_id7_im14.bmp_pos60_id4_im20.bmp,['Im_KeanuReeves.png', 'Im_BradPitt.png', 'Im_DanielRadcliffe.png', 'Im_GeorgeClooney.png', 'Im_RyanGosling.png', 'Im_OrlandoBloom.png', 'Im_DanielCraig.png', 'Im_RyanReynolds.png', 'Im_MattDamon.png', 'Im_LeonardoDiCaprio.png'],diff,1,0.4000219999870751,21,0,
SEMY0204,train,inv,0,pos0_id5_im10.bmp_pos0_id5_im1.bmp,['Im_KeanuReeves.png', 'Im_BradPitt.png', 'Im_DanielRadcliffe.png', 'Im_GeorgeClooney.png', 'Im_RyanGosling.png', 'Im_OrlandoBloom.png', 'Im_DanielCraig.png', 'Im_RyanReynolds.png', 'Im_MattDamon.png', 'Im_LeonardoDiCaprio.png'],same,1,0.4167120000056457,22,0,
SEMY0204,train,inv,90,pos90_id20_im30.bmp_pos90_id20_im3.bmp,['Im_KeanuReeves.png', 'Im_BradPitt.png', 'Im_DanielRadcliffe.png', 'Im_GeorgeClooney.png', 'Im_RyanGosling.png', 'Im_OrlandoBloom.png', 'Im_DanielCraig.png', 'Im_RyanReynolds.png', 'Im_MattDamon.png', 'Im_LeonardoDiCaprio.png'],same,1,0.408406600006856,23,0,
SEMY0204,train,inv,60,pos60_id11_im1.bmp_pos60_id5_im1.bmp,['Im_KeanuReeves.png', 'Im_BradPitt.png', 'Im_DanielRadcliffe.png', 'Im_GeorgeClooney.png', 'Im_RyanGosling.png', 'Im_OrlandoBloom.png', 'Im_DanielCraig.png', 'Im_RyanReynolds.png', 'Im_MattDamon.png', 'Im_LeonardoDiCaprio.png'],diff,1,0.39986010000575334,24,0,
SEMY0204,train,inv,30,pos30_id3_im6.bmp_pos30_id11_im10.bmp,['Im_KeanuReeves.png', 'Im_BradPitt.png', 'Im_DanielRadcliffe.png', 'Im_GeorgeClooney.png', 'Im_RyanGosling.png', 'Im_OrlandoBloom.png', 'Im_DanielCraig.png', 'Im_RyanReynolds.png', 'Im_MattDamon.png', 'Im_LeonardoDiCaprio.png'],same,0,0.4666422999871429,24,0,
SEMY0204,train,pos,90,pos90_id7_im15.bmp_pos90_id20_im3.bmp,['Im_KeanuReeves.png', 'Im_BradPitt.png', 'Im_DanielRadcliffe.png', 'Im_GeorgeClooney.png', 'Im_RyanGosling.png', 'Im_OrlandoBloom.png', 'Im_DanielCraig.png', 'Im_RyanReynolds.png', 'Im_MattDamon.png', 'Im_LeonardoDiCaprio.png'],diff,1,0.6832089000090491,25,0,
SEMY0204,train,pos,150,pos150_id13_im15.bmp_pos150_id20_im12.bmp,['Im_KeanuReeves.png', 'Im_BradPitt.png', 'Im_DanielRadcliffe.png', 'Im_GeorgeClooney.png', 'Im_RyanGosling.png', 'Im_OrlandoBloom.png', 'Im_DanielCraig.png', 'Im_RyanReynolds.png', 'Im_MattDamon.png', 'Im_LeonardoDiCaprio.png'],diff,1,0.39964069999405183,26,0,
SEMY0204,train,pos,fs,posfs_id5_im1.bmp_posfs_id5_im10.bmp,['Im_KeanuReeves.png', 'Im_BradPitt.png', 'Im_DanielRadcliffe.png', 'Im_GeorgeClooney.png', 'Im_RyanGosling.png', 'Im_OrlandoBloom.png', 'Im_DanielCraig.png', 'Im_RyanReynolds.png', 'Im_MattDamon.png', 'Im_LeonardoDiCaprio.png'],same,1,0.4165256000123918,27,0,
SEMY0204,train,pos,120,pos120_id3_im6.bmp_pos120_id3_im8.bmp,['Im_KeanuReeves.png', 'Im_BradPitt.png', 'Im_DanielRadcliffe.png', 'Im_GeorgeClooney.png', 'Im_RyanGosling.png', 'Im_OrlandoBloom.png', 'Im_DanielCraig.png', 'Im_RyanReynolds.png', 'Im_MattDamon.png', 'Im_LeonardoDiCaprio.png'],same,1,0.4165744000056293,28,0,
SEMY0204,train,pos,30,pos30_id11_im10.bmp_pos30_id11_im1.bmp,['Im_KeanuReeves.png', 'Im_BradPitt.png', 'Im_DanielRadcliffe.png', 'Im_GeorgeClooney.png', 'Im_RyanGosling.png', 'Im_OrlandoBloom.png', 'Im_DanielCraig.png', 'Im_RyanReynolds.png', 'Im_MattDamon.png', 'Im_LeonardoDiCaprio.png'],same,1,0.4501653000188526,29,0,
SEMY0204,train,pos,0,pos0_id3_im6.bmp_pos0_id3_im17.bmp,['Im_KeanuReeves.png', 'Im_BradPitt.png', 'Im_DanielRadcliffe.png', 'Im_GeorgeClooney.png', 'Im_RyanGosling.png', 'Im_OrlandoBloom.png', 'Im_DanielCraig.png', 'Im_RyanReynolds.png', 'Im_MattDamon.png', 'Im_LeonardoDiCaprio.png'],same,1,0.4001050000078976,30,0,
SEMY0204,train,pos,90,pos90_id20_im12.bmp_pos90_id13_im15.bmp,['Im_KeanuReeves.png', 'Im_BradPitt.png', 'Im_DanielRadcliffe.png', 'Im_GeorgeClooney.png', 'Im_RyanGosling.png', 'Im_OrlandoBloom.png', 'Im_DanielCraig.png', 'Im_RyanReynolds.png', 'Im_MattDamon.png', 'Im_LeonardoDiCaprio.png'],diff,1,0.3998602000065148,31,0,
SEMY0204,train,pos,fs,posfs_id14_im24.bmp_posfs_id14_im16.bmp,['Im_KeanuReeves.png', 'Im_BradPitt.png', 'Im_DanielRadcliffe.png', 'Im_GeorgeClooney.png', 'Im_RyanGosling.png', 'Im_OrlandoBloom.png', 'Im_DanielCraig.png', 'Im_RyanReynolds.png', 'Im_MattDamon.png', 'Im_LeonardoDiCaprio.png'],same,1,0.4168084999837447,32,0,
SEMY0204,train,pos,60,pos60_id5_im20.bmp_pos60_id21_im17.bmp,['Im_KeanuReeves.png', 'Im_BradPitt.png', 'Im_DanielRadcliffe.png', 'Im_GeorgeClooney.png', 'Im_RyanGosling.png', 'Im_OrlandoBloom.png', 'Im_DanielCraig.png', 'Im_RyanReynolds.png', 'Im_MattDamon.png', 'Im_LeonardoDiCaprio.png'],diff,1,0.4165414000162855,33,0,
SEMY0204,train,pos,0,pos0_id5_im10.bmp_pos0_id5_im20.bmp,['Im_KeanuReeves.png', 'Im_BradPitt.png', 'Im_DanielRadcliffe.png', 'Im_GeorgeClooney.png', 'Im_RyanGosling.png', 'Im_OrlandoBloom.png', 'Im_DanielCraig.png', 'Im_RyanReynolds.png', 'Im_MattDamon.png', 'Im_LeonardoDiCaprio.png'],same,1,0.4165547000011429,34,0,
SEMY0204,train,pos,150,pos150_id13_im15.bmp_pos150_id13_im10.bmp,['Im_KeanuReeves.png', 'Im_BradPitt.png', 'Im_DanielRadcliffe.png', 'Im_GeorgeClooney.png', 'Im_RyanGosling.png', 'Im_OrlandoBloom.png', 'Im_DanielCraig.png', 'Im_RyanReynolds.png', 'Im_MattDamon.png', 'Im_LeonardoDiCaprio.png'],same,1,0.4082157999800984,35,0,
SEMY0204,train,pos,120,pos120_id16_im3.bmp_pos120_id3_im6.bmp,['Im_KeanuReeves.png', 'Im_BradPitt.png', 'Im_DanielRadcliffe.png', 'Im_GeorgeClooney.png', 'Im_RyanGosling.png', 'Im_OrlandoBloom.png', 'Im_DanielCraig.png', 'Im_RyanReynolds.png', 'Im_MattDamon.png', 'Im_LeonardoDiCaprio.png'],diff,1,0.4168234999815468,36,0,
SEMY0204,train,pos,30,pos30_id3_im8.bmp_pos30_id3_im6.bmp,['Im_KeanuReeves.png', 'Im_BradPitt.png', 'Im_DanielRadcliffe.png', 'Im_GeorgeClooney.png', 'Im_RyanGosling.png', 'Im_OrlandoBloom.png', 'Im_DanielCraig.png', 'Im_RyanReynolds.png', 'Im_MattDamon.png', 'Im_LeonardoDiCaprio.png'],same,1,0.4167608999996446,37,0,
SEMY0204,train,pos,60,pos60_id3_im6.bmp_pos60_id11_im10.bmp,['Im_KeanuReeves.png', 'Im_BradPitt.png', 'Im_DanielRadcliffe.png', 'Im_GeorgeClooney.png', 'Im_RyanGosling.png', 'Im_OrlandoBloom.png', 'Im_DanielCraig.png', 'Im_RyanReynolds.png', 'Im_MattDamon.png', 'Im_LeonardoDiCaprio.png'],diff,1,0.41652139998041093,38,0,
SEMY0204,train,neg,120,neg120_id14_im16.bmp_neg120_id14_im18.bmp,['Im_KeanuReeves.png', 'Im_BradPitt.png', 'Im_DanielRadcliffe.png', 'Im_GeorgeClooney.png', 'Im_RyanGosling.png', 'Im_OrlandoBloom.png', 'Im_DanielCraig.png', 'Im_RyanReynolds.png', 'Im_MattDamon.png', 'Im_LeonardoDiCaprio.png'],same,1,0.41688669999712147,1,90.47619047619048,
SEMY0204,train,neg,0,neg0_id11_im10.bmp_neg0_id11_im2.bmp,['Im_KeanuReeves.png', 'Im_BradPitt.png', 'Im_DanielRadcliffe.png', 'Im_GeorgeClooney.png', 'Im_RyanGosling.png', 'Im_OrlandoBloom.png', 'Im_DanielCraig.png', 'Im_RyanReynolds.png', 'Im_MattDamon.png', 'Im_LeonardoDiCaprio.png'],same,1,0.4083857999939937,2,90.47619047619048,
SEMY0204,train,neg,120,neg120_id13_im15.bmp_neg120_id16_im19.bmp,['Im_KeanuReeves.png', 'Im_BradPitt.png', 'Im_DanielRadcliffe.png', 'Im_GeorgeClooney.png', 'Im_RyanGosling.png', 'Im_OrlandoBloom.png', 'Im_DanielCraig.png', 'Im_RyanReynolds.png', 'Im_MattDamon.png', 'Im_LeonardoDiCaprio.png'],diff,1,0.4836772000126075,3,90.47619047619048,
SEMY0204,train,neg,90,neg90_id16_im2.bmp_neg90_id11_im10.bmp,['Im_KeanuReeves.png', 'Im_BradPitt.png', 'Im_DanielRadcliffe.png', 'Im_GeorgeClooney.png', 'Im_RyanGosling.png', 'Im_OrlandoBloom.png', 'Im_DanielCraig.png', 'Im_RyanReynolds.png', 'Im_MattDamon.png', 'Im_LeonardoDiCaprio.png'],diff,1,0.5836870000057388,4,90.47619047619048,
SEMY0204,train,neg,60,neg60_id21_im16.bmp_neg60_id21_im22.bmp,['Im_KeanuReeves.png', 'Im_BradPitt.png', 'Im_DanielRadcliffe.png', 'Im_GeorgeClooney.png', 'Im_RyanGosling.png', 'Im_OrlandoBloom.png', 'Im_DanielCraig.png', 'Im_RyanReynolds.png', 'Im_MattDamon.png', 'Im_LeonardoDiCaprio.png'],same,1,0.41655449999962,5,90.47619047619048,
SEMY0204,train,neg,fs,negfs_id11_im2.bmp_negfs_id13_im29.bmp,['Im_KeanuReeves.png', 'Im_BradPitt.png', 'Im_DanielRadcliffe.png', 'Im_GeorgeClooney.png', 'Im_RyanGosling.png', 'Im_OrlandoBloom.png', 'Im_DanielCraig.png', 'Im_RyanReynolds.png', 'Im_MattDamon.png', 'Im_LeonardoDiCaprio.png'],diff,1,0.40853649997734465,6,90.47619047619048,
SEMY0204,train,neg,30,neg30_id7_im26.bmp_neg30_id7_im15.bmp,['Im_KeanuReeves.png', 'Im_BradPitt.png', 'Im_DanielRadcliffe.png', 'Im_GeorgeClooney.png', 'Im_RyanGosling.png', 'Im_OrlandoBloom.png', 'Im_DanielCraig.png', 'Im_RyanReynolds.png', 'Im_MattDamon.png', 'Im_LeonardoDiCaprio.png'],same,1,0.40831290002097376,7,90.47619047619048,
SEMY0204,train,neg,0,neg0_id3_im6.bmp_neg0_id3_im8.bmp,['Im_KeanuReeves.png', 'Im_BradPitt.png', 'Im_DanielRadcliffe.png', 'Im_GeorgeClooney.png', 'Im_RyanGosling.png', 'Im_OrlandoBloom.png', 'Im_DanielCraig.png', 'Im_RyanReynolds.png', 'Im_MattDamon.png', 'Im_LeonardoDiCaprio.png'],same,1,0.3997436999925412,8,90.47619047619048,
SEMY0204,train,neg,30,neg30_id20_im12.bmp_neg30_id13_im15.bmp,['Im_KeanuReeves.png', 'Im_BradPitt.png', 'Im_DanielRadcliffe.png', 'Im_GeorgeClooney.png', 'Im_RyanGosling.png', 'Im_OrlandoBloom.png', 'Im_DanielCraig.png', 'Im_RyanReynolds.png', 'Im_MattDamon.png', 'Im_LeonardoDiCaprio.png'],diff,1,0.4666524000058416,9,90.47619047619048,
SEMY0204,train,neg,150,neg150_id21_im22.bmp_neg150_id11_im2.bmp,['Im_KeanuReeves.png', 'Im_BradPitt.png', 'Im_DanielRadcliffe.png', 'Im_GeorgeClooney.png', 'Im_RyanGosling.png', 'Im_OrlandoBloom.png', 'Im_DanielCraig.png', 'Im_RyanReynolds.png', 'Im_MattDamon.png', 'Im_LeonardoDiCaprio.png'],same,0,0.4336174000054598,9,90.47619047619048,
SEMY0204,train,neg,150,neg150_id16_im3.bmp_neg150_id16_im19.bmp,['Im_KeanuReeves.png', 'Im_BradPitt.png', 'Im_DanielRadcliffe.png', 'Im_GeorgeClooney.png', 'Im_RyanGosling.png', 'Im_OrlandoBloom.png', 'Im_DanielCraig.png', 'Im_RyanReynolds.png', 'Im_MattDamon.png', 'Im_LeonardoDiCaprio.png'],same,1,0.4167111999995541,10,90.47619047619048,
SEMY0204,train,neg,90,neg90_id20_im12.bmp_neg90_id4_im15.bmp,['Im_KeanuReeves.png', 'Im_BradPitt.png', 'Im_DanielRadcliffe.png', 'Im_GeorgeClooney.png', 'Im_RyanGosling.png', 'Im_OrlandoBloom.png', 'Im_DanielCraig.png', 'Im_RyanReynolds.png', 'Im_MattDamon.png', 'Im_LeonardoDiCaprio.png'],same,0,0.5499068000062834,10,90.47619047619048,
SEMY0204,train,neg,fs,negfs_id14_im24.bmp_negfs_id14_im16.bmp,['Im_KeanuReeves.png', 'Im_BradPitt.png', 'Im_DanielRadcliffe.png', 'Im_GeorgeClooney.png', 'Im_RyanGosling.png', 'Im_OrlandoBloom.png', 'Im_DanielCraig.png', 'Im_RyanReynolds.png', 'Im_MattDamon.png', 'Im_LeonardoDiCaprio.png'],same,1,0.4166739999782294,11,90.47619047619048,
SEMY0204,train,neg,60,neg60_id13_im29.bmp_neg60_id13_im15.bmp,['Im_KeanuReeves.png', 'Im_BradPitt.png', 'Im_DanielRadcliffe.png', 'Im_GeorgeClooney.png', 'Im_RyanGosling.png', 'Im_OrlandoBloom.png', 'Im_DanielCraig.png', 'Im_RyanReynolds.png', 'Im_MattDamon.png', 'Im_LeonardoDiCaprio.png'],same,1,0.5668846000044141,12,90.47619047619048,
SEMY0204,train,neg,150,neg150_id14_im16.bmp_neg150_id5_im20.bmp,['Im_KeanuReeves.png', 'Im_BradPitt.png', 'Im_DanielRadcliffe.png', 'Im_GeorgeClooney.png', 'Im_RyanGosling.png', 'Im_OrlandoBloom.png', 'Im_DanielCraig.png', 'Im_RyanReynolds.png', 'Im_MattDamon.png', 'Im_LeonardoDiCaprio.png'],diff,1,0.41663340001832694,13,90.47619047619048,
SEMY0204,train,neg,60,neg60_id13_im15.bmp_neg60_id13_im10.bmp,['Im_KeanuReeves.png', 'Im_BradPitt.png', 'Im_DanielRadcliffe.png', 'Im_GeorgeClooney.png', 'Im_RyanGosling.png', 'Im_OrlandoBloom.png', 'Im_DanielCraig.png', 'Im_RyanReynolds.png', 'Im_MattDamon.png', 'Im_LeonardoDiCaprio.png'],same,1,0.40843589999713004,14,90.47619047619048,
SEMY0204,train,neg,fs,negfs_id20_im12.bmp_negfs_id20_im3.bmp,['Im_KeanuReeves.png', 'Im_BradPitt.png', 'Im_DanielRadcliffe.png', 'Im_GeorgeClooney.png', 'Im_RyanGosling.png', 'Im_OrlandoBloom.png', 'Im_DanielCraig.png', 'Im_RyanReynolds.png', 'Im_MattDamon.png', 'Im_LeonardoDiCaprio.png'],same,1,0.41683020000346005,15,90.47619047619048,
SEMY0204,train,neg,30,neg30_id3_im8.bmp_neg30_id3_im6.bmp,['Im_KeanuReeves.png', 'Im_BradPitt.png', 'Im_DanielRadcliffe.png', 'Im_GeorgeClooney.png', 'Im_RyanGosling.png', 'Im_OrlandoBloom.png', 'Im_DanielCraig.png', 'Im_RyanReynolds.png', 'Im_MattDamon.png', 'Im_LeonardoDiCaprio.png'],same,1,0.4085324000043329,16,90.47619047619048,
SEMY0204,train,neg,150,neg150_id13_im10.bmp_neg150_id13_im15.bmp,['Im_KeanuReeves.png', 'Im_BradPitt.png', 'Im_DanielRadcliffe.png', 'Im_GeorgeClooney.png', 'Im_RyanGosling.png', 'Im_OrlandoBloom.png', 'Im_DanielCraig.png', 'Im_RyanReynolds.png', 'Im_MattDamon.png', 'Im_LeonardoDiCaprio.png'],same,1,0.41670020000310615,17,90.47619047619048,
SEMY0204,train,neg,90,neg90_id4_im20.bmp_neg90_id7_im14.bmp,['Im_KeanuReeves.png', 'Im_BradPitt.png', 'Im_DanielRadcliffe.png', 'Im_GeorgeClooney.png', 'Im_RyanGosling.png', 'Im_OrlandoBloom.png', 'Im_DanielCraig.png', 'Im_RyanReynolds.png', 'Im_MattDamon.png', 'Im_LeonardoDiCaprio.png'],diff,1,0.40025030000833794,18,90.47619047619048,
SEMY0204,train,neg,120,neg120_id7_im26.bmp_neg120_id20_im3.bmp,['Im_KeanuReeves.png', 'Im_BradPitt.png', 'Im_DanielRadcliffe.png', 'Im_GeorgeClooney.png', 'Im_RyanGosling.png', 'Im_OrlandoBloom.png', 'Im_DanielCraig.png', 'Im_RyanReynolds.png', 'Im_MattDamon.png', 'Im_LeonardoDiCaprio.png'],same,0,0.4166945999895688,18,90.47619047619048,
SEMY0204,train,neg,0,neg0_id14_im24.bmp_neg0_id20_im30.bmp,['Im_KeanuReeves.png', 'Im_BradPitt.png', 'Im_DanielRadcliffe.png', 'Im_GeorgeClooney.png', 'Im_RyanGosling.png', 'Im_OrlandoBloom.png', 'Im_DanielCraig.png', 'Im_RyanReynolds.png', 'Im_MattDamon.png', 'Im_LeonardoDiCaprio.png'],diff,1,0.8249865999969188,19,90.47619047619048,
SEMY0204,train,neg,fs,negfs_id3_im17.bmp_negfs_id13_im29.bmp,['Im_KeanuReeves.png', 'Im_BradPitt.png', 'Im_DanielRadcliffe.png', 'Im_GeorgeClooney.png', 'Im_RyanGosling.png', 'Im_OrlandoBloom.png', 'Im_DanielCraig.png', 'Im_RyanReynolds.png', 'Im_MattDamon.png', 'Im_LeonardoDiCaprio.png'],diff,1,0.4166849000030197,20,90.47619047619048,
SEMY0204,train,neg,0,neg0_id16_im2.bmp_neg0_id11_im10.bmp,['Im_KeanuReeves.png', 'Im_BradPitt.png', 'Im_DanielRadcliffe.png', 'Im_GeorgeClooney.png', 'Im_RyanGosling.png', 'Im_OrlandoBloom.png', 'Im_DanielCraig.png', 'Im_RyanReynolds.png', 'Im_MattDamon.png', 'Im_LeonardoDiCaprio.png'],diff,1,0.40839490000507794,21,90.47619047619048,
SEMY0204,train,neg,60,neg60_id14_im16.bmp_neg60_id14_im18.bmp,['Im_KeanuReeves.png', 'Im_BradPitt.png', 'Im_DanielRadcliffe.png', 'Im_GeorgeClooney.png', 'Im_RyanGosling.png', 'Im_OrlandoBloom.png', 'Im_DanielCraig.png', 'Im_RyanReynolds.png', 'Im_MattDamon.png', 'Im_LeonardoDiCaprio.png'],same,1,0.4168853999872226,22,90.47619047619048,
SEMY0204,train,neg,90,neg90_id3_im17.bmp_neg90_id3_im6.bmp,['Im_KeanuReeves.png', 'Im_BradPitt.png', 'Im_DanielRadcliffe.png', 'Im_GeorgeClooney.png', 'Im_RyanGosling.png', 'Im_OrlandoBloom.png', 'Im_DanielCraig.png', 'Im_RyanReynolds.png', 'Im_MattDamon.png', 'Im_LeonardoDiCaprio.png'],same,1,0.516938199987635,23,90.47619047619048,
SEMY0204,train,neg,120,neg120_id7_im15.bmp_neg120_id20_im3.bmp,['Im_KeanuReeves.png', 'Im_BradPitt.png', 'Im_DanielRadcliffe.png', 'Im_GeorgeClooney.png', 'Im_RyanGosling.png', 'Im_OrlandoBloom.png', 'Im_DanielCraig.png', 'Im_RyanReynolds.png', 'Im_MattDamon.png', 'Im_LeonardoDiCaprio.png'],diff,1,0.416720900015207,24,90.47619047619048,
SEMY0204,train,neg,30,neg30_id16_im2.bmp_neg30_id16_im19.bmp,['Im_KeanuReeves.png', 'Im_BradPitt.png', 'Im_DanielRadcliffe.png', 'Im_GeorgeClooney.png', 'Im_RyanGosling.png', 'Im_OrlandoBloom.png', 'Im_DanielCraig.png', 'Im_RyanReynolds.png', 'Im_MattDamon.png', 'Im_LeonardoDiCaprio.png'],same,1,0.5336294999870006,25,90.47619047619048,
SEMY0204,train,pos,0,pos0_id4_im7.bmp_pos0_id4_im20.bmp,['Im_KeanuReeves.png', 'Im_BradPitt.png', 'Im_DanielRadcliffe.png', 'Im_GeorgeClooney.png', 'Im_RyanGosling.png', 'Im_OrlandoBloom.png', 'Im_DanielCraig.png', 'Im_RyanReynolds.png', 'Im_MattDamon.png', 'Im_LeonardoDiCaprio.png'],same,1,0.4166624000063166,26,90.47619047619048,
SEMY0204,train,pos,150,pos150_id3_im6.bmp_pos150_id11_im10.bmp,['Im_KeanuReeves.png', 'Im_BradPitt.png', 'Im_DanielRadcliffe.png', 'Im_GeorgeClooney.png', 'Im_RyanGosling.png', 'Im_OrlandoBloom.png', 'Im_DanielCraig.png', 'Im_RyanReynolds.png', 'Im_MattDamon.png', 'Im_LeonardoDiCaprio.png'],diff,1,0.416497199999867,27,90.47619047619048,
SEMY0204,train,pos,90,pos90_id3_im17.bmp_pos90_id3_im6.bmp,['Im_KeanuReeves.png', 'Im_BradPitt.png', 'Im_DanielRadcliffe.png', 'Im_GeorgeClooney.png', 'Im_RyanGosling.png', 'Im_OrlandoBloom.png', 'Im_DanielCraig.png', 'Im_RyanReynolds.png', 'Im_MattDamon.png', 'Im_LeonardoDiCaprio.png'],same,1,0.5002931999915745,28,90.47619047619048,
SEMY0204,train,pos,fs,posfs_id5_im1.bmp_posfs_id5_im20.bmp,['Im_KeanuReeves.png', 'Im_BradPitt.png', 'Im_DanielRadcliffe.png', 'Im_GeorgeClooney.png', 'Im_RyanGosling.png', 'Im_OrlandoBloom.png', 'Im_DanielCraig.png', 'Im_RyanReynolds.png', 'Im_MattDamon.png', 'Im_LeonardoDiCaprio.png'],same,1,0.41675709999981336,29,90.47619047619048,
SEMY0204,train,pos,60,pos60_id21_im17.bmp_pos60_id21_im16.bmp,['Im_KeanuReeves.png', 'Im_BradPitt.png', 'Im_DanielRadcliffe.png', 'Im_GeorgeClooney.png', 'Im_RyanGosling.png', 'Im_OrlandoBloom.png', 'Im_DanielCraig.png', 'Im_RyanReynolds.png', 'Im_MattDamon.png', 'Im_LeonardoDiCaprio.png'],same,1,0.4586620000191033,30,90.47619047619048,
SEMY0204,train,pos,0,pos0_id4_im20.bmp_pos0_id7_im14.bmp,['Im_KeanuReeves.png', 'Im_BradPitt.png', 'Im_DanielRadcliffe.png', 'Im_GeorgeClooney.png', 'Im_RyanGosling.png', 'Im_OrlandoBloom.png', 'Im_DanielCraig.png', 'Im_RyanReynolds.png', 'Im_MattDamon.png', 'Im_LeonardoDiCaprio.png'],diff,1,0.4081173999875318,31,90.47619047619048,
SEMY0204,train,pos,150,pos150_id21_im17.bmp_pos150_id21_im22.bmp,['Im_KeanuReeves.png', 'Im_BradPitt.png', 'Im_DanielRadcliffe.png', 'Im_GeorgeClooney.png', 'Im_RyanGosling.png', 'Im_OrlandoBloom.png', 'Im_DanielCraig.png', 'Im_RyanReynolds.png', 'Im_MattDamon.png', 'Im_LeonardoDiCaprio.png'],same,1,0.4500337000063155,32,90.47619047619048,
SEMY0204,train,pos,120,pos120_id11_im1.bmp_pos120_id11_im2.bmp,['Im_KeanuReeves.png', 'Im_BradPitt.png', 'Im_DanielRadcliffe.png', 'Im_GeorgeClooney.png', 'Im_RyanGosling.png', 'Im_OrlandoBloom.png', 'Im_DanielCraig.png', 'Im_RyanReynolds.png', 'Im_MattDamon.png', 'Im_LeonardoDiCaprio.png'],same,1,0.4165522000112105,33,90.47619047619048,
SEMY0204,train,pos,30,pos30_id3_im6.bmp_pos30_id16_im3.bmp,['Im_KeanuReeves.png', 'Im_BradPitt.png', 'Im_DanielRadcliffe.png', 'Im_GeorgeClooney.png', 'Im_RyanGosling.png', 'Im_OrlandoBloom.png', 'Im_DanielCraig.png', 'Im_RyanReynolds.png', 'Im_MattDamon.png', 'Im_LeonardoDiCaprio.png'],diff,1,0.41700340001261793,34,90.47619047619048,
SEMY0204,train,pos,120,pos120_id21_im16.bmp_pos120_id7_im15.bmp,['Im_KeanuReeves.png', 'Im_BradPitt.png', 'Im_DanielRadcliffe.png', 'Im_GeorgeClooney.png', 'Im_RyanGosling.png', 'Im_OrlandoBloom.png', 'Im_DanielCraig.png', 'Im_RyanReynolds.png', 'Im_MattDamon.png', 'Im_LeonardoDiCaprio.png'],diff,1,0.4167490999971051,35,90.47619047619048,
SEMY0204,train,pos,fs,posfs_id7_im14.bmp_posfs_id4_im20.bmp,['Im_KeanuReeves.png', 'Im_BradPitt.png', 'Im_DanielRadcliffe.png', 'Im_GeorgeClooney.png', 'Im_RyanGosling.png', 'Im_OrlandoBloom.png', 'Im_DanielCraig.png', 'Im_RyanReynolds.png', 'Im_MattDamon.png', 'Im_LeonardoDiCaprio.png'],diff,1,0.4000329000118654,36,90.47619047619048,
SEMY0204,train,pos,60,pos60_id4_im20.bmp_pos60_id21_im22.bmp,['Im_KeanuReeves.png', 'Im_BradPitt.png', 'Im_DanielRadcliffe.png', 'Im_GeorgeClooney.png', 'Im_RyanGosling.png', 'Im_OrlandoBloom.png', 'Im_DanielCraig.png', 'Im_RyanReynolds.png', 'Im_MattDamon.png', 'Im_LeonardoDiCaprio.png'],diff,1,0.4083567000052426,37,90.47619047619048,
SEMY0204,train,pos,30,pos30_id4_im15.bmp_pos30_id5_im1.bmp,['Im_KeanuReeves.png', 'Im_BradPitt.png', 'Im_DanielRadcliffe.png', 'Im_GeorgeClooney.png', 'Im_RyanGosling.png', 'Im_OrlandoBloom.png', 'Im_DanielCraig.png', 'Im_RyanReynolds.png', 'Im_MattDamon.png', 'Im_LeonardoDiCaprio.png'],diff,1,0.4165618999977596,38,90.47619047619048,
SEMY0204,train,pos,90,pos90_id11_im2.bmp_pos90_id11_im10.bmp,['Im_KeanuReeves.png', 'Im_BradPitt.png', 'Im_DanielRadcliffe.png', 'Im_GeorgeClooney.png', 'Im_RyanGosling.png', 'Im_OrlandoBloom.png', 'Im_DanielCraig.png', 'Im_RyanReynolds.png', 'Im_MattDamon.png', 'Im_LeonardoDiCaprio.png'],same,1,0.4084026000055019,39,90.47619047619048,
SEMY0204,0,neg,120,neg120_id4_im7.bmp_neg120_id16_im3.bmp,['Im_KeanuReeves.png', 'Im_BradPitt.png', 'Im_DanielRadcliffe.png', 'Im_GeorgeClooney.png', 'Im_RyanGosling.png', 'Im_OrlandoBloom.png', 'Im_DanielCraig.png', 'Im_RyanReynolds.png', 'Im_MattDamon.png', 'Im_LeonardoDiCaprio.png'],diff,1,0.4000011000025552,1,0,
SEMY0204,0,neg,60,neg60_id5_im1.bmp_neg60_id5_im10.bmp,['Im_KeanuReeves.png', 'Im_BradPitt.png', 'Im_DanielRadcliffe.png', 'Im_GeorgeClooney.png', 'Im_RyanGosling.png', 'Im_OrlandoBloom.png', 'Im_DanielCraig.png', 'Im_RyanReynolds.png', 'Im_MattDamon.png', 'Im_LeonardoDiCaprio.png'],same,1,0.5251758999947924,2,0,
SEMY0204,0,neg,fs,negfs_id11_im10.bmp_negfs_id16_im2.bmp,['Im_KeanuReeves.png', 'Im_BradPitt.png', 'Im_DanielRadcliffe.png', 'Im_GeorgeClooney.png', 'Im_RyanGosling.png', 'Im_OrlandoBloom.png', 'Im_DanielCraig.png', 'Im_RyanReynolds.png', 'Im_MattDamon.png', 'Im_LeonardoDiCaprio.png'],diff,1,0.6418684000091162,3,0,
SEMY0204,0,neg,0,neg0_id4_im7.bmp_neg0_id4_im20.bmp,['Im_KeanuReeves.png', 'Im_BradPitt.png', 'Im_DanielRadcliffe.png', 'Im_GeorgeClooney.png', 'Im_RyanGosling.png', 'Im_OrlandoBloom.png', 'Im_DanielCraig.png', 'Im_RyanReynolds.png', 'Im_MattDamon.png', 'Im_LeonardoDiCaprio.png'],same,1,0.40010860000620596,4,0,
SEMY0204,0,neg,0,neg0_id21_im16.bmp_neg0_id21_im22.bmp,['Im_KeanuReeves.png', 'Im_BradPitt.png', 'Im_DanielRadcliffe.png', 'Im_GeorgeClooney.png', 'Im_RyanGosling.png', 'Im_OrlandoBloom.png', 'Im_DanielCraig.png', 'Im_RyanReynolds.png', 'Im_MattDamon.png', 'Im_LeonardoDiCaprio.png'],same,1,0.4084351999917999,5,0,
SEMY0204,0,neg,150,neg150_id13_im29.bmp_neg150_id13_im10.bmp,['Im_KeanuReeves.png', 'Im_BradPitt.png', 'Im_DanielRadcliffe.png', 'Im_GeorgeClooney.png', 'Im_RyanGosling.png', 'Im_OrlandoBloom.png', 'Im_DanielCraig.png', 'Im_RyanReynolds.png', 'Im_MattDamon.png', 'Im_LeonardoDiCaprio.png'],same,1,0.4084177000040654,6,0,
SEMY0204,0,neg,fs,negfs_id14_im18.bmp_negfs_id14_im24.bmp,['Im_KeanuReeves.png', 'Im_BradPitt.png', 'Im_DanielRadcliffe.png', 'Im_GeorgeClooney.png', 'Im_RyanGosling.png', 'Im_OrlandoBloom.png', 'Im_DanielCraig.png', 'Im_RyanReynolds.png', 'Im_MattDamon.png', 'Im_LeonardoDiCaprio.png'],same,1,0.4084300000104122,7,0,
SEMY0204,0,neg,90,neg90_id14_im16.bmp_neg90_id5_im20.bmp,['Im_KeanuReeves.png', 'Im_BradPitt.png', 'Im_DanielRadcliffe.png', 'Im_GeorgeClooney.png', 'Im_RyanGosling.png', 'Im_OrlandoBloom.png', 'Im_DanielCraig.png', 'Im_RyanReynolds.png', 'Im_MattDamon.png', 'Im_LeonardoDiCaprio.png'],diff,1,0.47498369999811985,8,0,
SEMY0204,0,neg,120,neg120_id13_im29.bmp_neg120_id11_im2.bmp,['Im_KeanuReeves.png', 'Im_BradPitt.png', 'Im_DanielRadcliffe.png', 'Im_GeorgeClooney.png', 'Im_RyanGosling.png', 'Im_OrlandoBloom.png', 'Im_DanielCraig.png', 'Im_RyanReynolds.png', 'Im_MattDamon.png', 'Im_LeonardoDiCaprio.png'],diff,1,0.40002060000551865,9,0,
SEMY0204,0,neg,30,neg30_id14_im16.bmp_neg30_id5_im20.bmp,['Im_KeanuReeves.png', 'Im_BradPitt.png', 'Im_DanielRadcliffe.png', 'Im_GeorgeClooney.png', 'Im_RyanGosling.png', 'Im_OrlandoBloom.png', 'Im_DanielCraig.png', 'Im_RyanReynolds.png', 'Im_MattDamon.png', 'Im_LeonardoDiCaprio.png'],diff,1,0.40839630001573823,10,0,
SEMY0204,0,neg,30,neg30_id11_im10.bmp_neg30_id3_im6.bmp,['Im_KeanuReeves.png', 'Im_BradPitt.png', 'Im_DanielRadcliffe.png', 'Im_GeorgeClooney.png', 'Im_RyanGosling.png', 'Im_OrlandoBloom.png', 'Im_DanielCraig.png', 'Im_RyanReynolds.png', 'Im_MattDamon.png', 'Im_LeonardoDiCaprio.png'],diff,1,0.40818460000446066,11,0,
SEMY0204,0,neg,150,neg150_id16_im19.bmp_neg150_id3_im8.bmp,['Im_KeanuReeves.png', 'Im_BradPitt.png', 'Im_DanielRadcliffe.png', 'Im_GeorgeClooney.png', 'Im_RyanGosling.png', 'Im_OrlandoBloom.png', 'Im_DanielCraig.png', 'Im_RyanReynolds.png', 'Im_MattDamon.png', 'Im_LeonardoDiCaprio.png'],diff,1,0.4085423999931663,12,0,
SEMY0204,0,neg,90,neg90_id4_im7.bmp_neg90_id16_im3.bmp,['Im_KeanuReeves.png', 'Im_BradPitt.png', 'Im_DanielRadcliffe.png', 'Im_GeorgeClooney.png', 'Im_RyanGosling.png', 'Im_OrlandoBloom.png', 'Im_DanielCraig.png', 'Im_RyanReynolds.png', 'Im_MattDamon.png', 'Im_LeonardoDiCaprio.png'],diff,1,0.6083971000043675,13,0,
SEMY0204,0,neg,60,neg60_id7_im15.bmp_neg60_id21_im16.bmp,['Im_KeanuReeves.png', 'Im_BradPitt.png', 'Im_DanielRadcliffe.png', 'Im_GeorgeClooney.png', 'Im_RyanGosling.png', 'Im_OrlandoBloom.png', 'Im_DanielCraig.png', 'Im_RyanReynolds.png', 'Im_MattDamon.png', 'Im_LeonardoDiCaprio.png'],diff,1,0.47492599999532104,14,0,
SEMY0204,1,inv,150,pos150_id20_im12.bmp_pos150_id4_im15.bmp,['Im_KeanuReeves.png', 'Im_BradPitt.png', 'Im_DanielRadcliffe.png', 'Im_GeorgeClooney.png', 'Im_RyanGosling.png', 'Im_OrlandoBloom.png', 'Im_DanielCraig.png', 'Im_RyanReynolds.png', 'Im_MattDamon.png', 'Im_LeonardoDiCaprio.png'],diff,1,0.6585047999978997,15,0,
SEMY0204,1,inv,120,pos120_id14_im16.bmp_pos120_id5_im20.bmp,['Im_KeanuReeves.png', 'Im_BradPitt.png', 'Im_DanielRadcliffe.png', 'Im_GeorgeClooney.png', 'Im_RyanGosling.png', 'Im_OrlandoBloom.png', 'Im_DanielCraig.png', 'Im_RyanReynolds.png', 'Im_MattDamon.png', 'Im_LeonardoDiCaprio.png'],diff,1,0.40847029999713413,16,0,
SEMY0204,1,inv,90,pos90_id16_im19.bmp_pos90_id16_im2.bmp,['Im_KeanuReeves.png', 'Im_BradPitt.png', 'Im_DanielRadcliffe.png', 'Im_GeorgeClooney.png', 'Im_RyanGosling.png', 'Im_OrlandoBloom.png', 'Im_DanielCraig.png', 'Im_RyanReynolds.png', 'Im_MattDamon.png', 'Im_LeonardoDiCaprio.png'],same,1,0.4166282000078354,17,0,
SEMY0204,1,inv,60,pos60_id7_im15.bmp_pos60_id21_im16.bmp,['Im_KeanuReeves.png', 'Im_BradPitt.png', 'Im_DanielRadcliffe.png', 'Im_GeorgeClooney.png', 'Im_RyanGosling.png', 'Im_OrlandoBloom.png', 'Im_DanielCraig.png', 'Im_RyanReynolds.png', 'Im_MattDamon.png', 'Im_LeonardoDiCaprio.png'],diff,1,0.4250682999845594,18,0,
SEMY0204,1,inv,60,pos60_id7_im15.bmp_pos60_id7_im26.bmp,['Im_KeanuReeves.png', 'Im_BradPitt.png', 'Im_DanielRadcliffe.png', 'Im_GeorgeClooney.png', 'Im_RyanGosling.png', 'Im_OrlandoBloom.png', 'Im_DanielCraig.png', 'Im_RyanReynolds.png', 'Im_MattDamon.png', 'Im_LeonardoDiCaprio.png'],same,1,0.41716379998251796,19,0,
SEMY0204,1,inv,150,pos150_id21_im16.bmp_pos150_id14_im16.bmp,['Im_KeanuReeves.png', 'Im_BradPitt.png', 'Im_DanielRadcliffe.png', 'Im_GeorgeClooney.png', 'Im_RyanGosling.png', 'Im_OrlandoBloom.png', 'Im_DanielCraig.png', 'Im_RyanReynolds.png', 'Im_MattDamon.png', 'Im_LeonardoDiCaprio.png'],diff,1,0.8005626000231132,20,0,
SEMY0204,1,inv,fs,posfs_id5_im20.bmp_posfs_id21_im17.bmp,['Im_KeanuReeves.png', 'Im_BradPitt.png', 'Im_DanielRadcliffe.png', 'Im_GeorgeClooney.png', 'Im_RyanGosling.png', 'Im_OrlandoBloom.png', 'Im_DanielCraig.png', 'Im_RyanReynolds.png', 'Im_MattDamon.png', 'Im_LeonardoDiCaprio.png'],diff,1,0.42511610002839006,21,0,
SEMY0204,1,inv,120,pos120_id20_im3.bmp_pos120_id20_im30.bmp,['Im_KeanuReeves.png', 'Im_BradPitt.png', 'Im_DanielRadcliffe.png', 'Im_GeorgeClooney.png', 'Im_RyanGosling.png', 'Im_OrlandoBloom.png', 'Im_DanielCraig.png', 'Im_RyanReynolds.png', 'Im_MattDamon.png', 'Im_LeonardoDiCaprio.png'],same,1,0.42508270000689663,22,0,
SEMY0204,1,inv,30,pos30_id21_im17.bmp_pos30_id21_im16.bmp,['Im_KeanuReeves.png', 'Im_BradPitt.png', 'Im_DanielRadcliffe.png', 'Im_GeorgeClooney.png', 'Im_RyanGosling.png', 'Im_OrlandoBloom.png', 'Im_DanielCraig.png', 'Im_RyanReynolds.png', 'Im_MattDamon.png', 'Im_LeonardoDiCaprio.png'],same,1,0.4167842000024393,23,0,
SEMY0204,1,inv,fs,posfs_id16_im2.bmp_posfs_id4_im7.bmp,['Im_KeanuReeves.png', 'Im_BradPitt.png', 'Im_DanielRadcliffe.png', 'Im_GeorgeClooney.png', 'Im_RyanGosling.png', 'Im_OrlandoBloom.png', 'Im_DanielCraig.png', 'Im_RyanReynolds.png', 'Im_MattDamon.png', 'Im_LeonardoDiCaprio.png'],diff,1,0.4084061000030488,24,0,
SEMY0204,1,inv,0,pos0_id20_im12.bmp_pos0_id4_im15.bmp,['Im_KeanuReeves.png', 'Im_BradPitt.png', 'Im_DanielRadcliffe.png', 'Im_GeorgeClooney.png', 'Im_RyanGosling.png', 'Im_OrlandoBloom.png', 'Im_DanielCraig.png', 'Im_RyanReynolds.png', 'Im_MattDamon.png', 'Im_LeonardoDiCaprio.png'],diff,1,0.4167351000069175,25,0,
SEMY0204,1,inv,30,pos30_id3_im8.bmp_pos30_id3_im17.bmp,['Im_KeanuReeves.png', 'Im_BradPitt.png', 'Im_DanielRadcliffe.png', 'Im_GeorgeClooney.png', 'Im_RyanGosling.png', 'Im_OrlandoBloom.png', 'Im_DanielCraig.png', 'Im_RyanReynolds.png', 'Im_MattDamon.png', 'Im_LeonardoDiCaprio.png'],same,1,0.425021300005028,26,0,
SEMY0204,1,inv,0,pos0_id3_im8.bmp_pos0_id7_im26.bmp,['Im_KeanuReeves.png', 'Im_BradPitt.png', 'Im_DanielRadcliffe.png', 'Im_GeorgeClooney.png', 'Im_RyanGosling.png', 'Im_OrlandoBloom.png', 'Im_DanielCraig.png', 'Im_RyanReynolds.png', 'Im_MattDamon.png', 'Im_LeonardoDiCaprio.png'],same,0,0.41678699999465607,26,0,
SEMY0204,1,inv,90,pos90_id16_im3.bmp_pos90_id4_im7.bmp,['Im_KeanuReeves.png', 'Im_BradPitt.png', 'Im_DanielRadcliffe.png', 'Im_GeorgeClooney.png', 'Im_RyanGosling.png', 'Im_OrlandoBloom.png', 'Im_DanielCraig.png', 'Im_RyanReynolds.png', 'Im_MattDamon.png', 'Im_LeonardoDiCaprio.png'],diff,1,0.4917457999836188,27,0,
SEMY0204,2,neg,120,neg120_id11_im1.bmp_neg120_id11_im10.bmp,['Im_KeanuReeves.png', 'Im_BradPitt.png', 'Im_DanielRadcliffe.png', 'Im_GeorgeClooney.png', 'Im_RyanGosling.png', 'Im_OrlandoBloom.png', 'Im_DanielCraig.png', 'Im_RyanReynolds.png', 'Im_MattDamon.png', 'Im_LeonardoDiCaprio.png'],diff,0,0.4334186000050977,27,0,
SEMY0204,2,neg,0,neg0_id13_im15.bmp_neg0_id16_im19.bmp,['Im_KeanuReeves.png', 'Im_BradPitt.png', 'Im_DanielRadcliffe.png', 'Im_GeorgeClooney.png', 'Im_RyanGosling.png', 'Im_OrlandoBloom.png', 'Im_DanielCraig.png', 'Im_RyanReynolds.png', 'Im_MattDamon.png', 'Im_LeonardoDiCaprio.png'],diff,1,0.4167823000170756,28,0,
SEMY0204,2,neg,150,neg150_id3_im17.bmp_neg150_id13_im29.bmp,['Im_KeanuReeves.png', 'Im_BradPitt.png', 'Im_DanielRadcliffe.png', 'Im_GeorgeClooney.png', 'Im_RyanGosling.png', 'Im_OrlandoBloom.png', 'Im_DanielCraig.png', 'Im_RyanReynolds.png', 'Im_MattDamon.png', 'Im_LeonardoDiCaprio.png'],diff,1,0.8751141999964602,29,0,
SEMY0204,2,neg,90,neg90_id21_im16.bmp_neg90_id21_im22.bmp,['Im_KeanuReeves.png', 'Im_BradPitt.png', 'Im_DanielRadcliffe.png', 'Im_GeorgeClooney.png', 'Im_RyanGosling.png', 'Im_OrlandoBloom.png', 'Im_DanielCraig.png', 'Im_RyanReynolds.png', 'Im_MattDamon.png', 'Im_LeonardoDiCaprio.png'],diff,0,0.500062999984948,29,0,
SEMY0204,2,neg,120,neg120_id4_im15.bmp_neg120_id4_im7.bmp,['Im_KeanuReeves.png', 'Im_BradPitt.png', 'Im_DanielRadcliffe.png', 'Im_GeorgeClooney.png', 'Im_RyanGosling.png', 'Im_OrlandoBloom.png', 'Im_DanielCraig.png', 'Im_RyanReynolds.png', 'Im_MattDamon.png', 'Im_LeonardoDiCaprio.png'],same,1,0.4168243000167422,30,0,
SEMY0204,2,neg,60,neg60_id20_im3.bmp_neg60_id20_im12.bmp,['Im_KeanuReeves.png', 'Im_BradPitt.png', 'Im_DanielRadcliffe.png', 'Im_GeorgeClooney.png', 'Im_RyanGosling.png', 'Im_OrlandoBloom.png', 'Im_DanielCraig.png', 'Im_RyanReynolds.png', 'Im_MattDamon.png', 'Im_LeonardoDiCaprio.png'],same,1,0.4250259999826085,31,0,
SEMY0204,2,neg,60,neg60_id3_im8.bmp_neg60_id3_im17.bmp,['Im_KeanuReeves.png', 'Im_BradPitt.png', 'Im_DanielRadcliffe.png', 'Im_GeorgeClooney.png', 'Im_RyanGosling.png', 'Im_OrlandoBloom.png', 'Im_DanielCraig.png', 'Im_RyanReynolds.png', 'Im_MattDamon.png', 'Im_LeonardoDiCaprio.png'],diff,0,0.4167423000035342,31,0,
SEMY0204,2,neg,fs,negfs_id3_im6.bmp_negfs_id16_im3.bmp,['Im_KeanuReeves.png', 'Im_BradPitt.png', 'Im_DanielRadcliffe.png', 'Im_GeorgeClooney.png', 'Im_RyanGosling.png', 'Im_OrlandoBloom.png', 'Im_DanielCraig.png', 'Im_RyanReynolds.png', 'Im_MattDamon.png', 'Im_LeonardoDiCaprio.png'],diff,1,0.4250391000241507,32,0,
SEMY0204,2,neg,0,neg0_id4_im7.bmp_neg0_id16_im2.bmp,['Im_KeanuReeves.png', 'Im_BradPitt.png', 'Im_DanielRadcliffe.png', 'Im_GeorgeClooney.png', 'Im_RyanGosling.png', 'Im_OrlandoBloom.png', 'Im_DanielCraig.png', 'Im_RyanReynolds.png', 'Im_MattDamon.png', 'Im_LeonardoDiCaprio.png'],diff,1,0.425010500010103,33,0,
SEMY0204,2,neg,90,neg90_id4_im7.bmp_neg90_id4_im15.bmp,['Im_KeanuReeves.png', 'Im_BradPitt.png', 'Im_DanielRadcliffe.png', 'Im_GeorgeClooney.png', 'Im_RyanGosling.png', 'Im_OrlandoBloom.png', 'Im_DanielCraig.png', 'Im_RyanReynolds.png', 'Im_MattDamon.png', 'Im_LeonardoDiCaprio.png'],same,1,0.425027899997076,34,0,
SEMY0204,2,neg,150,neg150_id16_im3.bmp_neg150_id3_im6.bmp,['Im_KeanuReeves.png', 'Im_BradPitt.png', 'Im_DanielRadcliffe.png', 'Im_GeorgeClooney.png', 'Im_RyanGosling.png', 'Im_OrlandoBloom.png', 'Im_DanielCraig.png', 'Im_RyanReynolds.png', 'Im_MattDamon.png', 'Im_LeonardoDiCaprio.png'],diff,1,0.40837930000270717,35,0,
SEMY0204,2,neg,30,neg30_id4_im20.bmp_neg30_id4_im7.bmp,['Im_KeanuReeves.png', 'Im_BradPitt.png', 'Im_DanielRadcliffe.png', 'Im_GeorgeClooney.png', 'Im_RyanGosling.png', 'Im_OrlandoBloom.png', 'Im_DanielCraig.png', 'Im_RyanReynolds.png', 'Im_MattDamon.png', 'Im_LeonardoDiCaprio.png'],same,1,0.408377699990524,36,0,
SEMY0204,2,neg,fs,negfs_id3_im17.bmp_negfs_id3_im8.bmp,['Im_KeanuReeves.png', 'Im_BradPitt.png', 'Im_DanielRadcliffe.png', 'Im_GeorgeClooney.png', 'Im_RyanGosling.png', 'Im_OrlandoBloom.png', 'Im_DanielCraig.png', 'Im_RyanReynolds.png', 'Im_MattDamon.png', 'Im_LeonardoDiCaprio.png'],same,1,0.416722199996002,37,0,
SEMY0204,2,neg,30,neg30_id20_im3.bmp_neg30_id20_im30.bmp,['Im_KeanuReeves.png', 'Im_BradPitt.png', 'Im_DanielRadcliffe.png', 'Im_GeorgeClooney.png', 'Im_RyanGosling.png', 'Im_OrlandoBloom.png', 'Im_DanielCraig.png', 'Im_RyanReynolds.png', 'Im_MattDamon.png', 'Im_LeonardoDiCaprio.png'],same,1,0.4083917000098154,38,0,
SEMY0204,3,pos,fs,posfs_id3_im17.bmp_posfs_id13_im29.bmp,['Im_KeanuReeves.png', 'Im_BradPitt.png', 'Im_DanielRadcliffe.png', 'Im_GeorgeClooney.png', 'Im_RyanGosling.png', 'Im_OrlandoBloom.png', 'Im_DanielCraig.png', 'Im_RyanReynolds.png', 'Im_MattDamon.png', 'Im_LeonardoDiCaprio.png'],diff,1,0.7503219000063837,1,90.47619047619048,
SEMY0204,3,pos,0,pos0_id7_im15.bmp_pos0_id20_im3.bmp,['Im_KeanuReeves.png', 'Im_BradPitt.png', 'Im_DanielRadcliffe.png', 'Im_GeorgeClooney.png', 'Im_RyanGosling.png', 'Im_OrlandoBloom.png', 'Im_DanielCraig.png', 'Im_RyanReynolds.png', 'Im_MattDamon.png', 'Im_LeonardoDiCaprio.png'],diff,1,0.5500558000057936,2,90.47619047619048,
SEMY0204,3,pos,90,pos90_id7_im15.bmp_pos90_id7_im26.bmp,['Im_KeanuReeves.png', 'Im_BradPitt.png', 'Im_DanielRadcliffe.png', 'Im_GeorgeClooney.png', 'Im_RyanGosling.png', 'Im_OrlandoBloom.png', 'Im_DanielCraig.png', 'Im_RyanReynolds.png', 'Im_MattDamon.png', 'Im_LeonardoDiCaprio.png'],same,1,0.43353680000291206,3,90.47619047619048,
SEMY0204,3,pos,150,pos150_id13_im15.bmp_pos150_id13_im29.bmp,['Im_KeanuReeves.png', 'Im_BradPitt.png', 'Im_DanielRadcliffe.png', 'Im_GeorgeClooney.png', 'Im_RyanGosling.png', 'Im_OrlandoBloom.png', 'Im_DanielCraig.png', 'Im_RyanReynolds.png', 'Im_MattDamon.png', 'Im_LeonardoDiCaprio.png'],same,1,0.7413862999819685,4,90.47619047619048,
SEMY0204,3,pos,0,pos0_id14_im18.bmp_pos0_id14_im24.bmp,['Im_KeanuReeves.png', 'Im_BradPitt.png', 'Im_DanielRadcliffe.png', 'Im_GeorgeClooney.png', 'Im_RyanGosling.png', 'Im_OrlandoBloom.png', 'Im_DanielCraig.png', 'Im_RyanReynolds.png', 'Im_MattDamon.png', 'Im_LeonardoDiCaprio.png'],same,1,0.4167246000142768,5,90.47619047619048,
SEMY0204,3,pos,120,pos120_id4_im15.bmp_pos120_id4_im20.bmp,['Im_KeanuReeves.png', 'Im_BradPitt.png', 'Im_DanielRadcliffe.png', 'Im_GeorgeClooney.png', 'Im_RyanGosling.png', 'Im_OrlandoBloom.png', 'Im_DanielCraig.png', 'Im_RyanReynolds.png', 'Im_MattDamon.png', 'Im_LeonardoDiCaprio.png'],same,1,0.4167676999932155,6,90.47619047619048,
SEMY0204,3,pos,30,pos30_id4_im15.bmp_pos30_id20_im12.bmp,['Im_KeanuReeves.png', 'Im_BradPitt.png', 'Im_DanielRadcliffe.png', 'Im_GeorgeClooney.png', 'Im_RyanGosling.png', 'Im_OrlandoBloom.png', 'Im_DanielCraig.png', 'Im_RyanReynolds.png', 'Im_MattDamon.png', 'Im_LeonardoDiCaprio.png'],diff,1,0.4250766000186559,7,90.47619047619048,
SEMY0204,3,pos,90,pos90_id11_im1.bmp_pos90_id5_im1.bmp,['Im_KeanuReeves.png', 'Im_BradPitt.png', 'Im_DanielRadcliffe.png', 'Im_GeorgeClooney.png', 'Im_RyanGosling.png', 'Im_OrlandoBloom.png', 'Im_DanielCraig.png', 'Im_RyanReynolds.png', 'Im_MattDamon.png', 'Im_LeonardoDiCaprio.png'],diff,1,0.416769999981625,8,90.47619047619048,
SEMY0204,3,pos,60,pos60_id11_im10.bmp_pos60_id11_im2.bmp,['Im_KeanuReeves.png', 'Im_BradPitt.png', 'Im_DanielRadcliffe.png', 'Im_GeorgeClooney.png', 'Im_RyanGosling.png', 'Im_OrlandoBloom.png', 'Im_DanielCraig.png', 'Im_RyanReynolds.png', 'Im_MattDamon.png', 'Im_LeonardoDiCaprio.png'],same,1,0.42507510000723414,9,90.47619047619048,
SEMY0204,3,pos,120,pos120_id21_im17.bmp_pos120_id21_im22.bmp,['Im_KeanuReeves.png', 'Im_BradPitt.png', 'Im_DanielRadcliffe.png', 'Im_GeorgeClooney.png', 'Im_RyanGosling.png', 'Im_OrlandoBloom.png', 'Im_DanielCraig.png', 'Im_RyanReynolds.png', 'Im_MattDamon.png', 'Im_LeonardoDiCaprio.png'],same,1,0.4837507999909576,10,90.47619047619048,
SEMY0204,3,pos,150,pos150_id16_im3.bmp_pos150_id3_im6.bmp,['Im_KeanuReeves.png', 'Im_BradPitt.png', 'Im_DanielRadcliffe.png', 'Im_GeorgeClooney.png', 'Im_RyanGosling.png', 'Im_OrlandoBloom.png', 'Im_DanielCraig.png', 'Im_RyanReynolds.png', 'Im_MattDamon.png', 'Im_LeonardoDiCaprio.png'],diff,1,0.41690250000101514,11,90.47619047619048,
SEMY0204,3,pos,fs,posfs_id11_im2.bmp_posfs_id13_im29.bmp,['Im_KeanuReeves.png', 'Im_BradPitt.png', 'Im_DanielRadcliffe.png', 'Im_GeorgeClooney.png', 'Im_RyanGosling.png', 'Im_OrlandoBloom.png', 'Im_DanielCraig.png', 'Im_RyanReynolds.png', 'Im_MattDamon.png', 'Im_LeonardoDiCaprio.png'],diff,1,0.4166945999895688,12,90.47619047619048,
SEMY0204,3,pos,60,pos60_id7_im14.bmp_pos60_id7_im26.bmp,['Im_KeanuReeves.png', 'Im_BradPitt.png', 'Im_DanielRadcliffe.png', 'Im_GeorgeClooney.png', 'Im_RyanGosling.png', 'Im_OrlandoBloom.png', 'Im_DanielCraig.png', 'Im_RyanReynolds.png', 'Im_MattDamon.png', 'Im_LeonardoDiCaprio.png'],same,1,0.4166794999910053,13,90.47619047619048,
SEMY0204,3,pos,30,pos30_id13_im29.bmp_pos30_id3_im17.bmp,['Im_KeanuReeves.png', 'Im_BradPitt.png', 'Im_DanielRadcliffe.png', 'Im_GeorgeClooney.png', 'Im_RyanGosling.png', 'Im_OrlandoBloom.png', 'Im_DanielCraig.png', 'Im_RyanReynolds.png', 'Im_MattDamon.png', 'Im_LeonardoDiCaprio.png'],diff,1,0.5337740000104532,14,90.47619047619048,
SEMY0204,4,pos,30,pos30_id14_im24.bmp_pos30_id14_im18.bmp,['Im_KeanuReeves.png', 'Im_BradPitt.png', 'Im_DanielRadcliffe.png', 'Im_GeorgeClooney.png', 'Im_RyanGosling.png', 'Im_OrlandoBloom.png', 'Im_DanielCraig.png', 'Im_RyanReynolds.png', 'Im_MattDamon.png', 'Im_LeonardoDiCaprio.png'],same,1,0.4167831999948248,15,90.47619047619048,
SEMY0204,4,pos,90,pos90_id7_im14.bmp_pos90_id7_im15.bmp,['Im_KeanuReeves.png', 'Im_BradPitt.png', 'Im_DanielRadcliffe.png', 'Im_GeorgeClooney.png', 'Im_RyanGosling.png', 'Im_OrlandoBloom.png', 'Im_DanielCraig.png', 'Im_RyanReynolds.png', 'Im_MattDamon.png', 'Im_LeonardoDiCaprio.png'],same,1,0.43329200000152923,16,90.47619047619048,
SEMY0204,4,pos,fs,posfs_id13_im10.bmp_posfs_id13_im15.bmp,['Im_KeanuReeves.png', 'Im_BradPitt.png', 'Im_DanielRadcliffe.png', 'Im_GeorgeClooney.png', 'Im_RyanGosling.png', 'Im_OrlandoBloom.png', 'Im_DanielCraig.png', 'Im_RyanReynolds.png', 'Im_MattDamon.png', 'Im_LeonardoDiCaprio.png'],same,1,0.41682779998518527,17,90.47619047619048,
SEMY0204,4,pos,120,pos120_id4_im15.bmp_pos120_id5_im1.bmp,['Im_KeanuReeves.png', 'Im_BradPitt.png', 'Im_DanielRadcliffe.png', 'Im_GeorgeClooney.png', 'Im_RyanGosling.png', 'Im_OrlandoBloom.png', 'Im_DanielCraig.png', 'Im_RyanReynolds.png', 'Im_MattDamon.png', 'Im_LeonardoDiCaprio.png'],diff,1,0.42509330000029877,18,90.47619047619048,
SEMY0204,4,pos,60,pos60_id21_im22.bmp_pos60_id11_im2.bmp,['Im_KeanuReeves.png', 'Im_BradPitt.png', 'Im_DanielRadcliffe.png', 'Im_GeorgeClooney.png', 'Im_RyanGosling.png', 'Im_OrlandoBloom.png', 'Im_DanielCraig.png', 'Im_RyanReynolds.png', 'Im_MattDamon.png', 'Im_LeonardoDiCaprio.png'],diff,1,0.41672849998576567,19,90.47619047619048,
SEMY0204,4,pos,30,pos30_id20_im30.bmp_pos30_id20_im3.bmp,['Im_KeanuReeves.png', 'Im_BradPitt.png', 'Im_DanielRadcliffe.png', 'Im_GeorgeClooney.png', 'Im_RyanGosling.png', 'Im_OrlandoBloom.png', 'Im_DanielCraig.png', 'Im_RyanReynolds.png', 'Im_MattDamon.png', 'Im_LeonardoDiCaprio.png'],same,1,0.4165647000190802,20,90.47619047619048,
SEMY0204,4,pos,60,pos60_id7_im15.bmp_pos60_id20_im3.bmp,['Im_KeanuReeves.png', 'Im_BradPitt.png', 'Im_DanielRadcliffe.png', 'Im_GeorgeClooney.png', 'Im_RyanGosling.png', 'Im_OrlandoBloom.png', 'Im_DanielCraig.png', 'Im_RyanReynolds.png', 'Im_MattDamon.png', 'Im_LeonardoDiCaprio.png'],diff,1,0.41671670001232997,21,90.47619047619048,
SEMY0204,4,pos,150,pos150_id14_im16.bmp_pos150_id14_im24.bmp,['Im_KeanuReeves.png', 'Im_BradPitt.png', 'Im_DanielRadcliffe.png', 'Im_GeorgeClooney.png', 'Im_RyanGosling.png', 'Im_OrlandoBloom.png', 'Im_DanielCraig.png', 'Im_RyanReynolds.png', 'Im_MattDamon.png', 'Im_LeonardoDiCaprio.png'],same,1,0.43344590000924654,22,90.47619047619048,
SEMY0204,4,pos,0,pos0_id7_im26.bmp_pos0_id7_im14.bmp,['Im_KeanuReeves.png', 'Im_BradPitt.png', 'Im_DanielRadcliffe.png', 'Im_GeorgeClooney.png', 'Im_RyanGosling.png', 'Im_OrlandoBloom.png', 'Im_DanielCraig.png', 'Im_RyanReynolds.png', 'Im_MattDamon.png', 'Im_LeonardoDiCaprio.png'],same,1,0.41670309999608435,23,90.47619047619048,
SEMY0204,4,pos,fs,posfs_id4_im15.bmp_posfs_id20_im12.bmp,['Im_KeanuReeves.png', 'Im_BradPitt.png', 'Im_DanielRadcliffe.png', 'Im_GeorgeClooney.png', 'Im_RyanGosling.png', 'Im_OrlandoBloom.png', 'Im_DanielCraig.png', 'Im_RyanReynolds.png', 'Im_MattDamon.png', 'Im_LeonardoDiCaprio.png'],diff,1,0.4251193000236526,24,90.47619047619048,
SEMY0204,4,pos,150,pos150_id5_im1.bmp_pos150_id11_im1.bmp,['Im_KeanuReeves.png', 'Im_BradPitt.png', 'Im_DanielRadcliffe.png', 'Im_GeorgeClooney.png', 'Im_RyanGosling.png', 'Im_OrlandoBloom.png', 'Im_DanielCraig.png', 'Im_RyanReynolds.png', 'Im_MattDamon.png', 'Im_LeonardoDiCaprio.png'],diff,1,0.43351350000011735,25,90.47619047619048,
SEMY0204,4,pos,90,pos90_id5_im10.bmp_pos90_id14_im18.bmp,['Im_KeanuReeves.png', 'Im_BradPitt.png', 'Im_DanielRadcliffe.png', 'Im_GeorgeClooney.png', 'Im_RyanGosling.png', 'Im_OrlandoBloom.png', 'Im_DanielCraig.png', 'Im_RyanReynolds.png', 'Im_MattDamon.png', 'Im_LeonardoDiCaprio.png'],diff,1,0.42509760000393726,26,90.47619047619048,
SEMY0204,4,pos,120,pos120_id16_im3.bmp_pos120_id4_im7.bmp,['Im_KeanuReeves.png', 'Im_BradPitt.png', 'Im_DanielRadcliffe.png', 'Im_GeorgeClooney.png', 'Im_RyanGosling.png', 'Im_OrlandoBloom.png', 'Im_DanielCraig.png', 'Im_RyanReynolds.png', 'Im_MattDamon.png', 'Im_LeonardoDiCaprio.png'],diff,1,0.4084521000040695,27,90.47619047619048,
SEMY0204,4,pos,0,pos0_id4_im7.bmp_pos0_id4_im15.bmp,['Im_KeanuReeves.png', 'Im_BradPitt.png', 'Im_DanielRadcliffe.png', 'Im_GeorgeClooney.png', 'Im_RyanGosling.png', 'Im_OrlandoBloom.png', 'Im_DanielCraig.png', 'Im_RyanReynolds.png', 'Im_MattDamon.png', 'Im_LeonardoDiCaprio.png'],same,1,0.41685310000320897,28,90.47619047619048,
SEMY0204,5,inv,0,pos0_id13_im15.bmp_pos0_id13_im10.bmp,['Im_KeanuReeves.png', 'Im_BradPitt.png', 'Im_DanielRadcliffe.png', 'Im_GeorgeClooney.png', 'Im_RyanGosling.png', 'Im_OrlandoBloom.png', 'Im_DanielCraig.png', 'Im_RyanReynolds.png', 'Im_MattDamon.png', 'Im_LeonardoDiCaprio.png'],same,1,0.4250575000187382,29,90.47619047619048,
SEMY0204,5,inv,60,pos60_id11_im10.bmp_pos60_id11_im2.bmp,['Im_KeanuReeves.png', 'Im_BradPitt.png', 'Im_DanielRadcliffe.png', 'Im_GeorgeClooney.png', 'Im_RyanGosling.png', 'Im_OrlandoBloom.png', 'Im_DanielCraig.png', 'Im_RyanReynolds.png', 'Im_MattDamon.png', 'Im_LeonardoDiCaprio.png'],same,1,0.42505969997728243,30,90.47619047619048,
SEMY0204,5,inv,fs,posfs_id14_im18.bmp_posfs_id14_im16.bmp,['Im_KeanuReeves.png', 'Im_BradPitt.png', 'Im_DanielRadcliffe.png', 'Im_GeorgeClooney.png', 'Im_RyanGosling.png', 'Im_OrlandoBloom.png', 'Im_DanielCraig.png', 'Im_RyanReynolds.png', 'Im_MattDamon.png', 'Im_LeonardoDiCaprio.png'],same,1,0.8500896999903489,31,90.47619047619048,
SEMY0204,5,inv,90,pos90_id4_im20.bmp_pos90_id4_im15.bmp,['Im_KeanuReeves.png', 'Im_BradPitt.png', 'Im_DanielRadcliffe.png', 'Im_GeorgeClooney.png', 'Im_RyanGosling.png', 'Im_OrlandoBloom.png', 'Im_DanielCraig.png', 'Im_RyanReynolds.png', 'Im_MattDamon.png', 'Im_LeonardoDiCaprio.png'],same,1,0.41682119999313727,32,90.47619047619048,
SEMY0204,5,inv,150,pos150_id7_im14.bmp_pos150_id7_im26.bmp,['Im_KeanuReeves.png', 'Im_BradPitt.png', 'Im_DanielRadcliffe.png', 'Im_GeorgeClooney.png', 'Im_RyanGosling.png', 'Im_OrlandoBloom.png', 'Im_DanielCraig.png', 'Im_RyanReynolds.png', 'Im_MattDamon.png', 'Im_LeonardoDiCaprio.png'],same,1,0.4168827999965288,33,90.47619047619048,
SEMY0204,5,inv,120,pos120_id5_im10.bmp_pos120_id5_im1.bmp,['Im_KeanuReeves.png', 'Im_BradPitt.png', 'Im_DanielRadcliffe.png', 'Im_GeorgeClooney.png', 'Im_RyanGosling.png', 'Im_OrlandoBloom.png', 'Im_DanielCraig.png', 'Im_RyanReynolds.png', 'Im_MattDamon.png', 'Im_LeonardoDiCaprio.png'],same,1,0.42517729999963194,34,90.47619047619048,
SEMY0204,5,inv,120,pos120_id21_im22.bmp_pos120_id4_im20.bmp,['Im_KeanuReeves.png', 'Im_BradPitt.png', 'Im_DanielRadcliffe.png', 'Im_GeorgeClooney.png', 'Im_RyanGosling.png', 'Im_OrlandoBloom.png', 'Im_DanielCraig.png', 'Im_RyanReynolds.png', 'Im_MattDamon.png', 'Im_LeonardoDiCaprio.png'],diff,1,0.4168167000170797,35,90.47619047619048,
SEMY0204,5,inv,90,pos90_id20_im12.bmp_pos90_id20_im30.bmp,['Im_KeanuReeves.png', 'Im_BradPitt.png', 'Im_DanielRadcliffe.png', 'Im_GeorgeClooney.png', 'Im_RyanGosling.png', 'Im_OrlandoBloom.png', 'Im_DanielCraig.png', 'Im_RyanReynolds.png', 'Im_MattDamon.png', 'Im_LeonardoDiCaprio.png'],same,1,0.4167532999999821,36,90.47619047619048,
SEMY0204,5,inv,0,pos0_id11_im2.bmp_pos0_id21_im22.bmp,['Im_KeanuReeves.png', 'Im_BradPitt.png', 'Im_DanielRadcliffe.png', 'Im_GeorgeClooney.png', 'Im_RyanGosling.png', 'Im_OrlandoBloom.png', 'Im_DanielCraig.png', 'Im_RyanReynolds.png', 'Im_MattDamon.png', 'Im_LeonardoDiCaprio.png'],same,0,0.54989680001745,36,90.47619047619048,
SEMY0204,5,inv,30,pos30_id20_im12.bmp_pos30_id13_im15.bmp,['Im_KeanuReeves.png', 'Im_BradPitt.png', 'Im_DanielRadcliffe.png', 'Im_GeorgeClooney.png', 'Im_RyanGosling.png', 'Im_OrlandoBloom.png', 'Im_DanielCraig.png', 'Im_RyanReynolds.png', 'Im_MattDamon.png', 'Im_LeonardoDiCaprio.png'],diff,1,0.425058299995726,37,90.47619047619048,
SEMY0204,5,inv,fs,posfs_id4_im15.bmp_posfs_id4_im20.bmp,['Im_KeanuReeves.png', 'Im_BradPitt.png', 'Im_DanielRadcliffe.png', 'Im_GeorgeClooney.png', 'Im_RyanGosling.png', 'Im_OrlandoBloom.png', 'Im_DanielCraig.png', 'Im_RyanReynolds.png', 'Im_MattDamon.png', 'Im_LeonardoDiCaprio.png'],same,1,0.4164601000084076,38,90.47619047619048,
SEMY0204,5,inv,150,pos150_id14_im18.bmp_pos150_id14_im16.bmp,['Im_KeanuReeves.png', 'Im_BradPitt.png', 'Im_DanielRadcliffe.png', 'Im_GeorgeClooney.png', 'Im_RyanGosling.png', 'Im_OrlandoBloom.png', 'Im_DanielCraig.png', 'Im_RyanReynolds.png', 'Im_MattDamon.png', 'Im_LeonardoDiCaprio.png'],same,1,0.45005159999709576,39,90.47619047619048,
SEMY0204,5,inv,30,pos30_id20_im30.bmp_pos30_id13_im10.bmp,['Im_KeanuReeves.png', 'Im_BradPitt.png', 'Im_DanielRadcliffe.png', 'Im_GeorgeClooney.png', 'Im_RyanGosling.png', 'Im_OrlandoBloom.png', 'Im_DanielCraig.png', 'Im_RyanReynolds.png', 'Im_MattDamon.png', 'Im_LeonardoDiCaprio.png'],diff,1,0.45850969999446534,40,90.47619047619048,
SEMY0204,5,inv,60,pos60_id3_im8.bmp_pos60_id3_im6.bmp,['Im_KeanuReeves.png', 'Im_BradPitt.png', 'Im_DanielRadcliffe.png', 'Im_GeorgeClooney.png', 'Im_RyanGosling.png', 'Im_OrlandoBloom.png', 'Im_DanielCraig.png', 'Im_RyanReynolds.png', 'Im_MattDamon.png', 'Im_LeonardoDiCaprio.png'],same,1,0.41678980001597665,41,90.47619047619048,
SEMY0204,6,neg,30,neg30_id11_im2.bmp_neg30_id11_im10.bmp,['Im_KeanuReeves.png', 'Im_BradPitt.png', 'Im_DanielRadcliffe.png', 'Im_GeorgeClooney.png', 'Im_RyanGosling.png', 'Im_OrlandoBloom.png', 'Im_DanielCraig.png', 'Im_RyanReynolds.png', 'Im_MattDamon.png', 'Im_LeonardoDiCaprio.png'],same,1,0.5751017000002321,1,97.61904761904762,
SEMY0204,6,neg,150,neg150_id16_im19.bmp_neg150_id13_im15.bmp,['Im_KeanuReeves.png', 'Im_BradPitt.png', 'Im_DanielRadcliffe.png', 'Im_GeorgeClooney.png', 'Im_RyanGosling.png', 'Im_OrlandoBloom.png', 'Im_DanielCraig.png', 'Im_RyanReynolds.png', 'Im_MattDamon.png', 'Im_LeonardoDiCaprio.png'],diff,1,0.6083024999825284,2,97.61904761904762,
SEMY0204,6,neg,30,neg30_id5_im1.bmp_neg30_id11_im1.bmp,['Im_KeanuReeves.png', 'Im_BradPitt.png', 'Im_DanielRadcliffe.png', 'Im_GeorgeClooney.png', 'Im_RyanGosling.png', 'Im_OrlandoBloom.png', 'Im_DanielCraig.png', 'Im_RyanReynolds.png', 'Im_MattDamon.png', 'Im_LeonardoDiCaprio.png'],diff,1,0.6419575000181794,3,97.61904761904762,
SEMY0204,6,neg,120,neg120_id16_im3.bmp_neg120_id16_im2.bmp,['Im_KeanuReeves.png', 'Im_BradPitt.png', 'Im_DanielRadcliffe.png', 'Im_GeorgeClooney.png', 'Im_RyanGosling.png', 'Im_OrlandoBloom.png', 'Im_DanielCraig.png', 'Im_RyanReynolds.png', 'Im_MattDamon.png', 'Im_LeonardoDiCaprio.png'],same,1,0.4166530999937095,4,97.61904761904762,
SEMY0204,6,neg,fs,negfs_id5_im10.bmp_negfs_id14_im18.bmp,['Im_KeanuReeves.png', 'Im_BradPitt.png', 'Im_DanielRadcliffe.png', 'Im_GeorgeClooney.png', 'Im_RyanGosling.png', 'Im_OrlandoBloom.png', 'Im_DanielCraig.png', 'Im_RyanReynolds.png', 'Im_MattDamon.png', 'Im_LeonardoDiCaprio.png'],diff,1,0.41685579999466427,5,97.61904761904762,
SEMY0204,6,neg,120,neg120_id4_im20.bmp_neg120_id7_im14.bmp,['Im_KeanuReeves.png', 'Im_BradPitt.png', 'Im_DanielRadcliffe.png', 'Im_GeorgeClooney.png', 'Im_RyanGosling.png', 'Im_OrlandoBloom.png', 'Im_DanielCraig.png', 'Im_RyanReynolds.png', 'Im_MattDamon.png', 'Im_LeonardoDiCaprio.png'],diff,1,0.42520100000547245,6,97.61904761904762,
SEMY0204,6,neg,fs,negfs_id16_im3.bmp_negfs_id16_im19.bmp,['Im_KeanuReeves.png', 'Im_BradPitt.png', 'Im_DanielRadcliffe.png', 'Im_GeorgeClooney.png', 'Im_RyanGosling.png', 'Im_OrlandoBloom.png', 'Im_DanielCraig.png', 'Im_RyanReynolds.png', 'Im_MattDamon.png', 'Im_LeonardoDiCaprio.png'],same,1,0.4085244000016246,7,97.61904761904762,
SEMY0204,6,neg,60,neg60_id11_im1.bmp_neg60_id11_im10.bmp,['Im_KeanuReeves.png', 'Im_BradPitt.png', 'Im_DanielRadcliffe.png', 'Im_GeorgeClooney.png', 'Im_RyanGosling.png', 'Im_OrlandoBloom.png', 'Im_DanielCraig.png', 'Im_RyanReynolds.png', 'Im_MattDamon.png', 'Im_LeonardoDiCaprio.png'],same,1,1.425033400009852,8,97.61904761904762,
SEMY0204,6,neg,60,neg60_id21_im22.bmp_neg60_id21_im17.bmp,['Im_KeanuReeves.png', 'Im_BradPitt.png', 'Im_DanielRadcliffe.png', 'Im_GeorgeClooney.png', 'Im_RyanGosling.png', 'Im_OrlandoBloom.png', 'Im_DanielCraig.png', 'Im_RyanReynolds.png', 'Im_MattDamon.png', 'Im_LeonardoDiCaprio.png'],same,1,0.42491790000349283,9,97.61904761904762,
SEMY0204,6,neg,0,neg0_id16_im3.bmp_neg0_id3_im6.bmp,['Im_KeanuReeves.png', 'Im_BradPitt.png', 'Im_DanielRadcliffe.png', 'Im_GeorgeClooney.png', 'Im_RyanGosling.png', 'Im_OrlandoBloom.png', 'Im_DanielCraig.png', 'Im_RyanReynolds.png', 'Im_MattDamon.png', 'Im_LeonardoDiCaprio.png'],diff,1,0.4165898999781348,10,97.61904761904762,
SEMY0204,6,neg,150,neg150_id13_im15.bmp_neg150_id13_im29.bmp,['Im_KeanuReeves.png', 'Im_BradPitt.png', 'Im_DanielRadcliffe.png', 'Im_GeorgeClooney.png', 'Im_RyanGosling.png', 'Im_OrlandoBloom.png', 'Im_DanielCraig.png', 'Im_RyanReynolds.png', 'Im_MattDamon.png', 'Im_LeonardoDiCaprio.png'],same,1,0.8999010999978054,11,97.61904761904762,
SEMY0204,6,neg,0,neg0_id4_im20.bmp_neg0_id21_im22.bmp,['Im_KeanuReeves.png', 'Im_BradPitt.png', 'Im_DanielRadcliffe.png', 'Im_GeorgeClooney.png', 'Im_RyanGosling.png', 'Im_OrlandoBloom.png', 'Im_DanielCraig.png', 'Im_RyanReynolds.png', 'Im_MattDamon.png', 'Im_LeonardoDiCaprio.png'],diff,1,0.424888200010173,12,97.61904761904762,
SEMY0204,6,neg,90,neg90_id7_im26.bmp_neg90_id7_im14.bmp,['Im_KeanuReeves.png', 'Im_BradPitt.png', 'Im_DanielRadcliffe.png', 'Im_GeorgeClooney.png', 'Im_RyanGosling.png', 'Im_OrlandoBloom.png', 'Im_DanielCraig.png', 'Im_RyanReynolds.png', 'Im_MattDamon.png', 'Im_LeonardoDiCaprio.png'],same,1,0.42506830001366325,13,97.61904761904762,
SEMY0204,6,neg,90,neg90_id3_im6.bmp_neg90_id16_im3.bmp,['Im_KeanuReeves.png', 'Im_BradPitt.png', 'Im_DanielRadcliffe.png', 'Im_GeorgeClooney.png', 'Im_RyanGosling.png', 'Im_OrlandoBloom.png', 'Im_DanielCraig.png', 'Im_RyanReynolds.png', 'Im_MattDamon.png', 'Im_LeonardoDiCaprio.png'],diff,1,0.7002708000072744,14,97.61904761904762,
SEMY0204,7,neg,fs,negfs_id5_im20.bmp_negfs_id5_im10.bmp,['Im_KeanuReeves.png', 'Im_BradPitt.png', 'Im_DanielRadcliffe.png', 'Im_GeorgeClooney.png', 'Im_RyanGosling.png', 'Im_OrlandoBloom.png', 'Im_DanielCraig.png', 'Im_RyanReynolds.png', 'Im_MattDamon.png', 'Im_LeonardoDiCaprio.png'],same,1,0.4250179000082426,15,97.61904761904762,
SEMY0204,7,neg,120,neg120_id20_im30.bmp_neg120_id20_im12.bmp,['Im_KeanuReeves.png', 'Im_BradPitt.png', 'Im_DanielRadcliffe.png', 'Im_GeorgeClooney.png', 'Im_RyanGosling.png', 'Im_OrlandoBloom.png', 'Im_DanielCraig.png', 'Im_RyanReynolds.png', 'Im_MattDamon.png', 'Im_LeonardoDiCaprio.png'],same,1,0.4167672999901697,16,97.61904761904762,
SEMY0204,7,neg,30,neg30_id4_im15.bmp_neg30_id4_im20.bmp,['Im_KeanuReeves.png', 'Im_BradPitt.png', 'Im_DanielRadcliffe.png', 'Im_GeorgeClooney.png', 'Im_RyanGosling.png', 'Im_OrlandoBloom.png', 'Im_DanielCraig.png', 'Im_RyanReynolds.png', 'Im_MattDamon.png', 'Im_LeonardoDiCaprio.png'],same,1,0.4250179000082426,17,97.61904761904762,
SEMY0204,7,neg,120,neg120_id5_im1.bmp_neg120_id11_im1.bmp,['Im_KeanuReeves.png', 'Im_BradPitt.png', 'Im_DanielRadcliffe.png', 'Im_GeorgeClooney.png', 'Im_RyanGosling.png', 'Im_OrlandoBloom.png', 'Im_DanielCraig.png', 'Im_RyanReynolds.png', 'Im_MattDamon.png', 'Im_LeonardoDiCaprio.png'],diff,1,0.8669181000150274,18,97.61904761904762,
SEMY0204,7,neg,150,neg150_id7_im26.bmp_neg150_id7_im15.bmp,['Im_KeanuReeves.png', 'Im_BradPitt.png', 'Im_DanielRadcliffe.png', 'Im_GeorgeClooney.png', 'Im_RyanGosling.png', 'Im_OrlandoBloom.png', 'Im_DanielCraig.png', 'Im_RyanReynolds.png', 'Im_MattDamon.png', 'Im_LeonardoDiCaprio.png'],same,1,0.4168037000054028,19,97.61904761904762,
SEMY0204,7,neg,30,neg30_id7_im14.bmp_neg30_id4_im20.bmp,['Im_KeanuReeves.png', 'Im_BradPitt.png', 'Im_DanielRadcliffe.png', 'Im_GeorgeClooney.png', 'Im_RyanGosling.png', 'Im_OrlandoBloom.png', 'Im_DanielCraig.png', 'Im_RyanReynolds.png', 'Im_MattDamon.png', 'Im_LeonardoDiCaprio.png'],diff,1,0.41672989999642596,20,97.61904761904762,
SEMY0204,7,neg,60,neg60_id16_im19.bmp_neg60_id16_im2.bmp,['Im_KeanuReeves.png', 'Im_BradPitt.png', 'Im_DanielRadcliffe.png', 'Im_GeorgeClooney.png', 'Im_RyanGosling.png', 'Im_OrlandoBloom.png', 'Im_DanielCraig.png', 'Im_RyanReynolds.png', 'Im_MattDamon.png', 'Im_LeonardoDiCaprio.png'],same,1,0.416670200007502,21,97.61904761904762,
SEMY0204,7,neg,90,neg90_id14_im18.bmp_neg90_id5_im10.bmp,['Im_KeanuReeves.png', 'Im_BradPitt.png', 'Im_DanielRadcliffe.png', 'Im_GeorgeClooney.png', 'Im_RyanGosling.png', 'Im_OrlandoBloom.png', 'Im_DanielCraig.png', 'Im_RyanReynolds.png', 'Im_MattDamon.png', 'Im_LeonardoDiCaprio.png'],diff,1,0.4166387000004761,22,97.61904761904762,
SEMY0204,7,neg,0,neg0_id7_im14.bmp_neg0_id14_im24.bmp,['Im_KeanuReeves.png', 'Im_BradPitt.png', 'Im_DanielRadcliffe.png', 'Im_GeorgeClooney.png', 'Im_RyanGosling.png', 'Im_OrlandoBloom.png', 'Im_DanielCraig.png', 'Im_RyanReynolds.png', 'Im_MattDamon.png', 'Im_LeonardoDiCaprio.png'],diff,1,0.43337830001837574,23,97.61904761904762,
SEMY0204,7,neg,0,neg0_id4_im7.bmp_neg0_id16_im3.bmp,['Im_KeanuReeves.png', 'Im_BradPitt.png', 'Im_DanielRadcliffe.png', 'Im_GeorgeClooney.png', 'Im_RyanGosling.png', 'Im_OrlandoBloom.png', 'Im_DanielCraig.png', 'Im_RyanReynolds.png', 'Im_MattDamon.png', 'Im_LeonardoDiCaprio.png'],diff,1,0.42505019999225624,24,97.61904761904762,
SEMY0204,7,neg,90,neg90_id13_im29.bmp_neg90_id13_im15.bmp,['Im_KeanuReeves.png', 'Im_BradPitt.png', 'Im_DanielRadcliffe.png', 'Im_GeorgeClooney.png', 'Im_RyanGosling.png', 'Im_OrlandoBloom.png', 'Im_DanielCraig.png', 'Im_RyanReynolds.png', 'Im_MattDamon.png', 'Im_LeonardoDiCaprio.png'],same,1,0.425039800000377,25,97.61904761904762,
SEMY0204,7,neg,60,neg60_id13_im29.bmp_neg60_id11_im2.bmp,['Im_KeanuReeves.png', 'Im_BradPitt.png', 'Im_DanielRadcliffe.png', 'Im_GeorgeClooney.png', 'Im_RyanGosling.png', 'Im_OrlandoBloom.png', 'Im_DanielCraig.png', 'Im_RyanReynolds.png', 'Im_MattDamon.png', 'Im_LeonardoDiCaprio.png'],diff,1,0.41675790000590496,26,97.61904761904762,
SEMY0204,7,neg,fs,negfs_id7_im26.bmp_negfs_id7_im15.bmp,['Im_KeanuReeves.png', 'Im_BradPitt.png', 'Im_DanielRadcliffe.png', 'Im_GeorgeClooney.png', 'Im_RyanGosling.png', 'Im_OrlandoBloom.png', 'Im_DanielCraig.png', 'Im_RyanReynolds.png', 'Im_MattDamon.png', 'Im_LeonardoDiCaprio.png'],same,1,0.4333960000076331,27,97.61904761904762,
SEMY0204,7,neg,150,neg150_id7_im14.bmp_neg150_id7_im15.bmp,['Im_KeanuReeves.png', 'Im_BradPitt.png', 'Im_DanielRadcliffe.png', 'Im_GeorgeClooney.png', 'Im_RyanGosling.png', 'Im_OrlandoBloom.png', 'Im_DanielCraig.png', 'Im_RyanReynolds.png', 'Im_MattDamon.png', 'Im_LeonardoDiCaprio.png'],same,1,0.4333610000030603,28,97.61904761904762,
SEMY0204,8,pos,30,pos30_id5_im1.bmp_pos30_id5_im10.bmp,['Im_KeanuReeves.png', 'Im_BradPitt.png', 'Im_DanielRadcliffe.png', 'Im_GeorgeClooney.png', 'Im_RyanGosling.png', 'Im_OrlandoBloom.png', 'Im_DanielCraig.png', 'Im_RyanReynolds.png', 'Im_MattDamon.png', 'Im_LeonardoDiCaprio.png'],same,1,0.4167623000103049,29,97.61904761904762,
SEMY0204,8,pos,fs,posfs_id5_im20.bmp_posfs_id21_im17.bmp,['Im_KeanuReeves.png', 'Im_BradPitt.png', 'Im_DanielRadcliffe.png', 'Im_GeorgeClooney.png', 'Im_RyanGosling.png', 'Im_OrlandoBloom.png', 'Im_DanielCraig.png', 'Im_RyanReynolds.png', 'Im_MattDamon.png', 'Im_LeonardoDiCaprio.png'],diff,1,0.4252083000028506,30,97.61904761904762,
SEMY0204,8,pos,120,pos120_id7_im26.bmp_pos120_id20_im3.bmp,['Im_KeanuReeves.png', 'Im_BradPitt.png', 'Im_DanielRadcliffe.png', 'Im_GeorgeClooney.png', 'Im_RyanGosling.png', 'Im_OrlandoBloom.png', 'Im_DanielCraig.png', 'Im_RyanReynolds.png', 'Im_MattDamon.png', 'Im_LeonardoDiCaprio.png'],diff,1,0.4167445999919437,31,97.61904761904762,
SEMY0204,8,pos,0,pos0_id7_im14.bmp_pos0_id7_im15.bmp,['Im_KeanuReeves.png', 'Im_BradPitt.png', 'Im_DanielRadcliffe.png', 'Im_GeorgeClooney.png', 'Im_RyanGosling.png', 'Im_OrlandoBloom.png', 'Im_DanielCraig.png', 'Im_RyanReynolds.png', 'Im_MattDamon.png', 'Im_LeonardoDiCaprio.png'],same,1,0.4250492999854032,32,97.61904761904762,
SEMY0204,8,pos,60,pos60_id4_im15.bmp_pos60_id5_im1.bmp,['Im_KeanuReeves.png', 'Im_BradPitt.png', 'Im_DanielRadcliffe.png', 'Im_GeorgeClooney.png', 'Im_RyanGosling.png', 'Im_OrlandoBloom.png', 'Im_DanielCraig.png', 'Im_RyanReynolds.png', 'Im_MattDamon.png', 'Im_LeonardoDiCaprio.png'],diff,1,0.4250579999934416,33,97.61904761904762,
SEMY0204,8,pos,30,pos30_id16_im2.bmp_pos30_id11_im10.bmp,['Im_KeanuReeves.png', 'Im_BradPitt.png', 'Im_DanielRadcliffe.png', 'Im_GeorgeClooney.png', 'Im_RyanGosling.png', 'Im_OrlandoBloom.png', 'Im_DanielCraig.png', 'Im_RyanReynolds.png', 'Im_MattDamon.png', 'Im_LeonardoDiCaprio.png'],diff,1,0.4167271000042092,34,97.61904761904762,
SEMY0204,8,pos,fs,posfs_id14_im16.bmp_posfs_id21_im16.bmp,['Im_KeanuReeves.png', 'Im_BradPitt.png', 'Im_DanielRadcliffe.png', 'Im_GeorgeClooney.png', 'Im_RyanGosling.png', 'Im_OrlandoBloom.png', 'Im_DanielCraig.png', 'Im_RyanReynolds.png', 'Im_MattDamon.png', 'Im_LeonardoDiCaprio.png'],diff,1,0.4166855000075884,35,97.61904761904762,
SEMY0204,8,pos,150,pos150_id20_im30.bmp_pos150_id14_im24.bmp,['Im_KeanuReeves.png', 'Im_BradPitt.png', 'Im_DanielRadcliffe.png', 'Im_GeorgeClooney.png', 'Im_RyanGosling.png', 'Im_OrlandoBloom.png', 'Im_DanielCraig.png', 'Im_RyanReynolds.png', 'Im_MattDamon.png', 'Im_LeonardoDiCaprio.png'],diff,1,0.4167025999922771,36,97.61904761904762,
SEMY0204,8,pos,150,pos150_id5_im1.bmp_pos150_id5_im10.bmp,['Im_KeanuReeves.png', 'Im_BradPitt.png', 'Im_DanielRadcliffe.png', 'Im_GeorgeClooney.png', 'Im_RyanGosling.png', 'Im_OrlandoBloom.png', 'Im_DanielCraig.png', 'Im_RyanReynolds.png', 'Im_MattDamon.png', 'Im_LeonardoDiCaprio.png'],same,1,0.42504520001239143,37,97.61904761904762,
SEMY0204,8,pos,90,pos90_id16_im3.bmp_pos90_id16_im19.bmp,['Im_KeanuReeves.png', 'Im_BradPitt.png', 'Im_DanielRadcliffe.png', 'Im_GeorgeClooney.png', 'Im_RyanGosling.png', 'Im_OrlandoBloom.png', 'Im_DanielCraig.png', 'Im_RyanReynolds.png', 'Im_MattDamon.png', 'Im_LeonardoDiCaprio.png'],same,1,0.466337999998359,38,97.61904761904762,
SEMY0204,8,pos,120,pos120_id16_im19.bmp_pos120_id3_im8.bmp,['Im_KeanuReeves.png', 'Im_BradPitt.png', 'Im_DanielRadcliffe.png', 'Im_GeorgeClooney.png', 'Im_RyanGosling.png', 'Im_OrlandoBloom.png', 'Im_DanielCraig.png', 'Im_RyanReynolds.png', 'Im_MattDamon.png', 'Im_LeonardoDiCaprio.png'],diff,1,0.416738699976122,39,97.61904761904762,
SEMY0204,8,pos,60,pos60_id7_im26.bmp_pos60_id3_im8.bmp,['Im_KeanuReeves.png', 'Im_BradPitt.png', 'Im_DanielRadcliffe.png', 'Im_GeorgeClooney.png', 'Im_RyanGosling.png', 'Im_OrlandoBloom.png', 'Im_DanielCraig.png', 'Im_RyanReynolds.png', 'Im_MattDamon.png', 'Im_LeonardoDiCaprio.png'],diff,1,0.416743600013433,40,97.61904761904762,
SEMY0204,8,pos,0,pos0_id4_im15.bmp_pos0_id20_im12.bmp,['Im_KeanuReeves.png', 'Im_BradPitt.png', 'Im_DanielRadcliffe.png', 'Im_GeorgeClooney.png', 'Im_RyanGosling.png', 'Im_OrlandoBloom.png', 'Im_DanielCraig.png', 'Im_RyanReynolds.png', 'Im_MattDamon.png', 'Im_LeonardoDiCaprio.png'],diff,1,0.42508890002500266,41,97.61904761904762,
SEMY0204,8,pos,90,pos90_id13_im15.bmp_pos90_id13_im10.bmp,['Im_KeanuReeves.png', 'Im_BradPitt.png', 'Im_DanielRadcliffe.png', 'Im_GeorgeClooney.png', 'Im_RyanGosling.png', 'Im_OrlandoBloom.png', 'Im_DanielCraig.png', 'Im_RyanReynolds.png', 'Im_MattDamon.png', 'Im_LeonardoDiCaprio.png'],same,1,0.4167598999920301,42,97.61904761904762,
SEMY0204,9,inv,30,pos30_id14_im24.bmp_pos30_id14_im18.bmp,['Im_KeanuReeves.png', 'Im_BradPitt.png', 'Im_DanielRadcliffe.png', 'Im_GeorgeClooney.png', 'Im_RyanGosling.png', 'Im_OrlandoBloom.png', 'Im_DanielCraig.png', 'Im_RyanReynolds.png', 'Im_MattDamon.png', 'Im_LeonardoDiCaprio.png'],same,1,0.41689240001142025,1,100.0,
SEMY0204,9,inv,120,pos120_id21_im17.bmp_pos120_id5_im10.bmp,['Im_KeanuReeves.png', 'Im_BradPitt.png', 'Im_DanielRadcliffe.png', 'Im_GeorgeClooney.png', 'Im_RyanGosling.png', 'Im_OrlandoBloom.png', 'Im_DanielCraig.png', 'Im_RyanReynolds.png', 'Im_MattDamon.png', 'Im_LeonardoDiCaprio.png'],diff,1,0.4167170000146143,2,100.0,
SEMY0204,9,inv,150,pos150_id11_im10.bmp_pos150_id11_im1.bmp,['Im_KeanuReeves.png', 'Im_BradPitt.png', 'Im_DanielRadcliffe.png', 'Im_GeorgeClooney.png', 'Im_RyanGosling.png', 'Im_OrlandoBloom.png', 'Im_DanielCraig.png', 'Im_RyanReynolds.png', 'Im_MattDamon.png', 'Im_LeonardoDiCaprio.png'],same,1,0.41674920002697036,3,100.0,
SEMY0204,9,inv,120,pos120_id14_im24.bmp_pos120_id14_im18.bmp,['Im_KeanuReeves.png', 'Im_BradPitt.png', 'Im_DanielRadcliffe.png', 'Im_GeorgeClooney.png', 'Im_RyanGosling.png', 'Im_OrlandoBloom.png', 'Im_DanielCraig.png', 'Im_RyanReynolds.png', 'Im_MattDamon.png', 'Im_LeonardoDiCaprio.png'],same,1,0.40825449998374097,4,100.0,
SEMY0204,9,inv,fs,posfs_id7_im26.bmp_posfs_id7_im14.bmp,['Im_KeanuReeves.png', 'Im_BradPitt.png', 'Im_DanielRadcliffe.png', 'Im_GeorgeClooney.png', 'Im_RyanGosling.png', 'Im_OrlandoBloom.png', 'Im_DanielCraig.png', 'Im_RyanReynolds.png', 'Im_MattDamon.png', 'Im_LeonardoDiCaprio.png'],same,1,0.41674159999820404,5,100.0,
SEMY0204,9,inv,60,pos60_id20_im3.bmp_pos60_id7_im26.bmp,['Im_KeanuReeves.png', 'Im_BradPitt.png', 'Im_DanielRadcliffe.png', 'Im_GeorgeClooney.png', 'Im_RyanGosling.png', 'Im_OrlandoBloom.png', 'Im_DanielCraig.png', 'Im_RyanReynolds.png', 'Im_MattDamon.png', 'Im_LeonardoDiCaprio.png'],diff,1,0.41674300000886433,6,100.0,
SEMY0204,9,inv,fs,posfs_id5_im10.bmp_posfs_id14_im18.bmp,['Im_KeanuReeves.png', 'Im_BradPitt.png', 'Im_DanielRadcliffe.png', 'Im_GeorgeClooney.png', 'Im_RyanGosling.png', 'Im_OrlandoBloom.png', 'Im_DanielCraig.png', 'Im_RyanReynolds.png', 'Im_MattDamon.png', 'Im_LeonardoDiCaprio.png'],diff,1,0.42527720000362024,7,100.0,
SEMY0204,9,inv,90,pos90_id4_im20.bmp_pos90_id7_im14.bmp,['Im_KeanuReeves.png', 'Im_BradPitt.png', 'Im_DanielRadcliffe.png', 'Im_GeorgeClooney.png', 'Im_RyanGosling.png', 'Im_OrlandoBloom.png', 'Im_DanielCraig.png', 'Im_RyanReynolds.png', 'Im_MattDamon.png', 'Im_LeonardoDiCaprio.png'],diff,1,0.40836290002334863,8,100.0,
SEMY0204,9,inv,30,pos30_id11_im2.bmp_pos30_id11_im1.bmp,['Im_KeanuReeves.png', 'Im_BradPitt.png', 'Im_DanielRadcliffe.png', 'Im_GeorgeClooney.png', 'Im_RyanGosling.png', 'Im_OrlandoBloom.png', 'Im_DanielCraig.png', 'Im_RyanReynolds.png', 'Im_MattDamon.png', 'Im_LeonardoDiCaprio.png'],same,1,0.416575000010198,9,100.0,
SEMY0204,9,inv,90,pos90_id16_im3.bmp_pos90_id3_im6.bmp,['Im_KeanuReeves.png', 'Im_BradPitt.png', 'Im_DanielRadcliffe.png', 'Im_GeorgeClooney.png', 'Im_RyanGosling.png', 'Im_OrlandoBloom.png', 'Im_DanielCraig.png', 'Im_RyanReynolds.png', 'Im_MattDamon.png', 'Im_LeonardoDiCaprio.png'],diff,1,0.5836217000032775,10,100.0,
SEMY0204,9,inv,150,pos150_id11_im2.bmp_pos150_id21_im22.bmp,['Im_KeanuReeves.png', 'Im_BradPitt.png', 'Im_DanielRadcliffe.png', 'Im_GeorgeClooney.png', 'Im_RyanGosling.png', 'Im_OrlandoBloom.png', 'Im_DanielCraig.png', 'Im_RyanReynolds.png', 'Im_MattDamon.png', 'Im_LeonardoDiCaprio.png'],same,0,0.41676870000083,10,100.0,
SEMY0204,9,inv,0,pos0_id3_im17.bmp_pos0_id13_im29.bmp,['Im_KeanuReeves.png', 'Im_BradPitt.png', 'Im_DanielRadcliffe.png', 'Im_GeorgeClooney.png', 'Im_RyanGosling.png', 'Im_OrlandoBloom.png', 'Im_DanielCraig.png', 'Im_RyanReynolds.png', 'Im_MattDamon.png', 'Im_LeonardoDiCaprio.png'],diff,1,0.44159219998982735,11,100.0,
SEMY0204,9,inv,0,pos0_id7_im14.bmp_pos0_id14_im24.bmp,['Im_KeanuReeves.png', 'Im_BradPitt.png', 'Im_DanielRadcliffe.png', 'Im_GeorgeClooney.png', 'Im_RyanGosling.png', 'Im_OrlandoBloom.png', 'Im_DanielCraig.png', 'Im_RyanReynolds.png', 'Im_MattDamon.png', 'Im_LeonardoDiCaprio.png'],diff,1,0.5666855000017677,12,100.0,
SEMY0204,9,inv,60,pos60_id13_im29.bmp_pos60_id13_im10.bmp,['Im_KeanuReeves.png', 'Im_BradPitt.png', 'Im_DanielRadcliffe.png', 'Im_GeorgeClooney.png', 'Im_RyanGosling.png', 'Im_OrlandoBloom.png', 'Im_DanielCraig.png', 'Im_RyanReynolds.png', 'Im_MattDamon.png', 'Im_LeonardoDiCaprio.png'],same,1,0.41668249998474494,13,100.0,
SEMY0204,10,neg,150,neg150_id21_im22.bmp_neg150_id4_im20.bmp,['Im_KeanuReeves.png', 'Im_BradPitt.png', 'Im_DanielRadcliffe.png', 'Im_GeorgeClooney.png', 'Im_RyanGosling.png', 'Im_OrlandoBloom.png', 'Im_DanielCraig.png', 'Im_RyanReynolds.png', 'Im_MattDamon.png', 'Im_LeonardoDiCaprio.png'],diff,1,0.4168712999962736,14,100.0,
SEMY0204,10,neg,30,neg30_id20_im30.bmp_neg30_id20_im12.bmp,['Im_KeanuReeves.png', 'Im_BradPitt.png', 'Im_DanielRadcliffe.png', 'Im_GeorgeClooney.png', 'Im_RyanGosling.png', 'Im_OrlandoBloom.png', 'Im_DanielCraig.png', 'Im_RyanReynolds.png', 'Im_MattDamon.png', 'Im_LeonardoDiCaprio.png'],same,1,0.41689300001598895,15,100.0,
SEMY0204,10,neg,0,neg0_id5_im10.bmp_neg0_id5_im20.bmp,['Im_KeanuReeves.png', 'Im_BradPitt.png', 'Im_DanielRadcliffe.png', 'Im_GeorgeClooney.png', 'Im_RyanGosling.png', 'Im_OrlandoBloom.png', 'Im_DanielCraig.png', 'Im_RyanReynolds.png', 'Im_MattDamon.png', 'Im_LeonardoDiCaprio.png'],diff,0,0.40844600001582876,15,100.0,
SEMY0204,10,neg,30,neg30_id3_im8.bmp_neg30_id7_im26.bmp,['Im_KeanuReeves.png', 'Im_BradPitt.png', 'Im_DanielRadcliffe.png', 'Im_GeorgeClooney.png', 'Im_RyanGosling.png', 'Im_OrlandoBloom.png', 'Im_DanielCraig.png', 'Im_RyanReynolds.png', 'Im_MattDamon.png', 'Im_LeonardoDiCaprio.png'],diff,1,0.4250659999961499,16,100.0,
SEMY0204,10,neg,120,neg120_id3_im8.bmp_neg120_id3_im17.bmp,['Im_KeanuReeves.png', 'Im_BradPitt.png', 'Im_DanielRadcliffe.png', 'Im_GeorgeClooney.png', 'Im_RyanGosling.png', 'Im_OrlandoBloom.png', 'Im_DanielCraig.png', 'Im_RyanReynolds.png', 'Im_MattDamon.png', 'Im_LeonardoDiCaprio.png'],same,1,0.7000724999816157,17,100.0,
SEMY0204,10,neg,90,neg90_id14_im16.bmp_neg90_id14_im24.bmp,['Im_KeanuReeves.png', 'Im_BradPitt.png', 'Im_DanielRadcliffe.png', 'Im_GeorgeClooney.png', 'Im_RyanGosling.png', 'Im_OrlandoBloom.png', 'Im_DanielCraig.png', 'Im_RyanReynolds.png', 'Im_MattDamon.png', 'Im_LeonardoDiCaprio.png'],same,1,0.40840499999467283,18,100.0,
SEMY0204,10,neg,60,neg60_id16_im19.bmp_neg60_id16_im3.bmp,['Im_KeanuReeves.png', 'Im_BradPitt.png', 'Im_DanielRadcliffe.png', 'Im_GeorgeClooney.png', 'Im_RyanGosling.png', 'Im_OrlandoBloom.png', 'Im_DanielCraig.png', 'Im_RyanReynolds.png', 'Im_MattDamon.png', 'Im_LeonardoDiCaprio.png'],same,1,0.4167893000121694,19,100.0,
SEMY0204,10,neg,90,neg90_id7_im26.bmp_neg90_id20_im3.bmp,['Im_KeanuReeves.png', 'Im_BradPitt.png', 'Im_DanielRadcliffe.png', 'Im_GeorgeClooney.png', 'Im_RyanGosling.png', 'Im_OrlandoBloom.png', 'Im_DanielCraig.png', 'Im_RyanReynolds.png', 'Im_MattDamon.png', 'Im_LeonardoDiCaprio.png'],diff,1,0.43328540000948124,20,100.0,
SEMY0204,10,neg,150,neg150_id16_im3.bmp_neg150_id16_im2.bmp,['Im_KeanuReeves.png', 'Im_BradPitt.png', 'Im_DanielRadcliffe.png', 'Im_GeorgeClooney.png', 'Im_RyanGosling.png', 'Im_OrlandoBloom.png', 'Im_DanielCraig.png', 'Im_RyanReynolds.png', 'Im_MattDamon.png', 'Im_LeonardoDiCaprio.png'],same,1,0.4086766999971587,21,100.0,
SEMY0204,10,neg,60,neg60_id4_im15.bmp_neg60_id5_im1.bmp,['Im_KeanuReeves.png', 'Im_BradPitt.png', 'Im_DanielRadcliffe.png', 'Im_GeorgeClooney.png', 'Im_RyanGosling.png', 'Im_OrlandoBloom.png', 'Im_DanielCraig.png', 'Im_RyanReynolds.png', 'Im_MattDamon.png', 'Im_LeonardoDiCaprio.png'],diff,1,0.4251456999918446,22,100.0,
SEMY0204,10,neg,120,neg120_id16_im2.bmp_neg120_id4_im7.bmp,['Im_KeanuReeves.png', 'Im_BradPitt.png', 'Im_DanielRadcliffe.png', 'Im_GeorgeClooney.png', 'Im_RyanGosling.png', 'Im_OrlandoBloom.png', 'Im_DanielCraig.png', 'Im_RyanReynolds.png', 'Im_MattDamon.png', 'Im_LeonardoDiCaprio.png'],diff,1,0.45838779999758117,23,100.0,
SEMY0204,10,neg,fs,negfs_id20_im12.bmp_negfs_id13_im15.bmp,['Im_KeanuReeves.png', 'Im_BradPitt.png', 'Im_DanielRadcliffe.png', 'Im_GeorgeClooney.png', 'Im_RyanGosling.png', 'Im_OrlandoBloom.png', 'Im_DanielCraig.png', 'Im_RyanReynolds.png', 'Im_MattDamon.png', 'Im_LeonardoDiCaprio.png'],diff,1,0.416740300017409,24,100.0,
SEMY0204,10,neg,0,neg0_id5_im1.bmp_neg0_id11_im1.bmp,['Im_KeanuReeves.png', 'Im_BradPitt.png', 'Im_DanielRadcliffe.png', 'Im_GeorgeClooney.png', 'Im_RyanGosling.png', 'Im_OrlandoBloom.png', 'Im_DanielCraig.png', 'Im_RyanReynolds.png', 'Im_MattDamon.png', 'Im_LeonardoDiCaprio.png'],diff,1,0.9584028999961447,25,100.0,
SEMY0204,10,neg,fs,negfs_id5_im1.bmp_negfs_id5_im10.bmp,['Im_KeanuReeves.png', 'Im_BradPitt.png', 'Im_DanielRadcliffe.png', 'Im_GeorgeClooney.png', 'Im_RyanGosling.png', 'Im_OrlandoBloom.png', 'Im_DanielCraig.png', 'Im_RyanReynolds.png', 'Im_MattDamon.png', 'Im_LeonardoDiCaprio.png'],same,1,0.4167169999855105,26,100.0,
SEMY0204,11,inv,0,pos0_id21_im17.bmp_pos0_id5_im10.bmp,['Im_KeanuReeves.png', 'Im_BradPitt.png', 'Im_DanielRadcliffe.png', 'Im_GeorgeClooney.png', 'Im_RyanGosling.png', 'Im_OrlandoBloom.png', 'Im_DanielCraig.png', 'Im_RyanReynolds.png', 'Im_MattDamon.png', 'Im_LeonardoDiCaprio.png'],diff,1,0.4334130000206642,27,100.0,
SEMY0204,11,inv,60,pos60_id7_im15.bmp_pos60_id20_im3.bmp,['Im_KeanuReeves.png', 'Im_BradPitt.png', 'Im_DanielRadcliffe.png', 'Im_GeorgeClooney.png', 'Im_RyanGosling.png', 'Im_OrlandoBloom.png', 'Im_DanielCraig.png', 'Im_RyanReynolds.png', 'Im_MattDamon.png', 'Im_LeonardoDiCaprio.png'],diff,1,0.47524820000398904,28,100.0,
SEMY0204,11,inv,150,pos150_id3_im6.bmp_pos150_id3_im8.bmp,['Im_KeanuReeves.png', 'Im_BradPitt.png', 'Im_DanielRadcliffe.png', 'Im_GeorgeClooney.png', 'Im_RyanGosling.png', 'Im_OrlandoBloom.png', 'Im_DanielCraig.png', 'Im_RyanReynolds.png', 'Im_MattDamon.png', 'Im_LeonardoDiCaprio.png'],same,1,0.41671590000623837,29,100.0,
SEMY0204,11,inv,0,pos0_id5_im20.bmp_pos0_id5_im10.bmp,['Im_KeanuReeves.png', 'Im_BradPitt.png', 'Im_DanielRadcliffe.png', 'Im_GeorgeClooney.png', 'Im_RyanGosling.png', 'Im_OrlandoBloom.png', 'Im_DanielCraig.png', 'Im_RyanReynolds.png', 'Im_MattDamon.png', 'Im_LeonardoDiCaprio.png'],diff,0,0.4167411000235006,29,100.0,
SEMY0204,11,inv,90,pos90_id4_im20.bmp_pos90_id4_im7.bmp,['Im_KeanuReeves.png', 'Im_BradPitt.png', 'Im_DanielRadcliffe.png', 'Im_GeorgeClooney.png', 'Im_RyanGosling.png', 'Im_OrlandoBloom.png', 'Im_DanielCraig.png', 'Im_RyanReynolds.png', 'Im_MattDamon.png', 'Im_LeonardoDiCaprio.png'],same,1,0.40843449998646975,30,100.0,
SEMY0204,11,inv,120,pos120_id20_im12.bmp_pos120_id13_im15.bmp,['Im_KeanuReeves.png', 'Im_BradPitt.png', 'Im_DanielRadcliffe.png', 'Im_GeorgeClooney.png', 'Im_RyanGosling.png', 'Im_OrlandoBloom.png', 'Im_DanielCraig.png', 'Im_RyanReynolds.png', 'Im_MattDamon.png', 'Im_LeonardoDiCaprio.png'],diff,1,0.4169228000100702,31,100.0,
SEMY0204,11,inv,90,pos90_id3_im17.bmp_pos90_id3_im6.bmp,['Im_KeanuReeves.png', 'Im_BradPitt.png', 'Im_DanielRadcliffe.png', 'Im_GeorgeClooney.png', 'Im_RyanGosling.png', 'Im_OrlandoBloom.png', 'Im_DanielCraig.png', 'Im_RyanReynolds.png', 'Im_MattDamon.png', 'Im_LeonardoDiCaprio.png'],same,1,0.4252674000163097,32,100.0,
SEMY0204,11,inv,30,pos30_id7_im26.bmp_pos30_id7_im14.bmp,['Im_KeanuReeves.png', 'Im_BradPitt.png', 'Im_DanielRadcliffe.png', 'Im_GeorgeClooney.png', 'Im_RyanGosling.png', 'Im_OrlandoBloom.png', 'Im_DanielCraig.png', 'Im_RyanReynolds.png', 'Im_MattDamon.png', 'Im_LeonardoDiCaprio.png'],diff,0,0.7500482999894302,32,100.0,
SEMY0204,11,inv,fs,posfs_id7_im26.bmp_posfs_id3_im8.bmp,['Im_KeanuReeves.png', 'Im_BradPitt.png', 'Im_DanielRadcliffe.png', 'Im_GeorgeClooney.png', 'Im_RyanGosling.png', 'Im_OrlandoBloom.png', 'Im_DanielCraig.png', 'Im_RyanReynolds.png', 'Im_MattDamon.png', 'Im_LeonardoDiCaprio.png'],diff,1,0.4251260999881197,33,100.0,
SEMY0204,11,inv,150,pos150_id4_im7.bmp_pos150_id16_im2.bmp,['Im_KeanuReeves.png', 'Im_BradPitt.png', 'Im_DanielRadcliffe.png', 'Im_GeorgeClooney.png', 'Im_RyanGosling.png', 'Im_OrlandoBloom.png', 'Im_DanielCraig.png', 'Im_RyanReynolds.png', 'Im_MattDamon.png', 'Im_LeonardoDiCaprio.png'],diff,1,0.41672740000649355,34,100.0,
SEMY0204,11,inv,60,pos60_id7_im26.bmp_pos60_id3_im8.bmp,['Im_KeanuReeves.png', 'Im_BradPitt.png', 'Im_DanielRadcliffe.png', 'Im_GeorgeClooney.png', 'Im_RyanGosling.png', 'Im_OrlandoBloom.png', 'Im_DanielCraig.png', 'Im_RyanReynolds.png', 'Im_MattDamon.png', 'Im_LeonardoDiCaprio.png'],diff,1,0.4167775999812875,35,100.0,
SEMY0204,11,inv,120,pos120_id3_im17.bmp_pos120_id11_im1.bmp,['Im_KeanuReeves.png', 'Im_BradPitt.png', 'Im_DanielRadcliffe.png', 'Im_GeorgeClooney.png', 'Im_RyanGosling.png', 'Im_OrlandoBloom.png', 'Im_DanielCraig.png', 'Im_RyanReynolds.png', 'Im_MattDamon.png', 'Im_LeonardoDiCaprio.png'],diff,1,0.4666555000003427,36,100.0,
SEMY0204,11,inv,fs,posfs_id21_im22.bmp_posfs_id11_im2.bmp,['Im_KeanuReeves.png', 'Im_BradPitt.png', 'Im_DanielRadcliffe.png', 'Im_GeorgeClooney.png', 'Im_RyanGosling.png', 'Im_OrlandoBloom.png', 'Im_DanielCraig.png', 'Im_RyanReynolds.png', 'Im_MattDamon.png', 'Im_LeonardoDiCaprio.png'],same,0,0.4250850999960676,36,100.0,
SEMY0204,11,inv,30,pos30_id13_im29.bmp_pos30_id13_im10.bmp,['Im_KeanuReeves.png', 'Im_BradPitt.png', 'Im_DanielRadcliffe.png', 'Im_GeorgeClooney.png', 'Im_RyanGosling.png', 'Im_OrlandoBloom.png', 'Im_DanielCraig.png', 'Im_RyanReynolds.png', 'Im_MattDamon.png', 'Im_LeonardoDiCaprio.png'],same,1,0.54177820001496,37,100.0,
SEMY0204,12,pos,60,pos60_id3_im17.bmp_pos60_id3_im8.bmp,['Im_KeanuReeves.png', 'Im_BradPitt.png', 'Im_DanielRadcliffe.png', 'Im_GeorgeClooney.png', 'Im_RyanGosling.png', 'Im_OrlandoBloom.png', 'Im_DanielCraig.png', 'Im_RyanReynolds.png', 'Im_MattDamon.png', 'Im_LeonardoDiCaprio.png'],same,1,0.4167125000094529,1,88.0952380952381,
SEMY0204,12,pos,150,pos150_id7_im26.bmp_pos150_id7_im15.bmp,['Im_KeanuReeves.png', 'Im_BradPitt.png', 'Im_DanielRadcliffe.png', 'Im_GeorgeClooney.png', 'Im_RyanGosling.png', 'Im_OrlandoBloom.png', 'Im_DanielCraig.png', 'Im_RyanReynolds.png', 'Im_MattDamon.png', 'Im_LeonardoDiCaprio.png'],same,1,0.42491279999376275,2,88.0952380952381,
SEMY0204,12,pos,fs,posfs_id3_im6.bmp_posfs_id3_im8.bmp,['Im_KeanuReeves.png', 'Im_BradPitt.png', 'Im_DanielRadcliffe.png', 'Im_GeorgeClooney.png', 'Im_RyanGosling.png', 'Im_OrlandoBloom.png', 'Im_DanielCraig.png', 'Im_RyanReynolds.png', 'Im_MattDamon.png', 'Im_LeonardoDiCaprio.png'],same,1,0.4250824000046123,3,88.0952380952381,
SEMY0204,12,pos,30,pos30_id11_im1.bmp_pos30_id11_im2.bmp,['Im_KeanuReeves.png', 'Im_BradPitt.png', 'Im_DanielRadcliffe.png', 'Im_GeorgeClooney.png', 'Im_RyanGosling.png', 'Im_OrlandoBloom.png', 'Im_DanielCraig.png', 'Im_RyanReynolds.png', 'Im_MattDamon.png', 'Im_LeonardoDiCaprio.png'],same,1,0.4166809000016656,4,88.0952380952381,
SEMY0204,12,pos,30,pos30_id21_im17.bmp_pos30_id5_im10.bmp,['Im_KeanuReeves.png', 'Im_BradPitt.png', 'Im_DanielRadcliffe.png', 'Im_GeorgeClooney.png', 'Im_RyanGosling.png', 'Im_OrlandoBloom.png', 'Im_DanielCraig.png', 'Im_RyanReynolds.png', 'Im_MattDamon.png', 'Im_LeonardoDiCaprio.png'],diff,1,0.41680790000827983,5,88.0952380952381,
SEMY0204,12,pos,0,pos0_id13_im10.bmp_pos0_id13_im15.bmp,['Im_KeanuReeves.png', 'Im_BradPitt.png', 'Im_DanielRadcliffe.png', 'Im_GeorgeClooney.png', 'Im_RyanGosling.png', 'Im_OrlandoBloom.png', 'Im_DanielCraig.png', 'Im_RyanReynolds.png', 'Im_MattDamon.png', 'Im_LeonardoDiCaprio.png'],same,1,0.4166774000041187,6,88.0952380952381,
SEMY0204,12,pos,90,pos90_id16_im19.bmp_pos90_id3_im8.bmp,['Im_KeanuReeves.png', 'Im_BradPitt.png', 'Im_DanielRadcliffe.png', 'Im_GeorgeClooney.png', 'Im_RyanGosling.png', 'Im_OrlandoBloom.png', 'Im_DanielCraig.png', 'Im_RyanReynolds.png', 'Im_MattDamon.png', 'Im_LeonardoDiCaprio.png'],diff,1,0.4250130000000354,7,88.0952380952381,
SEMY0204,12,pos,150,pos150_id5_im10.bmp_pos150_id21_im17.bmp,['Im_KeanuReeves.png', 'Im_BradPitt.png', 'Im_DanielRadcliffe.png', 'Im_GeorgeClooney.png', 'Im_RyanGosling.png', 'Im_OrlandoBloom.png', 'Im_DanielCraig.png', 'Im_RyanReynolds.png', 'Im_MattDamon.png', 'Im_LeonardoDiCaprio.png'],diff,1,0.4167465000064112,8,88.0952380952381,
SEMY0204,12,pos,120,pos120_id13_im10.bmp_pos120_id14_im18.bmp,['Im_KeanuReeves.png', 'Im_BradPitt.png', 'Im_DanielRadcliffe.png', 'Im_GeorgeClooney.png', 'Im_RyanGosling.png', 'Im_OrlandoBloom.png', 'Im_DanielCraig.png', 'Im_RyanReynolds.png', 'Im_MattDamon.png', 'Im_LeonardoDiCaprio.png'],same,0,0.41667239999515004,8,88.0952380952381,
SEMY0204,12,pos,fs,posfs_id21_im17.bmp_posfs_id21_im16.bmp,['Im_KeanuReeves.png', 'Im_BradPitt.png', 'Im_DanielRadcliffe.png', 'Im_GeorgeClooney.png', 'Im_RyanGosling.png', 'Im_OrlandoBloom.png', 'Im_DanielCraig.png', 'Im_RyanReynolds.png', 'Im_MattDamon.png', 'Im_LeonardoDiCaprio.png'],same,1,0.4166352000029292,9,88.0952380952381,
SEMY0204,12,pos,120,pos120_id7_im26.bmp_pos120_id7_im14.bmp,['Im_KeanuReeves.png', 'Im_BradPitt.png', 'Im_DanielRadcliffe.png', 'Im_GeorgeClooney.png', 'Im_RyanGosling.png', 'Im_OrlandoBloom.png', 'Im_DanielCraig.png', 'Im_RyanReynolds.png', 'Im_MattDamon.png', 'Im_LeonardoDiCaprio.png'],same,1,0.4167191000015009,10,88.0952380952381,
SEMY0204,12,pos,0,pos0_id14_im24.bmp_pos0_id7_im14.bmp,['Im_KeanuReeves.png', 'Im_BradPitt.png', 'Im_DanielRadcliffe.png', 'Im_GeorgeClooney.png', 'Im_RyanGosling.png', 'Im_OrlandoBloom.png', 'Im_DanielCraig.png', 'Im_RyanReynolds.png', 'Im_MattDamon.png', 'Im_LeonardoDiCaprio.png'],diff,1,0.4167789999919478,11,88.0952380952381,
SEMY0204,12,pos,60,pos60_id7_im14.bmp_pos60_id4_im20.bmp,['Im_KeanuReeves.png', 'Im_BradPitt.png', 'Im_DanielRadcliffe.png', 'Im_GeorgeClooney.png', 'Im_RyanGosling.png', 'Im_OrlandoBloom.png', 'Im_DanielCraig.png', 'Im_RyanReynolds.png', 'Im_MattDamon.png', 'Im_LeonardoDiCaprio.png'],diff,1,0.41674240000429563,12,88.0952380952381,
SEMY0204,12,pos,90,pos90_id3_im17.bmp_pos90_id3_im8.bmp,['Im_KeanuReeves.png', 'Im_BradPitt.png', 'Im_DanielRadcliffe.png', 'Im_GeorgeClooney.png', 'Im_RyanGosling.png', 'Im_OrlandoBloom.png', 'Im_DanielCraig.png', 'Im_RyanReynolds.png', 'Im_MattDamon.png', 'Im_LeonardoDiCaprio.png'],same,1,0.4250913000141736,13,88.0952380952381,
SEMY0204,13,pos,30,pos30_id13_im10.bmp_pos30_id13_im29.bmp,['Im_KeanuReeves.png', 'Im_BradPitt.png', 'Im_DanielRadcliffe.png', 'Im_GeorgeClooney.png', 'Im_RyanGosling.png', 'Im_OrlandoBloom.png', 'Im_DanielCraig.png', 'Im_RyanReynolds.png', 'Im_MattDamon.png', 'Im_LeonardoDiCaprio.png'],same,1,0.42493420001119375,14,88.0952380952381,
SEMY0204,13,pos,150,pos150_id20_im3.bmp_pos150_id7_im15.bmp,['Im_KeanuReeves.png', 'Im_BradPitt.png', 'Im_DanielRadcliffe.png', 'Im_GeorgeClooney.png', 'Im_RyanGosling.png', 'Im_OrlandoBloom.png', 'Im_DanielCraig.png', 'Im_RyanReynolds.png', 'Im_MattDamon.png', 'Im_LeonardoDiCaprio.png'],diff,1,0.43333880000864156,15,88.0952380952381,
SEMY0204,13,pos,120,pos120_id5_im1.bmp_pos120_id5_im10.bmp,['Im_KeanuReeves.png', 'Im_BradPitt.png', 'Im_DanielRadcliffe.png', 'Im_GeorgeClooney.png', 'Im_RyanGosling.png', 'Im_OrlandoBloom.png', 'Im_DanielCraig.png', 'Im_RyanReynolds.png', 'Im_MattDamon.png', 'Im_LeonardoDiCaprio.png'],same,1,0.4250643999839667,16,88.0952380952381,
SEMY0204,13,pos,120,pos120_id3_im17.bmp_pos120_id13_im29.bmp,['Im_KeanuReeves.png', 'Im_BradPitt.png', 'Im_DanielRadcliffe.png', 'Im_GeorgeClooney.png', 'Im_RyanGosling.png', 'Im_OrlandoBloom.png', 'Im_DanielCraig.png', 'Im_RyanReynolds.png', 'Im_MattDamon.png', 'Im_LeonardoDiCaprio.png'],diff,1,0.5003037999849766,17,88.0952380952381,
SEMY0204,13,pos,60,pos60_id21_im22.bmp_pos60_id21_im17.bmp,['Im_KeanuReeves.png', 'Im_BradPitt.png', 'Im_DanielRadcliffe.png', 'Im_GeorgeClooney.png', 'Im_RyanGosling.png', 'Im_OrlandoBloom.png', 'Im_DanielCraig.png', 'Im_RyanReynolds.png', 'Im_MattDamon.png', 'Im_LeonardoDiCaprio.png'],same,1,0.4166434000071604,18,88.0952380952381,
SEMY0204,13,pos,fs,posfs_id3_im17.bmp_posfs_id3_im8.bmp,['Im_KeanuReeves.png', 'Im_BradPitt.png', 'Im_DanielRadcliffe.png', 'Im_GeorgeClooney.png', 'Im_RyanGosling.png', 'Im_OrlandoBloom.png', 'Im_DanielCraig.png', 'Im_RyanReynolds.png', 'Im_MattDamon.png', 'Im_LeonardoDiCaprio.png'],same,1,0.4250504999945406,19,88.0952380952381,
SEMY0204,13,pos,90,pos90_id11_im1.bmp_pos90_id11_im10.bmp,['Im_KeanuReeves.png', 'Im_BradPitt.png', 'Im_DanielRadcliffe.png', 'Im_GeorgeClooney.png', 'Im_RyanGosling.png', 'Im_OrlandoBloom.png', 'Im_DanielCraig.png', 'Im_RyanReynolds.png', 'Im_MattDamon.png', 'Im_LeonardoDiCaprio.png'],same,1,0.4168041999801062,20,88.0952380952381,
SEMY0204,13,pos,fs,posfs_id3_im17.bmp_posfs_id3_im6.bmp,['Im_KeanuReeves.png', 'Im_BradPitt.png', 'Im_DanielRadcliffe.png', 'Im_GeorgeClooney.png', 'Im_RyanGosling.png', 'Im_OrlandoBloom.png', 'Im_DanielCraig.png', 'Im_RyanReynolds.png', 'Im_MattDamon.png', 'Im_LeonardoDiCaprio.png'],same,1,0.41672530001960695,21,88.0952380952381,
SEMY0204,13,pos,0,pos0_id11_im1.bmp_pos0_id11_im2.bmp,['Im_KeanuReeves.png', 'Im_BradPitt.png', 'Im_DanielRadcliffe.png', 'Im_GeorgeClooney.png', 'Im_RyanGosling.png', 'Im_OrlandoBloom.png', 'Im_DanielCraig.png', 'Im_RyanReynolds.png', 'Im_MattDamon.png', 'Im_LeonardoDiCaprio.png'],same,1,0.4168702000170015,22,88.0952380952381,
SEMY0204,13,pos,60,pos60_id21_im16.bmp_pos60_id7_im15.bmp,['Im_KeanuReeves.png', 'Im_BradPitt.png', 'Im_DanielRadcliffe.png', 'Im_GeorgeClooney.png', 'Im_RyanGosling.png', 'Im_OrlandoBloom.png', 'Im_DanielCraig.png', 'Im_RyanReynolds.png', 'Im_MattDamon.png', 'Im_LeonardoDiCaprio.png'],diff,1,0.4167740999837406,23,88.0952380952381,
SEMY0204,13,pos,90,pos90_id3_im6.bmp_pos90_id16_im3.bmp,['Im_KeanuReeves.png', 'Im_BradPitt.png', 'Im_DanielRadcliffe.png', 'Im_GeorgeClooney.png', 'Im_RyanGosling.png', 'Im_OrlandoBloom.png', 'Im_DanielCraig.png', 'Im_RyanReynolds.png', 'Im_MattDamon.png', 'Im_LeonardoDiCaprio.png'],diff,1,0.4165699000004679,24,88.0952380952381,
SEMY0204,13,pos,150,pos150_id3_im6.bmp_pos150_id3_im17.bmp,['Im_KeanuReeves.png', 'Im_BradPitt.png', 'Im_DanielRadcliffe.png', 'Im_GeorgeClooney.png', 'Im_RyanGosling.png', 'Im_OrlandoBloom.png', 'Im_DanielCraig.png', 'Im_RyanReynolds.png', 'Im_MattDamon.png', 'Im_LeonardoDiCaprio.png'],same,1,0.42518779999227263,25,88.0952380952381,
SEMY0204,13,pos,0,pos0_id3_im17.bmp_pos0_id13_im29.bmp,['Im_KeanuReeves.png', 'Im_BradPitt.png', 'Im_DanielRadcliffe.png', 'Im_GeorgeClooney.png', 'Im_RyanGosling.png', 'Im_OrlandoBloom.png', 'Im_DanielCraig.png', 'Im_RyanReynolds.png', 'Im_MattDamon.png', 'Im_LeonardoDiCaprio.png'],diff,1,0.41707499997573905,26,88.0952380952381,
SEMY0204,13,pos,30,pos30_id7_im14.bmp_pos30_id7_im26.bmp,['Im_KeanuReeves.png', 'Im_BradPitt.png', 'Im_DanielRadcliffe.png', 'Im_GeorgeClooney.png', 'Im_RyanGosling.png', 'Im_OrlandoBloom.png', 'Im_DanielCraig.png', 'Im_RyanReynolds.png', 'Im_MattDamon.png', 'Im_LeonardoDiCaprio.png'],same,1,0.4252228999976069,27,88.0952380952381,
SEMY0204,14,neg,90,neg90_id11_im10.bmp_neg90_id11_im1.bmp,['Im_KeanuReeves.png', 'Im_BradPitt.png', 'Im_DanielRadcliffe.png', 'Im_GeorgeClooney.png', 'Im_RyanGosling.png', 'Im_OrlandoBloom.png', 'Im_DanielCraig.png', 'Im_RyanReynolds.png', 'Im_MattDamon.png', 'Im_LeonardoDiCaprio.png'],same,1,0.416715600003954,28,88.0952380952381,
SEMY0204,14,neg,fs,negfs_id20_im30.bmp_negfs_id20_im3.bmp,['Im_KeanuReeves.png', 'Im_BradPitt.png', 'Im_DanielRadcliffe.png', 'Im_GeorgeClooney.png', 'Im_RyanGosling.png', 'Im_OrlandoBloom.png', 'Im_DanielCraig.png', 'Im_RyanReynolds.png', 'Im_MattDamon.png', 'Im_LeonardoDiCaprio.png'],same,1,0.42505970000638627,29,88.0952380952381,
SEMY0204,14,neg,150,neg150_id4_im7.bmp_neg150_id16_im3.bmp,['Im_KeanuReeves.png', 'Im_BradPitt.png', 'Im_DanielRadcliffe.png', 'Im_GeorgeClooney.png', 'Im_RyanGosling.png', 'Im_OrlandoBloom.png', 'Im_DanielCraig.png', 'Im_RyanReynolds.png', 'Im_MattDamon.png', 'Im_LeonardoDiCaprio.png'],diff,1,0.40854449998005293,30,88.0952380952381,
SEMY0204,14,neg,fs,negfs_id11_im1.bmp_negfs_id11_im2.bmp,['Im_KeanuReeves.png', 'Im_BradPitt.png', 'Im_DanielRadcliffe.png', 'Im_GeorgeClooney.png', 'Im_RyanGosling.png', 'Im_OrlandoBloom.png', 'Im_DanielCraig.png', 'Im_RyanReynolds.png', 'Im_MattDamon.png', 'Im_LeonardoDiCaprio.png'],same,1,0.416680099995574,31,88.0952380952381,
SEMY0204,14,neg,30,neg30_id13_im15.bmp_neg30_id13_im29.bmp,['Im_KeanuReeves.png', 'Im_BradPitt.png', 'Im_DanielRadcliffe.png', 'Im_GeorgeClooney.png', 'Im_RyanGosling.png', 'Im_OrlandoBloom.png', 'Im_DanielCraig.png', 'Im_RyanReynolds.png', 'Im_MattDamon.png', 'Im_LeonardoDiCaprio.png'],same,1,0.43334970000432804,32,88.0952380952381,
SEMY0204,14,neg,150,neg150_id14_im24.bmp_neg150_id14_im18.bmp,['Im_KeanuReeves.png', 'Im_BradPitt.png', 'Im_DanielRadcliffe.png', 'Im_GeorgeClooney.png', 'Im_RyanGosling.png', 'Im_OrlandoBloom.png', 'Im_DanielCraig.png', 'Im_RyanReynolds.png', 'Im_MattDamon.png', 'Im_LeonardoDiCaprio.png'],same,1,0.48338459999649785,33,88.0952380952381,
SEMY0204,14,neg,60,neg60_id20_im30.bmp_neg60_id14_im24.bmp,['Im_KeanuReeves.png', 'Im_BradPitt.png', 'Im_DanielRadcliffe.png', 'Im_GeorgeClooney.png', 'Im_RyanGosling.png', 'Im_OrlandoBloom.png', 'Im_DanielCraig.png', 'Im_RyanReynolds.png', 'Im_MattDamon.png', 'Im_LeonardoDiCaprio.png'],diff,1,0.6835583000211045,34,88.0952380952381,
SEMY0204,14,neg,0,neg0_id7_im15.bmp_neg0_id7_im26.bmp,['Im_KeanuReeves.png', 'Im_BradPitt.png', 'Im_DanielRadcliffe.png', 'Im_GeorgeClooney.png', 'Im_RyanGosling.png', 'Im_OrlandoBloom.png', 'Im_DanielCraig.png', 'Im_RyanReynolds.png', 'Im_MattDamon.png', 'Im_LeonardoDiCaprio.png'],same,1,0.48353620001580566,35,88.0952380952381,
SEMY0204,14,neg,120,neg120_id11_im2.bmp_neg120_id11_im1.bmp,['Im_KeanuReeves.png', 'Im_BradPitt.png', 'Im_DanielRadcliffe.png', 'Im_GeorgeClooney.png', 'Im_RyanGosling.png', 'Im_OrlandoBloom.png', 'Im_DanielCraig.png', 'Im_RyanReynolds.png', 'Im_MattDamon.png', 'Im_LeonardoDiCaprio.png'],same,1,0.8499460000020918,36,88.0952380952381,
SEMY0204,14,neg,30,neg30_id13_im10.bmp_neg30_id20_im30.bmp,['Im_KeanuReeves.png', 'Im_BradPitt.png', 'Im_DanielRadcliffe.png', 'Im_GeorgeClooney.png', 'Im_RyanGosling.png', 'Im_OrlandoBloom.png', 'Im_DanielCraig.png', 'Im_RyanReynolds.png', 'Im_MattDamon.png', 'Im_LeonardoDiCaprio.png'],diff,1,0.5167254999978468,37,88.0952380952381,
SEMY0204,14,neg,0,neg0_id3_im17.bmp_neg0_id3_im8.bmp,['Im_KeanuReeves.png', 'Im_BradPitt.png', 'Im_DanielRadcliffe.png', 'Im_GeorgeClooney.png', 'Im_RyanGosling.png', 'Im_OrlandoBloom.png', 'Im_DanielCraig.png', 'Im_RyanReynolds.png', 'Im_MattDamon.png', 'Im_LeonardoDiCaprio.png'],same,1,0.4166873999929521,38,88.0952380952381,
SEMY0204,14,neg,120,neg120_id5_im10.bmp_neg120_id21_im17.bmp,['Im_KeanuReeves.png', 'Im_BradPitt.png', 'Im_DanielRadcliffe.png', 'Im_GeorgeClooney.png', 'Im_RyanGosling.png', 'Im_OrlandoBloom.png', 'Im_DanielCraig.png', 'Im_RyanReynolds.png', 'Im_MattDamon.png', 'Im_LeonardoDiCaprio.png'],diff,1,0.41673480000463314,39,88.0952380952381,
SEMY0204,14,neg,60,neg60_id14_im16.bmp_neg60_id21_im16.bmp,['Im_KeanuReeves.png', 'Im_BradPitt.png', 'Im_DanielRadcliffe.png', 'Im_GeorgeClooney.png', 'Im_RyanGosling.png', 'Im_OrlandoBloom.png', 'Im_DanielCraig.png', 'Im_RyanReynolds.png', 'Im_MattDamon.png', 'Im_LeonardoDiCaprio.png'],diff,1,0.5093077000055928,40,88.0952380952381,
SEMY0204,14,neg,90,neg90_id14_im18.bmp_neg90_id14_im24.bmp,['Im_KeanuReeves.png', 'Im_BradPitt.png', 'Im_DanielRadcliffe.png', 'Im_GeorgeClooney.png', 'Im_RyanGosling.png', 'Im_OrlandoBloom.png', 'Im_DanielCraig.png', 'Im_RyanReynolds.png', 'Im_MattDamon.png', 'Im_LeonardoDiCaprio.png'],same,1,0.42515980001189746,41,88.0952380952381,
SEMY0204,15,inv,30,pos30_id14_im24.bmp_pos30_id14_im16.bmp,['Im_KeanuReeves.png', 'Im_BradPitt.png', 'Im_DanielRadcliffe.png', 'Im_GeorgeClooney.png', 'Im_RyanGosling.png', 'Im_OrlandoBloom.png', 'Im_DanielCraig.png', 'Im_RyanReynolds.png', 'Im_MattDamon.png', 'Im_LeonardoDiCaprio.png'],same,1,0.6417390999849886,1,97.61904761904762,
SEMY0204,15,inv,120,pos120_id11_im2.bmp_pos120_id11_im10.bmp,['Im_KeanuReeves.png', 'Im_BradPitt.png', 'Im_DanielRadcliffe.png', 'Im_GeorgeClooney.png', 'Im_RyanGosling.png', 'Im_OrlandoBloom.png', 'Im_DanielCraig.png', 'Im_RyanReynolds.png', 'Im_MattDamon.png', 'Im_LeonardoDiCaprio.png'],diff,0,0.42525130001013167,1,97.61904761904762,
SEMY0204,15,inv,150,pos150_id14_im18.bmp_pos150_id5_im10.bmp,['Im_KeanuReeves.png', 'Im_BradPitt.png', 'Im_DanielRadcliffe.png', 'Im_GeorgeClooney.png', 'Im_RyanGosling.png', 'Im_OrlandoBloom.png', 'Im_DanielCraig.png', 'Im_RyanReynolds.png', 'Im_MattDamon.png', 'Im_LeonardoDiCaprio.png'],diff,1,0.4250605999841355,2,97.61904761904762,
SEMY0204,15,inv,60,pos60_id16_im3.bmp_pos60_id16_im19.bmp,['Im_KeanuReeves.png', 'Im_BradPitt.png', 'Im_DanielRadcliffe.png', 'Im_GeorgeClooney.png', 'Im_RyanGosling.png', 'Im_OrlandoBloom.png', 'Im_DanielCraig.png', 'Im_RyanReynolds.png', 'Im_MattDamon.png', 'Im_LeonardoDiCaprio.png'],same,1,0.42497219998040237,3,97.61904761904762,
SEMY0204,15,inv,90,pos90_id16_im19.bmp_pos90_id16_im3.bmp,['Im_KeanuReeves.png', 'Im_BradPitt.png', 'Im_DanielRadcliffe.png', 'Im_GeorgeClooney.png', 'Im_RyanGosling.png', 'Im_OrlandoBloom.png', 'Im_DanielCraig.png', 'Im_RyanReynolds.png', 'Im_MattDamon.png', 'Im_LeonardoDiCaprio.png'],same,1,0.4250949999841396,4,97.61904761904762,
SEMY0204,15,inv,30,pos30_id20_im12.bmp_pos30_id4_im15.bmp,['Im_KeanuReeves.png', 'Im_BradPitt.png', 'Im_DanielRadcliffe.png', 'Im_GeorgeClooney.png', 'Im_RyanGosling.png', 'Im_OrlandoBloom.png', 'Im_DanielCraig.png', 'Im_RyanReynolds.png', 'Im_MattDamon.png', 'Im_LeonardoDiCaprio.png'],diff,1,0.42492560000391677,5,97.61904761904762,
SEMY0204,15,inv,90,pos90_id14_im16.bmp_pos90_id21_im16.bmp,['Im_KeanuReeves.png', 'Im_BradPitt.png', 'Im_DanielRadcliffe.png', 'Im_GeorgeClooney.png', 'Im_RyanGosling.png', 'Im_OrlandoBloom.png', 'Im_DanielCraig.png', 'Im_RyanReynolds.png', 'Im_MattDamon.png', 'Im_LeonardoDiCaprio.png'],diff,1,0.5832994999946095,6,97.61904761904762,
SEMY0204,15,inv,120,pos120_id20_im3.bmp_pos120_id7_im15.bmp,['Im_KeanuReeves.png', 'Im_BradPitt.png', 'Im_DanielRadcliffe.png', 'Im_GeorgeClooney.png', 'Im_RyanGosling.png', 'Im_OrlandoBloom.png', 'Im_DanielCraig.png', 'Im_RyanReynolds.png', 'Im_MattDamon.png', 'Im_LeonardoDiCaprio.png'],diff,1,0.41669959999853745,7,97.61904761904762,
