Sujet,Trial,Condition,Filter,Imname,Actor0,Actor1,Actor2,Actor3,Actor4,Actor5,Actor6,Actor7,Actor8,Actor9,Answer,Accu,RT,Score,Scoreperc, 
SEMY0204,train,inv,120,pos120_id16_im2.bmp_pos120_id4_im7.bmp,['Im_KeanuReeves.png', 'Im_RyanReynolds.png', 'Im_OrlandoBloom.png', 'Im_MattDamon.png', 'Im_GeorgeClooney.png', 'Im_DanielCraig.png', 'Im_DanielRadcliffe.png', 'Im_RyanGosling.png', 'Im_BradPitt.png', 'Im_LeonardoDiCaprio.png'],diff,1,2.166706999996677,1,0,
SEMY0204,train,inv,60,pos60_id11_im1.bmp_pos60_id11_im2.bmp,['Im_KeanuReeves.png', 'Im_RyanReynolds.png', 'Im_OrlandoBloom.png', 'Im_MattDamon.png', 'Im_GeorgeClooney.png', 'Im_DanielCraig.png', 'Im_DanielRadcliffe.png', 'Im_RyanGosling.png', 'Im_BradPitt.png', 'Im_LeonardoDiCaprio.png'],diff,0,2.3583178000117186,1,0,
SEMY0204,train,inv,150,pos150_id14_im16.bmp_pos150_id14_im24.bmp,['Im_KeanuReeves.png', 'Im_RyanReynolds.png', 'Im_OrlandoBloom.png', 'Im_MattDamon.png', 'Im_GeorgeClooney.png', 'Im_DanielCraig.png', 'Im_DanielRadcliffe.png', 'Im_RyanGosling.png', 'Im_BradPitt.png', 'Im_LeonardoDiCaprio.png'],same,1,0.541767599992454,2,0,
SEMY0204,train,inv,90,pos90_id14_im16.bmp_pos90_id14_im24.bmp,['Im_KeanuReeves.png', 'Im_RyanReynolds.png', 'Im_OrlandoBloom.png', 'Im_MattDamon.png', 'Im_GeorgeClooney.png', 'Im_DanielCraig.png', 'Im_DanielRadcliffe.png', 'Im_RyanGosling.png', 'Im_BradPitt.png', 'Im_LeonardoDiCaprio.png'],same,1,1.316741299990099,3,0,
SEMY0204,train,inv,30,pos30_id11_im1.bmp_pos30_id3_im17.bmp,['Im_KeanuReeves.png', 'Im_RyanReynolds.png', 'Im_OrlandoBloom.png', 'Im_MattDamon.png', 'Im_GeorgeClooney.png', 'Im_DanielCraig.png', 'Im_DanielRadcliffe.png', 'Im_RyanGosling.png', 'Im_BradPitt.png', 'Im_LeonardoDiCaprio.png'],diff,1,0.5333433999912813,4,0,
SEMY0204,train,inv,fs,posfs_id20_im12.bmp_posfs_id20_im3.bmp,['Im_KeanuReeves.png', 'Im_RyanReynolds.png', 'Im_OrlandoBloom.png', 'Im_MattDamon.png', 'Im_GeorgeClooney.png', 'Im_DanielCraig.png', 'Im_DanielRadcliffe.png', 'Im_RyanGosling.png', 'Im_BradPitt.png', 'Im_LeonardoDiCaprio.png'],same,1,0.8167362999811303,5,0,
SEMY0204,train,inv,0,pos0_id16_im3.bmp_pos0_id16_im2.bmp,['Im_KeanuReeves.png', 'Im_RyanReynolds.png', 'Im_OrlandoBloom.png', 'Im_MattDamon.png', 'Im_GeorgeClooney.png', 'Im_DanielCraig.png', 'Im_DanielRadcliffe.png', 'Im_RyanGosling.png', 'Im_BradPitt.png', 'Im_LeonardoDiCaprio.png'],none,1,4.416739899985259,5,0,
SEMY0204,train,inv,120,pos120_id4_im15.bmp_pos120_id4_im7.bmp,['Im_KeanuReeves.png', 'Im_RyanReynolds.png', 'Im_OrlandoBloom.png', 'Im_MattDamon.png', 'Im_GeorgeClooney.png', 'Im_DanielCraig.png', 'Im_DanielRadcliffe.png', 'Im_RyanGosling.png', 'Im_BradPitt.png', 'Im_LeonardoDiCaprio.png'],same,1,1.7502677000011317,6,0,
SEMY0204,train,inv,90,pos90_id5_im1.bmp_pos90_id11_im1.bmp,['Im_KeanuReeves.png', 'Im_RyanReynolds.png', 'Im_OrlandoBloom.png', 'Im_MattDamon.png', 'Im_GeorgeClooney.png', 'Im_DanielCraig.png', 'Im_DanielRadcliffe.png', 'Im_RyanGosling.png', 'Im_BradPitt.png', 'Im_LeonardoDiCaprio.png'],diff,1,1.7336853999877349,7,0,
SEMY0204,train,inv,0,pos0_id13_im15.bmp_pos0_id20_im12.bmp,['Im_KeanuReeves.png', 'Im_RyanReynolds.png', 'Im_OrlandoBloom.png', 'Im_MattDamon.png', 'Im_GeorgeClooney.png', 'Im_DanielCraig.png', 'Im_DanielRadcliffe.png', 'Im_RyanGosling.png', 'Im_BradPitt.png', 'Im_LeonardoDiCaprio.png'],diff,1,0.7833273999858648,8,0,
SEMY0204,train,inv,150,pos150_id4_im15.bmp_pos150_id4_im7.bmp,['Im_KeanuReeves.png', 'Im_RyanReynolds.png', 'Im_OrlandoBloom.png', 'Im_MattDamon.png', 'Im_GeorgeClooney.png', 'Im_DanielCraig.png', 'Im_DanielRadcliffe.png', 'Im_RyanGosling.png', 'Im_BradPitt.png', 'Im_LeonardoDiCaprio.png'],same,1,1.5502868999901693,9,0,
SEMY0204,train,inv,30,pos30_id14_im16.bmp_pos30_id21_im16.bmp,['Im_KeanuReeves.png', 'Im_RyanReynolds.png', 'Im_OrlandoBloom.png', 'Im_MattDamon.png', 'Im_GeorgeClooney.png', 'Im_DanielCraig.png', 'Im_DanielRadcliffe.png', 'Im_RyanGosling.png', 'Im_BradPitt.png', 'Im_LeonardoDiCaprio.png'],diff,1,0.4333444999938365,10,0,
SEMY0204,train,inv,60,pos60_id7_im14.bmp_pos60_id7_im15.bmp,['Im_KeanuReeves.png', 'Im_RyanReynolds.png', 'Im_OrlandoBloom.png', 'Im_MattDamon.png', 'Im_GeorgeClooney.png', 'Im_DanielCraig.png', 'Im_DanielRadcliffe.png', 'Im_RyanGosling.png', 'Im_BradPitt.png', 'Im_LeonardoDiCaprio.png'],same,1,0.9250697999959812,11,0,
SEMY0204,train,inv,fs,posfs_id11_im1.bmp_posfs_id3_im17.bmp,['Im_KeanuReeves.png', 'Im_RyanReynolds.png', 'Im_OrlandoBloom.png', 'Im_MattDamon.png', 'Im_GeorgeClooney.png', 'Im_DanielCraig.png', 'Im_DanielRadcliffe.png', 'Im_RyanGosling.png', 'Im_BradPitt.png', 'Im_LeonardoDiCaprio.png'],diff,1,0.4165482000098564,12,0,
SEMY0204,train,pos,fs,posfs_id4_im7.bmp_posfs_id16_im2.bmp,['Im_KeanuReeves.png', 'Im_RyanReynolds.png', 'Im_OrlandoBloom.png', 'Im_MattDamon.png', 'Im_GeorgeClooney.png', 'Im_DanielCraig.png', 'Im_DanielRadcliffe.png', 'Im_RyanGosling.png', 'Im_BradPitt.png', 'Im_LeonardoDiCaprio.png'],diff,1,0.458193400001619,13,0,
SEMY0204,train,pos,60,pos60_id4_im7.bmp_pos60_id4_im20.bmp,['Im_KeanuReeves.png', 'Im_RyanReynolds.png', 'Im_OrlandoBloom.png', 'Im_MattDamon.png', 'Im_GeorgeClooney.png', 'Im_DanielCraig.png', 'Im_DanielRadcliffe.png', 'Im_RyanGosling.png', 'Im_BradPitt.png', 'Im_LeonardoDiCaprio.png'],same,1,0.4168076000059955,14,0,
SEMY0204,train,pos,30,pos30_id21_im16.bmp_pos30_id21_im22.bmp,['Im_KeanuReeves.png', 'Im_RyanReynolds.png', 'Im_OrlandoBloom.png', 'Im_MattDamon.png', 'Im_GeorgeClooney.png', 'Im_DanielCraig.png', 'Im_DanielRadcliffe.png', 'Im_RyanGosling.png', 'Im_BradPitt.png', 'Im_LeonardoDiCaprio.png'],same,1,0.40838469998561777,15,0,
SEMY0204,train,pos,120,pos120_id20_im12.bmp_pos120_id4_im15.bmp,['Im_KeanuReeves.png', 'Im_RyanReynolds.png', 'Im_OrlandoBloom.png', 'Im_MattDamon.png', 'Im_GeorgeClooney.png', 'Im_DanielCraig.png', 'Im_DanielRadcliffe.png', 'Im_RyanGosling.png', 'Im_BradPitt.png', 'Im_LeonardoDiCaprio.png'],diff,1,0.9414413000049535,16,0,
SEMY0204,train,pos,fs,posfs_id16_im3.bmp_posfs_id16_im2.bmp,['Im_KeanuReeves.png', 'Im_RyanReynolds.png', 'Im_OrlandoBloom.png', 'Im_MattDamon.png', 'Im_GeorgeClooney.png', 'Im_DanielCraig.png', 'Im_DanielRadcliffe.png', 'Im_RyanGosling.png', 'Im_BradPitt.png', 'Im_LeonardoDiCaprio.png'],same,1,0.40841630002250895,17,0,
SEMY0204,train,pos,90,pos90_id4_im20.bmp_pos90_id4_im7.bmp,['Im_KeanuReeves.png', 'Im_RyanReynolds.png', 'Im_OrlandoBloom.png', 'Im_MattDamon.png', 'Im_GeorgeClooney.png', 'Im_DanielCraig.png', 'Im_DanielRadcliffe.png', 'Im_RyanGosling.png', 'Im_BradPitt.png', 'Im_LeonardoDiCaprio.png'],same,1,0.5830337000079453,18,0,
SEMY0204,train,pos,0,pos0_id21_im16.bmp_pos0_id7_im15.bmp,['Im_KeanuReeves.png', 'Im_RyanReynolds.png', 'Im_OrlandoBloom.png', 'Im_MattDamon.png', 'Im_GeorgeClooney.png', 'Im_DanielCraig.png', 'Im_DanielRadcliffe.png', 'Im_RyanGosling.png', 'Im_BradPitt.png', 'Im_LeonardoDiCaprio.png'],diff,1,0.4167491999978665,19,0,
SEMY0204,train,pos,30,pos30_id13_im10.bmp_pos30_id20_im30.bmp,['Im_KeanuReeves.png', 'Im_RyanReynolds.png', 'Im_OrlandoBloom.png', 'Im_MattDamon.png', 'Im_GeorgeClooney.png', 'Im_DanielCraig.png', 'Im_DanielRadcliffe.png', 'Im_RyanGosling.png', 'Im_BradPitt.png', 'Im_LeonardoDiCaprio.png'],diff,1,0.7919155000126921,20,0,
SEMY0204,train,pos,150,pos150_id14_im16.bmp_pos150_id21_im16.bmp,['Im_KeanuReeves.png', 'Im_RyanReynolds.png', 'Im_OrlandoBloom.png', 'Im_MattDamon.png', 'Im_GeorgeClooney.png', 'Im_DanielCraig.png', 'Im_DanielRadcliffe.png', 'Im_RyanGosling.png', 'Im_BradPitt.png', 'Im_LeonardoDiCaprio.png'],diff,1,0.9167459000018425,21,0,
SEMY0204,train,pos,0,pos0_id11_im1.bmp_pos0_id3_im17.bmp,['Im_KeanuReeves.png', 'Im_RyanReynolds.png', 'Im_OrlandoBloom.png', 'Im_MattDamon.png', 'Im_GeorgeClooney.png', 'Im_DanielCraig.png', 'Im_DanielRadcliffe.png', 'Im_RyanGosling.png', 'Im_BradPitt.png', 'Im_LeonardoDiCaprio.png'],diff,1,0.4167334999947343,22,0,
SEMY0204,train,pos,90,pos90_id21_im17.bmp_pos90_id5_im20.bmp,['Im_KeanuReeves.png', 'Im_RyanReynolds.png', 'Im_OrlandoBloom.png', 'Im_MattDamon.png', 'Im_GeorgeClooney.png', 'Im_DanielCraig.png', 'Im_DanielRadcliffe.png', 'Im_RyanGosling.png', 'Im_BradPitt.png', 'Im_LeonardoDiCaprio.png'],diff,1,0.6835767999873497,23,0,
SEMY0204,train,pos,60,pos60_id20_im3.bmp_pos60_id20_im30.bmp,['Im_KeanuReeves.png', 'Im_RyanReynolds.png', 'Im_OrlandoBloom.png', 'Im_MattDamon.png', 'Im_GeorgeClooney.png', 'Im_DanielCraig.png', 'Im_DanielRadcliffe.png', 'Im_RyanGosling.png', 'Im_BradPitt.png', 'Im_LeonardoDiCaprio.png'],same,1,0.4085375999857206,24,0,
SEMY0204,train,pos,120,pos120_id20_im3.bmp_pos120_id20_im12.bmp,['Im_KeanuReeves.png', 'Im_RyanReynolds.png', 'Im_OrlandoBloom.png', 'Im_MattDamon.png', 'Im_GeorgeClooney.png', 'Im_DanielCraig.png', 'Im_DanielRadcliffe.png', 'Im_RyanGosling.png', 'Im_BradPitt.png', 'Im_LeonardoDiCaprio.png'],same,1,0.5581649000232574,25,0,
SEMY0204,train,pos,150,pos150_id14_im24.bmp_pos150_id7_im14.bmp,['Im_KeanuReeves.png', 'Im_RyanReynolds.png', 'Im_OrlandoBloom.png', 'Im_MattDamon.png', 'Im_GeorgeClooney.png', 'Im_DanielCraig.png', 'Im_DanielRadcliffe.png', 'Im_RyanGosling.png', 'Im_BradPitt.png', 'Im_LeonardoDiCaprio.png'],diff,1,0.49159489999874495,26,0,
SEMY0204,train,neg,120,neg120_id16_im3.bmp_neg120_id4_im7.bmp,['Im_KeanuReeves.png', 'Im_RyanReynolds.png', 'Im_OrlandoBloom.png', 'Im_MattDamon.png', 'Im_GeorgeClooney.png', 'Im_DanielCraig.png', 'Im_DanielRadcliffe.png', 'Im_RyanGosling.png', 'Im_BradPitt.png', 'Im_LeonardoDiCaprio.png'],diff,1,1.3335414999746718,27,0,
SEMY0204,train,neg,60,neg60_id5_im10.bmp_neg60_id5_im1.bmp,['Im_KeanuReeves.png', 'Im_RyanReynolds.png', 'Im_OrlandoBloom.png', 'Im_MattDamon.png', 'Im_GeorgeClooney.png', 'Im_DanielCraig.png', 'Im_DanielRadcliffe.png', 'Im_RyanGosling.png', 'Im_BradPitt.png', 'Im_LeonardoDiCaprio.png'],same,1,0.7000552000245079,28,0,
SEMY0204,train,neg,fs,negfs_id16_im2.bmp_negfs_id11_im10.bmp,['Im_KeanuReeves.png', 'Im_RyanReynolds.png', 'Im_OrlandoBloom.png', 'Im_MattDamon.png', 'Im_GeorgeClooney.png', 'Im_DanielCraig.png', 'Im_DanielRadcliffe.png', 'Im_RyanGosling.png', 'Im_BradPitt.png', 'Im_LeonardoDiCaprio.png'],diff,1,0.43340060001355596,29,0,
SEMY0204,train,neg,0,neg0_id4_im7.bmp_neg0_id4_im20.bmp,['Im_KeanuReeves.png', 'Im_RyanReynolds.png', 'Im_OrlandoBloom.png', 'Im_MattDamon.png', 'Im_GeorgeClooney.png', 'Im_DanielCraig.png', 'Im_DanielRadcliffe.png', 'Im_RyanGosling.png', 'Im_BradPitt.png', 'Im_LeonardoDiCaprio.png'],same,1,0.9003247000218835,30,0,
SEMY0204,train,neg,0,neg0_id21_im16.bmp_neg0_id21_im22.bmp,['Im_KeanuReeves.png', 'Im_RyanReynolds.png', 'Im_OrlandoBloom.png', 'Im_MattDamon.png', 'Im_GeorgeClooney.png', 'Im_DanielCraig.png', 'Im_DanielRadcliffe.png', 'Im_RyanGosling.png', 'Im_BradPitt.png', 'Im_LeonardoDiCaprio.png'],same,1,0.43348920001881197,31,0,
SEMY0204,train,neg,150,neg150_id13_im10.bmp_neg150_id13_im29.bmp,['Im_KeanuReeves.png', 'Im_RyanReynolds.png', 'Im_OrlandoBloom.png', 'Im_MattDamon.png', 'Im_GeorgeClooney.png', 'Im_DanielCraig.png', 'Im_DanielRadcliffe.png', 'Im_RyanGosling.png', 'Im_BradPitt.png', 'Im_LeonardoDiCaprio.png'],diff,0,0.6499885999946855,31,0,
SEMY0204,train,neg,fs,negfs_id14_im18.bmp_negfs_id14_im24.bmp,['Im_KeanuReeves.png', 'Im_RyanReynolds.png', 'Im_OrlandoBloom.png', 'Im_MattDamon.png', 'Im_GeorgeClooney.png', 'Im_DanielCraig.png', 'Im_DanielRadcliffe.png', 'Im_RyanGosling.png', 'Im_BradPitt.png', 'Im_LeonardoDiCaprio.png'],same,1,0.5002067000023089,32,0,
SEMY0204,train,neg,90,neg90_id14_im16.bmp_neg90_id5_im20.bmp,['Im_KeanuReeves.png', 'Im_RyanReynolds.png', 'Im_OrlandoBloom.png', 'Im_MattDamon.png', 'Im_GeorgeClooney.png', 'Im_DanielCraig.png', 'Im_DanielRadcliffe.png', 'Im_RyanGosling.png', 'Im_BradPitt.png', 'Im_LeonardoDiCaprio.png'],diff,1,0.7001537999894936,33,0,
SEMY0204,train,neg,120,neg120_id13_im29.bmp_neg120_id11_im2.bmp,['Im_KeanuReeves.png', 'Im_RyanReynolds.png', 'Im_OrlandoBloom.png', 'Im_MattDamon.png', 'Im_GeorgeClooney.png', 'Im_DanielCraig.png', 'Im_DanielRadcliffe.png', 'Im_RyanGosling.png', 'Im_BradPitt.png', 'Im_LeonardoDiCaprio.png'],diff,1,0.6164733999758027,34,0,
SEMY0204,train,neg,30,neg30_id5_im20.bmp_neg30_id14_im16.bmp,['Im_KeanuReeves.png', 'Im_RyanReynolds.png', 'Im_OrlandoBloom.png', 'Im_MattDamon.png', 'Im_GeorgeClooney.png', 'Im_DanielCraig.png', 'Im_DanielRadcliffe.png', 'Im_RyanGosling.png', 'Im_BradPitt.png', 'Im_LeonardoDiCaprio.png'],diff,1,0.4833758999884594,35,0,
SEMY0204,train,neg,30,neg30_id11_im10.bmp_neg30_id3_im6.bmp,['Im_KeanuReeves.png', 'Im_RyanReynolds.png', 'Im_OrlandoBloom.png', 'Im_MattDamon.png', 'Im_GeorgeClooney.png', 'Im_DanielCraig.png', 'Im_DanielRadcliffe.png', 'Im_RyanGosling.png', 'Im_BradPitt.png', 'Im_LeonardoDiCaprio.png'],diff,1,0.5248017000267282,36,0,
SEMY0204,train,neg,150,neg150_id3_im8.bmp_neg150_id16_im19.bmp,['Im_KeanuReeves.png', 'Im_RyanReynolds.png', 'Im_OrlandoBloom.png', 'Im_MattDamon.png', 'Im_GeorgeClooney.png', 'Im_DanielCraig.png', 'Im_DanielRadcliffe.png', 'Im_RyanGosling.png', 'Im_BradPitt.png', 'Im_LeonardoDiCaprio.png'],diff,1,0.5169243999989703,37,0,
SEMY0204,train,neg,90,neg90_id16_im3.bmp_neg90_id4_im7.bmp,['Im_KeanuReeves.png', 'Im_RyanReynolds.png', 'Im_OrlandoBloom.png', 'Im_MattDamon.png', 'Im_GeorgeClooney.png', 'Im_DanielCraig.png', 'Im_DanielRadcliffe.png', 'Im_RyanGosling.png', 'Im_BradPitt.png', 'Im_LeonardoDiCaprio.png'],diff,1,0.6336093000136316,38,0,
SEMY0204,train,neg,60,neg60_id21_im16.bmp_neg60_id7_im15.bmp,['Im_KeanuReeves.png', 'Im_RyanReynolds.png', 'Im_OrlandoBloom.png', 'Im_MattDamon.png', 'Im_GeorgeClooney.png', 'Im_DanielCraig.png', 'Im_DanielRadcliffe.png', 'Im_RyanGosling.png', 'Im_BradPitt.png', 'Im_LeonardoDiCaprio.png'],diff,1,0.416651700012153,39,0,
SEMY0204,train,inv,150,pos150_id4_im15.bmp_pos150_id20_im12.bmp,['Im_KeanuReeves.png', 'Im_RyanReynolds.png', 'Im_OrlandoBloom.png', 'Im_MattDamon.png', 'Im_GeorgeClooney.png', 'Im_DanielCraig.png', 'Im_DanielRadcliffe.png', 'Im_RyanGosling.png', 'Im_BradPitt.png', 'Im_LeonardoDiCaprio.png'],diff,1,1.3002511999802664,1,92.85714285714286,
SEMY0204,train,inv,120,pos120_id5_im20.bmp_pos120_id14_im16.bmp,['Im_KeanuReeves.png', 'Im_RyanReynolds.png', 'Im_OrlandoBloom.png', 'Im_MattDamon.png', 'Im_GeorgeClooney.png', 'Im_DanielCraig.png', 'Im_DanielRadcliffe.png', 'Im_RyanGosling.png', 'Im_BradPitt.png', 'Im_LeonardoDiCaprio.png'],diff,1,0.7250404999940656,2,92.85714285714286,
SEMY0204,train,inv,90,pos90_id16_im19.bmp_pos90_id16_im2.bmp,['Im_KeanuReeves.png', 'Im_RyanReynolds.png', 'Im_OrlandoBloom.png', 'Im_MattDamon.png', 'Im_GeorgeClooney.png', 'Im_DanielCraig.png', 'Im_DanielRadcliffe.png', 'Im_RyanGosling.png', 'Im_BradPitt.png', 'Im_LeonardoDiCaprio.png'],same,1,0.6335706999816466,3,92.85714285714286,
SEMY0204,train,inv,60,pos60_id21_im16.bmp_pos60_id7_im15.bmp,['Im_KeanuReeves.png', 'Im_RyanReynolds.png', 'Im_OrlandoBloom.png', 'Im_MattDamon.png', 'Im_GeorgeClooney.png', 'Im_DanielCraig.png', 'Im_DanielRadcliffe.png', 'Im_RyanGosling.png', 'Im_BradPitt.png', 'Im_LeonardoDiCaprio.png'],diff,1,1.2668802000116557,4,92.85714285714286,
SEMY0204,train,inv,60,pos60_id7_im15.bmp_pos60_id7_im26.bmp,['Im_KeanuReeves.png', 'Im_RyanReynolds.png', 'Im_OrlandoBloom.png', 'Im_MattDamon.png', 'Im_GeorgeClooney.png', 'Im_DanielCraig.png', 'Im_DanielRadcliffe.png', 'Im_RyanGosling.png', 'Im_BradPitt.png', 'Im_LeonardoDiCaprio.png'],diff,0,0.40822780001326464,4,92.85714285714286,
SEMY0204,train,inv,150,pos150_id14_im16.bmp_pos150_id21_im16.bmp,['Im_KeanuReeves.png', 'Im_RyanReynolds.png', 'Im_OrlandoBloom.png', 'Im_MattDamon.png', 'Im_GeorgeClooney.png', 'Im_DanielCraig.png', 'Im_DanielRadcliffe.png', 'Im_RyanGosling.png', 'Im_BradPitt.png', 'Im_LeonardoDiCaprio.png'],diff,1,2.133197499992093,5,92.85714285714286,
SEMY0204,train,inv,fs,posfs_id21_im17.bmp_posfs_id5_im20.bmp,['Im_KeanuReeves.png', 'Im_RyanReynolds.png', 'Im_OrlandoBloom.png', 'Im_MattDamon.png', 'Im_GeorgeClooney.png', 'Im_DanielCraig.png', 'Im_DanielRadcliffe.png', 'Im_RyanGosling.png', 'Im_BradPitt.png', 'Im_LeonardoDiCaprio.png'],diff,1,0.4334662999899592,6,92.85714285714286,
SEMY0204,train,inv,120,pos120_id20_im3.bmp_pos120_id20_im30.bmp,['Im_KeanuReeves.png', 'Im_RyanReynolds.png', 'Im_OrlandoBloom.png', 'Im_MattDamon.png', 'Im_GeorgeClooney.png', 'Im_DanielCraig.png', 'Im_DanielRadcliffe.png', 'Im_RyanGosling.png', 'Im_BradPitt.png', 'Im_LeonardoDiCaprio.png'],same,1,0.6835037999844644,7,92.85714285714286,
SEMY0204,train,inv,30,pos30_id21_im17.bmp_pos30_id21_im16.bmp,['Im_KeanuReeves.png', 'Im_RyanReynolds.png', 'Im_OrlandoBloom.png', 'Im_MattDamon.png', 'Im_GeorgeClooney.png', 'Im_DanielCraig.png', 'Im_DanielRadcliffe.png', 'Im_RyanGosling.png', 'Im_BradPitt.png', 'Im_LeonardoDiCaprio.png'],same,1,0.4166665999800898,8,92.85714285714286,
SEMY0204,train,inv,fs,posfs_id4_im7.bmp_posfs_id16_im2.bmp,['Im_KeanuReeves.png', 'Im_RyanReynolds.png', 'Im_OrlandoBloom.png', 'Im_MattDamon.png', 'Im_GeorgeClooney.png', 'Im_DanielCraig.png', 'Im_DanielRadcliffe.png', 'Im_RyanGosling.png', 'Im_BradPitt.png', 'Im_LeonardoDiCaprio.png'],diff,1,0.508402900013607,9,92.85714285714286,
SEMY0204,train,inv,0,pos0_id20_im12.bmp_pos0_id4_im15.bmp,['Im_KeanuReeves.png', 'Im_RyanReynolds.png', 'Im_OrlandoBloom.png', 'Im_MattDamon.png', 'Im_GeorgeClooney.png', 'Im_DanielCraig.png', 'Im_DanielRadcliffe.png', 'Im_RyanGosling.png', 'Im_BradPitt.png', 'Im_LeonardoDiCaprio.png'],diff,1,0.533205400017323,10,92.85714285714286,
SEMY0204,train,inv,30,pos30_id3_im8.bmp_pos30_id3_im17.bmp,['Im_KeanuReeves.png', 'Im_RyanReynolds.png', 'Im_OrlandoBloom.png', 'Im_MattDamon.png', 'Im_GeorgeClooney.png', 'Im_DanielCraig.png', 'Im_DanielRadcliffe.png', 'Im_RyanGosling.png', 'Im_BradPitt.png', 'Im_LeonardoDiCaprio.png'],diff,0,0.6500947999884374,10,92.85714285714286,
SEMY0204,train,inv,0,pos0_id3_im8.bmp_pos0_id7_im26.bmp,['Im_KeanuReeves.png', 'Im_RyanReynolds.png', 'Im_OrlandoBloom.png', 'Im_MattDamon.png', 'Im_GeorgeClooney.png', 'Im_DanielCraig.png', 'Im_DanielRadcliffe.png', 'Im_RyanGosling.png', 'Im_BradPitt.png', 'Im_LeonardoDiCaprio.png'],diff,1,0.6083169000048656,11,92.85714285714286,
SEMY0204,train,inv,90,pos90_id4_im7.bmp_pos90_id16_im3.bmp,['Im_KeanuReeves.png', 'Im_RyanReynolds.png', 'Im_OrlandoBloom.png', 'Im_MattDamon.png', 'Im_GeorgeClooney.png', 'Im_DanielCraig.png', 'Im_DanielRadcliffe.png', 'Im_RyanGosling.png', 'Im_BradPitt.png', 'Im_LeonardoDiCaprio.png'],diff,1,0.6583268999820575,12,92.85714285714286,
SEMY0204,train,neg,120,neg120_id11_im10.bmp_neg120_id11_im1.bmp,['Im_KeanuReeves.png', 'Im_RyanReynolds.png', 'Im_OrlandoBloom.png', 'Im_MattDamon.png', 'Im_GeorgeClooney.png', 'Im_DanielCraig.png', 'Im_DanielRadcliffe.png', 'Im_RyanGosling.png', 'Im_BradPitt.png', 'Im_LeonardoDiCaprio.png'],diff,0,0.741622900008224,12,92.85714285714286,
SEMY0204,train,neg,0,neg0_id16_im19.bmp_neg0_id13_im15.bmp,['Im_KeanuReeves.png', 'Im_RyanReynolds.png', 'Im_OrlandoBloom.png', 'Im_MattDamon.png', 'Im_GeorgeClooney.png', 'Im_DanielCraig.png', 'Im_DanielRadcliffe.png', 'Im_RyanGosling.png', 'Im_BradPitt.png', 'Im_LeonardoDiCaprio.png'],diff,1,0.5001142999972217,13,92.85714285714286,
SEMY0204,train,neg,150,neg150_id13_im29.bmp_neg150_id3_im17.bmp,['Im_KeanuReeves.png', 'Im_RyanReynolds.png', 'Im_OrlandoBloom.png', 'Im_MattDamon.png', 'Im_GeorgeClooney.png', 'Im_DanielCraig.png', 'Im_DanielRadcliffe.png', 'Im_RyanGosling.png', 'Im_BradPitt.png', 'Im_LeonardoDiCaprio.png'],diff,1,1.2002497000212315,14,92.85714285714286,
SEMY0204,train,neg,90,neg90_id21_im16.bmp_neg90_id21_im22.bmp,['Im_KeanuReeves.png', 'Im_RyanReynolds.png', 'Im_OrlandoBloom.png', 'Im_MattDamon.png', 'Im_GeorgeClooney.png', 'Im_DanielCraig.png', 'Im_DanielRadcliffe.png', 'Im_RyanGosling.png', 'Im_BradPitt.png', 'Im_LeonardoDiCaprio.png'],same,1,1.6997612999984995,15,92.85714285714286,
SEMY0204,train,neg,120,neg120_id4_im7.bmp_neg120_id4_im15.bmp,['Im_KeanuReeves.png', 'Im_RyanReynolds.png', 'Im_OrlandoBloom.png', 'Im_MattDamon.png', 'Im_GeorgeClooney.png', 'Im_DanielCraig.png', 'Im_DanielRadcliffe.png', 'Im_RyanGosling.png', 'Im_BradPitt.png', 'Im_LeonardoDiCaprio.png'],same,1,0.4083643000049051,16,92.85714285714286,
SEMY0204,train,neg,60,neg60_id20_im12.bmp_neg60_id20_im3.bmp,['Im_KeanuReeves.png', 'Im_RyanReynolds.png', 'Im_OrlandoBloom.png', 'Im_MattDamon.png', 'Im_GeorgeClooney.png', 'Im_DanielCraig.png', 'Im_DanielRadcliffe.png', 'Im_RyanGosling.png', 'Im_BradPitt.png', 'Im_LeonardoDiCaprio.png'],same,1,0.41669750001165085,17,92.85714285714286,
SEMY0204,train,neg,60,neg60_id3_im17.bmp_neg60_id3_im8.bmp,['Im_KeanuReeves.png', 'Im_RyanReynolds.png', 'Im_OrlandoBloom.png', 'Im_MattDamon.png', 'Im_GeorgeClooney.png', 'Im_DanielCraig.png', 'Im_DanielRadcliffe.png', 'Im_RyanGosling.png', 'Im_BradPitt.png', 'Im_LeonardoDiCaprio.png'],same,1,0.5584248999948613,18,92.85714285714286,
SEMY0204,train,neg,fs,negfs_id16_im3.bmp_negfs_id3_im6.bmp,['Im_KeanuReeves.png', 'Im_RyanReynolds.png', 'Im_OrlandoBloom.png', 'Im_MattDamon.png', 'Im_GeorgeClooney.png', 'Im_DanielCraig.png', 'Im_DanielRadcliffe.png', 'Im_RyanGosling.png', 'Im_BradPitt.png', 'Im_LeonardoDiCaprio.png'],diff,1,0.5916937000001781,19,92.85714285714286,
SEMY0204,train,neg,0,neg0_id16_im2.bmp_neg0_id4_im7.bmp,['Im_KeanuReeves.png', 'Im_RyanReynolds.png', 'Im_OrlandoBloom.png', 'Im_MattDamon.png', 'Im_GeorgeClooney.png', 'Im_DanielCraig.png', 'Im_DanielRadcliffe.png', 'Im_RyanGosling.png', 'Im_BradPitt.png', 'Im_LeonardoDiCaprio.png'],diff,1,0.4253619999799412,20,92.85714285714286,
SEMY0204,train,neg,90,neg90_id4_im7.bmp_neg90_id4_im15.bmp,['Im_KeanuReeves.png', 'Im_RyanReynolds.png', 'Im_OrlandoBloom.png', 'Im_MattDamon.png', 'Im_GeorgeClooney.png', 'Im_DanielCraig.png', 'Im_DanielRadcliffe.png', 'Im_RyanGosling.png', 'Im_BradPitt.png', 'Im_LeonardoDiCaprio.png'],same,1,0.42524609999964014,21,92.85714285714286,
SEMY0204,train,neg,150,neg150_id16_im3.bmp_neg150_id3_im6.bmp,['Im_KeanuReeves.png', 'Im_RyanReynolds.png', 'Im_OrlandoBloom.png', 'Im_MattDamon.png', 'Im_GeorgeClooney.png', 'Im_DanielCraig.png', 'Im_DanielRadcliffe.png', 'Im_RyanGosling.png', 'Im_BradPitt.png', 'Im_LeonardoDiCaprio.png'],diff,1,0.5083609000139404,22,92.85714285714286,
SEMY0204,train,neg,30,neg30_id4_im20.bmp_neg30_id4_im7.bmp,['Im_KeanuReeves.png', 'Im_RyanReynolds.png', 'Im_OrlandoBloom.png', 'Im_MattDamon.png', 'Im_GeorgeClooney.png', 'Im_DanielCraig.png', 'Im_DanielRadcliffe.png', 'Im_RyanGosling.png', 'Im_BradPitt.png', 'Im_LeonardoDiCaprio.png'],same,1,0.45818630000576377,23,92.85714285714286,
SEMY0204,train,neg,fs,negfs_id3_im8.bmp_negfs_id3_im17.bmp,['Im_KeanuReeves.png', 'Im_RyanReynolds.png', 'Im_OrlandoBloom.png', 'Im_MattDamon.png', 'Im_GeorgeClooney.png', 'Im_DanielCraig.png', 'Im_DanielRadcliffe.png', 'Im_RyanGosling.png', 'Im_BradPitt.png', 'Im_LeonardoDiCaprio.png'],same,1,0.5002493999782018,24,92.85714285714286,
SEMY0204,train,neg,30,neg30_id20_im3.bmp_neg30_id20_im30.bmp,['Im_KeanuReeves.png', 'Im_RyanReynolds.png', 'Im_OrlandoBloom.png', 'Im_MattDamon.png', 'Im_GeorgeClooney.png', 'Im_DanielCraig.png', 'Im_DanielRadcliffe.png', 'Im_RyanGosling.png', 'Im_BradPitt.png', 'Im_LeonardoDiCaprio.png'],same,1,1.7836182999890298,25,92.85714285714286,
SEMY0204,train,pos,fs,posfs_id3_im17.bmp_posfs_id13_im29.bmp,['Im_KeanuReeves.png', 'Im_RyanReynolds.png', 'Im_OrlandoBloom.png', 'Im_MattDamon.png', 'Im_GeorgeClooney.png', 'Im_DanielCraig.png', 'Im_DanielRadcliffe.png', 'Im_RyanGosling.png', 'Im_BradPitt.png', 'Im_LeonardoDiCaprio.png'],diff,1,0.39972909999778494,26,92.85714285714286,
SEMY0204,train,pos,0,pos0_id7_im15.bmp_pos0_id20_im3.bmp,['Im_KeanuReeves.png', 'Im_RyanReynolds.png', 'Im_OrlandoBloom.png', 'Im_MattDamon.png', 'Im_GeorgeClooney.png', 'Im_DanielCraig.png', 'Im_DanielRadcliffe.png', 'Im_RyanGosling.png', 'Im_BradPitt.png', 'Im_LeonardoDiCaprio.png'],diff,1,0.4165465999976732,27,92.85714285714286,
SEMY0204,train,pos,90,pos90_id7_im26.bmp_pos90_id7_im15.bmp,['Im_KeanuReeves.png', 'Im_RyanReynolds.png', 'Im_OrlandoBloom.png', 'Im_MattDamon.png', 'Im_GeorgeClooney.png', 'Im_DanielCraig.png', 'Im_DanielRadcliffe.png', 'Im_RyanGosling.png', 'Im_BradPitt.png', 'Im_LeonardoDiCaprio.png'],same,1,0.5418730000092182,28,92.85714285714286,
SEMY0204,train,pos,150,pos150_id13_im15.bmp_pos150_id13_im29.bmp,['Im_KeanuReeves.png', 'Im_RyanReynolds.png', 'Im_OrlandoBloom.png', 'Im_MattDamon.png', 'Im_GeorgeClooney.png', 'Im_DanielCraig.png', 'Im_DanielRadcliffe.png', 'Im_RyanGosling.png', 'Im_BradPitt.png', 'Im_LeonardoDiCaprio.png'],diff,0,0.6168839000165462,28,92.85714285714286,
SEMY0204,train,pos,0,pos0_id14_im24.bmp_pos0_id14_im18.bmp,['Im_KeanuReeves.png', 'Im_RyanReynolds.png', 'Im_OrlandoBloom.png', 'Im_MattDamon.png', 'Im_GeorgeClooney.png', 'Im_DanielCraig.png', 'Im_DanielRadcliffe.png', 'Im_RyanGosling.png', 'Im_BradPitt.png', 'Im_LeonardoDiCaprio.png'],diff,0,0.800370799988741,28,92.85714285714286,
SEMY0204,train,pos,120,pos120_id4_im20.bmp_pos120_id4_im15.bmp,['Im_KeanuReeves.png', 'Im_RyanReynolds.png', 'Im_OrlandoBloom.png', 'Im_MattDamon.png', 'Im_GeorgeClooney.png', 'Im_DanielCraig.png', 'Im_DanielRadcliffe.png', 'Im_RyanGosling.png', 'Im_BradPitt.png', 'Im_LeonardoDiCaprio.png'],same,1,0.5082053999940399,29,92.85714285714286,
SEMY0204,train,pos,30,pos30_id20_im12.bmp_pos30_id4_im15.bmp,['Im_KeanuReeves.png', 'Im_RyanReynolds.png', 'Im_OrlandoBloom.png', 'Im_MattDamon.png', 'Im_GeorgeClooney.png', 'Im_DanielCraig.png', 'Im_DanielRadcliffe.png', 'Im_RyanGosling.png', 'Im_BradPitt.png', 'Im_LeonardoDiCaprio.png'],diff,1,0.41670140001224354,30,92.85714285714286,
SEMY0204,train,pos,90,pos90_id11_im1.bmp_pos90_id5_im1.bmp,['Im_KeanuReeves.png', 'Im_RyanReynolds.png', 'Im_OrlandoBloom.png', 'Im_MattDamon.png', 'Im_GeorgeClooney.png', 'Im_DanielCraig.png', 'Im_DanielRadcliffe.png', 'Im_RyanGosling.png', 'Im_BradPitt.png', 'Im_LeonardoDiCaprio.png'],diff,1,0.41672470001503825,31,92.85714285714286,
SEMY0204,train,pos,60,pos60_id11_im10.bmp_pos60_id11_im2.bmp,['Im_KeanuReeves.png', 'Im_RyanReynolds.png', 'Im_OrlandoBloom.png', 'Im_MattDamon.png', 'Im_GeorgeClooney.png', 'Im_DanielCraig.png', 'Im_DanielRadcliffe.png', 'Im_RyanGosling.png', 'Im_BradPitt.png', 'Im_LeonardoDiCaprio.png'],same,1,0.6251472000149079,32,92.85714285714286,
SEMY0204,train,pos,120,pos120_id21_im22.bmp_pos120_id21_im17.bmp,['Im_KeanuReeves.png', 'Im_RyanReynolds.png', 'Im_OrlandoBloom.png', 'Im_MattDamon.png', 'Im_GeorgeClooney.png', 'Im_DanielCraig.png', 'Im_DanielRadcliffe.png', 'Im_RyanGosling.png', 'Im_BradPitt.png', 'Im_LeonardoDiCaprio.png'],same,1,0.4166532999952324,33,92.85714285714286,
SEMY0204,train,pos,150,pos150_id16_im3.bmp_pos150_id3_im6.bmp,['Im_KeanuReeves.png', 'Im_RyanReynolds.png', 'Im_OrlandoBloom.png', 'Im_MattDamon.png', 'Im_GeorgeClooney.png', 'Im_DanielCraig.png', 'Im_DanielRadcliffe.png', 'Im_RyanGosling.png', 'Im_BradPitt.png', 'Im_LeonardoDiCaprio.png'],diff,1,0.7582875000080094,34,92.85714285714286,
SEMY0204,train,pos,fs,posfs_id11_im2.bmp_posfs_id13_im29.bmp,['Im_KeanuReeves.png', 'Im_RyanReynolds.png', 'Im_OrlandoBloom.png', 'Im_MattDamon.png', 'Im_GeorgeClooney.png', 'Im_DanielCraig.png', 'Im_DanielRadcliffe.png', 'Im_RyanGosling.png', 'Im_BradPitt.png', 'Im_LeonardoDiCaprio.png'],diff,1,0.4083874000061769,35,92.85714285714286,
SEMY0204,train,pos,60,pos60_id7_im14.bmp_pos60_id7_im26.bmp,['Im_KeanuReeves.png', 'Im_RyanReynolds.png', 'Im_OrlandoBloom.png', 'Im_MattDamon.png', 'Im_GeorgeClooney.png', 'Im_DanielCraig.png', 'Im_DanielRadcliffe.png', 'Im_RyanGosling.png', 'Im_BradPitt.png', 'Im_LeonardoDiCaprio.png'],same,1,0.4329419999849051,36,92.85714285714286,
SEMY0204,train,pos,30,pos30_id3_im17.bmp_pos30_id13_im29.bmp,['Im_KeanuReeves.png', 'Im_RyanReynolds.png', 'Im_OrlandoBloom.png', 'Im_MattDamon.png', 'Im_GeorgeClooney.png', 'Im_DanielCraig.png', 'Im_DanielRadcliffe.png', 'Im_RyanGosling.png', 'Im_BradPitt.png', 'Im_LeonardoDiCaprio.png'],diff,1,1.1833245999878272,37,92.85714285714286,
SEMY0204,0,inv,fs,posfs_id7_im14.bmp_posfs_id14_im24.bmp,['Im_KeanuReeves.png', 'Im_RyanReynolds.png', 'Im_OrlandoBloom.png', 'Im_MattDamon.png', 'Im_GeorgeClooney.png', 'Im_DanielCraig.png', 'Im_DanielRadcliffe.png', 'Im_RyanGosling.png', 'Im_BradPitt.png', 'Im_LeonardoDiCaprio.png'],diff,1,0.40023920001112856,1,0,
SEMY0204,0,inv,120,pos120_id16_im3.bmp_pos120_id3_im6.bmp,['Im_KeanuReeves.png', 'Im_RyanReynolds.png', 'Im_OrlandoBloom.png', 'Im_MattDamon.png', 'Im_GeorgeClooney.png', 'Im_DanielCraig.png', 'Im_DanielRadcliffe.png', 'Im_RyanGosling.png', 'Im_BradPitt.png', 'Im_LeonardoDiCaprio.png'],diff,1,0.58352789998753,2,0,
SEMY0204,0,inv,0,pos0_id14_im24.bmp_pos0_id14_im18.bmp,['Im_KeanuReeves.png', 'Im_RyanReynolds.png', 'Im_OrlandoBloom.png', 'Im_MattDamon.png', 'Im_GeorgeClooney.png', 'Im_DanielCraig.png', 'Im_DanielRadcliffe.png', 'Im_RyanGosling.png', 'Im_BradPitt.png', 'Im_LeonardoDiCaprio.png'],diff,0,1.0251319000090007,2,0,
SEMY0204,0,inv,30,pos30_id4_im7.bmp_pos30_id4_im15.bmp,['Im_KeanuReeves.png', 'Im_RyanReynolds.png', 'Im_OrlandoBloom.png', 'Im_MattDamon.png', 'Im_GeorgeClooney.png', 'Im_DanielCraig.png', 'Im_DanielRadcliffe.png', 'Im_RyanGosling.png', 'Im_BradPitt.png', 'Im_LeonardoDiCaprio.png'],same,1,0.44171210000058636,3,0,
SEMY0204,0,inv,60,pos60_id13_im15.bmp_pos60_id13_im29.bmp,['Im_KeanuReeves.png', 'Im_RyanReynolds.png', 'Im_OrlandoBloom.png', 'Im_MattDamon.png', 'Im_GeorgeClooney.png', 'Im_DanielCraig.png', 'Im_DanielRadcliffe.png', 'Im_RyanGosling.png', 'Im_BradPitt.png', 'Im_LeonardoDiCaprio.png'],same,1,0.6585553000040818,4,0,
SEMY0204,0,inv,fs,posfs_id3_im6.bmp_posfs_id3_im17.bmp,['Im_KeanuReeves.png', 'Im_RyanReynolds.png', 'Im_OrlandoBloom.png', 'Im_MattDamon.png', 'Im_GeorgeClooney.png', 'Im_DanielCraig.png', 'Im_DanielRadcliffe.png', 'Im_RyanGosling.png', 'Im_BradPitt.png', 'Im_LeonardoDiCaprio.png'],same,1,0.4085440000053495,5,0,
SEMY0204,0,inv,120,pos120_id20_im3.bmp_pos120_id7_im26.bmp,['Im_KeanuReeves.png', 'Im_RyanReynolds.png', 'Im_OrlandoBloom.png', 'Im_MattDamon.png', 'Im_GeorgeClooney.png', 'Im_DanielCraig.png', 'Im_DanielRadcliffe.png', 'Im_RyanGosling.png', 'Im_BradPitt.png', 'Im_LeonardoDiCaprio.png'],diff,1,0.40839289998984896,6,0,
SEMY0204,0,inv,150,pos150_id4_im20.bmp_pos150_id21_im22.bmp,['Im_KeanuReeves.png', 'Im_RyanReynolds.png', 'Im_OrlandoBloom.png', 'Im_MattDamon.png', 'Im_GeorgeClooney.png', 'Im_DanielCraig.png', 'Im_DanielRadcliffe.png', 'Im_RyanGosling.png', 'Im_BradPitt.png', 'Im_LeonardoDiCaprio.png'],diff,1,0.47531519999029115,7,0,
SEMY0204,0,inv,150,pos150_id21_im17.bmp_pos150_id21_im16.bmp,['Im_KeanuReeves.png', 'Im_RyanReynolds.png', 'Im_OrlandoBloom.png', 'Im_MattDamon.png', 'Im_GeorgeClooney.png', 'Im_DanielCraig.png', 'Im_DanielRadcliffe.png', 'Im_RyanGosling.png', 'Im_BradPitt.png', 'Im_LeonardoDiCaprio.png'],same,1,0.4000763999938499,8,0,
SEMY0204,0,inv,0,pos0_id4_im15.bmp_pos0_id5_im1.bmp,['Im_KeanuReeves.png', 'Im_RyanReynolds.png', 'Im_OrlandoBloom.png', 'Im_MattDamon.png', 'Im_GeorgeClooney.png', 'Im_DanielCraig.png', 'Im_DanielRadcliffe.png', 'Im_RyanGosling.png', 'Im_BradPitt.png', 'Im_LeonardoDiCaprio.png'],diff,1,0.40849959998740815,9,0,
SEMY0204,0,inv,90,pos90_id20_im30.bmp_pos90_id13_im10.bmp,['Im_KeanuReeves.png', 'Im_RyanReynolds.png', 'Im_OrlandoBloom.png', 'Im_MattDamon.png', 'Im_GeorgeClooney.png', 'Im_DanielCraig.png', 'Im_DanielRadcliffe.png', 'Im_RyanGosling.png', 'Im_BradPitt.png', 'Im_LeonardoDiCaprio.png'],diff,1,0.6417673999967519,10,0,
SEMY0204,0,inv,60,pos60_id11_im1.bmp_pos60_id3_im17.bmp,['Im_KeanuReeves.png', 'Im_RyanReynolds.png', 'Im_OrlandoBloom.png', 'Im_MattDamon.png', 'Im_GeorgeClooney.png', 'Im_DanielCraig.png', 'Im_DanielRadcliffe.png', 'Im_RyanGosling.png', 'Im_BradPitt.png', 'Im_LeonardoDiCaprio.png'],diff,1,0.40822100001969375,11,0,
SEMY0204,0,inv,90,pos90_id13_im10.bmp_pos90_id14_im18.bmp,['Im_KeanuReeves.png', 'Im_RyanReynolds.png', 'Im_OrlandoBloom.png', 'Im_MattDamon.png', 'Im_GeorgeClooney.png', 'Im_DanielCraig.png', 'Im_DanielRadcliffe.png', 'Im_RyanGosling.png', 'Im_BradPitt.png', 'Im_LeonardoDiCaprio.png'],diff,1,0.483523700007936,12,0,
SEMY0204,0,inv,30,pos30_id5_im10.bmp_pos30_id5_im20.bmp,['Im_KeanuReeves.png', 'Im_RyanReynolds.png', 'Im_OrlandoBloom.png', 'Im_MattDamon.png', 'Im_GeorgeClooney.png', 'Im_DanielCraig.png', 'Im_DanielRadcliffe.png', 'Im_RyanGosling.png', 'Im_BradPitt.png', 'Im_LeonardoDiCaprio.png'],diff,0,0.4002364999905694,12,0,
SEMY0204,1,pos,fs,posfs_id13_im15.bmp_posfs_id16_im19.bmp,['Im_KeanuReeves.png', 'Im_RyanReynolds.png', 'Im_OrlandoBloom.png', 'Im_MattDamon.png', 'Im_GeorgeClooney.png', 'Im_DanielCraig.png', 'Im_DanielRadcliffe.png', 'Im_RyanGosling.png', 'Im_BradPitt.png', 'Im_LeonardoDiCaprio.png'],diff,1,0.47537699999520555,13,0,
SEMY0204,1,pos,30,pos30_id16_im19.bmp_pos30_id16_im2.bmp,['Im_KeanuReeves.png', 'Im_RyanReynolds.png', 'Im_OrlandoBloom.png', 'Im_MattDamon.png', 'Im_GeorgeClooney.png', 'Im_DanielCraig.png', 'Im_DanielRadcliffe.png', 'Im_RyanGosling.png', 'Im_BradPitt.png', 'Im_LeonardoDiCaprio.png'],same,1,0.4170332000066992,14,0,
SEMY0204,1,pos,fs,posfs_id5_im10.bmp_posfs_id5_im20.bmp,['Im_KeanuReeves.png', 'Im_RyanReynolds.png', 'Im_OrlandoBloom.png', 'Im_MattDamon.png', 'Im_GeorgeClooney.png', 'Im_DanielCraig.png', 'Im_DanielRadcliffe.png', 'Im_RyanGosling.png', 'Im_BradPitt.png', 'Im_LeonardoDiCaprio.png'],same,1,0.4167561000213027,15,0,
SEMY0204,1,pos,0,pos0_id13_im10.bmp_pos0_id13_im29.bmp,['Im_KeanuReeves.png', 'Im_RyanReynolds.png', 'Im_OrlandoBloom.png', 'Im_MattDamon.png', 'Im_GeorgeClooney.png', 'Im_DanielCraig.png', 'Im_DanielRadcliffe.png', 'Im_RyanGosling.png', 'Im_BradPitt.png', 'Im_LeonardoDiCaprio.png'],same,1,0.5833279999787919,16,0,
SEMY0204,1,pos,0,pos0_id13_im15.bmp_pos0_id13_im29.bmp,['Im_KeanuReeves.png', 'Im_RyanReynolds.png', 'Im_OrlandoBloom.png', 'Im_MattDamon.png', 'Im_GeorgeClooney.png', 'Im_DanielCraig.png', 'Im_DanielRadcliffe.png', 'Im_RyanGosling.png', 'Im_BradPitt.png', 'Im_LeonardoDiCaprio.png'],same,1,1.4584578000067268,17,0,
SEMY0204,1,pos,60,pos60_id14_im16.bmp_pos60_id14_im18.bmp,['Im_KeanuReeves.png', 'Im_RyanReynolds.png', 'Im_OrlandoBloom.png', 'Im_MattDamon.png', 'Im_GeorgeClooney.png', 'Im_DanielCraig.png', 'Im_DanielRadcliffe.png', 'Im_RyanGosling.png', 'Im_BradPitt.png', 'Im_LeonardoDiCaprio.png'],same,1,0.4082545999845024,18,0,
SEMY0204,1,pos,120,pos120_id3_im6.bmp_pos120_id3_im17.bmp,['Im_KeanuReeves.png', 'Im_RyanReynolds.png', 'Im_OrlandoBloom.png', 'Im_MattDamon.png', 'Im_GeorgeClooney.png', 'Im_DanielCraig.png', 'Im_DanielRadcliffe.png', 'Im_RyanGosling.png', 'Im_BradPitt.png', 'Im_LeonardoDiCaprio.png'],same,1,0.45026049998705275,19,0,
SEMY0204,1,pos,150,pos150_id3_im8.bmp_pos150_id3_im17.bmp,['Im_KeanuReeves.png', 'Im_RyanReynolds.png', 'Im_OrlandoBloom.png', 'Im_MattDamon.png', 'Im_GeorgeClooney.png', 'Im_DanielCraig.png', 'Im_DanielRadcliffe.png', 'Im_RyanGosling.png', 'Im_BradPitt.png', 'Im_LeonardoDiCaprio.png'],same,1,0.42500180000206456,20,0,
SEMY0204,1,pos,60,pos60_id11_im10.bmp_pos60_id11_im1.bmp,['Im_KeanuReeves.png', 'Im_RyanReynolds.png', 'Im_OrlandoBloom.png', 'Im_MattDamon.png', 'Im_GeorgeClooney.png', 'Im_DanielCraig.png', 'Im_DanielRadcliffe.png', 'Im_RyanGosling.png', 'Im_BradPitt.png', 'Im_LeonardoDiCaprio.png'],same,1,0.4250239999964833,21,0,
SEMY0204,1,pos,120,pos120_id4_im20.bmp_pos120_id4_im7.bmp,['Im_KeanuReeves.png', 'Im_RyanReynolds.png', 'Im_OrlandoBloom.png', 'Im_MattDamon.png', 'Im_GeorgeClooney.png', 'Im_DanielCraig.png', 'Im_DanielRadcliffe.png', 'Im_RyanGosling.png', 'Im_BradPitt.png', 'Im_LeonardoDiCaprio.png'],same,1,0.41683149998425506,22,0,
SEMY0204,1,pos,30,pos30_id20_im12.bmp_pos30_id20_im3.bmp,['Im_KeanuReeves.png', 'Im_RyanReynolds.png', 'Im_OrlandoBloom.png', 'Im_MattDamon.png', 'Im_GeorgeClooney.png', 'Im_DanielCraig.png', 'Im_DanielRadcliffe.png', 'Im_RyanGosling.png', 'Im_BradPitt.png', 'Im_LeonardoDiCaprio.png'],same,1,0.4250422999903094,23,0,
SEMY0204,1,pos,90,pos90_id5_im20.bmp_pos90_id5_im1.bmp,['Im_KeanuReeves.png', 'Im_RyanReynolds.png', 'Im_OrlandoBloom.png', 'Im_MattDamon.png', 'Im_GeorgeClooney.png', 'Im_DanielCraig.png', 'Im_DanielRadcliffe.png', 'Im_RyanGosling.png', 'Im_BradPitt.png', 'Im_LeonardoDiCaprio.png'],same,1,0.41671130000031553,24,0,
SEMY0204,1,pos,150,pos150_id20_im3.bmp_pos150_id20_im12.bmp,['Im_KeanuReeves.png', 'Im_RyanReynolds.png', 'Im_OrlandoBloom.png', 'Im_MattDamon.png', 'Im_GeorgeClooney.png', 'Im_DanielCraig.png', 'Im_DanielRadcliffe.png', 'Im_RyanGosling.png', 'Im_BradPitt.png', 'Im_LeonardoDiCaprio.png'],same,1,0.41687699998146854,25,0,
SEMY0204,1,pos,90,pos90_id21_im22.bmp_pos90_id4_im20.bmp,['Im_KeanuReeves.png', 'Im_RyanReynolds.png', 'Im_OrlandoBloom.png', 'Im_MattDamon.png', 'Im_GeorgeClooney.png', 'Im_DanielCraig.png', 'Im_DanielRadcliffe.png', 'Im_RyanGosling.png', 'Im_BradPitt.png', 'Im_LeonardoDiCaprio.png'],diff,1,0.46705170001951046,26,0,
SEMY0204,2,neg,150,neg150_id4_im20.bmp_neg150_id4_im15.bmp,['Im_KeanuReeves.png', 'Im_RyanReynolds.png', 'Im_OrlandoBloom.png', 'Im_MattDamon.png', 'Im_GeorgeClooney.png', 'Im_DanielCraig.png', 'Im_DanielRadcliffe.png', 'Im_RyanGosling.png', 'Im_BradPitt.png', 'Im_LeonardoDiCaprio.png'],same,1,0.4251628000056371,27,0,
SEMY0204,2,neg,120,neg120_id21_im22.bmp_neg120_id4_im20.bmp,['Im_KeanuReeves.png', 'Im_RyanReynolds.png', 'Im_OrlandoBloom.png', 'Im_MattDamon.png', 'Im_GeorgeClooney.png', 'Im_DanielCraig.png', 'Im_DanielRadcliffe.png', 'Im_RyanGosling.png', 'Im_BradPitt.png', 'Im_LeonardoDiCaprio.png'],diff,1,0.6501836999959778,28,0,
SEMY0204,2,neg,0,neg0_id11_im2.bmp_neg0_id21_im22.bmp,['Im_KeanuReeves.png', 'Im_RyanReynolds.png', 'Im_OrlandoBloom.png', 'Im_MattDamon.png', 'Im_GeorgeClooney.png', 'Im_DanielCraig.png', 'Im_DanielRadcliffe.png', 'Im_RyanGosling.png', 'Im_BradPitt.png', 'Im_LeonardoDiCaprio.png'],same,0,1.9083782999950927,28,0,
SEMY0204,2,neg,0,neg0_id21_im17.bmp_neg0_id21_im16.bmp,['Im_KeanuReeves.png', 'Im_RyanReynolds.png', 'Im_OrlandoBloom.png', 'Im_MattDamon.png', 'Im_GeorgeClooney.png', 'Im_DanielCraig.png', 'Im_DanielRadcliffe.png', 'Im_RyanGosling.png', 'Im_BradPitt.png', 'Im_LeonardoDiCaprio.png'],same,1,0.41676639998331666,29,0,
SEMY0204,2,neg,120,neg120_id11_im1.bmp_neg120_id3_im17.bmp,['Im_KeanuReeves.png', 'Im_RyanReynolds.png', 'Im_OrlandoBloom.png', 'Im_MattDamon.png', 'Im_GeorgeClooney.png', 'Im_DanielCraig.png', 'Im_DanielRadcliffe.png', 'Im_RyanGosling.png', 'Im_BradPitt.png', 'Im_LeonardoDiCaprio.png'],diff,1,0.4252539000008255,30,0,
SEMY0204,2,neg,fs,negfs_id4_im7.bmp_negfs_id4_im20.bmp,['Im_KeanuReeves.png', 'Im_RyanReynolds.png', 'Im_OrlandoBloom.png', 'Im_MattDamon.png', 'Im_GeorgeClooney.png', 'Im_DanielCraig.png', 'Im_DanielRadcliffe.png', 'Im_RyanGosling.png', 'Im_BradPitt.png', 'Im_LeonardoDiCaprio.png'],same,1,0.41671379999024794,31,0,
SEMY0204,2,neg,fs,negfs_id20_im3.bmp_negfs_id7_im15.bmp,['Im_KeanuReeves.png', 'Im_RyanReynolds.png', 'Im_OrlandoBloom.png', 'Im_MattDamon.png', 'Im_GeorgeClooney.png', 'Im_DanielCraig.png', 'Im_DanielRadcliffe.png', 'Im_RyanGosling.png', 'Im_BradPitt.png', 'Im_LeonardoDiCaprio.png'],diff,1,0.4167807000048924,32,0,
SEMY0204,2,neg,30,neg30_id11_im1.bmp_neg30_id3_im17.bmp,['Im_KeanuReeves.png', 'Im_RyanReynolds.png', 'Im_OrlandoBloom.png', 'Im_MattDamon.png', 'Im_GeorgeClooney.png', 'Im_DanielCraig.png', 'Im_DanielRadcliffe.png', 'Im_RyanGosling.png', 'Im_BradPitt.png', 'Im_LeonardoDiCaprio.png'],diff,1,0.4335842000145931,33,0,
SEMY0204,2,neg,90,neg90_id11_im10.bmp_neg90_id11_im2.bmp,['Im_KeanuReeves.png', 'Im_RyanReynolds.png', 'Im_OrlandoBloom.png', 'Im_MattDamon.png', 'Im_GeorgeClooney.png', 'Im_DanielCraig.png', 'Im_DanielRadcliffe.png', 'Im_RyanGosling.png', 'Im_BradPitt.png', 'Im_LeonardoDiCaprio.png'],diff,0,0.5502157000009902,33,0,
SEMY0204,2,neg,60,neg60_id4_im20.bmp_neg60_id4_im7.bmp,['Im_KeanuReeves.png', 'Im_RyanReynolds.png', 'Im_OrlandoBloom.png', 'Im_MattDamon.png', 'Im_GeorgeClooney.png', 'Im_DanielCraig.png', 'Im_DanielRadcliffe.png', 'Im_RyanGosling.png', 'Im_BradPitt.png', 'Im_LeonardoDiCaprio.png'],same,1,0.4167214999906719,34,0,
SEMY0204,2,neg,60,neg60_id14_im18.bmp_neg60_id14_im24.bmp,['Im_KeanuReeves.png', 'Im_RyanReynolds.png', 'Im_OrlandoBloom.png', 'Im_MattDamon.png', 'Im_GeorgeClooney.png', 'Im_DanielCraig.png', 'Im_DanielRadcliffe.png', 'Im_RyanGosling.png', 'Im_BradPitt.png', 'Im_LeonardoDiCaprio.png'],same,1,0.41693179999128915,35,0,
SEMY0204,2,neg,150,neg150_id20_im12.bmp_neg150_id13_im15.bmp,['Im_KeanuReeves.png', 'Im_RyanReynolds.png', 'Im_OrlandoBloom.png', 'Im_MattDamon.png', 'Im_GeorgeClooney.png', 'Im_DanielCraig.png', 'Im_DanielRadcliffe.png', 'Im_RyanGosling.png', 'Im_BradPitt.png', 'Im_LeonardoDiCaprio.png'],diff,1,0.40843099998892285,36,0,
SEMY0204,2,neg,90,neg90_id20_im3.bmp_neg90_id20_im30.bmp,['Im_KeanuReeves.png', 'Im_RyanReynolds.png', 'Im_OrlandoBloom.png', 'Im_MattDamon.png', 'Im_GeorgeClooney.png', 'Im_DanielCraig.png', 'Im_DanielRadcliffe.png', 'Im_RyanGosling.png', 'Im_BradPitt.png', 'Im_LeonardoDiCaprio.png'],same,1,0.4166871999914292,37,0,
SEMY0204,2,neg,30,neg30_id21_im22.bmp_neg30_id21_im17.bmp,['Im_KeanuReeves.png', 'Im_RyanReynolds.png', 'Im_OrlandoBloom.png', 'Im_MattDamon.png', 'Im_GeorgeClooney.png', 'Im_DanielCraig.png', 'Im_DanielRadcliffe.png', 'Im_RyanGosling.png', 'Im_BradPitt.png', 'Im_LeonardoDiCaprio.png'],same,1,0.7000549999938812,38,0,
SEMY0204,3,neg,fs,negfs_id7_im14.bmp_negfs_id14_im24.bmp,['Im_KeanuReeves.png', 'Im_RyanReynolds.png', 'Im_OrlandoBloom.png', 'Im_MattDamon.png', 'Im_GeorgeClooney.png', 'Im_DanielCraig.png', 'Im_DanielRadcliffe.png', 'Im_RyanGosling.png', 'Im_BradPitt.png', 'Im_LeonardoDiCaprio.png'],diff,1,1.4336790000088513,1,90.47619047619048,
SEMY0204,3,neg,60,neg60_id13_im29.bmp_neg60_id3_im17.bmp,['Im_KeanuReeves.png', 'Im_RyanReynolds.png', 'Im_OrlandoBloom.png', 'Im_MattDamon.png', 'Im_GeorgeClooney.png', 'Im_DanielCraig.png', 'Im_DanielRadcliffe.png', 'Im_RyanGosling.png', 'Im_BradPitt.png', 'Im_LeonardoDiCaprio.png'],diff,1,0.40829990000929683,2,90.47619047619048,
SEMY0204,3,neg,120,neg120_id16_im3.bmp_neg120_id3_im6.bmp,['Im_KeanuReeves.png', 'Im_RyanReynolds.png', 'Im_OrlandoBloom.png', 'Im_MattDamon.png', 'Im_GeorgeClooney.png', 'Im_DanielCraig.png', 'Im_DanielRadcliffe.png', 'Im_RyanGosling.png', 'Im_BradPitt.png', 'Im_LeonardoDiCaprio.png'],diff,1,0.42509490001248196,3,90.47619047619048,
SEMY0204,3,neg,90,neg90_id3_im8.bmp_neg90_id3_im17.bmp,['Im_KeanuReeves.png', 'Im_RyanReynolds.png', 'Im_OrlandoBloom.png', 'Im_MattDamon.png', 'Im_GeorgeClooney.png', 'Im_DanielCraig.png', 'Im_DanielRadcliffe.png', 'Im_RyanGosling.png', 'Im_BradPitt.png', 'Im_LeonardoDiCaprio.png'],diff,0,1.6000932999886572,3,90.47619047619048,
SEMY0204,3,neg,fs,negfs_id14_im18.bmp_negfs_id13_im10.bmp,['Im_KeanuReeves.png', 'Im_RyanReynolds.png', 'Im_OrlandoBloom.png', 'Im_MattDamon.png', 'Im_GeorgeClooney.png', 'Im_DanielCraig.png', 'Im_DanielRadcliffe.png', 'Im_RyanGosling.png', 'Im_BradPitt.png', 'Im_LeonardoDiCaprio.png'],diff,1,0.4252025999885518,4,90.47619047619048,
SEMY0204,3,neg,150,neg150_id4_im15.bmp_neg150_id5_im1.bmp,['Im_KeanuReeves.png', 'Im_RyanReynolds.png', 'Im_OrlandoBloom.png', 'Im_MattDamon.png', 'Im_GeorgeClooney.png', 'Im_DanielCraig.png', 'Im_DanielRadcliffe.png', 'Im_RyanGosling.png', 'Im_BradPitt.png', 'Im_LeonardoDiCaprio.png'],diff,1,0.8833843999891542,5,90.47619047619048,
SEMY0204,3,neg,0,neg0_id7_im15.bmp_neg0_id7_im14.bmp,['Im_KeanuReeves.png', 'Im_RyanReynolds.png', 'Im_OrlandoBloom.png', 'Im_MattDamon.png', 'Im_GeorgeClooney.png', 'Im_DanielCraig.png', 'Im_DanielRadcliffe.png', 'Im_RyanGosling.png', 'Im_BradPitt.png', 'Im_LeonardoDiCaprio.png'],same,1,0.5083589999994729,6,90.47619047619048,
SEMY0204,3,neg,150,neg150_id3_im17.bmp_neg150_id3_im6.bmp,['Im_KeanuReeves.png', 'Im_RyanReynolds.png', 'Im_OrlandoBloom.png', 'Im_MattDamon.png', 'Im_GeorgeClooney.png', 'Im_DanielCraig.png', 'Im_DanielRadcliffe.png', 'Im_RyanGosling.png', 'Im_BradPitt.png', 'Im_LeonardoDiCaprio.png'],same,1,0.4166189000243321,7,90.47619047619048,
SEMY0204,3,neg,30,neg30_id13_im15.bmp_neg30_id13_im10.bmp,['Im_KeanuReeves.png', 'Im_RyanReynolds.png', 'Im_OrlandoBloom.png', 'Im_MattDamon.png', 'Im_GeorgeClooney.png', 'Im_DanielCraig.png', 'Im_DanielRadcliffe.png', 'Im_RyanGosling.png', 'Im_BradPitt.png', 'Im_LeonardoDiCaprio.png'],same,1,0.4417838999943342,8,90.47619047619048,
SEMY0204,3,neg,60,neg60_id4_im15.bmp_neg60_id4_im20.bmp,['Im_KeanuReeves.png', 'Im_RyanReynolds.png', 'Im_OrlandoBloom.png', 'Im_MattDamon.png', 'Im_GeorgeClooney.png', 'Im_DanielCraig.png', 'Im_DanielRadcliffe.png', 'Im_RyanGosling.png', 'Im_BradPitt.png', 'Im_LeonardoDiCaprio.png'],same,1,0.42515259998617694,9,90.47619047619048,
SEMY0204,3,neg,30,neg30_id7_im14.bmp_neg30_id7_im26.bmp,['Im_KeanuReeves.png', 'Im_RyanReynolds.png', 'Im_OrlandoBloom.png', 'Im_MattDamon.png', 'Im_GeorgeClooney.png', 'Im_DanielCraig.png', 'Im_DanielRadcliffe.png', 'Im_RyanGosling.png', 'Im_BradPitt.png', 'Im_LeonardoDiCaprio.png'],same,1,0.4501981999783311,10,90.47619047619048,
SEMY0204,3,neg,120,neg120_id20_im12.bmp_neg120_id20_im3.bmp,['Im_KeanuReeves.png', 'Im_RyanReynolds.png', 'Im_OrlandoBloom.png', 'Im_MattDamon.png', 'Im_GeorgeClooney.png', 'Im_DanielCraig.png', 'Im_DanielRadcliffe.png', 'Im_RyanGosling.png', 'Im_BradPitt.png', 'Im_LeonardoDiCaprio.png'],same,1,0.4167414999974426,11,90.47619047619048,
SEMY0204,3,neg,0,neg0_id13_im29.bmp_neg0_id3_im17.bmp,['Im_KeanuReeves.png', 'Im_RyanReynolds.png', 'Im_OrlandoBloom.png', 'Im_MattDamon.png', 'Im_GeorgeClooney.png', 'Im_DanielCraig.png', 'Im_DanielRadcliffe.png', 'Im_RyanGosling.png', 'Im_BradPitt.png', 'Im_LeonardoDiCaprio.png'],diff,1,0.5168200000189245,12,90.47619047619048,
SEMY0204,3,neg,90,neg90_id3_im8.bmp_neg90_id7_im26.bmp,['Im_KeanuReeves.png', 'Im_RyanReynolds.png', 'Im_OrlandoBloom.png', 'Im_MattDamon.png', 'Im_GeorgeClooney.png', 'Im_DanielCraig.png', 'Im_DanielRadcliffe.png', 'Im_RyanGosling.png', 'Im_BradPitt.png', 'Im_LeonardoDiCaprio.png'],diff,1,0.4168047000130173,13,90.47619047619048,
SEMY0204,4,inv,150,pos150_id7_im15.bmp_pos150_id7_im14.bmp,['Im_KeanuReeves.png', 'Im_RyanReynolds.png', 'Im_OrlandoBloom.png', 'Im_MattDamon.png', 'Im_GeorgeClooney.png', 'Im_DanielCraig.png', 'Im_DanielRadcliffe.png', 'Im_RyanGosling.png', 'Im_BradPitt.png', 'Im_LeonardoDiCaprio.png'],diff,0,0.5499568999803159,13,90.47619047619048,
SEMY0204,4,inv,60,pos60_id20_im30.bmp_pos60_id20_im12.bmp,['Im_KeanuReeves.png', 'Im_RyanReynolds.png', 'Im_OrlandoBloom.png', 'Im_MattDamon.png', 'Im_GeorgeClooney.png', 'Im_DanielCraig.png', 'Im_DanielRadcliffe.png', 'Im_RyanGosling.png', 'Im_BradPitt.png', 'Im_LeonardoDiCaprio.png'],same,1,0.43352190000587143,14,90.47619047619048,
SEMY0204,4,inv,30,pos30_id3_im17.bmp_pos30_id13_im29.bmp,['Im_KeanuReeves.png', 'Im_RyanReynolds.png', 'Im_OrlandoBloom.png', 'Im_MattDamon.png', 'Im_GeorgeClooney.png', 'Im_DanielCraig.png', 'Im_DanielRadcliffe.png', 'Im_RyanGosling.png', 'Im_BradPitt.png', 'Im_LeonardoDiCaprio.png'],diff,1,0.6665844999952242,15,90.47619047619048,
SEMY0204,4,inv,120,pos120_id16_im19.bmp_pos120_id16_im3.bmp,['Im_KeanuReeves.png', 'Im_RyanReynolds.png', 'Im_OrlandoBloom.png', 'Im_MattDamon.png', 'Im_GeorgeClooney.png', 'Im_DanielCraig.png', 'Im_DanielRadcliffe.png', 'Im_RyanGosling.png', 'Im_BradPitt.png', 'Im_LeonardoDiCaprio.png'],same,1,0.42497130000265315,16,90.47619047619048,
SEMY0204,4,inv,fs,posfs_id14_im16.bmp_posfs_id21_im16.bmp,['Im_KeanuReeves.png', 'Im_RyanReynolds.png', 'Im_OrlandoBloom.png', 'Im_MattDamon.png', 'Im_GeorgeClooney.png', 'Im_DanielCraig.png', 'Im_DanielRadcliffe.png', 'Im_RyanGosling.png', 'Im_BradPitt.png', 'Im_LeonardoDiCaprio.png'],diff,1,0.41663889997289516,17,90.47619047619048,
SEMY0204,4,inv,150,pos150_id11_im10.bmp_pos150_id16_im2.bmp,['Im_KeanuReeves.png', 'Im_RyanReynolds.png', 'Im_OrlandoBloom.png', 'Im_MattDamon.png', 'Im_GeorgeClooney.png', 'Im_DanielCraig.png', 'Im_DanielRadcliffe.png', 'Im_RyanGosling.png', 'Im_BradPitt.png', 'Im_LeonardoDiCaprio.png'],diff,1,0.41663619998143986,18,90.47619047619048,
SEMY0204,4,inv,0,pos0_id4_im15.bmp_pos0_id4_im7.bmp,['Im_KeanuReeves.png', 'Im_RyanReynolds.png', 'Im_OrlandoBloom.png', 'Im_MattDamon.png', 'Im_GeorgeClooney.png', 'Im_DanielCraig.png', 'Im_DanielRadcliffe.png', 'Im_RyanGosling.png', 'Im_BradPitt.png', 'Im_LeonardoDiCaprio.png'],same,1,0.41667400000733323,19,90.47619047619048,
SEMY0204,4,inv,60,pos60_id21_im22.bmp_pos60_id21_im16.bmp,['Im_KeanuReeves.png', 'Im_RyanReynolds.png', 'Im_OrlandoBloom.png', 'Im_MattDamon.png', 'Im_GeorgeClooney.png', 'Im_DanielCraig.png', 'Im_DanielRadcliffe.png', 'Im_RyanGosling.png', 'Im_BradPitt.png', 'Im_LeonardoDiCaprio.png'],diff,0,1.2250556999933906,19,90.47619047619048,
SEMY0204,4,inv,120,pos120_id21_im22.bmp_pos120_id21_im16.bmp,['Im_KeanuReeves.png', 'Im_RyanReynolds.png', 'Im_OrlandoBloom.png', 'Im_MattDamon.png', 'Im_GeorgeClooney.png', 'Im_DanielCraig.png', 'Im_DanielRadcliffe.png', 'Im_RyanGosling.png', 'Im_BradPitt.png', 'Im_LeonardoDiCaprio.png'],same,1,0.4250288999755867,20,90.47619047619048,
SEMY0204,4,inv,30,pos30_id7_im14.bmp_pos30_id14_im24.bmp,['Im_KeanuReeves.png', 'Im_RyanReynolds.png', 'Im_OrlandoBloom.png', 'Im_MattDamon.png', 'Im_GeorgeClooney.png', 'Im_DanielCraig.png', 'Im_DanielRadcliffe.png', 'Im_RyanGosling.png', 'Im_BradPitt.png', 'Im_LeonardoDiCaprio.png'],diff,1,0.4167252000188455,21,90.47619047619048,
SEMY0204,4,inv,90,pos90_id4_im15.bmp_pos90_id5_im1.bmp,['Im_KeanuReeves.png', 'Im_RyanReynolds.png', 'Im_OrlandoBloom.png', 'Im_MattDamon.png', 'Im_GeorgeClooney.png', 'Im_DanielCraig.png', 'Im_DanielRadcliffe.png', 'Im_RyanGosling.png', 'Im_BradPitt.png', 'Im_LeonardoDiCaprio.png'],diff,1,0.4000551000062842,22,90.47619047619048,
SEMY0204,4,inv,0,pos0_id7_im14.bmp_pos0_id7_im26.bmp,['Im_KeanuReeves.png', 'Im_RyanReynolds.png', 'Im_OrlandoBloom.png', 'Im_MattDamon.png', 'Im_GeorgeClooney.png', 'Im_DanielCraig.png', 'Im_DanielRadcliffe.png', 'Im_RyanGosling.png', 'Im_BradPitt.png', 'Im_LeonardoDiCaprio.png'],diff,0,0.42525560001377016,22,90.47619047619048,
SEMY0204,4,inv,90,pos90_id11_im2.bmp_pos90_id21_im22.bmp,['Im_KeanuReeves.png', 'Im_RyanReynolds.png', 'Im_OrlandoBloom.png', 'Im_MattDamon.png', 'Im_GeorgeClooney.png', 'Im_DanielCraig.png', 'Im_DanielRadcliffe.png', 'Im_RyanGosling.png', 'Im_BradPitt.png', 'Im_LeonardoDiCaprio.png'],same,0,0.6083538999955636,22,90.47619047619048,
SEMY0204,4,inv,fs,posfs_id16_im19.bmp_posfs_id16_im3.bmp,['Im_KeanuReeves.png', 'Im_RyanReynolds.png', 'Im_OrlandoBloom.png', 'Im_MattDamon.png', 'Im_GeorgeClooney.png', 'Im_DanielCraig.png', 'Im_DanielRadcliffe.png', 'Im_RyanGosling.png', 'Im_BradPitt.png', 'Im_LeonardoDiCaprio.png'],same,1,1.4752793999796268,23,90.47619047619048,
SEMY0204,5,pos,120,pos120_id20_im30.bmp_pos120_id20_im12.bmp,['Im_KeanuReeves.png', 'Im_RyanReynolds.png', 'Im_OrlandoBloom.png', 'Im_MattDamon.png', 'Im_GeorgeClooney.png', 'Im_DanielCraig.png', 'Im_DanielRadcliffe.png', 'Im_RyanGosling.png', 'Im_BradPitt.png', 'Im_LeonardoDiCaprio.png'],same,1,0.41671010002028197,24,90.47619047619048,
SEMY0204,5,pos,30,pos30_id20_im12.bmp_pos30_id20_im30.bmp,['Im_KeanuReeves.png', 'Im_RyanReynolds.png', 'Im_OrlandoBloom.png', 'Im_MattDamon.png', 'Im_GeorgeClooney.png', 'Im_DanielCraig.png', 'Im_DanielRadcliffe.png', 'Im_RyanGosling.png', 'Im_BradPitt.png', 'Im_LeonardoDiCaprio.png'],same,1,0.4166452999925241,25,90.47619047619048,
SEMY0204,5,pos,150,pos150_id16_im19.bmp_pos150_id16_im3.bmp,['Im_KeanuReeves.png', 'Im_RyanReynolds.png', 'Im_OrlandoBloom.png', 'Im_MattDamon.png', 'Im_GeorgeClooney.png', 'Im_DanielCraig.png', 'Im_DanielRadcliffe.png', 'Im_RyanGosling.png', 'Im_BradPitt.png', 'Im_LeonardoDiCaprio.png'],same,1,0.7001178000064101,26,90.47619047619048,
SEMY0204,5,pos,0,pos0_id5_im1.bmp_pos0_id5_im10.bmp,['Im_KeanuReeves.png', 'Im_RyanReynolds.png', 'Im_OrlandoBloom.png', 'Im_MattDamon.png', 'Im_GeorgeClooney.png', 'Im_DanielCraig.png', 'Im_DanielRadcliffe.png', 'Im_RyanGosling.png', 'Im_BradPitt.png', 'Im_LeonardoDiCaprio.png'],same,1,0.4084119999897666,27,90.47619047619048,
SEMY0204,5,pos,0,pos0_id16_im3.bmp_pos0_id3_im6.bmp,['Im_KeanuReeves.png', 'Im_RyanReynolds.png', 'Im_OrlandoBloom.png', 'Im_MattDamon.png', 'Im_GeorgeClooney.png', 'Im_DanielCraig.png', 'Im_DanielRadcliffe.png', 'Im_RyanGosling.png', 'Im_BradPitt.png', 'Im_LeonardoDiCaprio.png'],diff,1,0.42504079997888766,28,90.47619047619048,
SEMY0204,5,pos,60,pos60_id14_im18.bmp_pos60_id13_im10.bmp,['Im_KeanuReeves.png', 'Im_RyanReynolds.png', 'Im_OrlandoBloom.png', 'Im_MattDamon.png', 'Im_GeorgeClooney.png', 'Im_DanielCraig.png', 'Im_DanielRadcliffe.png', 'Im_RyanGosling.png', 'Im_BradPitt.png', 'Im_LeonardoDiCaprio.png'],same,0,0.40836150001268834,28,90.47619047619048,
SEMY0204,5,pos,60,pos60_id4_im15.bmp_pos60_id4_im7.bmp,['Im_KeanuReeves.png', 'Im_RyanReynolds.png', 'Im_OrlandoBloom.png', 'Im_MattDamon.png', 'Im_GeorgeClooney.png', 'Im_DanielCraig.png', 'Im_DanielRadcliffe.png', 'Im_RyanGosling.png', 'Im_BradPitt.png', 'Im_LeonardoDiCaprio.png'],same,1,0.4250228999881074,29,90.47619047619048,
SEMY0204,5,pos,150,pos150_id20_im12.bmp_pos150_id4_im15.bmp,['Im_KeanuReeves.png', 'Im_RyanReynolds.png', 'Im_OrlandoBloom.png', 'Im_MattDamon.png', 'Im_GeorgeClooney.png', 'Im_DanielCraig.png', 'Im_DanielRadcliffe.png', 'Im_RyanGosling.png', 'Im_BradPitt.png', 'Im_LeonardoDiCaprio.png'],diff,1,0.4252076999982819,30,90.47619047619048,
SEMY0204,5,pos,120,pos120_id5_im20.bmp_pos120_id14_im16.bmp,['Im_KeanuReeves.png', 'Im_RyanReynolds.png', 'Im_OrlandoBloom.png', 'Im_MattDamon.png', 'Im_GeorgeClooney.png', 'Im_DanielCraig.png', 'Im_DanielRadcliffe.png', 'Im_RyanGosling.png', 'Im_BradPitt.png', 'Im_LeonardoDiCaprio.png'],diff,1,0.4167252999905031,31,90.47619047619048,
SEMY0204,5,pos,fs,posfs_id20_im3.bmp_posfs_id20_im12.bmp,['Im_KeanuReeves.png', 'Im_RyanReynolds.png', 'Im_OrlandoBloom.png', 'Im_MattDamon.png', 'Im_GeorgeClooney.png', 'Im_DanielCraig.png', 'Im_DanielRadcliffe.png', 'Im_RyanGosling.png', 'Im_BradPitt.png', 'Im_LeonardoDiCaprio.png'],same,1,0.4249296000052709,32,90.47619047619048,
SEMY0204,5,pos,30,pos30_id5_im1.bmp_pos30_id11_im1.bmp,['Im_KeanuReeves.png', 'Im_RyanReynolds.png', 'Im_OrlandoBloom.png', 'Im_MattDamon.png', 'Im_GeorgeClooney.png', 'Im_DanielCraig.png', 'Im_DanielRadcliffe.png', 'Im_RyanGosling.png', 'Im_BradPitt.png', 'Im_LeonardoDiCaprio.png'],diff,1,0.4250770999933593,33,90.47619047619048,
SEMY0204,5,pos,90,pos90_id7_im15.bmp_pos90_id21_im16.bmp,['Im_KeanuReeves.png', 'Im_RyanReynolds.png', 'Im_OrlandoBloom.png', 'Im_MattDamon.png', 'Im_GeorgeClooney.png', 'Im_DanielCraig.png', 'Im_DanielRadcliffe.png', 'Im_RyanGosling.png', 'Im_BradPitt.png', 'Im_LeonardoDiCaprio.png'],diff,1,0.41661469999235123,34,90.47619047619048,
SEMY0204,5,pos,90,pos90_id20_im30.bmp_pos90_id20_im12.bmp,['Im_KeanuReeves.png', 'Im_RyanReynolds.png', 'Im_OrlandoBloom.png', 'Im_MattDamon.png', 'Im_GeorgeClooney.png', 'Im_DanielCraig.png', 'Im_DanielRadcliffe.png', 'Im_RyanGosling.png', 'Im_BradPitt.png', 'Im_LeonardoDiCaprio.png'],same,1,0.4250852999975905,35,90.47619047619048,
SEMY0204,5,pos,fs,posfs_id14_im18.bmp_posfs_id13_im10.bmp,['Im_KeanuReeves.png', 'Im_RyanReynolds.png', 'Im_OrlandoBloom.png', 'Im_MattDamon.png', 'Im_GeorgeClooney.png', 'Im_DanielCraig.png', 'Im_DanielRadcliffe.png', 'Im_RyanGosling.png', 'Im_BradPitt.png', 'Im_LeonardoDiCaprio.png'],same,0,1.017141000018455,35,90.47619047619048,
SEMY0204,6,pos,30,pos30_id20_im3.bmp_pos30_id7_im15.bmp,['Im_KeanuReeves.png', 'Im_RyanReynolds.png', 'Im_OrlandoBloom.png', 'Im_MattDamon.png', 'Im_GeorgeClooney.png', 'Im_DanielCraig.png', 'Im_DanielRadcliffe.png', 'Im_RyanGosling.png', 'Im_BradPitt.png', 'Im_LeonardoDiCaprio.png'],diff,1,0.4334736999880988,1,83.33333333333333,
SEMY0204,6,pos,120,pos120_id4_im7.bmp_pos120_id16_im2.bmp,['Im_KeanuReeves.png', 'Im_RyanReynolds.png', 'Im_OrlandoBloom.png', 'Im_MattDamon.png', 'Im_GeorgeClooney.png', 'Im_DanielCraig.png', 'Im_DanielRadcliffe.png', 'Im_RyanGosling.png', 'Im_BradPitt.png', 'Im_LeonardoDiCaprio.png'],diff,1,0.6832173000148032,2,83.33333333333333,
SEMY0204,6,pos,60,pos60_id11_im1.bmp_pos60_id5_im1.bmp,['Im_KeanuReeves.png', 'Im_RyanReynolds.png', 'Im_OrlandoBloom.png', 'Im_MattDamon.png', 'Im_GeorgeClooney.png', 'Im_DanielCraig.png', 'Im_DanielRadcliffe.png', 'Im_RyanGosling.png', 'Im_BradPitt.png', 'Im_LeonardoDiCaprio.png'],diff,1,0.41694970001117326,3,83.33333333333333,
SEMY0204,6,pos,90,pos90_id7_im26.bmp_pos90_id20_im3.bmp,['Im_KeanuReeves.png', 'Im_RyanReynolds.png', 'Im_OrlandoBloom.png', 'Im_MattDamon.png', 'Im_GeorgeClooney.png', 'Im_DanielCraig.png', 'Im_DanielRadcliffe.png', 'Im_RyanGosling.png', 'Im_BradPitt.png', 'Im_LeonardoDiCaprio.png'],diff,1,0.4249069000070449,4,83.33333333333333,
SEMY0204,6,pos,60,pos60_id7_im26.bmp_pos60_id7_im15.bmp,['Im_KeanuReeves.png', 'Im_RyanReynolds.png', 'Im_OrlandoBloom.png', 'Im_MattDamon.png', 'Im_GeorgeClooney.png', 'Im_DanielCraig.png', 'Im_DanielRadcliffe.png', 'Im_RyanGosling.png', 'Im_BradPitt.png', 'Im_LeonardoDiCaprio.png'],same,1,0.4167524999938905,5,83.33333333333333,
SEMY0204,6,pos,0,pos0_id21_im16.bmp_pos0_id14_im16.bmp,['Im_KeanuReeves.png', 'Im_RyanReynolds.png', 'Im_OrlandoBloom.png', 'Im_MattDamon.png', 'Im_GeorgeClooney.png', 'Im_DanielCraig.png', 'Im_DanielRadcliffe.png', 'Im_RyanGosling.png', 'Im_BradPitt.png', 'Im_LeonardoDiCaprio.png'],diff,1,0.5417315000086091,6,83.33333333333333,
SEMY0204,6,pos,90,pos90_id11_im1.bmp_pos90_id11_im2.bmp,['Im_KeanuReeves.png', 'Im_RyanReynolds.png', 'Im_OrlandoBloom.png', 'Im_MattDamon.png', 'Im_GeorgeClooney.png', 'Im_DanielCraig.png', 'Im_DanielRadcliffe.png', 'Im_RyanGosling.png', 'Im_BradPitt.png', 'Im_LeonardoDiCaprio.png'],same,1,0.5167175999959,7,83.33333333333333,
SEMY0204,6,pos,150,pos150_id11_im1.bmp_pos150_id3_im17.bmp,['Im_KeanuReeves.png', 'Im_RyanReynolds.png', 'Im_OrlandoBloom.png', 'Im_MattDamon.png', 'Im_GeorgeClooney.png', 'Im_DanielCraig.png', 'Im_DanielRadcliffe.png', 'Im_RyanGosling.png', 'Im_BradPitt.png', 'Im_LeonardoDiCaprio.png'],diff,1,0.41669329997967,8,83.33333333333333,
SEMY0204,6,pos,fs,posfs_id14_im18.bmp_posfs_id5_im10.bmp,['Im_KeanuReeves.png', 'Im_RyanReynolds.png', 'Im_OrlandoBloom.png', 'Im_MattDamon.png', 'Im_GeorgeClooney.png', 'Im_DanielCraig.png', 'Im_DanielRadcliffe.png', 'Im_RyanGosling.png', 'Im_BradPitt.png', 'Im_LeonardoDiCaprio.png'],diff,1,0.4250812000245787,9,83.33333333333333,
SEMY0204,6,pos,150,pos150_id13_im29.bmp_pos150_id3_im17.bmp,['Im_KeanuReeves.png', 'Im_RyanReynolds.png', 'Im_OrlandoBloom.png', 'Im_MattDamon.png', 'Im_GeorgeClooney.png', 'Im_DanielCraig.png', 'Im_DanielRadcliffe.png', 'Im_RyanGosling.png', 'Im_BradPitt.png', 'Im_LeonardoDiCaprio.png'],diff,1,0.4166679999907501,10,83.33333333333333,
SEMY0204,6,pos,30,pos30_id14_im24.bmp_pos30_id20_im30.bmp,['Im_KeanuReeves.png', 'Im_RyanReynolds.png', 'Im_OrlandoBloom.png', 'Im_MattDamon.png', 'Im_GeorgeClooney.png', 'Im_DanielCraig.png', 'Im_DanielRadcliffe.png', 'Im_RyanGosling.png', 'Im_BradPitt.png', 'Im_LeonardoDiCaprio.png'],diff,1,0.4084032000100706,11,83.33333333333333,
SEMY0204,6,pos,120,pos120_id11_im10.bmp_pos120_id3_im6.bmp,['Im_KeanuReeves.png', 'Im_RyanReynolds.png', 'Im_OrlandoBloom.png', 'Im_MattDamon.png', 'Im_GeorgeClooney.png', 'Im_DanielCraig.png', 'Im_DanielRadcliffe.png', 'Im_RyanGosling.png', 'Im_BradPitt.png', 'Im_LeonardoDiCaprio.png'],diff,1,0.41659439998329617,12,83.33333333333333,
SEMY0204,6,pos,0,pos0_id16_im19.bmp_pos0_id16_im2.bmp,['Im_KeanuReeves.png', 'Im_RyanReynolds.png', 'Im_OrlandoBloom.png', 'Im_MattDamon.png', 'Im_GeorgeClooney.png', 'Im_DanielCraig.png', 'Im_DanielRadcliffe.png', 'Im_RyanGosling.png', 'Im_BradPitt.png', 'Im_LeonardoDiCaprio.png'],same,1,0.41670129998237826,13,83.33333333333333,
SEMY0204,6,pos,fs,posfs_id16_im19.bmp_posfs_id3_im8.bmp,['Im_KeanuReeves.png', 'Im_RyanReynolds.png', 'Im_OrlandoBloom.png', 'Im_MattDamon.png', 'Im_GeorgeClooney.png', 'Im_DanielCraig.png', 'Im_DanielRadcliffe.png', 'Im_RyanGosling.png', 'Im_BradPitt.png', 'Im_LeonardoDiCaprio.png'],diff,1,0.42524159999447875,14,83.33333333333333,
SEMY0204,7,neg,0,neg0_id14_im16.bmp_neg0_id14_im18.bmp,['Im_KeanuReeves.png', 'Im_RyanReynolds.png', 'Im_OrlandoBloom.png', 'Im_MattDamon.png', 'Im_GeorgeClooney.png', 'Im_DanielCraig.png', 'Im_DanielRadcliffe.png', 'Im_RyanGosling.png', 'Im_BradPitt.png', 'Im_LeonardoDiCaprio.png'],same,1,0.7834144000080414,15,83.33333333333333,
SEMY0204,7,neg,90,neg90_id21_im22.bmp_neg90_id11_im2.bmp,['Im_KeanuReeves.png', 'Im_RyanReynolds.png', 'Im_OrlandoBloom.png', 'Im_MattDamon.png', 'Im_GeorgeClooney.png', 'Im_DanielCraig.png', 'Im_DanielRadcliffe.png', 'Im_RyanGosling.png', 'Im_BradPitt.png', 'Im_LeonardoDiCaprio.png'],diff,1,1.4834509000065736,16,83.33333333333333,
SEMY0204,7,neg,150,neg150_id20_im30.bmp_neg150_id13_im10.bmp,['Im_KeanuReeves.png', 'Im_RyanReynolds.png', 'Im_OrlandoBloom.png', 'Im_MattDamon.png', 'Im_GeorgeClooney.png', 'Im_DanielCraig.png', 'Im_DanielRadcliffe.png', 'Im_RyanGosling.png', 'Im_BradPitt.png', 'Im_LeonardoDiCaprio.png'],diff,1,0.43343730000196956,17,83.33333333333333,
SEMY0204,7,neg,120,neg120_id14_im16.bmp_neg120_id14_im24.bmp,['Im_KeanuReeves.png', 'Im_RyanReynolds.png', 'Im_OrlandoBloom.png', 'Im_MattDamon.png', 'Im_GeorgeClooney.png', 'Im_DanielCraig.png', 'Im_DanielRadcliffe.png', 'Im_RyanGosling.png', 'Im_BradPitt.png', 'Im_LeonardoDiCaprio.png'],same,1,0.4166864999860991,18,83.33333333333333,
SEMY0204,7,neg,60,neg60_id14_im24.bmp_neg60_id7_im14.bmp,['Im_KeanuReeves.png', 'Im_RyanReynolds.png', 'Im_OrlandoBloom.png', 'Im_MattDamon.png', 'Im_GeorgeClooney.png', 'Im_DanielCraig.png', 'Im_DanielRadcliffe.png', 'Im_RyanGosling.png', 'Im_BradPitt.png', 'Im_LeonardoDiCaprio.png'],diff,1,0.4250663999991957,19,83.33333333333333,
SEMY0204,7,neg,60,neg60_id20_im12.bmp_neg60_id4_im15.bmp,['Im_KeanuReeves.png', 'Im_RyanReynolds.png', 'Im_OrlandoBloom.png', 'Im_MattDamon.png', 'Im_GeorgeClooney.png', 'Im_DanielCraig.png', 'Im_DanielRadcliffe.png', 'Im_RyanGosling.png', 'Im_BradPitt.png', 'Im_LeonardoDiCaprio.png'],diff,1,0.4249841999844648,20,83.33333333333333,
SEMY0204,7,neg,90,neg90_id5_im20.bmp_neg90_id5_im1.bmp,['Im_KeanuReeves.png', 'Im_RyanReynolds.png', 'Im_OrlandoBloom.png', 'Im_MattDamon.png', 'Im_GeorgeClooney.png', 'Im_DanielCraig.png', 'Im_DanielRadcliffe.png', 'Im_RyanGosling.png', 'Im_BradPitt.png', 'Im_LeonardoDiCaprio.png'],same,1,0.5000937999866437,21,83.33333333333333,
SEMY0204,7,neg,30,neg30_id11_im2.bmp_neg30_id13_im29.bmp,['Im_KeanuReeves.png', 'Im_RyanReynolds.png', 'Im_OrlandoBloom.png', 'Im_MattDamon.png', 'Im_GeorgeClooney.png', 'Im_DanielCraig.png', 'Im_DanielRadcliffe.png', 'Im_RyanGosling.png', 'Im_BradPitt.png', 'Im_LeonardoDiCaprio.png'],diff,1,0.4086877999943681,22,83.33333333333333,
SEMY0204,7,neg,30,neg30_id14_im16.bmp_neg30_id14_im18.bmp,['Im_KeanuReeves.png', 'Im_RyanReynolds.png', 'Im_OrlandoBloom.png', 'Im_MattDamon.png', 'Im_GeorgeClooney.png', 'Im_DanielCraig.png', 'Im_DanielRadcliffe.png', 'Im_RyanGosling.png', 'Im_BradPitt.png', 'Im_LeonardoDiCaprio.png'],diff,0,0.8667998999881092,22,83.33333333333333,
SEMY0204,7,neg,150,neg150_id14_im24.bmp_neg150_id7_im14.bmp,['Im_KeanuReeves.png', 'Im_RyanReynolds.png', 'Im_OrlandoBloom.png', 'Im_MattDamon.png', 'Im_GeorgeClooney.png', 'Im_DanielCraig.png', 'Im_DanielRadcliffe.png', 'Im_RyanGosling.png', 'Im_BradPitt.png', 'Im_LeonardoDiCaprio.png'],diff,1,0.4167336999962572,23,83.33333333333333,
SEMY0204,7,neg,fs,negfs_id11_im1.bmp_negfs_id3_im17.bmp,['Im_KeanuReeves.png', 'Im_RyanReynolds.png', 'Im_OrlandoBloom.png', 'Im_MattDamon.png', 'Im_GeorgeClooney.png', 'Im_DanielCraig.png', 'Im_DanielRadcliffe.png', 'Im_RyanGosling.png', 'Im_BradPitt.png', 'Im_LeonardoDiCaprio.png'],diff,1,0.416758099978324,24,83.33333333333333,
SEMY0204,7,neg,120,neg120_id14_im24.bmp_neg120_id20_im30.bmp,['Im_KeanuReeves.png', 'Im_RyanReynolds.png', 'Im_OrlandoBloom.png', 'Im_MattDamon.png', 'Im_GeorgeClooney.png', 'Im_DanielCraig.png', 'Im_DanielRadcliffe.png', 'Im_RyanGosling.png', 'Im_BradPitt.png', 'Im_LeonardoDiCaprio.png'],diff,1,0.4169234999862965,25,83.33333333333333,
SEMY0204,7,neg,0,neg0_id14_im24.bmp_neg0_id14_im18.bmp,['Im_KeanuReeves.png', 'Im_RyanReynolds.png', 'Im_OrlandoBloom.png', 'Im_MattDamon.png', 'Im_GeorgeClooney.png', 'Im_DanielCraig.png', 'Im_DanielRadcliffe.png', 'Im_RyanGosling.png', 'Im_BradPitt.png', 'Im_LeonardoDiCaprio.png'],diff,0,1.0750185999786481,25,83.33333333333333,
SEMY0204,7,neg,fs,negfs_id21_im17.bmp_negfs_id21_im16.bmp,['Im_KeanuReeves.png', 'Im_RyanReynolds.png', 'Im_OrlandoBloom.png', 'Im_MattDamon.png', 'Im_GeorgeClooney.png', 'Im_DanielCraig.png', 'Im_DanielRadcliffe.png', 'Im_RyanGosling.png', 'Im_BradPitt.png', 'Im_LeonardoDiCaprio.png'],same,1,0.42518019999261014,26,83.33333333333333,
SEMY0204,8,inv,fs,posfs_id5_im1.bmp_posfs_id4_im15.bmp,['Im_KeanuReeves.png', 'Im_RyanReynolds.png', 'Im_OrlandoBloom.png', 'Im_MattDamon.png', 'Im_GeorgeClooney.png', 'Im_DanielCraig.png', 'Im_DanielRadcliffe.png', 'Im_RyanGosling.png', 'Im_BradPitt.png', 'Im_LeonardoDiCaprio.png'],diff,1,0.42504360000020824,27,83.33333333333333,
SEMY0204,8,inv,30,pos30_id20_im12.bmp_pos30_id20_im30.bmp,['Im_KeanuReeves.png', 'Im_RyanReynolds.png', 'Im_OrlandoBloom.png', 'Im_MattDamon.png', 'Im_GeorgeClooney.png', 'Im_DanielCraig.png', 'Im_DanielRadcliffe.png', 'Im_RyanGosling.png', 'Im_BradPitt.png', 'Im_LeonardoDiCaprio.png'],same,1,0.4167186999984551,28,83.33333333333333,
SEMY0204,8,inv,150,pos150_id4_im20.bmp_pos150_id4_im15.bmp,['Im_KeanuReeves.png', 'Im_RyanReynolds.png', 'Im_OrlandoBloom.png', 'Im_MattDamon.png', 'Im_GeorgeClooney.png', 'Im_DanielCraig.png', 'Im_DanielRadcliffe.png', 'Im_RyanGosling.png', 'Im_BradPitt.png', 'Im_LeonardoDiCaprio.png'],same,1,0.4251808999979403,29,83.33333333333333,
SEMY0204,8,inv,0,pos0_id4_im15.bmp_pos0_id4_im20.bmp,['Im_KeanuReeves.png', 'Im_RyanReynolds.png', 'Im_OrlandoBloom.png', 'Im_MattDamon.png', 'Im_GeorgeClooney.png', 'Im_DanielCraig.png', 'Im_DanielRadcliffe.png', 'Im_RyanGosling.png', 'Im_BradPitt.png', 'Im_LeonardoDiCaprio.png'],same,1,0.42506970002432354,30,83.33333333333333,
SEMY0204,8,inv,0,pos0_id13_im15.bmp_pos0_id16_im19.bmp,['Im_KeanuReeves.png', 'Im_RyanReynolds.png', 'Im_OrlandoBloom.png', 'Im_MattDamon.png', 'Im_GeorgeClooney.png', 'Im_DanielCraig.png', 'Im_DanielRadcliffe.png', 'Im_RyanGosling.png', 'Im_BradPitt.png', 'Im_LeonardoDiCaprio.png'],diff,1,0.5002700999903027,31,83.33333333333333,
SEMY0204,8,inv,120,pos120_id13_im15.bmp_pos120_id13_im10.bmp,['Im_KeanuReeves.png', 'Im_RyanReynolds.png', 'Im_OrlandoBloom.png', 'Im_MattDamon.png', 'Im_GeorgeClooney.png', 'Im_DanielCraig.png', 'Im_DanielRadcliffe.png', 'Im_RyanGosling.png', 'Im_BradPitt.png', 'Im_LeonardoDiCaprio.png'],same,1,0.4169011999911163,32,83.33333333333333,
SEMY0204,8,inv,30,pos30_id3_im17.bmp_pos30_id3_im6.bmp,['Im_KeanuReeves.png', 'Im_RyanReynolds.png', 'Im_OrlandoBloom.png', 'Im_MattDamon.png', 'Im_GeorgeClooney.png', 'Im_DanielCraig.png', 'Im_DanielRadcliffe.png', 'Im_RyanGosling.png', 'Im_BradPitt.png', 'Im_LeonardoDiCaprio.png'],diff,0,0.4167126000102144,32,83.33333333333333,
SEMY0204,8,inv,fs,posfs_id4_im20.bmp_posfs_id7_im14.bmp,['Im_KeanuReeves.png', 'Im_RyanReynolds.png', 'Im_OrlandoBloom.png', 'Im_MattDamon.png', 'Im_GeorgeClooney.png', 'Im_DanielCraig.png', 'Im_DanielRadcliffe.png', 'Im_RyanGosling.png', 'Im_BradPitt.png', 'Im_LeonardoDiCaprio.png'],diff,1,0.4250854999991134,33,83.33333333333333,
SEMY0204,8,inv,90,pos90_id7_im14.bmp_pos90_id7_im26.bmp,['Im_KeanuReeves.png', 'Im_RyanReynolds.png', 'Im_OrlandoBloom.png', 'Im_MattDamon.png', 'Im_GeorgeClooney.png', 'Im_DanielCraig.png', 'Im_DanielRadcliffe.png', 'Im_RyanGosling.png', 'Im_BradPitt.png', 'Im_LeonardoDiCaprio.png'],same,1,0.5417464000056498,34,83.33333333333333,
SEMY0204,8,inv,90,pos90_id11_im2.bmp_pos90_id13_im29.bmp,['Im_KeanuReeves.png', 'Im_RyanReynolds.png', 'Im_OrlandoBloom.png', 'Im_MattDamon.png', 'Im_GeorgeClooney.png', 'Im_DanielCraig.png', 'Im_DanielRadcliffe.png', 'Im_RyanGosling.png', 'Im_BradPitt.png', 'Im_LeonardoDiCaprio.png'],diff,1,0.41678119997959584,35,83.33333333333333,
SEMY0204,8,inv,120,pos120_id13_im29.bmp_pos120_id13_im15.bmp,['Im_KeanuReeves.png', 'Im_RyanReynolds.png', 'Im_OrlandoBloom.png', 'Im_MattDamon.png', 'Im_GeorgeClooney.png', 'Im_DanielCraig.png', 'Im_DanielRadcliffe.png', 'Im_RyanGosling.png', 'Im_BradPitt.png', 'Im_LeonardoDiCaprio.png'],same,1,0.7082832000160124,36,83.33333333333333,
SEMY0204,8,inv,150,pos150_id7_im15.bmp_pos150_id20_im3.bmp,['Im_KeanuReeves.png', 'Im_RyanReynolds.png', 'Im_OrlandoBloom.png', 'Im_MattDamon.png', 'Im_GeorgeClooney.png', 'Im_DanielCraig.png', 'Im_DanielRadcliffe.png', 'Im_RyanGosling.png', 'Im_BradPitt.png', 'Im_LeonardoDiCaprio.png'],diff,1,0.41671130000031553,37,83.33333333333333,
SEMY0204,8,inv,60,pos60_id4_im7.bmp_pos60_id16_im3.bmp,['Im_KeanuReeves.png', 'Im_RyanReynolds.png', 'Im_OrlandoBloom.png', 'Im_MattDamon.png', 'Im_GeorgeClooney.png', 'Im_DanielCraig.png', 'Im_DanielRadcliffe.png', 'Im_RyanGosling.png', 'Im_BradPitt.png', 'Im_LeonardoDiCaprio.png'],diff,1,0.425371899997117,38,83.33333333333333,
SEMY0204,8,inv,60,pos60_id11_im10.bmp_pos60_id11_im1.bmp,['Im_KeanuReeves.png', 'Im_RyanReynolds.png', 'Im_OrlandoBloom.png', 'Im_MattDamon.png', 'Im_GeorgeClooney.png', 'Im_DanielCraig.png', 'Im_DanielRadcliffe.png', 'Im_RyanGosling.png', 'Im_BradPitt.png', 'Im_LeonardoDiCaprio.png'],same,1,0.5670786999980919,39,83.33333333333333,
SEMY0204,9,pos,120,pos120_id13_im10.bmp_pos120_id13_im29.bmp,['Im_KeanuReeves.png', 'Im_RyanReynolds.png', 'Im_OrlandoBloom.png', 'Im_MattDamon.png', 'Im_GeorgeClooney.png', 'Im_DanielCraig.png', 'Im_DanielRadcliffe.png', 'Im_RyanGosling.png', 'Im_BradPitt.png', 'Im_LeonardoDiCaprio.png'],same,1,0.5416922000003979,1,92.85714285714286,
SEMY0204,9,pos,60,pos60_id14_im16.bmp_pos60_id14_im24.bmp,['Im_KeanuReeves.png', 'Im_RyanReynolds.png', 'Im_OrlandoBloom.png', 'Im_MattDamon.png', 'Im_GeorgeClooney.png', 'Im_DanielCraig.png', 'Im_DanielRadcliffe.png', 'Im_RyanGosling.png', 'Im_BradPitt.png', 'Im_LeonardoDiCaprio.png'],same,1,0.4583942000172101,2,92.85714285714286,
SEMY0204,9,pos,150,pos150_id20_im3.bmp_pos150_id7_im26.bmp,['Im_KeanuReeves.png', 'Im_RyanReynolds.png', 'Im_OrlandoBloom.png', 'Im_MattDamon.png', 'Im_GeorgeClooney.png', 'Im_DanielCraig.png', 'Im_DanielRadcliffe.png', 'Im_RyanGosling.png', 'Im_BradPitt.png', 'Im_LeonardoDiCaprio.png'],diff,1,0.43354339999496005,3,92.85714285714286,
SEMY0204,9,pos,90,pos90_id16_im3.bmp_pos90_id16_im2.bmp,['Im_KeanuReeves.png', 'Im_RyanReynolds.png', 'Im_OrlandoBloom.png', 'Im_MattDamon.png', 'Im_GeorgeClooney.png', 'Im_DanielCraig.png', 'Im_DanielRadcliffe.png', 'Im_RyanGosling.png', 'Im_BradPitt.png', 'Im_LeonardoDiCaprio.png'],same,1,0.4167578000051435,4,92.85714285714286,
SEMY0204,9,pos,0,pos0_id11_im10.bmp_pos0_id16_im2.bmp,['Im_KeanuReeves.png', 'Im_RyanReynolds.png', 'Im_OrlandoBloom.png', 'Im_MattDamon.png', 'Im_GeorgeClooney.png', 'Im_DanielCraig.png', 'Im_DanielRadcliffe.png', 'Im_RyanGosling.png', 'Im_BradPitt.png', 'Im_LeonardoDiCaprio.png'],diff,1,0.9504463000048418,5,92.85714285714286,
SEMY0204,9,pos,30,pos30_id14_im18.bmp_pos30_id13_im10.bmp,['Im_KeanuReeves.png', 'Im_RyanReynolds.png', 'Im_OrlandoBloom.png', 'Im_MattDamon.png', 'Im_GeorgeClooney.png', 'Im_DanielCraig.png', 'Im_DanielRadcliffe.png', 'Im_RyanGosling.png', 'Im_BradPitt.png', 'Im_LeonardoDiCaprio.png'],same,0,0.45836989997769706,5,92.85714285714286,
SEMY0204,9,pos,150,pos150_id13_im15.bmp_pos150_id16_im19.bmp,['Im_KeanuReeves.png', 'Im_RyanReynolds.png', 'Im_OrlandoBloom.png', 'Im_MattDamon.png', 'Im_GeorgeClooney.png', 'Im_DanielCraig.png', 'Im_DanielRadcliffe.png', 'Im_RyanGosling.png', 'Im_BradPitt.png', 'Im_LeonardoDiCaprio.png'],diff,1,0.42494160000933334,6,92.85714285714286,
SEMY0204,9,pos,fs,posfs_id11_im2.bmp_posfs_id11_im1.bmp,['Im_KeanuReeves.png', 'Im_RyanReynolds.png', 'Im_OrlandoBloom.png', 'Im_MattDamon.png', 'Im_GeorgeClooney.png', 'Im_DanielCraig.png', 'Im_DanielRadcliffe.png', 'Im_RyanGosling.png', 'Im_BradPitt.png', 'Im_LeonardoDiCaprio.png'],same,1,0.4165627000038512,7,92.85714285714286,
SEMY0204,9,pos,120,pos120_id3_im8.bmp_pos120_id7_im26.bmp,['Im_KeanuReeves.png', 'Im_RyanReynolds.png', 'Im_OrlandoBloom.png', 'Im_MattDamon.png', 'Im_GeorgeClooney.png', 'Im_DanielCraig.png', 'Im_DanielRadcliffe.png', 'Im_RyanGosling.png', 'Im_BradPitt.png', 'Im_LeonardoDiCaprio.png'],diff,1,0.41665389999980107,8,92.85714285714286,
SEMY0204,9,pos,60,pos60_id14_im16.bmp_pos60_id5_im20.bmp,['Im_KeanuReeves.png', 'Im_RyanReynolds.png', 'Im_OrlandoBloom.png', 'Im_MattDamon.png', 'Im_GeorgeClooney.png', 'Im_DanielCraig.png', 'Im_DanielRadcliffe.png', 'Im_RyanGosling.png', 'Im_BradPitt.png', 'Im_LeonardoDiCaprio.png'],diff,1,0.4249495999829378,9,92.85714285714286,
SEMY0204,9,pos,90,pos90_id13_im29.bmp_pos90_id3_im17.bmp,['Im_KeanuReeves.png', 'Im_RyanReynolds.png', 'Im_OrlandoBloom.png', 'Im_MattDamon.png', 'Im_GeorgeClooney.png', 'Im_DanielCraig.png', 'Im_DanielRadcliffe.png', 'Im_RyanGosling.png', 'Im_BradPitt.png', 'Im_LeonardoDiCaprio.png'],diff,1,0.6088451000105124,10,92.85714285714286,
SEMY0204,9,pos,0,pos0_id5_im1.bmp_pos0_id11_im1.bmp,['Im_KeanuReeves.png', 'Im_RyanReynolds.png', 'Im_OrlandoBloom.png', 'Im_MattDamon.png', 'Im_GeorgeClooney.png', 'Im_DanielCraig.png', 'Im_DanielRadcliffe.png', 'Im_RyanGosling.png', 'Im_BradPitt.png', 'Im_LeonardoDiCaprio.png'],diff,1,0.5002622000174597,11,92.85714285714286,
SEMY0204,9,pos,30,pos30_id20_im3.bmp_pos30_id7_im26.bmp,['Im_KeanuReeves.png', 'Im_RyanReynolds.png', 'Im_OrlandoBloom.png', 'Im_MattDamon.png', 'Im_GeorgeClooney.png', 'Im_DanielCraig.png', 'Im_DanielRadcliffe.png', 'Im_RyanGosling.png', 'Im_BradPitt.png', 'Im_LeonardoDiCaprio.png'],diff,1,0.7084050999837928,12,92.85714285714286,
SEMY0204,9,pos,fs,posfs_id13_im15.bmp_posfs_id13_im29.bmp,['Im_KeanuReeves.png', 'Im_RyanReynolds.png', 'Im_OrlandoBloom.png', 'Im_MattDamon.png', 'Im_GeorgeClooney.png', 'Im_DanielCraig.png', 'Im_DanielRadcliffe.png', 'Im_RyanGosling.png', 'Im_BradPitt.png', 'Im_LeonardoDiCaprio.png'],same,1,0.4250263999856543,13,92.85714285714286,
SEMY0204,10,neg,150,neg150_id14_im18.bmp_neg150_id13_im10.bmp,['Im_KeanuReeves.png', 'Im_RyanReynolds.png', 'Im_OrlandoBloom.png', 'Im_MattDamon.png', 'Im_GeorgeClooney.png', 'Im_DanielCraig.png', 'Im_DanielRadcliffe.png', 'Im_RyanGosling.png', 'Im_BradPitt.png', 'Im_LeonardoDiCaprio.png'],same,0,0.42501619999529794,13,92.85714285714286,
SEMY0204,10,neg,fs,negfs_id21_im16.bmp_negfs_id7_im15.bmp,['Im_KeanuReeves.png', 'Im_RyanReynolds.png', 'Im_OrlandoBloom.png', 'Im_MattDamon.png', 'Im_GeorgeClooney.png', 'Im_DanielCraig.png', 'Im_DanielRadcliffe.png', 'Im_RyanGosling.png', 'Im_BradPitt.png', 'Im_LeonardoDiCaprio.png'],diff,1,0.4250659999961499,14,92.85714285714286,
SEMY0204,10,neg,0,neg0_id11_im1.bmp_neg0_id11_im10.bmp,['Im_KeanuReeves.png', 'Im_RyanReynolds.png', 'Im_OrlandoBloom.png', 'Im_MattDamon.png', 'Im_GeorgeClooney.png', 'Im_DanielCraig.png', 'Im_DanielRadcliffe.png', 'Im_RyanGosling.png', 'Im_BradPitt.png', 'Im_LeonardoDiCaprio.png'],same,1,0.5000809000048321,15,92.85714285714286,
SEMY0204,10,neg,90,neg90_id21_im16.bmp_neg90_id7_im15.bmp,['Im_KeanuReeves.png', 'Im_RyanReynolds.png', 'Im_OrlandoBloom.png', 'Im_MattDamon.png', 'Im_GeorgeClooney.png', 'Im_DanielCraig.png', 'Im_DanielRadcliffe.png', 'Im_RyanGosling.png', 'Im_BradPitt.png', 'Im_LeonardoDiCaprio.png'],same,0,0.43419480000738986,15,92.85714285714286,
SEMY0204,10,neg,90,neg90_id16_im3.bmp_neg90_id16_im19.bmp,['Im_KeanuReeves.png', 'Im_RyanReynolds.png', 'Im_OrlandoBloom.png', 'Im_MattDamon.png', 'Im_GeorgeClooney.png', 'Im_DanielCraig.png', 'Im_DanielRadcliffe.png', 'Im_RyanGosling.png', 'Im_BradPitt.png', 'Im_LeonardoDiCaprio.png'],same,1,0.4165472000022419,16,92.85714285714286,
SEMY0204,10,neg,30,neg30_id13_im29.bmp_neg30_id3_im17.bmp,['Im_KeanuReeves.png', 'Im_RyanReynolds.png', 'Im_OrlandoBloom.png', 'Im_MattDamon.png', 'Im_GeorgeClooney.png', 'Im_DanielCraig.png', 'Im_DanielRadcliffe.png', 'Im_RyanGosling.png', 'Im_BradPitt.png', 'Im_LeonardoDiCaprio.png'],diff,1,0.4249378999811597,17,92.85714285714286,
SEMY0204,10,neg,0,neg0_id4_im15.bmp_neg0_id5_im1.bmp,['Im_KeanuReeves.png', 'Im_RyanReynolds.png', 'Im_OrlandoBloom.png', 'Im_MattDamon.png', 'Im_GeorgeClooney.png', 'Im_DanielCraig.png', 'Im_DanielRadcliffe.png', 'Im_RyanGosling.png', 'Im_BradPitt.png', 'Im_LeonardoDiCaprio.png'],diff,1,0.4166129999794066,18,92.85714285714286,
SEMY0204,10,neg,fs,negfs_id21_im17.bmp_negfs_id5_im20.bmp,['Im_KeanuReeves.png', 'Im_RyanReynolds.png', 'Im_OrlandoBloom.png', 'Im_MattDamon.png', 'Im_GeorgeClooney.png', 'Im_DanielCraig.png', 'Im_DanielRadcliffe.png', 'Im_RyanGosling.png', 'Im_BradPitt.png', 'Im_LeonardoDiCaprio.png'],diff,1,0.4168143999995664,19,92.85714285714286,
SEMY0204,10,neg,120,neg120_id21_im16.bmp_neg120_id14_im16.bmp,['Im_KeanuReeves.png', 'Im_RyanReynolds.png', 'Im_OrlandoBloom.png', 'Im_MattDamon.png', 'Im_GeorgeClooney.png', 'Im_DanielCraig.png', 'Im_DanielRadcliffe.png', 'Im_RyanGosling.png', 'Im_BradPitt.png', 'Im_LeonardoDiCaprio.png'],diff,1,0.4418058999872301,20,92.85714285714286,
SEMY0204,10,neg,120,neg120_id14_im24.bmp_neg120_id14_im18.bmp,['Im_KeanuReeves.png', 'Im_RyanReynolds.png', 'Im_OrlandoBloom.png', 'Im_MattDamon.png', 'Im_GeorgeClooney.png', 'Im_DanielCraig.png', 'Im_DanielRadcliffe.png', 'Im_RyanGosling.png', 'Im_BradPitt.png', 'Im_LeonardoDiCaprio.png'],same,1,0.4167283000133466,21,92.85714285714286,
SEMY0204,10,neg,150,neg150_id5_im20.bmp_neg150_id5_im10.bmp,['Im_KeanuReeves.png', 'Im_RyanReynolds.png', 'Im_OrlandoBloom.png', 'Im_MattDamon.png', 'Im_GeorgeClooney.png', 'Im_DanielCraig.png', 'Im_DanielRadcliffe.png', 'Im_RyanGosling.png', 'Im_BradPitt.png', 'Im_LeonardoDiCaprio.png'],same,1,0.4167046000075061,22,92.85714285714286,
SEMY0204,10,neg,30,neg30_id5_im1.bmp_neg30_id4_im15.bmp,['Im_KeanuReeves.png', 'Im_RyanReynolds.png', 'Im_OrlandoBloom.png', 'Im_MattDamon.png', 'Im_GeorgeClooney.png', 'Im_DanielCraig.png', 'Im_DanielRadcliffe.png', 'Im_RyanGosling.png', 'Im_BradPitt.png', 'Im_LeonardoDiCaprio.png'],diff,1,0.583644500002265,23,92.85714285714286,
SEMY0204,10,neg,60,neg60_id4_im15.bmp_neg60_id4_im7.bmp,['Im_KeanuReeves.png', 'Im_RyanReynolds.png', 'Im_OrlandoBloom.png', 'Im_MattDamon.png', 'Im_GeorgeClooney.png', 'Im_DanielCraig.png', 'Im_DanielRadcliffe.png', 'Im_RyanGosling.png', 'Im_BradPitt.png', 'Im_LeonardoDiCaprio.png'],same,1,0.4167197000060696,24,92.85714285714286,
SEMY0204,10,neg,60,neg60_id4_im20.bmp_neg60_id7_im14.bmp,['Im_KeanuReeves.png', 'Im_RyanReynolds.png', 'Im_OrlandoBloom.png', 'Im_MattDamon.png', 'Im_GeorgeClooney.png', 'Im_DanielCraig.png', 'Im_DanielRadcliffe.png', 'Im_RyanGosling.png', 'Im_BradPitt.png', 'Im_LeonardoDiCaprio.png'],diff,1,0.4834203000064008,25,92.85714285714286,
SEMY0204,11,inv,0,pos0_id11_im1.bmp_pos0_id11_im10.bmp,['Im_KeanuReeves.png', 'Im_RyanReynolds.png', 'Im_OrlandoBloom.png', 'Im_MattDamon.png', 'Im_GeorgeClooney.png', 'Im_DanielCraig.png', 'Im_DanielRadcliffe.png', 'Im_RyanGosling.png', 'Im_BradPitt.png', 'Im_LeonardoDiCaprio.png'],same,1,0.416746000002604,26,92.85714285714286,
SEMY0204,11,inv,0,pos0_id16_im19.bmp_pos0_id16_im3.bmp,['Im_KeanuReeves.png', 'Im_RyanReynolds.png', 'Im_OrlandoBloom.png', 'Im_MattDamon.png', 'Im_GeorgeClooney.png', 'Im_DanielCraig.png', 'Im_DanielRadcliffe.png', 'Im_RyanGosling.png', 'Im_BradPitt.png', 'Im_LeonardoDiCaprio.png'],diff,0,0.8167424999992363,26,92.85714285714286,
SEMY0204,11,inv,90,pos90_id5_im10.bmp_pos90_id14_im18.bmp,['Im_KeanuReeves.png', 'Im_RyanReynolds.png', 'Im_OrlandoBloom.png', 'Im_MattDamon.png', 'Im_GeorgeClooney.png', 'Im_DanielCraig.png', 'Im_DanielRadcliffe.png', 'Im_RyanGosling.png', 'Im_BradPitt.png', 'Im_LeonardoDiCaprio.png'],diff,1,0.4165233999956399,27,92.85714285714286,
SEMY0204,11,inv,150,pos150_id3_im6.bmp_pos150_id16_im3.bmp,['Im_KeanuReeves.png', 'Im_RyanReynolds.png', 'Im_OrlandoBloom.png', 'Im_MattDamon.png', 'Im_GeorgeClooney.png', 'Im_DanielCraig.png', 'Im_DanielRadcliffe.png', 'Im_RyanGosling.png', 'Im_BradPitt.png', 'Im_LeonardoDiCaprio.png'],diff,1,0.5666417999891564,28,92.85714285714286,
SEMY0204,11,inv,30,pos30_id20_im3.bmp_pos30_id20_im30.bmp,['Im_KeanuReeves.png', 'Im_RyanReynolds.png', 'Im_OrlandoBloom.png', 'Im_MattDamon.png', 'Im_GeorgeClooney.png', 'Im_DanielCraig.png', 'Im_DanielRadcliffe.png', 'Im_RyanGosling.png', 'Im_BradPitt.png', 'Im_LeonardoDiCaprio.png'],same,1,0.41677189999609254,29,92.85714285714286,
SEMY0204,11,inv,120,pos120_id21_im16.bmp_pos120_id21_im17.bmp,['Im_KeanuReeves.png', 'Im_RyanReynolds.png', 'Im_OrlandoBloom.png', 'Im_MattDamon.png', 'Im_GeorgeClooney.png', 'Im_DanielCraig.png', 'Im_DanielRadcliffe.png', 'Im_RyanGosling.png', 'Im_BradPitt.png', 'Im_LeonardoDiCaprio.png'],same,1,0.4250379999866709,30,92.85714285714286,
SEMY0204,11,inv,60,pos60_id3_im8.bmp_pos60_id3_im17.bmp,['Im_KeanuReeves.png', 'Im_RyanReynolds.png', 'Im_OrlandoBloom.png', 'Im_MattDamon.png', 'Im_GeorgeClooney.png', 'Im_DanielCraig.png', 'Im_DanielRadcliffe.png', 'Im_RyanGosling.png', 'Im_BradPitt.png', 'Im_LeonardoDiCaprio.png'],same,1,0.4168882999802008,31,92.85714285714286,
SEMY0204,11,inv,150,pos150_id4_im7.bmp_pos150_id16_im3.bmp,['Im_KeanuReeves.png', 'Im_RyanReynolds.png', 'Im_OrlandoBloom.png', 'Im_MattDamon.png', 'Im_GeorgeClooney.png', 'Im_DanielCraig.png', 'Im_DanielRadcliffe.png', 'Im_RyanGosling.png', 'Im_BradPitt.png', 'Im_LeonardoDiCaprio.png'],diff,1,0.5500069000117946,32,92.85714285714286,
SEMY0204,11,inv,120,pos120_id21_im22.bmp_pos120_id21_im17.bmp,['Im_KeanuReeves.png', 'Im_RyanReynolds.png', 'Im_OrlandoBloom.png', 'Im_MattDamon.png', 'Im_GeorgeClooney.png', 'Im_DanielCraig.png', 'Im_DanielRadcliffe.png', 'Im_RyanGosling.png', 'Im_BradPitt.png', 'Im_LeonardoDiCaprio.png'],same,1,0.48368390000541694,33,92.85714285714286,
SEMY0204,11,inv,60,pos60_id14_im24.bmp_pos60_id14_im18.bmp,['Im_KeanuReeves.png', 'Im_RyanReynolds.png', 'Im_OrlandoBloom.png', 'Im_MattDamon.png', 'Im_GeorgeClooney.png', 'Im_DanielCraig.png', 'Im_DanielRadcliffe.png', 'Im_RyanGosling.png', 'Im_BradPitt.png', 'Im_LeonardoDiCaprio.png'],same,1,0.4248970000189729,34,92.85714285714286,
SEMY0204,11,inv,90,pos90_id3_im6.bmp_pos90_id3_im8.bmp,['Im_KeanuReeves.png', 'Im_RyanReynolds.png', 'Im_OrlandoBloom.png', 'Im_MattDamon.png', 'Im_GeorgeClooney.png', 'Im_DanielCraig.png', 'Im_DanielRadcliffe.png', 'Im_RyanGosling.png', 'Im_BradPitt.png', 'Im_LeonardoDiCaprio.png'],diff,0,1.1167133999988437,34,92.85714285714286,
SEMY0204,11,inv,30,pos30_id5_im10.bmp_pos30_id14_im18.bmp,['Im_KeanuReeves.png', 'Im_RyanReynolds.png', 'Im_OrlandoBloom.png', 'Im_MattDamon.png', 'Im_GeorgeClooney.png', 'Im_DanielCraig.png', 'Im_DanielRadcliffe.png', 'Im_RyanGosling.png', 'Im_BradPitt.png', 'Im_LeonardoDiCaprio.png'],diff,1,0.42520900000818074,35,92.85714285714286,
SEMY0204,11,inv,fs,posfs_id7_im15.bmp_posfs_id7_im26.bmp,['Im_KeanuReeves.png', 'Im_RyanReynolds.png', 'Im_OrlandoBloom.png', 'Im_MattDamon.png', 'Im_GeorgeClooney.png', 'Im_DanielCraig.png', 'Im_DanielRadcliffe.png', 'Im_RyanGosling.png', 'Im_BradPitt.png', 'Im_LeonardoDiCaprio.png'],same,1,0.44164820000878535,36,92.85714285714286,
SEMY0204,11,inv,fs,posfs_id4_im20.bmp_posfs_id4_im7.bmp,['Im_KeanuReeves.png', 'Im_RyanReynolds.png', 'Im_OrlandoBloom.png', 'Im_MattDamon.png', 'Im_GeorgeClooney.png', 'Im_DanielCraig.png', 'Im_DanielRadcliffe.png', 'Im_RyanGosling.png', 'Im_BradPitt.png', 'Im_LeonardoDiCaprio.png'],same,1,0.40837580000516027,37,92.85714285714286,
SEMY0204,12,neg,30,neg30_id13_im10.bmp_neg30_id14_im18.bmp,['Im_KeanuReeves.png', 'Im_RyanReynolds.png', 'Im_OrlandoBloom.png', 'Im_MattDamon.png', 'Im_GeorgeClooney.png', 'Im_DanielCraig.png', 'Im_DanielRadcliffe.png', 'Im_RyanGosling.png', 'Im_BradPitt.png', 'Im_LeonardoDiCaprio.png'],same,0,0.5836405000009108,0,88.0952380952381,
SEMY0204,12,neg,150,neg150_id11_im10.bmp_neg150_id3_im6.bmp,['Im_KeanuReeves.png', 'Im_RyanReynolds.png', 'Im_OrlandoBloom.png', 'Im_MattDamon.png', 'Im_GeorgeClooney.png', 'Im_DanielCraig.png', 'Im_DanielRadcliffe.png', 'Im_RyanGosling.png', 'Im_BradPitt.png', 'Im_LeonardoDiCaprio.png'],diff,1,0.416604300000472,1,88.0952380952381,
SEMY0204,12,neg,60,neg60_id20_im3.bmp_neg60_id7_im26.bmp,['Im_KeanuReeves.png', 'Im_RyanReynolds.png', 'Im_OrlandoBloom.png', 'Im_MattDamon.png', 'Im_GeorgeClooney.png', 'Im_DanielCraig.png', 'Im_DanielRadcliffe.png', 'Im_RyanGosling.png', 'Im_BradPitt.png', 'Im_LeonardoDiCaprio.png'],diff,1,0.45030430000042543,2,88.0952380952381,
SEMY0204,12,neg,90,neg90_id4_im15.bmp_neg90_id4_im20.bmp,['Im_KeanuReeves.png', 'Im_RyanReynolds.png', 'Im_OrlandoBloom.png', 'Im_MattDamon.png', 'Im_GeorgeClooney.png', 'Im_DanielCraig.png', 'Im_DanielRadcliffe.png', 'Im_RyanGosling.png', 'Im_BradPitt.png', 'Im_LeonardoDiCaprio.png'],same,1,0.5083840999868698,3,88.0952380952381,
SEMY0204,12,neg,90,neg90_id21_im17.bmp_neg90_id5_im20.bmp,['Im_KeanuReeves.png', 'Im_RyanReynolds.png', 'Im_OrlandoBloom.png', 'Im_MattDamon.png', 'Im_GeorgeClooney.png', 'Im_DanielCraig.png', 'Im_DanielRadcliffe.png', 'Im_RyanGosling.png', 'Im_BradPitt.png', 'Im_LeonardoDiCaprio.png'],diff,1,0.416750200005481,4,88.0952380952381,
SEMY0204,12,neg,150,neg150_id20_im3.bmp_neg150_id20_im30.bmp,['Im_KeanuReeves.png', 'Im_RyanReynolds.png', 'Im_OrlandoBloom.png', 'Im_MattDamon.png', 'Im_GeorgeClooney.png', 'Im_DanielCraig.png', 'Im_DanielRadcliffe.png', 'Im_RyanGosling.png', 'Im_BradPitt.png', 'Im_LeonardoDiCaprio.png'],same,1,0.8833442000031937,5,88.0952380952381,
SEMY0204,12,neg,120,neg120_id21_im17.bmp_neg120_id5_im20.bmp,['Im_KeanuReeves.png', 'Im_RyanReynolds.png', 'Im_OrlandoBloom.png', 'Im_MattDamon.png', 'Im_GeorgeClooney.png', 'Im_DanielCraig.png', 'Im_DanielRadcliffe.png', 'Im_RyanGosling.png', 'Im_BradPitt.png', 'Im_LeonardoDiCaprio.png'],diff,1,0.41687489999458194,6,88.0952380952381,
SEMY0204,12,neg,30,neg30_id16_im3.bmp_neg30_id3_im6.bmp,['Im_KeanuReeves.png', 'Im_RyanReynolds.png', 'Im_OrlandoBloom.png', 'Im_MattDamon.png', 'Im_GeorgeClooney.png', 'Im_DanielCraig.png', 'Im_DanielRadcliffe.png', 'Im_RyanGosling.png', 'Im_BradPitt.png', 'Im_LeonardoDiCaprio.png'],diff,1,0.41657660002238117,7,88.0952380952381,
SEMY0204,12,neg,0,neg0_id16_im19.bmp_neg0_id16_im3.bmp,['Im_KeanuReeves.png', 'Im_RyanReynolds.png', 'Im_OrlandoBloom.png', 'Im_MattDamon.png', 'Im_GeorgeClooney.png', 'Im_DanielCraig.png', 'Im_DanielRadcliffe.png', 'Im_RyanGosling.png', 'Im_BradPitt.png', 'Im_LeonardoDiCaprio.png'],same,1,0.41679069999372587,8,88.0952380952381,
SEMY0204,12,neg,0,neg0_id7_im15.bmp_neg0_id20_im3.bmp,['Im_KeanuReeves.png', 'Im_RyanReynolds.png', 'Im_OrlandoBloom.png', 'Im_MattDamon.png', 'Im_GeorgeClooney.png', 'Im_DanielCraig.png', 'Im_DanielRadcliffe.png', 'Im_RyanGosling.png', 'Im_BradPitt.png', 'Im_LeonardoDiCaprio.png'],diff,1,0.41676409999490716,9,88.0952380952381,
SEMY0204,12,neg,fs,negfs_id21_im16.bmp_negfs_id14_im16.bmp,['Im_KeanuReeves.png', 'Im_RyanReynolds.png', 'Im_OrlandoBloom.png', 'Im_MattDamon.png', 'Im_GeorgeClooney.png', 'Im_DanielCraig.png', 'Im_DanielRadcliffe.png', 'Im_RyanGosling.png', 'Im_BradPitt.png', 'Im_LeonardoDiCaprio.png'],diff,1,0.5250130000058562,10,88.0952380952381,
SEMY0204,12,neg,60,neg60_id5_im1.bmp_neg60_id5_im20.bmp,['Im_KeanuReeves.png', 'Im_RyanReynolds.png', 'Im_OrlandoBloom.png', 'Im_MattDamon.png', 'Im_GeorgeClooney.png', 'Im_DanielCraig.png', 'Im_DanielRadcliffe.png', 'Im_RyanGosling.png', 'Im_BradPitt.png', 'Im_LeonardoDiCaprio.png'],same,1,0.4168872000009287,11,88.0952380952381,
SEMY0204,12,neg,fs,negfs_id16_im2.bmp_negfs_id16_im19.bmp,['Im_KeanuReeves.png', 'Im_RyanReynolds.png', 'Im_OrlandoBloom.png', 'Im_MattDamon.png', 'Im_GeorgeClooney.png', 'Im_DanielCraig.png', 'Im_DanielRadcliffe.png', 'Im_RyanGosling.png', 'Im_BradPitt.png', 'Im_LeonardoDiCaprio.png'],same,1,0.4165971000038553,12,88.0952380952381,
SEMY0204,12,neg,120,neg120_id11_im10.bmp_neg120_id11_im2.bmp,['Im_KeanuReeves.png', 'Im_RyanReynolds.png', 'Im_OrlandoBloom.png', 'Im_MattDamon.png', 'Im_GeorgeClooney.png', 'Im_DanielCraig.png', 'Im_DanielRadcliffe.png', 'Im_RyanGosling.png', 'Im_BradPitt.png', 'Im_LeonardoDiCaprio.png'],diff,0,0.41670760000124574,12,88.0952380952381,
SEMY0204,13,pos,150,pos150_id11_im10.bmp_pos150_id11_im1.bmp,['Im_KeanuReeves.png', 'Im_RyanReynolds.png', 'Im_OrlandoBloom.png', 'Im_MattDamon.png', 'Im_GeorgeClooney.png', 'Im_DanielCraig.png', 'Im_DanielRadcliffe.png', 'Im_RyanGosling.png', 'Im_BradPitt.png', 'Im_LeonardoDiCaprio.png'],same,1,0.4084017999994103,13,88.0952380952381,
SEMY0204,13,pos,60,pos60_id7_im14.bmp_pos60_id14_im24.bmp,['Im_KeanuReeves.png', 'Im_RyanReynolds.png', 'Im_OrlandoBloom.png', 'Im_MattDamon.png', 'Im_GeorgeClooney.png', 'Im_DanielCraig.png', 'Im_DanielRadcliffe.png', 'Im_RyanGosling.png', 'Im_BradPitt.png', 'Im_LeonardoDiCaprio.png'],diff,1,0.4165738000010606,14,88.0952380952381,
SEMY0204,13,pos,fs,posfs_id5_im10.bmp_posfs_id21_im17.bmp,['Im_KeanuReeves.png', 'Im_RyanReynolds.png', 'Im_OrlandoBloom.png', 'Im_MattDamon.png', 'Im_GeorgeClooney.png', 'Im_DanielCraig.png', 'Im_DanielRadcliffe.png', 'Im_RyanGosling.png', 'Im_BradPitt.png', 'Im_LeonardoDiCaprio.png'],diff,1,0.4168774999852758,15,88.0952380952381,
SEMY0204,13,pos,0,pos0_id16_im19.bmp_pos0_id13_im15.bmp,['Im_KeanuReeves.png', 'Im_RyanReynolds.png', 'Im_OrlandoBloom.png', 'Im_MattDamon.png', 'Im_GeorgeClooney.png', 'Im_DanielCraig.png', 'Im_DanielRadcliffe.png', 'Im_RyanGosling.png', 'Im_BradPitt.png', 'Im_LeonardoDiCaprio.png'],diff,1,0.4167295999941416,16,88.0952380952381,
SEMY0204,13,pos,90,pos90_id13_im10.bmp_pos90_id14_im18.bmp,['Im_KeanuReeves.png', 'Im_RyanReynolds.png', 'Im_OrlandoBloom.png', 'Im_MattDamon.png', 'Im_GeorgeClooney.png', 'Im_DanielCraig.png', 'Im_DanielRadcliffe.png', 'Im_RyanGosling.png', 'Im_BradPitt.png', 'Im_LeonardoDiCaprio.png'],same,0,0.4167901999899186,16,88.0952380952381,
SEMY0204,13,pos,90,pos90_id5_im20.bmp_pos90_id14_im16.bmp,['Im_KeanuReeves.png', 'Im_RyanReynolds.png', 'Im_OrlandoBloom.png', 'Im_MattDamon.png', 'Im_GeorgeClooney.png', 'Im_DanielCraig.png', 'Im_DanielRadcliffe.png', 'Im_RyanGosling.png', 'Im_BradPitt.png', 'Im_LeonardoDiCaprio.png'],diff,1,0.41673279998940416,17,88.0952380952381,
SEMY0204,13,pos,30,pos30_id3_im17.bmp_pos30_id11_im1.bmp,['Im_KeanuReeves.png', 'Im_RyanReynolds.png', 'Im_OrlandoBloom.png', 'Im_MattDamon.png', 'Im_GeorgeClooney.png', 'Im_DanielCraig.png', 'Im_DanielRadcliffe.png', 'Im_RyanGosling.png', 'Im_BradPitt.png', 'Im_LeonardoDiCaprio.png'],diff,1,0.4000565000169445,18,88.0952380952381,
SEMY0204,13,pos,150,pos150_id21_im22.bmp_pos150_id4_im20.bmp,['Im_KeanuReeves.png', 'Im_RyanReynolds.png', 'Im_OrlandoBloom.png', 'Im_MattDamon.png', 'Im_GeorgeClooney.png', 'Im_DanielCraig.png', 'Im_DanielRadcliffe.png', 'Im_RyanGosling.png', 'Im_BradPitt.png', 'Im_LeonardoDiCaprio.png'],diff,1,0.4251159999985248,19,88.0952380952381,
SEMY0204,13,pos,120,pos120_id14_im16.bmp_pos120_id14_im18.bmp,['Im_KeanuReeves.png', 'Im_RyanReynolds.png', 'Im_OrlandoBloom.png', 'Im_MattDamon.png', 'Im_GeorgeClooney.png', 'Im_DanielCraig.png', 'Im_DanielRadcliffe.png', 'Im_RyanGosling.png', 'Im_BradPitt.png', 'Im_LeonardoDiCaprio.png'],same,1,0.4168272000097204,20,88.0952380952381,
SEMY0204,13,pos,120,pos120_id16_im3.bmp_pos120_id16_im2.bmp,['Im_KeanuReeves.png', 'Im_RyanReynolds.png', 'Im_OrlandoBloom.png', 'Im_MattDamon.png', 'Im_GeorgeClooney.png', 'Im_DanielCraig.png', 'Im_DanielRadcliffe.png', 'Im_RyanGosling.png', 'Im_BradPitt.png', 'Im_LeonardoDiCaprio.png'],same,1,0.43334040002082475,21,88.0952380952381,
SEMY0204,13,pos,fs,posfs_id4_im15.bmp_posfs_id4_im20.bmp,['Im_KeanuReeves.png', 'Im_RyanReynolds.png', 'Im_OrlandoBloom.png', 'Im_MattDamon.png', 'Im_GeorgeClooney.png', 'Im_DanielCraig.png', 'Im_DanielRadcliffe.png', 'Im_RyanGosling.png', 'Im_BradPitt.png', 'Im_LeonardoDiCaprio.png'],same,1,0.4083002000115812,22,88.0952380952381,
SEMY0204,13,pos,0,pos0_id5_im1.bmp_pos0_id4_im15.bmp,['Im_KeanuReeves.png', 'Im_RyanReynolds.png', 'Im_OrlandoBloom.png', 'Im_MattDamon.png', 'Im_GeorgeClooney.png', 'Im_DanielCraig.png', 'Im_DanielRadcliffe.png', 'Im_RyanGosling.png', 'Im_BradPitt.png', 'Im_LeonardoDiCaprio.png'],diff,1,0.48346079999464564,23,88.0952380952381,
SEMY0204,13,pos,30,pos30_id5_im1.bmp_pos30_id5_im20.bmp,['Im_KeanuReeves.png', 'Im_RyanReynolds.png', 'Im_OrlandoBloom.png', 'Im_MattDamon.png', 'Im_GeorgeClooney.png', 'Im_DanielCraig.png', 'Im_DanielRadcliffe.png', 'Im_RyanGosling.png', 'Im_BradPitt.png', 'Im_LeonardoDiCaprio.png'],same,1,0.42488519998732954,24,88.0952380952381,
SEMY0204,13,pos,60,pos60_id16_im19.bmp_pos60_id16_im2.bmp,['Im_KeanuReeves.png', 'Im_RyanReynolds.png', 'Im_OrlandoBloom.png', 'Im_MattDamon.png', 'Im_GeorgeClooney.png', 'Im_DanielCraig.png', 'Im_DanielRadcliffe.png', 'Im_RyanGosling.png', 'Im_BradPitt.png', 'Im_LeonardoDiCaprio.png'],same,1,0.42510950000723824,25,88.0952380952381,
SEMY0204,14,inv,150,pos150_id13_im10.bmp_pos150_id13_im29.bmp,['Im_KeanuReeves.png', 'Im_RyanReynolds.png', 'Im_OrlandoBloom.png', 'Im_MattDamon.png', 'Im_GeorgeClooney.png', 'Im_DanielCraig.png', 'Im_DanielRadcliffe.png', 'Im_RyanGosling.png', 'Im_BradPitt.png', 'Im_LeonardoDiCaprio.png'],same,1,0.9250671999761835,26,88.0952380952381,
SEMY0204,14,inv,120,pos120_id5_im20.bmp_pos120_id5_im10.bmp,['Im_KeanuReeves.png', 'Im_RyanReynolds.png', 'Im_OrlandoBloom.png', 'Im_MattDamon.png', 'Im_GeorgeClooney.png', 'Im_DanielCraig.png', 'Im_DanielRadcliffe.png', 'Im_RyanGosling.png', 'Im_BradPitt.png', 'Im_LeonardoDiCaprio.png'],same,1,0.42518900000141,27,88.0952380952381,
SEMY0204,14,inv,60,pos60_id11_im2.bmp_pos60_id13_im29.bmp,['Im_KeanuReeves.png', 'Im_RyanReynolds.png', 'Im_OrlandoBloom.png', 'Im_MattDamon.png', 'Im_GeorgeClooney.png', 'Im_DanielCraig.png', 'Im_DanielRadcliffe.png', 'Im_RyanGosling.png', 'Im_BradPitt.png', 'Im_LeonardoDiCaprio.png'],diff,1,0.42516330000944436,28,88.0952380952381,
SEMY0204,14,inv,fs,posfs_id11_im10.bmp_posfs_id3_im6.bmp,['Im_KeanuReeves.png', 'Im_RyanReynolds.png', 'Im_OrlandoBloom.png', 'Im_MattDamon.png', 'Im_GeorgeClooney.png', 'Im_DanielCraig.png', 'Im_DanielRadcliffe.png', 'Im_RyanGosling.png', 'Im_BradPitt.png', 'Im_LeonardoDiCaprio.png'],diff,1,0.4917637000035029,29,88.0952380952381,
SEMY0204,14,inv,60,pos60_id5_im20.bmp_pos60_id5_im10.bmp,['Im_KeanuReeves.png', 'Im_RyanReynolds.png', 'Im_OrlandoBloom.png', 'Im_MattDamon.png', 'Im_GeorgeClooney.png', 'Im_DanielCraig.png', 'Im_DanielRadcliffe.png', 'Im_RyanGosling.png', 'Im_BradPitt.png', 'Im_LeonardoDiCaprio.png'],same,1,0.4251834000169765,30,88.0952380952381,
SEMY0204,14,inv,90,pos90_id21_im22.bmp_pos90_id4_im20.bmp,['Im_KeanuReeves.png', 'Im_RyanReynolds.png', 'Im_OrlandoBloom.png', 'Im_MattDamon.png', 'Im_GeorgeClooney.png', 'Im_DanielCraig.png', 'Im_DanielRadcliffe.png', 'Im_RyanGosling.png', 'Im_BradPitt.png', 'Im_LeonardoDiCaprio.png'],diff,1,0.800206200015964,31,88.0952380952381,
SEMY0204,14,inv,30,pos30_id16_im19.bmp_pos30_id16_im3.bmp,['Im_KeanuReeves.png', 'Im_RyanReynolds.png', 'Im_OrlandoBloom.png', 'Im_MattDamon.png', 'Im_GeorgeClooney.png', 'Im_DanielCraig.png', 'Im_DanielRadcliffe.png', 'Im_RyanGosling.png', 'Im_BradPitt.png', 'Im_LeonardoDiCaprio.png'],same,1,0.416797999991104,32,88.0952380952381,
SEMY0204,14,inv,120,pos120_id3_im17.bmp_pos120_id13_im29.bmp,['Im_KeanuReeves.png', 'Im_RyanReynolds.png', 'Im_OrlandoBloom.png', 'Im_MattDamon.png', 'Im_GeorgeClooney.png', 'Im_DanielCraig.png', 'Im_DanielRadcliffe.png', 'Im_RyanGosling.png', 'Im_BradPitt.png', 'Im_LeonardoDiCaprio.png'],diff,1,0.6250354000076186,33,88.0952380952381,
SEMY0204,14,inv,0,pos0_id5_im1.bmp_pos0_id5_im20.bmp,['Im_KeanuReeves.png', 'Im_RyanReynolds.png', 'Im_OrlandoBloom.png', 'Im_MattDamon.png', 'Im_GeorgeClooney.png', 'Im_DanielCraig.png', 'Im_DanielRadcliffe.png', 'Im_RyanGosling.png', 'Im_BradPitt.png', 'Im_LeonardoDiCaprio.png'],diff,0,0.41675459998077713,33,88.0952380952381,
SEMY0204,14,inv,150,pos150_id20_im30.bmp_pos150_id20_im3.bmp,['Im_KeanuReeves.png', 'Im_RyanReynolds.png', 'Im_OrlandoBloom.png', 'Im_MattDamon.png', 'Im_GeorgeClooney.png', 'Im_DanielCraig.png', 'Im_DanielRadcliffe.png', 'Im_RyanGosling.png', 'Im_BradPitt.png', 'Im_LeonardoDiCaprio.png'],same,1,0.4250571000156924,34,88.0952380952381,
SEMY0204,14,inv,0,pos0_id16_im2.bmp_pos0_id4_im7.bmp,['Im_KeanuReeves.png', 'Im_RyanReynolds.png', 'Im_OrlandoBloom.png', 'Im_MattDamon.png', 'Im_GeorgeClooney.png', 'Im_DanielCraig.png', 'Im_DanielRadcliffe.png', 'Im_RyanGosling.png', 'Im_BradPitt.png', 'Im_LeonardoDiCaprio.png'],diff,1,0.4084015999978874,35,88.0952380952381,
SEMY0204,14,inv,90,pos90_id21_im22.bmp_pos90_id21_im17.bmp,['Im_KeanuReeves.png', 'Im_RyanReynolds.png', 'Im_OrlandoBloom.png', 'Im_MattDamon.png', 'Im_GeorgeClooney.png', 'Im_DanielCraig.png', 'Im_DanielRadcliffe.png', 'Im_RyanGosling.png', 'Im_BradPitt.png', 'Im_LeonardoDiCaprio.png'],same,1,0.6168969999998808,36,88.0952380952381,
SEMY0204,14,inv,30,pos30_id16_im19.bmp_pos30_id16_im2.bmp,['Im_KeanuReeves.png', 'Im_RyanReynolds.png', 'Im_OrlandoBloom.png', 'Im_MattDamon.png', 'Im_GeorgeClooney.png', 'Im_DanielCraig.png', 'Im_DanielRadcliffe.png', 'Im_RyanGosling.png', 'Im_BradPitt.png', 'Im_LeonardoDiCaprio.png'],same,1,0.4250860000029206,37,88.0952380952381,
SEMY0204,14,inv,fs,posfs_id14_im16.bmp_posfs_id14_im24.bmp,['Im_KeanuReeves.png', 'Im_RyanReynolds.png', 'Im_OrlandoBloom.png', 'Im_MattDamon.png', 'Im_GeorgeClooney.png', 'Im_DanielCraig.png', 'Im_DanielRadcliffe.png', 'Im_RyanGosling.png', 'Im_BradPitt.png', 'Im_LeonardoDiCaprio.png'],same,1,0.4834287000121549,38,88.0952380952381,
SEMY0204,15,pos,120,pos120_id7_im14.bmp_pos120_id7_im15.bmp,['Im_KeanuReeves.png', 'Im_RyanReynolds.png', 'Im_OrlandoBloom.png', 'Im_MattDamon.png', 'Im_GeorgeClooney.png', 'Im_DanielCraig.png', 'Im_DanielRadcliffe.png', 'Im_RyanGosling.png', 'Im_BradPitt.png', 'Im_LeonardoDiCaprio.png'],same,1,0.41665349999675527,1,90.47619047619048,
SEMY0204,15,pos,120,pos120_id14_im18.bmp_pos120_id14_im24.bmp,['Im_KeanuReeves.png', 'Im_RyanReynolds.png', 'Im_OrlandoBloom.png', 'Im_MattDamon.png', 'Im_GeorgeClooney.png', 'Im_DanielCraig.png', 'Im_DanielRadcliffe.png', 'Im_RyanGosling.png', 'Im_BradPitt.png', 'Im_LeonardoDiCaprio.png'],same,1,0.4168448999989778,2,90.47619047619048,
SEMY0204,15,pos,fs,posfs_id16_im3.bmp_posfs_id4_im7.bmp,['Im_KeanuReeves.png', 'Im_RyanReynolds.png', 'Im_OrlandoBloom.png', 'Im_MattDamon.png', 'Im_GeorgeClooney.png', 'Im_DanielCraig.png', 'Im_DanielRadcliffe.png', 'Im_RyanGosling.png', 'Im_BradPitt.png', 'Im_LeonardoDiCaprio.png'],diff,1,0.41672619999735616,3,90.47619047619048,
SEMY0204,15,pos,150,pos150_id5_im10.bmp_pos150_id5_im20.bmp,['Im_KeanuReeves.png', 'Im_RyanReynolds.png', 'Im_OrlandoBloom.png', 'Im_MattDamon.png', 'Im_GeorgeClooney.png', 'Im_DanielCraig.png', 'Im_DanielRadcliffe.png', 'Im_RyanGosling.png', 'Im_BradPitt.png', 'Im_LeonardoDiCaprio.png'],same,1,0.5501124000002164,4,90.47619047619048,
SEMY0204,15,pos,fs,posfs_id21_im22.bmp_posfs_id4_im20.bmp,['Im_KeanuReeves.png', 'Im_RyanReynolds.png', 'Im_OrlandoBloom.png', 'Im_MattDamon.png', 'Im_GeorgeClooney.png', 'Im_DanielCraig.png', 'Im_DanielRadcliffe.png', 'Im_RyanGosling.png', 'Im_BradPitt.png', 'Im_LeonardoDiCaprio.png'],diff,1,0.4167740999837406,5,90.47619047619048,
SEMY0204,15,pos,60,pos60_id20_im30.bmp_pos60_id14_im24.bmp,['Im_KeanuReeves.png', 'Im_RyanReynolds.png', 'Im_OrlandoBloom.png', 'Im_MattDamon.png', 'Im_GeorgeClooney.png', 'Im_DanielCraig.png', 'Im_DanielRadcliffe.png', 'Im_RyanGosling.png', 'Im_BradPitt.png', 'Im_LeonardoDiCaprio.png'],diff,1,0.40853620000416413,6,90.47619047619048,
SEMY0204,15,pos,150,pos150_id4_im15.bmp_pos150_id4_im20.bmp,['Im_KeanuReeves.png', 'Im_RyanReynolds.png', 'Im_OrlandoBloom.png', 'Im_MattDamon.png', 'Im_GeorgeClooney.png', 'Im_DanielCraig.png', 'Im_DanielRadcliffe.png', 'Im_RyanGosling.png', 'Im_BradPitt.png', 'Im_LeonardoDiCaprio.png'],same,1,0.42506259999936447,7,90.47619047619048,
