Sujet,Trial,Condition,Filter,Imname,Actor0,Actor1,Actor2,Actor3,Actor4,Actor5,Actor6,Actor7,Actor8,Actor9,Answer,Accu,RT,Score,Scoreperc, 
STCH0106,train,pos,0,pos0_id20_im30.bmp_pos0_id5_im20.bmp,['Im_GeorgeClooney.png', 'Im_RyanReynolds.png', 'Im_BradPitt.png', 'Im_DanielCraig.png', 'Im_KeanuReeves.png', 'Im_LeonardoDiCaprio.png', 'Im_ElijahWood.png', 'Im_PatrickDempsey.png', 'Im_DanielRadcliffe.png', 'Im_RyanGosling.png'],diff,1,1.2335084999999708,1,0,
STCH0106,train,pos,150,pos150_id4_im15.bmp_pos150_id13_im29.bmp,['Im_GeorgeClooney.png', 'Im_RyanReynolds.png', 'Im_BradPitt.png', 'Im_DanielCraig.png', 'Im_KeanuReeves.png', 'Im_LeonardoDiCaprio.png', 'Im_ElijahWood.png', 'Im_PatrickDempsey.png', 'Im_DanielRadcliffe.png', 'Im_RyanGosling.png'],same,0,2.500398900000164,1,0,
STCH0106,train,pos,0,pos0_id17_im9.bmp_pos0_id7_im14.bmp,['Im_GeorgeClooney.png', 'Im_RyanReynolds.png', 'Im_BradPitt.png', 'Im_DanielCraig.png', 'Im_KeanuReeves.png', 'Im_LeonardoDiCaprio.png', 'Im_ElijahWood.png', 'Im_PatrickDempsey.png', 'Im_DanielRadcliffe.png', 'Im_RyanGosling.png'],diff,1,1.9334475999999086,2,0,
STCH0106,train,pos,30,pos30_id20_im3.bmp_pos30_id5_im20.bmp,['Im_GeorgeClooney.png', 'Im_RyanReynolds.png', 'Im_BradPitt.png', 'Im_DanielCraig.png', 'Im_KeanuReeves.png', 'Im_LeonardoDiCaprio.png', 'Im_ElijahWood.png', 'Im_PatrickDempsey.png', 'Im_DanielRadcliffe.png', 'Im_RyanGosling.png'],none,1,4.399859000000106,2,0,
STCH0106,train,pos,30,pos30_id4_im15.bmp_pos30_id4_im20.bmp,['Im_GeorgeClooney.png', 'Im_RyanReynolds.png', 'Im_BradPitt.png', 'Im_DanielCraig.png', 'Im_KeanuReeves.png', 'Im_LeonardoDiCaprio.png', 'Im_ElijahWood.png', 'Im_PatrickDempsey.png', 'Im_DanielRadcliffe.png', 'Im_RyanGosling.png'],same,1,4.133475500000259,3,0,
STCH0106,train,pos,60,pos60_id7_im15.bmp_pos60_id7_im14.bmp,['Im_GeorgeClooney.png', 'Im_RyanReynolds.png', 'Im_BradPitt.png', 'Im_DanielCraig.png', 'Im_KeanuReeves.png', 'Im_LeonardoDiCaprio.png', 'Im_ElijahWood.png', 'Im_PatrickDempsey.png', 'Im_DanielRadcliffe.png', 'Im_RyanGosling.png'],diff,0,0.7251028000000588,3,0,
STCH0106,train,pos,120,pos120_id7_im26.bmp_pos120_id21_im17.bmp,['Im_GeorgeClooney.png', 'Im_RyanReynolds.png', 'Im_BradPitt.png', 'Im_DanielCraig.png', 'Im_KeanuReeves.png', 'Im_LeonardoDiCaprio.png', 'Im_ElijahWood.png', 'Im_PatrickDempsey.png', 'Im_DanielRadcliffe.png', 'Im_RyanGosling.png'],same,0,0.516711999999643,3,0,
STCH0106,train,pos,60,pos60_id6_im12.bmp_pos60_id6_im18.bmp,['Im_GeorgeClooney.png', 'Im_RyanReynolds.png', 'Im_BradPitt.png', 'Im_DanielCraig.png', 'Im_KeanuReeves.png', 'Im_LeonardoDiCaprio.png', 'Im_ElijahWood.png', 'Im_PatrickDempsey.png', 'Im_DanielRadcliffe.png', 'Im_RyanGosling.png'],diff,0,1.5334914000000026,3,0,
STCH0106,train,pos,fs,posfs_id6_im18.bmp_posfs_id17_im8.bmp,['Im_GeorgeClooney.png', 'Im_RyanReynolds.png', 'Im_BradPitt.png', 'Im_DanielCraig.png', 'Im_KeanuReeves.png', 'Im_LeonardoDiCaprio.png', 'Im_ElijahWood.png', 'Im_PatrickDempsey.png', 'Im_DanielRadcliffe.png', 'Im_RyanGosling.png'],diff,1,0.9167288000003282,4,0,
STCH0106,train,pos,90,pos90_id3_im6.bmp_pos90_id3_im17.bmp,['Im_GeorgeClooney.png', 'Im_RyanReynolds.png', 'Im_BradPitt.png', 'Im_DanielCraig.png', 'Im_KeanuReeves.png', 'Im_LeonardoDiCaprio.png', 'Im_ElijahWood.png', 'Im_PatrickDempsey.png', 'Im_DanielRadcliffe.png', 'Im_RyanGosling.png'],same,1,1.3830581000001985,5,0,
STCH0106,train,pos,120,pos120_id5_im1.bmp_pos120_id21_im16.bmp,['Im_GeorgeClooney.png', 'Im_RyanReynolds.png', 'Im_BradPitt.png', 'Im_DanielCraig.png', 'Im_KeanuReeves.png', 'Im_LeonardoDiCaprio.png', 'Im_ElijahWood.png', 'Im_PatrickDempsey.png', 'Im_DanielRadcliffe.png', 'Im_RyanGosling.png'],diff,1,0.5163902999997845,6,0,
STCH0106,train,pos,fs,posfs_id3_im6.bmp_posfs_id3_im17.bmp,['Im_GeorgeClooney.png', 'Im_RyanReynolds.png', 'Im_BradPitt.png', 'Im_DanielCraig.png', 'Im_KeanuReeves.png', 'Im_LeonardoDiCaprio.png', 'Im_ElijahWood.png', 'Im_PatrickDempsey.png', 'Im_DanielRadcliffe.png', 'Im_RyanGosling.png'],diff,0,4.267057699999896,6,0,
STCH0106,train,pos,150,pos150_id13_im29.bmp_pos150_id11_im2.bmp,['Im_GeorgeClooney.png', 'Im_RyanReynolds.png', 'Im_BradPitt.png', 'Im_DanielCraig.png', 'Im_KeanuReeves.png', 'Im_LeonardoDiCaprio.png', 'Im_ElijahWood.png', 'Im_PatrickDempsey.png', 'Im_DanielRadcliffe.png', 'Im_RyanGosling.png'],diff,1,2.691616999999951,7,0,
STCH0106,train,pos,90,pos90_id4_im7.bmp_pos90_id7_im26.bmp,['Im_GeorgeClooney.png', 'Im_RyanReynolds.png', 'Im_BradPitt.png', 'Im_DanielCraig.png', 'Im_KeanuReeves.png', 'Im_LeonardoDiCaprio.png', 'Im_ElijahWood.png', 'Im_PatrickDempsey.png', 'Im_DanielRadcliffe.png', 'Im_RyanGosling.png'],same,0,0.5169508000003589,7,0,
STCH0106,train,neg,150,neg150_id17_im14.bmp_neg150_id17_im8.bmp,['Im_GeorgeClooney.png', 'Im_RyanReynolds.png', 'Im_BradPitt.png', 'Im_DanielCraig.png', 'Im_KeanuReeves.png', 'Im_LeonardoDiCaprio.png', 'Im_ElijahWood.png', 'Im_PatrickDempsey.png', 'Im_DanielRadcliffe.png', 'Im_RyanGosling.png'],same,1,1.616836400000011,8,0,
STCH0106,train,neg,120,neg120_id20_im12.bmp_neg120_id13_im15.bmp,['Im_GeorgeClooney.png', 'Im_RyanReynolds.png', 'Im_BradPitt.png', 'Im_DanielCraig.png', 'Im_KeanuReeves.png', 'Im_LeonardoDiCaprio.png', 'Im_ElijahWood.png', 'Im_PatrickDempsey.png', 'Im_DanielRadcliffe.png', 'Im_RyanGosling.png'],diff,1,1.5751381000000038,9,0,
STCH0106,train,neg,60,neg60_id13_im10.bmp_neg60_id13_im29.bmp,['Im_GeorgeClooney.png', 'Im_RyanReynolds.png', 'Im_BradPitt.png', 'Im_DanielCraig.png', 'Im_KeanuReeves.png', 'Im_LeonardoDiCaprio.png', 'Im_ElijahWood.png', 'Im_PatrickDempsey.png', 'Im_DanielRadcliffe.png', 'Im_RyanGosling.png'],same,1,2.3165350999997827,10,0,
STCH0106,train,neg,60,neg60_id7_im26.bmp_neg60_id7_im14.bmp,['Im_GeorgeClooney.png', 'Im_RyanReynolds.png', 'Im_BradPitt.png', 'Im_DanielCraig.png', 'Im_KeanuReeves.png', 'Im_LeonardoDiCaprio.png', 'Im_ElijahWood.png', 'Im_PatrickDempsey.png', 'Im_DanielRadcliffe.png', 'Im_RyanGosling.png'],same,1,1.7085047000000486,11,0,
STCH0106,train,neg,30,neg30_id3_im17.bmp_neg30_id17_im14.bmp,['Im_GeorgeClooney.png', 'Im_RyanReynolds.png', 'Im_BradPitt.png', 'Im_DanielCraig.png', 'Im_KeanuReeves.png', 'Im_LeonardoDiCaprio.png', 'Im_ElijahWood.png', 'Im_PatrickDempsey.png', 'Im_DanielRadcliffe.png', 'Im_RyanGosling.png'],same,0,1.4667129999997996,11,0,
STCH0106,train,neg,0,neg0_id11_im2.bmp_neg0_id11_im10.bmp,['Im_GeorgeClooney.png', 'Im_RyanReynolds.png', 'Im_BradPitt.png', 'Im_DanielCraig.png', 'Im_KeanuReeves.png', 'Im_LeonardoDiCaprio.png', 'Im_ElijahWood.png', 'Im_PatrickDempsey.png', 'Im_DanielRadcliffe.png', 'Im_RyanGosling.png'],same,1,0.916637400000127,12,0,
STCH0106,train,neg,150,neg150_id21_im22.bmp_neg150_id13_im10.bmp,['Im_GeorgeClooney.png', 'Im_RyanReynolds.png', 'Im_BradPitt.png', 'Im_DanielCraig.png', 'Im_KeanuReeves.png', 'Im_LeonardoDiCaprio.png', 'Im_ElijahWood.png', 'Im_PatrickDempsey.png', 'Im_DanielRadcliffe.png', 'Im_RyanGosling.png'],diff,1,1.3751438999997845,13,0,
STCH0106,train,neg,fs,negfs_id21_im16.bmp_negfs_id21_im17.bmp,['Im_GeorgeClooney.png', 'Im_RyanReynolds.png', 'Im_BradPitt.png', 'Im_DanielCraig.png', 'Im_KeanuReeves.png', 'Im_LeonardoDiCaprio.png', 'Im_ElijahWood.png', 'Im_PatrickDempsey.png', 'Im_DanielRadcliffe.png', 'Im_RyanGosling.png'],same,1,1.3501102000000174,14,0,
STCH0106,train,neg,0,neg0_id7_im14.bmp_neg0_id7_im26.bmp,['Im_GeorgeClooney.png', 'Im_RyanReynolds.png', 'Im_BradPitt.png', 'Im_DanielCraig.png', 'Im_KeanuReeves.png', 'Im_LeonardoDiCaprio.png', 'Im_ElijahWood.png', 'Im_PatrickDempsey.png', 'Im_DanielRadcliffe.png', 'Im_RyanGosling.png'],same,1,1.8750534000000698,15,0,
STCH0106,train,neg,120,neg120_id17_im9.bmp_neg120_id17_im14.bmp,['Im_GeorgeClooney.png', 'Im_RyanReynolds.png', 'Im_BradPitt.png', 'Im_DanielCraig.png', 'Im_KeanuReeves.png', 'Im_LeonardoDiCaprio.png', 'Im_ElijahWood.png', 'Im_PatrickDempsey.png', 'Im_DanielRadcliffe.png', 'Im_RyanGosling.png'],diff,0,1.6167743999999402,15,0,
STCH0106,train,neg,90,neg90_id13_im29.bmp_neg90_id11_im2.bmp,['Im_GeorgeClooney.png', 'Im_RyanReynolds.png', 'Im_BradPitt.png', 'Im_DanielCraig.png', 'Im_KeanuReeves.png', 'Im_LeonardoDiCaprio.png', 'Im_ElijahWood.png', 'Im_PatrickDempsey.png', 'Im_DanielRadcliffe.png', 'Im_RyanGosling.png'],diff,1,1.4169333999998344,16,0,
STCH0106,train,neg,90,neg90_id4_im15.bmp_neg90_id4_im20.bmp,['Im_GeorgeClooney.png', 'Im_RyanReynolds.png', 'Im_BradPitt.png', 'Im_DanielCraig.png', 'Im_KeanuReeves.png', 'Im_LeonardoDiCaprio.png', 'Im_ElijahWood.png', 'Im_PatrickDempsey.png', 'Im_DanielRadcliffe.png', 'Im_RyanGosling.png'],same,1,1.4506172999999762,17,0,
STCH0106,train,neg,fs,negfs_id17_im14.bmp_negfs_id6_im19.bmp,['Im_GeorgeClooney.png', 'Im_RyanReynolds.png', 'Im_BradPitt.png', 'Im_DanielCraig.png', 'Im_KeanuReeves.png', 'Im_LeonardoDiCaprio.png', 'Im_ElijahWood.png', 'Im_PatrickDempsey.png', 'Im_DanielRadcliffe.png', 'Im_RyanGosling.png'],diff,1,0.800112700000227,18,0,
STCH0106,train,neg,30,neg30_id13_im15.bmp_neg30_id13_im29.bmp,['Im_GeorgeClooney.png', 'Im_RyanReynolds.png', 'Im_BradPitt.png', 'Im_DanielCraig.png', 'Im_KeanuReeves.png', 'Im_LeonardoDiCaprio.png', 'Im_ElijahWood.png', 'Im_PatrickDempsey.png', 'Im_DanielRadcliffe.png', 'Im_RyanGosling.png'],diff,0,0.8498572000003151,18,0,
STCH0106,train,inv,0,pos0_id17_im8.bmp_pos0_id17_im9.bmp,['Im_GeorgeClooney.png', 'Im_RyanReynolds.png', 'Im_BradPitt.png', 'Im_DanielCraig.png', 'Im_KeanuReeves.png', 'Im_LeonardoDiCaprio.png', 'Im_ElijahWood.png', 'Im_PatrickDempsey.png', 'Im_DanielRadcliffe.png', 'Im_RyanGosling.png'],same,1,2.22529940000004,19,0,
STCH0106,train,inv,150,pos150_id5_im10.bmp_pos150_id5_im20.bmp,['Im_GeorgeClooney.png', 'Im_RyanReynolds.png', 'Im_BradPitt.png', 'Im_DanielCraig.png', 'Im_KeanuReeves.png', 'Im_LeonardoDiCaprio.png', 'Im_ElijahWood.png', 'Im_PatrickDempsey.png', 'Im_DanielRadcliffe.png', 'Im_RyanGosling.png'],same,1,1.7832415999996556,20,0,
STCH0106,train,inv,150,pos150_id20_im12.bmp_pos150_id4_im7.bmp,['Im_GeorgeClooney.png', 'Im_RyanReynolds.png', 'Im_BradPitt.png', 'Im_DanielCraig.png', 'Im_KeanuReeves.png', 'Im_LeonardoDiCaprio.png', 'Im_ElijahWood.png', 'Im_PatrickDempsey.png', 'Im_DanielRadcliffe.png', 'Im_RyanGosling.png'],same,0,0.9251697999998214,20,0,
STCH0106,train,inv,fs,posfs_id11_im10.bmp_posfs_id11_im1.bmp,['Im_GeorgeClooney.png', 'Im_RyanReynolds.png', 'Im_BradPitt.png', 'Im_DanielCraig.png', 'Im_KeanuReeves.png', 'Im_LeonardoDiCaprio.png', 'Im_ElijahWood.png', 'Im_PatrickDempsey.png', 'Im_DanielRadcliffe.png', 'Im_RyanGosling.png'],diff,0,0.5503172999997332,20,0,
STCH0106,train,inv,120,pos120_id6_im18.bmp_pos120_id6_im19.bmp,['Im_GeorgeClooney.png', 'Im_RyanReynolds.png', 'Im_BradPitt.png', 'Im_DanielCraig.png', 'Im_KeanuReeves.png', 'Im_LeonardoDiCaprio.png', 'Im_ElijahWood.png', 'Im_PatrickDempsey.png', 'Im_DanielRadcliffe.png', 'Im_RyanGosling.png'],same,1,2.216633699999875,21,0,
STCH0106,train,inv,30,pos30_id17_im8.bmp_pos30_id17_im9.bmp,['Im_GeorgeClooney.png', 'Im_RyanReynolds.png', 'Im_BradPitt.png', 'Im_DanielCraig.png', 'Im_KeanuReeves.png', 'Im_LeonardoDiCaprio.png', 'Im_ElijahWood.png', 'Im_PatrickDempsey.png', 'Im_DanielRadcliffe.png', 'Im_RyanGosling.png'],same,1,2.1829216000000997,22,0,
STCH0106,train,inv,90,pos90_id7_im26.bmp_pos90_id21_im17.bmp,['Im_GeorgeClooney.png', 'Im_RyanReynolds.png', 'Im_BradPitt.png', 'Im_DanielCraig.png', 'Im_KeanuReeves.png', 'Im_LeonardoDiCaprio.png', 'Im_ElijahWood.png', 'Im_PatrickDempsey.png', 'Im_DanielRadcliffe.png', 'Im_RyanGosling.png'],diff,1,0.9336535000002186,23,0,
STCH0106,train,inv,120,pos120_id5_im1.bmp_pos120_id5_im10.bmp,['Im_GeorgeClooney.png', 'Im_RyanReynolds.png', 'Im_BradPitt.png', 'Im_DanielCraig.png', 'Im_KeanuReeves.png', 'Im_LeonardoDiCaprio.png', 'Im_ElijahWood.png', 'Im_PatrickDempsey.png', 'Im_DanielRadcliffe.png', 'Im_RyanGosling.png'],same,1,0.4420527999996011,24,0,
STCH0106,train,inv,30,pos30_id11_im2.bmp_pos30_id13_im29.bmp,['Im_GeorgeClooney.png', 'Im_RyanReynolds.png', 'Im_BradPitt.png', 'Im_DanielCraig.png', 'Im_KeanuReeves.png', 'Im_LeonardoDiCaprio.png', 'Im_ElijahWood.png', 'Im_PatrickDempsey.png', 'Im_DanielRadcliffe.png', 'Im_RyanGosling.png'],diff,1,0.875419200000124,25,0,
STCH0106,train,inv,60,pos60_id17_im14.bmp_pos60_id6_im19.bmp,['Im_GeorgeClooney.png', 'Im_RyanReynolds.png', 'Im_BradPitt.png', 'Im_DanielCraig.png', 'Im_KeanuReeves.png', 'Im_LeonardoDiCaprio.png', 'Im_ElijahWood.png', 'Im_PatrickDempsey.png', 'Im_DanielRadcliffe.png', 'Im_RyanGosling.png'],same,0,3.19987540000011,25,0,
STCH0106,train,inv,90,pos90_id20_im30.bmp_pos90_id20_im12.bmp,['Im_GeorgeClooney.png', 'Im_RyanReynolds.png', 'Im_BradPitt.png', 'Im_DanielCraig.png', 'Im_KeanuReeves.png', 'Im_LeonardoDiCaprio.png', 'Im_ElijahWood.png', 'Im_PatrickDempsey.png', 'Im_DanielRadcliffe.png', 'Im_RyanGosling.png'],same,1,2.9252504000000954,26,0,
STCH0106,train,inv,60,pos60_id6_im18.bmp_pos60_id6_im12.bmp,['Im_GeorgeClooney.png', 'Im_RyanReynolds.png', 'Im_BradPitt.png', 'Im_DanielCraig.png', 'Im_KeanuReeves.png', 'Im_LeonardoDiCaprio.png', 'Im_ElijahWood.png', 'Im_PatrickDempsey.png', 'Im_DanielRadcliffe.png', 'Im_RyanGosling.png'],diff,0,0.5167179000000033,26,0,
STCH0106,train,inv,fs,posfs_id13_im15.bmp_posfs_id20_im12.bmp,['Im_GeorgeClooney.png', 'Im_RyanReynolds.png', 'Im_BradPitt.png', 'Im_DanielCraig.png', 'Im_KeanuReeves.png', 'Im_LeonardoDiCaprio.png', 'Im_ElijahWood.png', 'Im_PatrickDempsey.png', 'Im_DanielRadcliffe.png', 'Im_RyanGosling.png'],diff,1,0.8500498000003063,27,0,
STCH0106,train,inv,0,pos0_id6_im19.bmp_pos0_id3_im6.bmp,['Im_GeorgeClooney.png', 'Im_RyanReynolds.png', 'Im_BradPitt.png', 'Im_DanielCraig.png', 'Im_KeanuReeves.png', 'Im_LeonardoDiCaprio.png', 'Im_ElijahWood.png', 'Im_PatrickDempsey.png', 'Im_DanielRadcliffe.png', 'Im_RyanGosling.png'],same,0,3.016666299999997,27,0,
STCH0106,train,inv,30,pos30_id20_im30.bmp_pos30_id5_im20.bmp,['Im_GeorgeClooney.png', 'Im_RyanReynolds.png', 'Im_BradPitt.png', 'Im_DanielCraig.png', 'Im_KeanuReeves.png', 'Im_LeonardoDiCaprio.png', 'Im_ElijahWood.png', 'Im_PatrickDempsey.png', 'Im_DanielRadcliffe.png', 'Im_RyanGosling.png'],none,0,4.408479499999885,0,64.28571428571429,
STCH0106,train,inv,0,pos0_id3_im8.bmp_pos0_id3_im6.bmp,['Im_GeorgeClooney.png', 'Im_RyanReynolds.png', 'Im_BradPitt.png', 'Im_DanielCraig.png', 'Im_KeanuReeves.png', 'Im_LeonardoDiCaprio.png', 'Im_ElijahWood.png', 'Im_PatrickDempsey.png', 'Im_DanielRadcliffe.png', 'Im_RyanGosling.png'],same,1,1.4415705000001253,1,64.28571428571429,
STCH0106,train,inv,0,pos0_id7_im15.bmp_pos0_id7_im14.bmp,['Im_GeorgeClooney.png', 'Im_RyanReynolds.png', 'Im_BradPitt.png', 'Im_DanielCraig.png', 'Im_KeanuReeves.png', 'Im_LeonardoDiCaprio.png', 'Im_ElijahWood.png', 'Im_PatrickDempsey.png', 'Im_DanielRadcliffe.png', 'Im_RyanGosling.png'],diff,0,0.9916610999998738,1,64.28571428571429,
STCH0106,train,inv,fs,posfs_id4_im7.bmp_posfs_id4_im20.bmp,['Im_GeorgeClooney.png', 'Im_RyanReynolds.png', 'Im_BradPitt.png', 'Im_DanielCraig.png', 'Im_KeanuReeves.png', 'Im_LeonardoDiCaprio.png', 'Im_ElijahWood.png', 'Im_PatrickDempsey.png', 'Im_DanielRadcliffe.png', 'Im_RyanGosling.png'],same,1,0.4166536999996424,2,64.28571428571429,
STCH0106,train,inv,90,pos90_id5_im10.bmp_pos90_id3_im8.bmp,['Im_GeorgeClooney.png', 'Im_RyanReynolds.png', 'Im_BradPitt.png', 'Im_DanielCraig.png', 'Im_KeanuReeves.png', 'Im_LeonardoDiCaprio.png', 'Im_ElijahWood.png', 'Im_PatrickDempsey.png', 'Im_DanielRadcliffe.png', 'Im_RyanGosling.png'],diff,1,0.7503837999997813,3,64.28571428571429,
STCH0106,train,inv,120,pos120_id6_im12.bmp_pos120_id6_im18.bmp,['Im_GeorgeClooney.png', 'Im_RyanReynolds.png', 'Im_BradPitt.png', 'Im_DanielCraig.png', 'Im_KeanuReeves.png', 'Im_LeonardoDiCaprio.png', 'Im_ElijahWood.png', 'Im_PatrickDempsey.png', 'Im_DanielRadcliffe.png', 'Im_RyanGosling.png'],diff,0,1.575197499999831,3,64.28571428571429,
STCH0106,train,inv,fs,posfs_id7_im26.bmp_posfs_id4_im7.bmp,['Im_GeorgeClooney.png', 'Im_RyanReynolds.png', 'Im_BradPitt.png', 'Im_DanielCraig.png', 'Im_KeanuReeves.png', 'Im_LeonardoDiCaprio.png', 'Im_ElijahWood.png', 'Im_PatrickDempsey.png', 'Im_DanielRadcliffe.png', 'Im_RyanGosling.png'],same,0,1.0331020999997236,3,64.28571428571429,
STCH0106,train,inv,60,pos60_id11_im10.bmp_pos60_id11_im2.bmp,['Im_GeorgeClooney.png', 'Im_RyanReynolds.png', 'Im_BradPitt.png', 'Im_DanielCraig.png', 'Im_KeanuReeves.png', 'Im_LeonardoDiCaprio.png', 'Im_ElijahWood.png', 'Im_PatrickDempsey.png', 'Im_DanielRadcliffe.png', 'Im_RyanGosling.png'],diff,0,0.9669008999999278,3,64.28571428571429,
STCH0106,train,inv,60,pos60_id5_im1.bmp_pos60_id21_im16.bmp,['Im_GeorgeClooney.png', 'Im_RyanReynolds.png', 'Im_BradPitt.png', 'Im_DanielCraig.png', 'Im_KeanuReeves.png', 'Im_LeonardoDiCaprio.png', 'Im_ElijahWood.png', 'Im_PatrickDempsey.png', 'Im_DanielRadcliffe.png', 'Im_RyanGosling.png'],diff,1,0.46628839999993943,4,64.28571428571429,
STCH0106,train,inv,150,pos150_id17_im9.bmp_pos150_id7_im14.bmp,['Im_GeorgeClooney.png', 'Im_RyanReynolds.png', 'Im_BradPitt.png', 'Im_DanielCraig.png', 'Im_KeanuReeves.png', 'Im_LeonardoDiCaprio.png', 'Im_ElijahWood.png', 'Im_PatrickDempsey.png', 'Im_DanielRadcliffe.png', 'Im_RyanGosling.png'],diff,1,0.6499660999998014,5,64.28571428571429,
STCH0106,train,inv,120,pos120_id11_im2.bmp_pos120_id11_im10.bmp,['Im_GeorgeClooney.png', 'Im_RyanReynolds.png', 'Im_BradPitt.png', 'Im_DanielCraig.png', 'Im_KeanuReeves.png', 'Im_LeonardoDiCaprio.png', 'Im_ElijahWood.png', 'Im_PatrickDempsey.png', 'Im_DanielRadcliffe.png', 'Im_RyanGosling.png'],same,1,1.0334588999999141,6,64.28571428571429,
STCH0106,train,inv,150,pos150_id5_im20.bmp_pos150_id20_im3.bmp,['Im_GeorgeClooney.png', 'Im_RyanReynolds.png', 'Im_BradPitt.png', 'Im_DanielCraig.png', 'Im_KeanuReeves.png', 'Im_LeonardoDiCaprio.png', 'Im_ElijahWood.png', 'Im_PatrickDempsey.png', 'Im_DanielRadcliffe.png', 'Im_RyanGosling.png'],diff,1,0.7670672000003833,7,64.28571428571429,
STCH0106,train,inv,30,pos30_id6_im19.bmp_pos30_id6_im18.bmp,['Im_GeorgeClooney.png', 'Im_RyanReynolds.png', 'Im_BradPitt.png', 'Im_DanielCraig.png', 'Im_KeanuReeves.png', 'Im_LeonardoDiCaprio.png', 'Im_ElijahWood.png', 'Im_PatrickDempsey.png', 'Im_DanielRadcliffe.png', 'Im_RyanGosling.png'],same,1,0.5587847000001602,8,64.28571428571429,
STCH0106,train,inv,90,pos90_id21_im16.bmp_pos90_id13_im15.bmp,['Im_GeorgeClooney.png', 'Im_RyanReynolds.png', 'Im_BradPitt.png', 'Im_DanielCraig.png', 'Im_KeanuReeves.png', 'Im_LeonardoDiCaprio.png', 'Im_ElijahWood.png', 'Im_PatrickDempsey.png', 'Im_DanielRadcliffe.png', 'Im_RyanGosling.png'],diff,1,2.5334453000000394,9,64.28571428571429,
STCH0106,train,neg,0,neg0_id5_im10.bmp_neg0_id7_im14.bmp,['Im_GeorgeClooney.png', 'Im_RyanReynolds.png', 'Im_BradPitt.png', 'Im_DanielCraig.png', 'Im_KeanuReeves.png', 'Im_LeonardoDiCaprio.png', 'Im_ElijahWood.png', 'Im_PatrickDempsey.png', 'Im_DanielRadcliffe.png', 'Im_RyanGosling.png'],diff,1,2.058352499999728,10,64.28571428571429,
STCH0106,train,neg,150,neg150_id17_im8.bmp_neg150_id17_im9.bmp,['Im_GeorgeClooney.png', 'Im_RyanReynolds.png', 'Im_BradPitt.png', 'Im_DanielCraig.png', 'Im_KeanuReeves.png', 'Im_LeonardoDiCaprio.png', 'Im_ElijahWood.png', 'Im_PatrickDempsey.png', 'Im_DanielRadcliffe.png', 'Im_RyanGosling.png'],same,1,1.0501815000002352,11,64.28571428571429,
STCH0106,train,neg,fs,negfs_id6_im19.bmp_negfs_id6_im12.bmp,['Im_GeorgeClooney.png', 'Im_RyanReynolds.png', 'Im_BradPitt.png', 'Im_DanielCraig.png', 'Im_KeanuReeves.png', 'Im_LeonardoDiCaprio.png', 'Im_ElijahWood.png', 'Im_PatrickDempsey.png', 'Im_DanielRadcliffe.png', 'Im_RyanGosling.png'],diff,0,0.5001835000002757,11,64.28571428571429,
STCH0106,train,neg,120,neg120_id17_im14.bmp_neg120_id6_im19.bmp,['Im_GeorgeClooney.png', 'Im_RyanReynolds.png', 'Im_BradPitt.png', 'Im_DanielCraig.png', 'Im_KeanuReeves.png', 'Im_LeonardoDiCaprio.png', 'Im_ElijahWood.png', 'Im_PatrickDempsey.png', 'Im_DanielRadcliffe.png', 'Im_RyanGosling.png'],none,0,4.416773099999773,11,64.28571428571429,
STCH0106,train,neg,30,neg30_id20_im12.bmp_neg30_id20_im3.bmp,['Im_GeorgeClooney.png', 'Im_RyanReynolds.png', 'Im_BradPitt.png', 'Im_DanielCraig.png', 'Im_KeanuReeves.png', 'Im_LeonardoDiCaprio.png', 'Im_ElijahWood.png', 'Im_PatrickDempsey.png', 'Im_DanielRadcliffe.png', 'Im_RyanGosling.png'],same,1,0.9499597999997604,12,64.28571428571429,
STCH0106,train,neg,120,neg120_id4_im7.bmp_neg120_id7_im26.bmp,['Im_GeorgeClooney.png', 'Im_RyanReynolds.png', 'Im_BradPitt.png', 'Im_DanielCraig.png', 'Im_KeanuReeves.png', 'Im_LeonardoDiCaprio.png', 'Im_ElijahWood.png', 'Im_PatrickDempsey.png', 'Im_DanielRadcliffe.png', 'Im_RyanGosling.png'],diff,1,1.0831739999998717,13,64.28571428571429,
STCH0106,train,neg,90,neg90_id11_im10.bmp_neg90_id11_im2.bmp,['Im_GeorgeClooney.png', 'Im_RyanReynolds.png', 'Im_BradPitt.png', 'Im_DanielCraig.png', 'Im_KeanuReeves.png', 'Im_LeonardoDiCaprio.png', 'Im_ElijahWood.png', 'Im_PatrickDempsey.png', 'Im_DanielRadcliffe.png', 'Im_RyanGosling.png'],same,1,0.6917137000000366,14,64.28571428571429,
STCH0106,train,neg,60,neg60_id20_im30.bmp_neg60_id4_im20.bmp,['Im_GeorgeClooney.png', 'Im_RyanReynolds.png', 'Im_BradPitt.png', 'Im_DanielCraig.png', 'Im_KeanuReeves.png', 'Im_LeonardoDiCaprio.png', 'Im_ElijahWood.png', 'Im_PatrickDempsey.png', 'Im_DanielRadcliffe.png', 'Im_RyanGosling.png'],same,0,0.6919032000000698,14,64.28571428571429,
STCH0106,train,neg,150,neg150_id3_im8.bmp_neg150_id11_im2.bmp,['Im_GeorgeClooney.png', 'Im_RyanReynolds.png', 'Im_BradPitt.png', 'Im_DanielCraig.png', 'Im_KeanuReeves.png', 'Im_LeonardoDiCaprio.png', 'Im_ElijahWood.png', 'Im_PatrickDempsey.png', 'Im_DanielRadcliffe.png', 'Im_RyanGosling.png'],same,0,0.5335495999997875,14,64.28571428571429,
STCH0106,train,neg,30,neg30_id13_im15.bmp_neg30_id20_im12.bmp,['Im_GeorgeClooney.png', 'Im_RyanReynolds.png', 'Im_BradPitt.png', 'Im_DanielCraig.png', 'Im_KeanuReeves.png', 'Im_LeonardoDiCaprio.png', 'Im_ElijahWood.png', 'Im_PatrickDempsey.png', 'Im_DanielRadcliffe.png', 'Im_RyanGosling.png'],diff,1,0.7917625999998563,15,64.28571428571429,
STCH0106,train,neg,0,neg0_id21_im16.bmp_neg0_id13_im15.bmp,['Im_GeorgeClooney.png', 'Im_RyanReynolds.png', 'Im_BradPitt.png', 'Im_DanielCraig.png', 'Im_KeanuReeves.png', 'Im_LeonardoDiCaprio.png', 'Im_ElijahWood.png', 'Im_PatrickDempsey.png', 'Im_DanielRadcliffe.png', 'Im_RyanGosling.png'],diff,1,0.6087851999996019,16,64.28571428571429,
STCH0106,train,neg,90,neg90_id11_im2.bmp_neg90_id11_im1.bmp,['Im_GeorgeClooney.png', 'Im_RyanReynolds.png', 'Im_BradPitt.png', 'Im_DanielCraig.png', 'Im_KeanuReeves.png', 'Im_LeonardoDiCaprio.png', 'Im_ElijahWood.png', 'Im_PatrickDempsey.png', 'Im_DanielRadcliffe.png', 'Im_RyanGosling.png'],same,1,3.283656599999631,17,64.28571428571429,
STCH0106,train,neg,60,neg60_id17_im14.bmp_neg60_id17_im8.bmp,['Im_GeorgeClooney.png', 'Im_RyanReynolds.png', 'Im_BradPitt.png', 'Im_DanielCraig.png', 'Im_KeanuReeves.png', 'Im_LeonardoDiCaprio.png', 'Im_ElijahWood.png', 'Im_PatrickDempsey.png', 'Im_DanielRadcliffe.png', 'Im_RyanGosling.png'],same,1,1.9169376999998349,18,64.28571428571429,
STCH0106,train,neg,fs,negfs_id3_im8.bmp_negfs_id11_im2.bmp,['Im_GeorgeClooney.png', 'Im_RyanReynolds.png', 'Im_BradPitt.png', 'Im_DanielCraig.png', 'Im_KeanuReeves.png', 'Im_LeonardoDiCaprio.png', 'Im_ElijahWood.png', 'Im_PatrickDempsey.png', 'Im_DanielRadcliffe.png', 'Im_RyanGosling.png'],same,0,0.6501495000002251,18,64.28571428571429,
STCH0106,train,pos,150,pos150_id6_im12.bmp_pos150_id5_im1.bmp,['Im_GeorgeClooney.png', 'Im_RyanReynolds.png', 'Im_BradPitt.png', 'Im_DanielCraig.png', 'Im_KeanuReeves.png', 'Im_LeonardoDiCaprio.png', 'Im_ElijahWood.png', 'Im_PatrickDempsey.png', 'Im_DanielRadcliffe.png', 'Im_RyanGosling.png'],same,0,0.4498735000001943,18,64.28571428571429,
STCH0106,train,pos,30,pos30_id3_im17.bmp_pos30_id3_im8.bmp,['Im_GeorgeClooney.png', 'Im_RyanReynolds.png', 'Im_BradPitt.png', 'Im_DanielCraig.png', 'Im_KeanuReeves.png', 'Im_LeonardoDiCaprio.png', 'Im_ElijahWood.png', 'Im_PatrickDempsey.png', 'Im_DanielRadcliffe.png', 'Im_RyanGosling.png'],same,1,2.200248499999816,19,64.28571428571429,
STCH0106,train,pos,0,pos0_id5_im20.bmp_pos0_id20_im3.bmp,['Im_GeorgeClooney.png', 'Im_RyanReynolds.png', 'Im_BradPitt.png', 'Im_DanielCraig.png', 'Im_KeanuReeves.png', 'Im_LeonardoDiCaprio.png', 'Im_ElijahWood.png', 'Im_PatrickDempsey.png', 'Im_DanielRadcliffe.png', 'Im_RyanGosling.png'],diff,1,0.5583185999998932,20,64.28571428571429,
STCH0106,train,pos,150,pos150_id13_im10.bmp_pos150_id17_im8.bmp,['Im_GeorgeClooney.png', 'Im_RyanReynolds.png', 'Im_BradPitt.png', 'Im_DanielCraig.png', 'Im_KeanuReeves.png', 'Im_LeonardoDiCaprio.png', 'Im_ElijahWood.png', 'Im_PatrickDempsey.png', 'Im_DanielRadcliffe.png', 'Im_RyanGosling.png'],diff,1,1.3166322000001855,21,64.28571428571429,
STCH0106,train,pos,90,pos90_id13_im10.bmp_pos90_id21_im22.bmp,['Im_GeorgeClooney.png', 'Im_RyanReynolds.png', 'Im_BradPitt.png', 'Im_DanielCraig.png', 'Im_KeanuReeves.png', 'Im_LeonardoDiCaprio.png', 'Im_ElijahWood.png', 'Im_PatrickDempsey.png', 'Im_DanielRadcliffe.png', 'Im_RyanGosling.png'],same,0,1.6668117999997776,21,64.28571428571429,
STCH0106,train,pos,120,pos120_id11_im1.bmp_pos120_id11_im2.bmp,['Im_GeorgeClooney.png', 'Im_RyanReynolds.png', 'Im_BradPitt.png', 'Im_DanielCraig.png', 'Im_KeanuReeves.png', 'Im_LeonardoDiCaprio.png', 'Im_ElijahWood.png', 'Im_PatrickDempsey.png', 'Im_DanielRadcliffe.png', 'Im_RyanGosling.png'],diff,0,1.4087093000002824,21,64.28571428571429,
STCH0106,train,pos,60,pos60_id13_im29.bmp_pos60_id13_im10.bmp,['Im_GeorgeClooney.png', 'Im_RyanReynolds.png', 'Im_BradPitt.png', 'Im_DanielCraig.png', 'Im_KeanuReeves.png', 'Im_LeonardoDiCaprio.png', 'Im_ElijahWood.png', 'Im_PatrickDempsey.png', 'Im_DanielRadcliffe.png', 'Im_RyanGosling.png'],diff,0,0.8498938999996426,21,64.28571428571429,
STCH0106,train,pos,fs,posfs_id20_im12.bmp_posfs_id20_im3.bmp,['Im_GeorgeClooney.png', 'Im_RyanReynolds.png', 'Im_BradPitt.png', 'Im_DanielCraig.png', 'Im_KeanuReeves.png', 'Im_LeonardoDiCaprio.png', 'Im_ElijahWood.png', 'Im_PatrickDempsey.png', 'Im_DanielRadcliffe.png', 'Im_RyanGosling.png'],same,1,0.9667491999998674,22,64.28571428571429,
STCH0106,train,pos,60,pos60_id21_im22.bmp_pos60_id21_im17.bmp,['Im_GeorgeClooney.png', 'Im_RyanReynolds.png', 'Im_BradPitt.png', 'Im_DanielCraig.png', 'Im_KeanuReeves.png', 'Im_LeonardoDiCaprio.png', 'Im_ElijahWood.png', 'Im_PatrickDempsey.png', 'Im_DanielRadcliffe.png', 'Im_RyanGosling.png'],diff,0,1.5416672999999719,22,64.28571428571429,
STCH0106,train,pos,30,pos30_id13_im10.bmp_pos30_id17_im8.bmp,['Im_GeorgeClooney.png', 'Im_RyanReynolds.png', 'Im_BradPitt.png', 'Im_DanielCraig.png', 'Im_KeanuReeves.png', 'Im_LeonardoDiCaprio.png', 'Im_ElijahWood.png', 'Im_PatrickDempsey.png', 'Im_DanielRadcliffe.png', 'Im_RyanGosling.png'],diff,1,2.5834789000000455,23,64.28571428571429,
STCH0106,train,pos,120,pos120_id21_im16.bmp_pos120_id13_im15.bmp,['Im_GeorgeClooney.png', 'Im_RyanReynolds.png', 'Im_BradPitt.png', 'Im_DanielCraig.png', 'Im_KeanuReeves.png', 'Im_LeonardoDiCaprio.png', 'Im_ElijahWood.png', 'Im_PatrickDempsey.png', 'Im_DanielRadcliffe.png', 'Im_RyanGosling.png'],diff,1,0.7753622999998697,24,64.28571428571429,
STCH0106,train,pos,90,pos90_id17_im9.bmp_pos90_id21_im22.bmp,['Im_GeorgeClooney.png', 'Im_RyanReynolds.png', 'Im_BradPitt.png', 'Im_DanielCraig.png', 'Im_KeanuReeves.png', 'Im_LeonardoDiCaprio.png', 'Im_ElijahWood.png', 'Im_PatrickDempsey.png', 'Im_DanielRadcliffe.png', 'Im_RyanGosling.png'],diff,1,0.7668358999999327,25,64.28571428571429,
STCH0106,train,pos,fs,posfs_id4_im15.bmp_posfs_id4_im20.bmp,['Im_GeorgeClooney.png', 'Im_RyanReynolds.png', 'Im_BradPitt.png', 'Im_DanielCraig.png', 'Im_KeanuReeves.png', 'Im_LeonardoDiCaprio.png', 'Im_ElijahWood.png', 'Im_PatrickDempsey.png', 'Im_DanielRadcliffe.png', 'Im_RyanGosling.png'],same,1,0.5422622000000956,26,64.28571428571429,
STCH0106,train,pos,0,pos0_id17_im9.bmp_pos0_id21_im22.bmp,['Im_GeorgeClooney.png', 'Im_RyanReynolds.png', 'Im_BradPitt.png', 'Im_DanielCraig.png', 'Im_KeanuReeves.png', 'Im_LeonardoDiCaprio.png', 'Im_ElijahWood.png', 'Im_PatrickDempsey.png', 'Im_DanielRadcliffe.png', 'Im_RyanGosling.png'],diff,1,0.9749245000002702,27,64.28571428571429,
STCH0106,train,pos,150,pos150_id11_im10.bmp_pos150_id20_im3.bmp,['Im_GeorgeClooney.png', 'Im_RyanReynolds.png', 'Im_BradPitt.png', 'Im_DanielCraig.png', 'Im_KeanuReeves.png', 'Im_LeonardoDiCaprio.png', 'Im_ElijahWood.png', 'Im_PatrickDempsey.png', 'Im_DanielRadcliffe.png', 'Im_RyanGosling.png'],diff,1,1.3835730000000694,1,64.28571428571429,
STCH0106,train,pos,30,pos30_id4_im15.bmp_pos30_id13_im29.bmp,['Im_GeorgeClooney.png', 'Im_RyanReynolds.png', 'Im_BradPitt.png', 'Im_DanielCraig.png', 'Im_KeanuReeves.png', 'Im_LeonardoDiCaprio.png', 'Im_ElijahWood.png', 'Im_PatrickDempsey.png', 'Im_DanielRadcliffe.png', 'Im_RyanGosling.png'],diff,1,1.4085881999999401,2,64.28571428571429,
STCH0106,train,pos,90,pos90_id11_im2.bmp_pos90_id11_im1.bmp,['Im_GeorgeClooney.png', 'Im_RyanReynolds.png', 'Im_BradPitt.png', 'Im_DanielCraig.png', 'Im_KeanuReeves.png', 'Im_LeonardoDiCaprio.png', 'Im_ElijahWood.png', 'Im_PatrickDempsey.png', 'Im_DanielRadcliffe.png', 'Im_RyanGosling.png'],same,1,1.783475499999895,3,64.28571428571429,
STCH0106,train,pos,0,pos0_id17_im8.bmp_pos0_id13_im10.bmp,['Im_GeorgeClooney.png', 'Im_RyanReynolds.png', 'Im_BradPitt.png', 'Im_DanielCraig.png', 'Im_KeanuReeves.png', 'Im_LeonardoDiCaprio.png', 'Im_ElijahWood.png', 'Im_PatrickDempsey.png', 'Im_DanielRadcliffe.png', 'Im_RyanGosling.png'],diff,1,1.4002285999999913,4,64.28571428571429,
STCH0106,train,pos,150,pos150_id21_im16.bmp_pos150_id21_im17.bmp,['Im_GeorgeClooney.png', 'Im_RyanReynolds.png', 'Im_BradPitt.png', 'Im_DanielCraig.png', 'Im_KeanuReeves.png', 'Im_LeonardoDiCaprio.png', 'Im_ElijahWood.png', 'Im_PatrickDempsey.png', 'Im_DanielRadcliffe.png', 'Im_RyanGosling.png'],same,1,1.1665588999999272,5,64.28571428571429,
STCH0106,train,pos,fs,posfs_id21_im16.bmp_posfs_id21_im22.bmp,['Im_GeorgeClooney.png', 'Im_RyanReynolds.png', 'Im_BradPitt.png', 'Im_DanielCraig.png', 'Im_KeanuReeves.png', 'Im_LeonardoDiCaprio.png', 'Im_ElijahWood.png', 'Im_PatrickDempsey.png', 'Im_DanielRadcliffe.png', 'Im_RyanGosling.png'],same,1,0.8166227000001527,6,64.28571428571429,
STCH0106,train,pos,120,pos120_id5_im1.bmp_pos120_id5_im20.bmp,['Im_GeorgeClooney.png', 'Im_RyanReynolds.png', 'Im_BradPitt.png', 'Im_DanielCraig.png', 'Im_KeanuReeves.png', 'Im_LeonardoDiCaprio.png', 'Im_ElijahWood.png', 'Im_PatrickDempsey.png', 'Im_DanielRadcliffe.png', 'Im_RyanGosling.png'],diff,0,1.3834679000001415,6,64.28571428571429,
STCH0106,train,pos,60,pos60_id17_im8.bmp_pos60_id13_im10.bmp,['Im_GeorgeClooney.png', 'Im_RyanReynolds.png', 'Im_BradPitt.png', 'Im_DanielCraig.png', 'Im_KeanuReeves.png', 'Im_LeonardoDiCaprio.png', 'Im_ElijahWood.png', 'Im_PatrickDempsey.png', 'Im_DanielRadcliffe.png', 'Im_RyanGosling.png'],diff,1,0.8169291999997768,7,64.28571428571429,
STCH0106,train,pos,90,pos90_id6_im19.bmp_pos90_id6_im18.bmp,['Im_GeorgeClooney.png', 'Im_RyanReynolds.png', 'Im_BradPitt.png', 'Im_DanielCraig.png', 'Im_KeanuReeves.png', 'Im_LeonardoDiCaprio.png', 'Im_ElijahWood.png', 'Im_PatrickDempsey.png', 'Im_DanielRadcliffe.png', 'Im_RyanGosling.png'],same,1,0.43358009999974456,8,64.28571428571429,
STCH0106,train,pos,120,pos120_id17_im9.bmp_pos120_id17_im8.bmp,['Im_GeorgeClooney.png', 'Im_RyanReynolds.png', 'Im_BradPitt.png', 'Im_DanielCraig.png', 'Im_KeanuReeves.png', 'Im_LeonardoDiCaprio.png', 'Im_ElijahWood.png', 'Im_PatrickDempsey.png', 'Im_DanielRadcliffe.png', 'Im_RyanGosling.png'],same,1,1.4083471999997528,9,64.28571428571429,
STCH0106,train,pos,30,pos30_id17_im9.bmp_pos30_id17_im8.bmp,['Im_GeorgeClooney.png', 'Im_RyanReynolds.png', 'Im_BradPitt.png', 'Im_DanielCraig.png', 'Im_KeanuReeves.png', 'Im_LeonardoDiCaprio.png', 'Im_ElijahWood.png', 'Im_PatrickDempsey.png', 'Im_DanielRadcliffe.png', 'Im_RyanGosling.png'],diff,0,1.0168284000001222,9,64.28571428571429,
STCH0106,train,pos,fs,posfs_id21_im17.bmp_posfs_id7_im26.bmp,['Im_GeorgeClooney.png', 'Im_RyanReynolds.png', 'Im_BradPitt.png', 'Im_DanielCraig.png', 'Im_KeanuReeves.png', 'Im_LeonardoDiCaprio.png', 'Im_ElijahWood.png', 'Im_PatrickDempsey.png', 'Im_DanielRadcliffe.png', 'Im_RyanGosling.png'],same,0,0.841925899999751,9,64.28571428571429,
STCH0106,train,pos,0,pos0_id6_im19.bmp_pos0_id17_im14.bmp,['Im_GeorgeClooney.png', 'Im_RyanReynolds.png', 'Im_BradPitt.png', 'Im_DanielCraig.png', 'Im_KeanuReeves.png', 'Im_LeonardoDiCaprio.png', 'Im_ElijahWood.png', 'Im_PatrickDempsey.png', 'Im_DanielRadcliffe.png', 'Im_RyanGosling.png'],diff,1,0.6333854999998039,10,64.28571428571429,
STCH0106,train,pos,60,pos60_id20_im30.bmp_pos60_id5_im20.bmp,['Im_GeorgeClooney.png', 'Im_RyanReynolds.png', 'Im_BradPitt.png', 'Im_DanielCraig.png', 'Im_KeanuReeves.png', 'Im_LeonardoDiCaprio.png', 'Im_ElijahWood.png', 'Im_PatrickDempsey.png', 'Im_DanielRadcliffe.png', 'Im_RyanGosling.png'],diff,1,0.8001535999997031,11,64.28571428571429,
STCH0106,train,neg,fs,negfs_id3_im17.bmp_negfs_id3_im8.bmp,['Im_GeorgeClooney.png', 'Im_RyanReynolds.png', 'Im_BradPitt.png', 'Im_DanielCraig.png', 'Im_KeanuReeves.png', 'Im_LeonardoDiCaprio.png', 'Im_ElijahWood.png', 'Im_PatrickDempsey.png', 'Im_DanielRadcliffe.png', 'Im_RyanGosling.png'],same,1,1.058129800000188,12,64.28571428571429,
STCH0106,train,neg,120,neg120_id6_im19.bmp_neg120_id3_im6.bmp,['Im_GeorgeClooney.png', 'Im_RyanReynolds.png', 'Im_BradPitt.png', 'Im_DanielCraig.png', 'Im_KeanuReeves.png', 'Im_LeonardoDiCaprio.png', 'Im_ElijahWood.png', 'Im_PatrickDempsey.png', 'Im_DanielRadcliffe.png', 'Im_RyanGosling.png'],diff,1,0.9583800000000338,13,64.28571428571429,
STCH0106,train,neg,60,neg60_id7_im15.bmp_neg60_id7_im14.bmp,['Im_GeorgeClooney.png', 'Im_RyanReynolds.png', 'Im_BradPitt.png', 'Im_DanielCraig.png', 'Im_KeanuReeves.png', 'Im_LeonardoDiCaprio.png', 'Im_ElijahWood.png', 'Im_PatrickDempsey.png', 'Im_DanielRadcliffe.png', 'Im_RyanGosling.png'],same,1,0.5334939999997914,14,64.28571428571429,
STCH0106,train,neg,120,neg120_id21_im17.bmp_neg120_id21_im22.bmp,['Im_GeorgeClooney.png', 'Im_RyanReynolds.png', 'Im_BradPitt.png', 'Im_DanielCraig.png', 'Im_KeanuReeves.png', 'Im_LeonardoDiCaprio.png', 'Im_ElijahWood.png', 'Im_PatrickDempsey.png', 'Im_DanielRadcliffe.png', 'Im_RyanGosling.png'],same,1,0.5081921999999395,15,64.28571428571429,
STCH0106,train,neg,0,neg0_id21_im22.bmp_neg0_id21_im17.bmp,['Im_GeorgeClooney.png', 'Im_RyanReynolds.png', 'Im_BradPitt.png', 'Im_DanielCraig.png', 'Im_KeanuReeves.png', 'Im_LeonardoDiCaprio.png', 'Im_ElijahWood.png', 'Im_PatrickDempsey.png', 'Im_DanielRadcliffe.png', 'Im_RyanGosling.png'],same,1,0.4748822999999902,16,64.28571428571429,
STCH0106,train,neg,150,neg150_id6_im19.bmp_neg150_id6_im18.bmp,['Im_GeorgeClooney.png', 'Im_RyanReynolds.png', 'Im_BradPitt.png', 'Im_DanielCraig.png', 'Im_KeanuReeves.png', 'Im_LeonardoDiCaprio.png', 'Im_ElijahWood.png', 'Im_PatrickDempsey.png', 'Im_DanielRadcliffe.png', 'Im_RyanGosling.png'],same,1,0.9000146000003042,17,64.28571428571429,
STCH0106,train,neg,150,neg150_id5_im10.bmp_neg150_id3_im8.bmp,['Im_GeorgeClooney.png', 'Im_RyanReynolds.png', 'Im_BradPitt.png', 'Im_DanielCraig.png', 'Im_KeanuReeves.png', 'Im_LeonardoDiCaprio.png', 'Im_ElijahWood.png', 'Im_PatrickDempsey.png', 'Im_DanielRadcliffe.png', 'Im_RyanGosling.png'],diff,1,0.6918903999999202,18,64.28571428571429,
STCH0106,train,neg,60,neg60_id4_im7.bmp_neg60_id7_im26.bmp,['Im_GeorgeClooney.png', 'Im_RyanReynolds.png', 'Im_BradPitt.png', 'Im_DanielCraig.png', 'Im_KeanuReeves.png', 'Im_LeonardoDiCaprio.png', 'Im_ElijahWood.png', 'Im_PatrickDempsey.png', 'Im_DanielRadcliffe.png', 'Im_RyanGosling.png'],diff,1,0.6081770999999208,19,64.28571428571429,
STCH0106,train,neg,30,neg30_id7_im15.bmp_neg30_id7_im26.bmp,['Im_GeorgeClooney.png', 'Im_RyanReynolds.png', 'Im_BradPitt.png', 'Im_DanielCraig.png', 'Im_KeanuReeves.png', 'Im_LeonardoDiCaprio.png', 'Im_ElijahWood.png', 'Im_PatrickDempsey.png', 'Im_DanielRadcliffe.png', 'Im_RyanGosling.png'],same,1,3.0917922000003273,20,64.28571428571429,
STCH0106,train,neg,fs,negfs_id21_im22.bmp_negfs_id17_im9.bmp,['Im_GeorgeClooney.png', 'Im_RyanReynolds.png', 'Im_BradPitt.png', 'Im_DanielCraig.png', 'Im_KeanuReeves.png', 'Im_LeonardoDiCaprio.png', 'Im_ElijahWood.png', 'Im_PatrickDempsey.png', 'Im_DanielRadcliffe.png', 'Im_RyanGosling.png'],diff,1,0.7918324999996003,21,64.28571428571429,
STCH0106,train,neg,90,neg90_id17_im9.bmp_neg90_id17_im8.bmp,['Im_GeorgeClooney.png', 'Im_RyanReynolds.png', 'Im_BradPitt.png', 'Im_DanielCraig.png', 'Im_KeanuReeves.png', 'Im_LeonardoDiCaprio.png', 'Im_ElijahWood.png', 'Im_PatrickDempsey.png', 'Im_DanielRadcliffe.png', 'Im_RyanGosling.png'],same,1,0.5333281999996871,22,64.28571428571429,
STCH0106,train,neg,90,neg90_id4_im20.bmp_neg90_id11_im10.bmp,['Im_GeorgeClooney.png', 'Im_RyanReynolds.png', 'Im_BradPitt.png', 'Im_DanielCraig.png', 'Im_KeanuReeves.png', 'Im_LeonardoDiCaprio.png', 'Im_ElijahWood.png', 'Im_PatrickDempsey.png', 'Im_DanielRadcliffe.png', 'Im_RyanGosling.png'],same,0,1.1751654000004237,22,64.28571428571429,
STCH0106,train,neg,30,neg30_id17_im8.bmp_neg30_id17_im14.bmp,['Im_GeorgeClooney.png', 'Im_RyanReynolds.png', 'Im_BradPitt.png', 'Im_DanielCraig.png', 'Im_KeanuReeves.png', 'Im_LeonardoDiCaprio.png', 'Im_ElijahWood.png', 'Im_PatrickDempsey.png', 'Im_DanielRadcliffe.png', 'Im_RyanGosling.png'],same,1,0.8836071999999149,23,64.28571428571429,
STCH0106,train,neg,0,neg0_id20_im30.bmp_neg0_id20_im12.bmp,['Im_GeorgeClooney.png', 'Im_RyanReynolds.png', 'Im_BradPitt.png', 'Im_DanielCraig.png', 'Im_KeanuReeves.png', 'Im_LeonardoDiCaprio.png', 'Im_ElijahWood.png', 'Im_PatrickDempsey.png', 'Im_DanielRadcliffe.png', 'Im_RyanGosling.png'],same,1,0.5503798999998253,24,64.28571428571429,
STCH0106,train,inv,30,pos30_id21_im17.bmp_pos30_id7_im26.bmp,['Im_GeorgeClooney.png', 'Im_RyanReynolds.png', 'Im_BradPitt.png', 'Im_DanielCraig.png', 'Im_KeanuReeves.png', 'Im_LeonardoDiCaprio.png', 'Im_ElijahWood.png', 'Im_PatrickDempsey.png', 'Im_DanielRadcliffe.png', 'Im_RyanGosling.png'],diff,1,0.7834601999998085,25,64.28571428571429,
STCH0106,train,inv,0,pos0_id7_im14.bmp_pos0_id7_im26.bmp,['Im_GeorgeClooney.png', 'Im_RyanReynolds.png', 'Im_BradPitt.png', 'Im_DanielCraig.png', 'Im_KeanuReeves.png', 'Im_LeonardoDiCaprio.png', 'Im_ElijahWood.png', 'Im_PatrickDempsey.png', 'Im_DanielRadcliffe.png', 'Im_RyanGosling.png'],diff,0,1.60832019999998,25,64.28571428571429,
STCH0106,train,inv,120,pos120_id4_im7.bmp_pos120_id4_im15.bmp,['Im_GeorgeClooney.png', 'Im_RyanReynolds.png', 'Im_BradPitt.png', 'Im_DanielCraig.png', 'Im_KeanuReeves.png', 'Im_LeonardoDiCaprio.png', 'Im_ElijahWood.png', 'Im_PatrickDempsey.png', 'Im_DanielRadcliffe.png', 'Im_RyanGosling.png'],diff,0,0.6336206999999376,25,64.28571428571429,
STCH0106,train,inv,150,pos150_id7_im15.bmp_pos150_id7_im26.bmp,['Im_GeorgeClooney.png', 'Im_RyanReynolds.png', 'Im_BradPitt.png', 'Im_DanielCraig.png', 'Im_KeanuReeves.png', 'Im_LeonardoDiCaprio.png', 'Im_ElijahWood.png', 'Im_PatrickDempsey.png', 'Im_DanielRadcliffe.png', 'Im_RyanGosling.png'],same,1,0.9999563999999737,26,64.28571428571429,
STCH0106,train,inv,120,pos120_id6_im12.bmp_pos120_id11_im1.bmp,['Im_GeorgeClooney.png', 'Im_RyanReynolds.png', 'Im_BradPitt.png', 'Im_DanielCraig.png', 'Im_KeanuReeves.png', 'Im_LeonardoDiCaprio.png', 'Im_ElijahWood.png', 'Im_PatrickDempsey.png', 'Im_DanielRadcliffe.png', 'Im_RyanGosling.png'],same,0,1.2585030999998708,26,64.28571428571429,
STCH0106,train,inv,0,pos0_id5_im20.bmp_pos0_id5_im10.bmp,['Im_GeorgeClooney.png', 'Im_RyanReynolds.png', 'Im_BradPitt.png', 'Im_DanielCraig.png', 'Im_KeanuReeves.png', 'Im_LeonardoDiCaprio.png', 'Im_ElijahWood.png', 'Im_PatrickDempsey.png', 'Im_DanielRadcliffe.png', 'Im_RyanGosling.png'],diff,0,0.5085684999999103,26,64.28571428571429,
STCH0106,train,inv,90,pos90_id6_im18.bmp_pos90_id3_im6.bmp,['Im_GeorgeClooney.png', 'Im_RyanReynolds.png', 'Im_BradPitt.png', 'Im_DanielCraig.png', 'Im_KeanuReeves.png', 'Im_LeonardoDiCaprio.png', 'Im_ElijahWood.png', 'Im_PatrickDempsey.png', 'Im_DanielRadcliffe.png', 'Im_RyanGosling.png'],diff,1,1.0752040000002125,27,64.28571428571429,
STCH0106,train,inv,60,pos60_id20_im3.bmp_pos60_id11_im10.bmp,['Im_GeorgeClooney.png', 'Im_RyanReynolds.png', 'Im_BradPitt.png', 'Im_DanielCraig.png', 'Im_KeanuReeves.png', 'Im_LeonardoDiCaprio.png', 'Im_ElijahWood.png', 'Im_PatrickDempsey.png', 'Im_DanielRadcliffe.png', 'Im_RyanGosling.png'],diff,1,2.2504306999999244,28,64.28571428571429,
STCH0106,train,inv,fs,posfs_id3_im8.bmp_posfs_id3_im6.bmp,['Im_GeorgeClooney.png', 'Im_RyanReynolds.png', 'Im_BradPitt.png', 'Im_DanielCraig.png', 'Im_KeanuReeves.png', 'Im_LeonardoDiCaprio.png', 'Im_ElijahWood.png', 'Im_PatrickDempsey.png', 'Im_DanielRadcliffe.png', 'Im_RyanGosling.png'],same,1,0.5919702999999572,29,64.28571428571429,
STCH0106,train,inv,fs,posfs_id11_im10.bmp_posfs_id11_im2.bmp,['Im_GeorgeClooney.png', 'Im_RyanReynolds.png', 'Im_BradPitt.png', 'Im_DanielCraig.png', 'Im_KeanuReeves.png', 'Im_LeonardoDiCaprio.png', 'Im_ElijahWood.png', 'Im_PatrickDempsey.png', 'Im_DanielRadcliffe.png', 'Im_RyanGosling.png'],same,1,3.0659920999996757,30,64.28571428571429,
STCH0106,train,inv,60,pos60_id7_im15.bmp_pos60_id3_im17.bmp,['Im_GeorgeClooney.png', 'Im_RyanReynolds.png', 'Im_BradPitt.png', 'Im_DanielCraig.png', 'Im_KeanuReeves.png', 'Im_LeonardoDiCaprio.png', 'Im_ElijahWood.png', 'Im_PatrickDempsey.png', 'Im_DanielRadcliffe.png', 'Im_RyanGosling.png'],diff,1,2.7335447000000386,31,64.28571428571429,
STCH0106,train,inv,150,pos150_id20_im30.bmp_pos150_id20_im3.bmp,['Im_GeorgeClooney.png', 'Im_RyanReynolds.png', 'Im_BradPitt.png', 'Im_DanielCraig.png', 'Im_KeanuReeves.png', 'Im_LeonardoDiCaprio.png', 'Im_ElijahWood.png', 'Im_PatrickDempsey.png', 'Im_DanielRadcliffe.png', 'Im_RyanGosling.png'],same,1,0.8334838000000673,32,64.28571428571429,
STCH0106,train,inv,30,pos30_id20_im12.bmp_pos30_id4_im7.bmp,['Im_GeorgeClooney.png', 'Im_RyanReynolds.png', 'Im_BradPitt.png', 'Im_DanielCraig.png', 'Im_KeanuReeves.png', 'Im_LeonardoDiCaprio.png', 'Im_ElijahWood.png', 'Im_PatrickDempsey.png', 'Im_DanielRadcliffe.png', 'Im_RyanGosling.png'],same,0,0.6835013999998409,32,64.28571428571429,
STCH0106,train,inv,90,pos90_id13_im15.bmp_pos90_id13_im10.bmp,['Im_GeorgeClooney.png', 'Im_RyanReynolds.png', 'Im_BradPitt.png', 'Im_DanielCraig.png', 'Im_KeanuReeves.png', 'Im_LeonardoDiCaprio.png', 'Im_ElijahWood.png', 'Im_PatrickDempsey.png', 'Im_DanielRadcliffe.png', 'Im_RyanGosling.png'],diff,0,0.5419197999999597,32,64.28571428571429,
STCH0106,train,neg,120,neg120_id7_im15.bmp_neg120_id21_im17.bmp,['Im_GeorgeClooney.png', 'Im_RyanReynolds.png', 'Im_BradPitt.png', 'Im_DanielCraig.png', 'Im_KeanuReeves.png', 'Im_LeonardoDiCaprio.png', 'Im_ElijahWood.png', 'Im_PatrickDempsey.png', 'Im_DanielRadcliffe.png', 'Im_RyanGosling.png'],diff,1,1.6087545000000318,1,76.19047619047619,
STCH0106,train,neg,150,neg150_id11_im1.bmp_neg150_id11_im2.bmp,['Im_GeorgeClooney.png', 'Im_RyanReynolds.png', 'Im_BradPitt.png', 'Im_DanielCraig.png', 'Im_KeanuReeves.png', 'Im_LeonardoDiCaprio.png', 'Im_ElijahWood.png', 'Im_PatrickDempsey.png', 'Im_DanielRadcliffe.png', 'Im_RyanGosling.png'],same,1,0.7666377000000466,2,76.19047619047619,
STCH0106,train,neg,90,neg90_id3_im17.bmp_neg90_id3_im6.bmp,['Im_GeorgeClooney.png', 'Im_RyanReynolds.png', 'Im_BradPitt.png', 'Im_DanielCraig.png', 'Im_KeanuReeves.png', 'Im_LeonardoDiCaprio.png', 'Im_ElijahWood.png', 'Im_PatrickDempsey.png', 'Im_DanielRadcliffe.png', 'Im_RyanGosling.png'],same,1,2.133368600000267,3,76.19047619047619,
STCH0106,train,neg,120,neg120_id3_im17.bmp_neg120_id7_im15.bmp,['Im_GeorgeClooney.png', 'Im_RyanReynolds.png', 'Im_BradPitt.png', 'Im_DanielCraig.png', 'Im_KeanuReeves.png', 'Im_LeonardoDiCaprio.png', 'Im_ElijahWood.png', 'Im_PatrickDempsey.png', 'Im_DanielRadcliffe.png', 'Im_RyanGosling.png'],same,0,0.41689679999990403,3,76.19047619047619,
STCH0106,train,neg,60,neg60_id20_im30.bmp_neg60_id20_im3.bmp,['Im_GeorgeClooney.png', 'Im_RyanReynolds.png', 'Im_BradPitt.png', 'Im_DanielCraig.png', 'Im_KeanuReeves.png', 'Im_LeonardoDiCaprio.png', 'Im_ElijahWood.png', 'Im_PatrickDempsey.png', 'Im_DanielRadcliffe.png', 'Im_RyanGosling.png'],same,1,0.5916664999999739,4,76.19047619047619,
STCH0106,train,neg,30,neg30_id6_im12.bmp_neg30_id6_im18.bmp,['Im_GeorgeClooney.png', 'Im_RyanReynolds.png', 'Im_BradPitt.png', 'Im_DanielCraig.png', 'Im_KeanuReeves.png', 'Im_LeonardoDiCaprio.png', 'Im_ElijahWood.png', 'Im_PatrickDempsey.png', 'Im_DanielRadcliffe.png', 'Im_RyanGosling.png'],diff,0,0.6499057999999422,4,76.19047619047619,
STCH0106,train,neg,0,neg0_id11_im10.bmp_neg0_id11_im1.bmp,['Im_GeorgeClooney.png', 'Im_RyanReynolds.png', 'Im_BradPitt.png', 'Im_DanielCraig.png', 'Im_KeanuReeves.png', 'Im_LeonardoDiCaprio.png', 'Im_ElijahWood.png', 'Im_PatrickDempsey.png', 'Im_DanielRadcliffe.png', 'Im_RyanGosling.png'],same,1,0.8170551000002888,5,76.19047619047619,
STCH0106,train,neg,90,neg90_id17_im8.bmp_neg90_id6_im18.bmp,['Im_GeorgeClooney.png', 'Im_RyanReynolds.png', 'Im_BradPitt.png', 'Im_DanielCraig.png', 'Im_KeanuReeves.png', 'Im_LeonardoDiCaprio.png', 'Im_ElijahWood.png', 'Im_PatrickDempsey.png', 'Im_DanielRadcliffe.png', 'Im_RyanGosling.png'],same,0,0.49208039999984976,5,76.19047619047619,
STCH0106,train,neg,fs,negfs_id5_im1.bmp_negfs_id21_im16.bmp,['Im_GeorgeClooney.png', 'Im_RyanReynolds.png', 'Im_BradPitt.png', 'Im_DanielCraig.png', 'Im_KeanuReeves.png', 'Im_LeonardoDiCaprio.png', 'Im_ElijahWood.png', 'Im_PatrickDempsey.png', 'Im_DanielRadcliffe.png', 'Im_RyanGosling.png'],diff,1,0.4082994999998846,6,76.19047619047619,
STCH0106,train,neg,30,neg30_id3_im6.bmp_neg30_id6_im19.bmp,['Im_GeorgeClooney.png', 'Im_RyanReynolds.png', 'Im_BradPitt.png', 'Im_DanielCraig.png', 'Im_KeanuReeves.png', 'Im_LeonardoDiCaprio.png', 'Im_ElijahWood.png', 'Im_PatrickDempsey.png', 'Im_DanielRadcliffe.png', 'Im_RyanGosling.png'],same,0,0.9503420999999435,6,76.19047619047619,
STCH0106,train,neg,0,neg0_id21_im16.bmp_neg0_id21_im22.bmp,['Im_GeorgeClooney.png', 'Im_RyanReynolds.png', 'Im_BradPitt.png', 'Im_DanielCraig.png', 'Im_KeanuReeves.png', 'Im_LeonardoDiCaprio.png', 'Im_ElijahWood.png', 'Im_PatrickDempsey.png', 'Im_DanielRadcliffe.png', 'Im_RyanGosling.png'],same,1,0.5331969999997455,7,76.19047619047619,
STCH0106,train,neg,fs,negfs_id6_im18.bmp_negfs_id6_im12.bmp,['Im_GeorgeClooney.png', 'Im_RyanReynolds.png', 'Im_BradPitt.png', 'Im_DanielCraig.png', 'Im_KeanuReeves.png', 'Im_LeonardoDiCaprio.png', 'Im_ElijahWood.png', 'Im_PatrickDempsey.png', 'Im_DanielRadcliffe.png', 'Im_RyanGosling.png'],diff,0,3.350094100000206,7,76.19047619047619,
STCH0106,train,neg,150,neg150_id6_im18.bmp_neg150_id6_im12.bmp,['Im_GeorgeClooney.png', 'Im_RyanReynolds.png', 'Im_BradPitt.png', 'Im_DanielCraig.png', 'Im_KeanuReeves.png', 'Im_LeonardoDiCaprio.png', 'Im_ElijahWood.png', 'Im_PatrickDempsey.png', 'Im_DanielRadcliffe.png', 'Im_RyanGosling.png'],diff,0,4.400221200000033,7,76.19047619047619,
STCH0106,train,neg,60,neg60_id5_im10.bmp_neg60_id5_im1.bmp,['Im_GeorgeClooney.png', 'Im_RyanReynolds.png', 'Im_BradPitt.png', 'Im_DanielCraig.png', 'Im_KeanuReeves.png', 'Im_LeonardoDiCaprio.png', 'Im_ElijahWood.png', 'Im_PatrickDempsey.png', 'Im_DanielRadcliffe.png', 'Im_RyanGosling.png'],same,1,0.40836699999999837,8,76.19047619047619,
STCH0106,train,pos,30,pos30_id4_im20.bmp_pos30_id4_im7.bmp,['Im_GeorgeClooney.png', 'Im_RyanReynolds.png', 'Im_BradPitt.png', 'Im_DanielCraig.png', 'Im_KeanuReeves.png', 'Im_LeonardoDiCaprio.png', 'Im_ElijahWood.png', 'Im_PatrickDempsey.png', 'Im_DanielRadcliffe.png', 'Im_RyanGosling.png'],same,1,0.9331584000001385,9,76.19047619047619,
STCH0106,train,pos,150,pos150_id5_im10.bmp_pos150_id5_im1.bmp,['Im_GeorgeClooney.png', 'Im_RyanReynolds.png', 'Im_BradPitt.png', 'Im_DanielCraig.png', 'Im_KeanuReeves.png', 'Im_LeonardoDiCaprio.png', 'Im_ElijahWood.png', 'Im_PatrickDempsey.png', 'Im_DanielRadcliffe.png', 'Im_RyanGosling.png'],same,1,0.7998658999999861,10,76.19047619047619,
STCH0106,train,pos,60,pos60_id6_im19.bmp_pos60_id17_im14.bmp,['Im_GeorgeClooney.png', 'Im_RyanReynolds.png', 'Im_BradPitt.png', 'Im_DanielCraig.png', 'Im_KeanuReeves.png', 'Im_LeonardoDiCaprio.png', 'Im_ElijahWood.png', 'Im_PatrickDempsey.png', 'Im_DanielRadcliffe.png', 'Im_RyanGosling.png'],diff,1,1.033301400000255,11,76.19047619047619,
STCH0106,train,pos,fs,posfs_id17_im14.bmp_posfs_id3_im17.bmp,['Im_GeorgeClooney.png', 'Im_RyanReynolds.png', 'Im_BradPitt.png', 'Im_DanielCraig.png', 'Im_KeanuReeves.png', 'Im_LeonardoDiCaprio.png', 'Im_ElijahWood.png', 'Im_PatrickDempsey.png', 'Im_DanielRadcliffe.png', 'Im_RyanGosling.png'],same,0,0.8331748000000516,11,76.19047619047619,
STCH0106,train,pos,0,pos0_id13_im10.bmp_pos0_id13_im29.bmp,['Im_GeorgeClooney.png', 'Im_RyanReynolds.png', 'Im_BradPitt.png', 'Im_DanielCraig.png', 'Im_KeanuReeves.png', 'Im_LeonardoDiCaprio.png', 'Im_ElijahWood.png', 'Im_PatrickDempsey.png', 'Im_DanielRadcliffe.png', 'Im_RyanGosling.png'],same,1,0.666370200000074,12,76.19047619047619,
STCH0106,train,pos,30,pos30_id13_im15.bmp_pos30_id20_im12.bmp,['Im_GeorgeClooney.png', 'Im_RyanReynolds.png', 'Im_BradPitt.png', 'Im_DanielCraig.png', 'Im_KeanuReeves.png', 'Im_LeonardoDiCaprio.png', 'Im_ElijahWood.png', 'Im_PatrickDempsey.png', 'Im_DanielRadcliffe.png', 'Im_RyanGosling.png'],diff,1,0.5165618999999424,13,76.19047619047619,
STCH0106,train,pos,fs,posfs_id7_im26.bmp_posfs_id4_im7.bmp,['Im_GeorgeClooney.png', 'Im_RyanReynolds.png', 'Im_BradPitt.png', 'Im_DanielCraig.png', 'Im_KeanuReeves.png', 'Im_LeonardoDiCaprio.png', 'Im_ElijahWood.png', 'Im_PatrickDempsey.png', 'Im_DanielRadcliffe.png', 'Im_RyanGosling.png'],same,0,1.2583763999991788,13,76.19047619047619,
STCH0106,train,pos,60,pos60_id7_im14.bmp_pos60_id17_im9.bmp,['Im_GeorgeClooney.png', 'Im_RyanReynolds.png', 'Im_BradPitt.png', 'Im_DanielCraig.png', 'Im_KeanuReeves.png', 'Im_LeonardoDiCaprio.png', 'Im_ElijahWood.png', 'Im_PatrickDempsey.png', 'Im_DanielRadcliffe.png', 'Im_RyanGosling.png'],diff,1,0.9581770999993751,14,76.19047619047619,
STCH0106,train,pos,120,pos120_id4_im20.bmp_pos120_id11_im10.bmp,['Im_GeorgeClooney.png', 'Im_RyanReynolds.png', 'Im_BradPitt.png', 'Im_DanielCraig.png', 'Im_KeanuReeves.png', 'Im_LeonardoDiCaprio.png', 'Im_ElijahWood.png', 'Im_PatrickDempsey.png', 'Im_DanielRadcliffe.png', 'Im_RyanGosling.png'],same,0,2.1001016000000163,14,76.19047619047619,
STCH0106,train,pos,90,pos90_id17_im8.bmp_pos90_id17_im9.bmp,['Im_GeorgeClooney.png', 'Im_RyanReynolds.png', 'Im_BradPitt.png', 'Im_DanielCraig.png', 'Im_KeanuReeves.png', 'Im_LeonardoDiCaprio.png', 'Im_ElijahWood.png', 'Im_PatrickDempsey.png', 'Im_DanielRadcliffe.png', 'Im_RyanGosling.png'],same,1,0.7833164000003308,15,76.19047619047619,
STCH0106,train,pos,150,pos150_id3_im6.bmp_pos150_id3_im8.bmp,['Im_GeorgeClooney.png', 'Im_RyanReynolds.png', 'Im_BradPitt.png', 'Im_DanielCraig.png', 'Im_KeanuReeves.png', 'Im_LeonardoDiCaprio.png', 'Im_ElijahWood.png', 'Im_PatrickDempsey.png', 'Im_DanielRadcliffe.png', 'Im_RyanGosling.png'],same,1,0.4498697999997603,16,76.19047619047619,
STCH0106,train,pos,120,pos120_id20_im12.bmp_pos120_id4_im7.bmp,['Im_GeorgeClooney.png', 'Im_RyanReynolds.png', 'Im_BradPitt.png', 'Im_DanielCraig.png', 'Im_KeanuReeves.png', 'Im_LeonardoDiCaprio.png', 'Im_ElijahWood.png', 'Im_PatrickDempsey.png', 'Im_DanielRadcliffe.png', 'Im_RyanGosling.png'],diff,1,4.066999699999542,17,76.19047619047619,
STCH0106,train,pos,0,pos0_id5_im10.bmp_pos0_id5_im20.bmp,['Im_GeorgeClooney.png', 'Im_RyanReynolds.png', 'Im_BradPitt.png', 'Im_DanielCraig.png', 'Im_KeanuReeves.png', 'Im_LeonardoDiCaprio.png', 'Im_ElijahWood.png', 'Im_PatrickDempsey.png', 'Im_DanielRadcliffe.png', 'Im_RyanGosling.png'],diff,0,2.25880430000052,17,76.19047619047619,
STCH0106,train,pos,90,pos90_id11_im10.bmp_pos90_id11_im2.bmp,['Im_GeorgeClooney.png', 'Im_RyanReynolds.png', 'Im_BradPitt.png', 'Im_DanielCraig.png', 'Im_KeanuReeves.png', 'Im_LeonardoDiCaprio.png', 'Im_ElijahWood.png', 'Im_PatrickDempsey.png', 'Im_DanielRadcliffe.png', 'Im_RyanGosling.png'],diff,0,4.083494800000153,17,76.19047619047619,
STCH0106,train,inv,120,pos120_id17_im9.bmp_pos120_id17_im14.bmp,['Im_GeorgeClooney.png', 'Im_RyanReynolds.png', 'Im_BradPitt.png', 'Im_DanielCraig.png', 'Im_KeanuReeves.png', 'Im_LeonardoDiCaprio.png', 'Im_ElijahWood.png', 'Im_PatrickDempsey.png', 'Im_DanielRadcliffe.png', 'Im_RyanGosling.png'],diff,0,3.8415449999993143,17,76.19047619047619,
STCH0106,train,inv,30,pos30_id3_im8.bmp_pos30_id3_im17.bmp,['Im_GeorgeClooney.png', 'Im_RyanReynolds.png', 'Im_BradPitt.png', 'Im_DanielCraig.png', 'Im_KeanuReeves.png', 'Im_LeonardoDiCaprio.png', 'Im_ElijahWood.png', 'Im_PatrickDempsey.png', 'Im_DanielRadcliffe.png', 'Im_RyanGosling.png'],diff,0,2.891916100000344,17,76.19047619047619,
STCH0106,train,inv,0,pos0_id11_im10.bmp_pos0_id4_im20.bmp,['Im_GeorgeClooney.png', 'Im_RyanReynolds.png', 'Im_BradPitt.png', 'Im_DanielCraig.png', 'Im_KeanuReeves.png', 'Im_LeonardoDiCaprio.png', 'Im_ElijahWood.png', 'Im_PatrickDempsey.png', 'Im_DanielRadcliffe.png', 'Im_RyanGosling.png'],same,0,1.9084561999998186,17,76.19047619047619,
STCH0106,train,inv,90,pos90_id7_im14.bmp_pos90_id5_im10.bmp,['Im_GeorgeClooney.png', 'Im_RyanReynolds.png', 'Im_BradPitt.png', 'Im_DanielCraig.png', 'Im_KeanuReeves.png', 'Im_LeonardoDiCaprio.png', 'Im_ElijahWood.png', 'Im_PatrickDempsey.png', 'Im_DanielRadcliffe.png', 'Im_RyanGosling.png'],diff,1,0.791969899999458,18,76.19047619047619,
STCH0106,train,inv,60,pos60_id7_im14.bmp_pos60_id7_im26.bmp,['Im_GeorgeClooney.png', 'Im_RyanReynolds.png', 'Im_BradPitt.png', 'Im_DanielCraig.png', 'Im_KeanuReeves.png', 'Im_LeonardoDiCaprio.png', 'Im_ElijahWood.png', 'Im_PatrickDempsey.png', 'Im_DanielRadcliffe.png', 'Im_RyanGosling.png'],same,1,0.8418386000003011,19,76.19047619047619,
STCH0106,train,inv,150,pos150_id6_im18.bmp_pos150_id6_im12.bmp,['Im_GeorgeClooney.png', 'Im_RyanReynolds.png', 'Im_BradPitt.png', 'Im_DanielCraig.png', 'Im_KeanuReeves.png', 'Im_LeonardoDiCaprio.png', 'Im_ElijahWood.png', 'Im_PatrickDempsey.png', 'Im_DanielRadcliffe.png', 'Im_RyanGosling.png'],same,1,1.0919921999993676,20,76.19047619047619,
STCH0106,train,inv,fs,posfs_id3_im8.bmp_posfs_id5_im10.bmp,['Im_GeorgeClooney.png', 'Im_RyanReynolds.png', 'Im_BradPitt.png', 'Im_DanielCraig.png', 'Im_KeanuReeves.png', 'Im_LeonardoDiCaprio.png', 'Im_ElijahWood.png', 'Im_PatrickDempsey.png', 'Im_DanielRadcliffe.png', 'Im_RyanGosling.png'],diff,1,0.8581874999999854,21,76.19047619047619,
STCH0106,train,inv,0,pos0_id6_im19.bmp_pos0_id6_im18.bmp,['Im_GeorgeClooney.png', 'Im_RyanReynolds.png', 'Im_BradPitt.png', 'Im_DanielCraig.png', 'Im_KeanuReeves.png', 'Im_LeonardoDiCaprio.png', 'Im_ElijahWood.png', 'Im_PatrickDempsey.png', 'Im_DanielRadcliffe.png', 'Im_RyanGosling.png'],same,1,0.6666514000007737,22,76.19047619047619,
STCH0106,train,inv,150,pos150_id20_im30.bmp_pos150_id5_im20.bmp,['Im_GeorgeClooney.png', 'Im_RyanReynolds.png', 'Im_BradPitt.png', 'Im_DanielCraig.png', 'Im_KeanuReeves.png', 'Im_LeonardoDiCaprio.png', 'Im_ElijahWood.png', 'Im_PatrickDempsey.png', 'Im_DanielRadcliffe.png', 'Im_RyanGosling.png'],diff,1,1.0664256999998543,23,76.19047619047619,
STCH0106,train,inv,60,pos60_id13_im15.bmp_pos60_id21_im16.bmp,['Im_GeorgeClooney.png', 'Im_RyanReynolds.png', 'Im_BradPitt.png', 'Im_DanielCraig.png', 'Im_KeanuReeves.png', 'Im_LeonardoDiCaprio.png', 'Im_ElijahWood.png', 'Im_PatrickDempsey.png', 'Im_DanielRadcliffe.png', 'Im_RyanGosling.png'],diff,1,0.8253980999998021,24,76.19047619047619,
STCH0106,train,inv,90,pos90_id17_im14.bmp_pos90_id17_im9.bmp,['Im_GeorgeClooney.png', 'Im_RyanReynolds.png', 'Im_BradPitt.png', 'Im_DanielCraig.png', 'Im_KeanuReeves.png', 'Im_LeonardoDiCaprio.png', 'Im_ElijahWood.png', 'Im_PatrickDempsey.png', 'Im_DanielRadcliffe.png', 'Im_RyanGosling.png'],diff,0,2.30020660000082,24,76.19047619047619,
STCH0106,train,inv,fs,posfs_id7_im26.bmp_posfs_id7_im14.bmp,['Im_GeorgeClooney.png', 'Im_RyanReynolds.png', 'Im_BradPitt.png', 'Im_DanielCraig.png', 'Im_KeanuReeves.png', 'Im_LeonardoDiCaprio.png', 'Im_ElijahWood.png', 'Im_PatrickDempsey.png', 'Im_DanielRadcliffe.png', 'Im_RyanGosling.png'],same,1,0.9915502999992896,25,76.19047619047619,
STCH0106,train,inv,120,pos120_id17_im8.bmp_pos120_id13_im10.bmp,['Im_GeorgeClooney.png', 'Im_RyanReynolds.png', 'Im_BradPitt.png', 'Im_DanielCraig.png', 'Im_KeanuReeves.png', 'Im_LeonardoDiCaprio.png', 'Im_ElijahWood.png', 'Im_PatrickDempsey.png', 'Im_DanielRadcliffe.png', 'Im_RyanGosling.png'],same,0,0.8248954999999114,25,76.19047619047619,
STCH0106,train,inv,30,pos30_id20_im30.bmp_pos30_id20_im3.bmp,['Im_GeorgeClooney.png', 'Im_RyanReynolds.png', 'Im_BradPitt.png', 'Im_DanielCraig.png', 'Im_KeanuReeves.png', 'Im_LeonardoDiCaprio.png', 'Im_ElijahWood.png', 'Im_PatrickDempsey.png', 'Im_DanielRadcliffe.png', 'Im_RyanGosling.png'],same,1,0.4168513000004168,26,76.19047619047619,
STCH0106,train,inv,30,pos30_id13_im15.bmp_pos30_id21_im16.bmp,['Im_GeorgeClooney.png', 'Im_RyanReynolds.png', 'Im_BradPitt.png', 'Im_DanielCraig.png', 'Im_KeanuReeves.png', 'Im_LeonardoDiCaprio.png', 'Im_ElijahWood.png', 'Im_PatrickDempsey.png', 'Im_DanielRadcliffe.png', 'Im_RyanGosling.png'],diff,1,1.0997944000000643,1,61.904761904761905,
STCH0106,train,inv,30,pos30_id20_im3.bmp_pos30_id5_im20.bmp,['Im_GeorgeClooney.png', 'Im_RyanReynolds.png', 'Im_BradPitt.png', 'Im_DanielCraig.png', 'Im_KeanuReeves.png', 'Im_LeonardoDiCaprio.png', 'Im_ElijahWood.png', 'Im_PatrickDempsey.png', 'Im_DanielRadcliffe.png', 'Im_RyanGosling.png'],same,0,0.41684910000003583,1,61.904761904761905,
STCH0106,train,inv,150,pos150_id7_im26.bmp_pos150_id4_im7.bmp,['Im_GeorgeClooney.png', 'Im_RyanReynolds.png', 'Im_BradPitt.png', 'Im_DanielCraig.png', 'Im_KeanuReeves.png', 'Im_LeonardoDiCaprio.png', 'Im_ElijahWood.png', 'Im_PatrickDempsey.png', 'Im_DanielRadcliffe.png', 'Im_RyanGosling.png'],same,0,3.366667199999938,1,61.904761904761905,
STCH0106,train,inv,60,pos60_id7_im14.bmp_pos60_id5_im10.bmp,['Im_GeorgeClooney.png', 'Im_RyanReynolds.png', 'Im_BradPitt.png', 'Im_DanielCraig.png', 'Im_KeanuReeves.png', 'Im_LeonardoDiCaprio.png', 'Im_ElijahWood.png', 'Im_PatrickDempsey.png', 'Im_DanielRadcliffe.png', 'Im_RyanGosling.png'],diff,1,0.41682700000001205,2,61.904761904761905,
STCH0106,train,inv,0,pos0_id20_im30.bmp_pos0_id5_im20.bmp,['Im_GeorgeClooney.png', 'Im_RyanReynolds.png', 'Im_BradPitt.png', 'Im_DanielCraig.png', 'Im_KeanuReeves.png', 'Im_LeonardoDiCaprio.png', 'Im_ElijahWood.png', 'Im_PatrickDempsey.png', 'Im_DanielRadcliffe.png', 'Im_RyanGosling.png'],same,0,3.525252900000851,2,61.904761904761905,
STCH0106,train,inv,120,pos120_id3_im8.bmp_pos120_id3_im6.bmp,['Im_GeorgeClooney.png', 'Im_RyanReynolds.png', 'Im_BradPitt.png', 'Im_DanielCraig.png', 'Im_KeanuReeves.png', 'Im_LeonardoDiCaprio.png', 'Im_ElijahWood.png', 'Im_PatrickDempsey.png', 'Im_DanielRadcliffe.png', 'Im_RyanGosling.png'],diff,0,1.0829774000003454,2,61.904761904761905,
STCH0106,train,inv,90,pos90_id13_im29.bmp_pos90_id11_im2.bmp,['Im_GeorgeClooney.png', 'Im_RyanReynolds.png', 'Im_BradPitt.png', 'Im_DanielCraig.png', 'Im_KeanuReeves.png', 'Im_LeonardoDiCaprio.png', 'Im_ElijahWood.png', 'Im_PatrickDempsey.png', 'Im_DanielRadcliffe.png', 'Im_RyanGosling.png'],same,0,1.0418317000003299,2,61.904761904761905,
STCH0106,train,inv,60,pos60_id3_im8.bmp_pos60_id11_im2.bmp,['Im_GeorgeClooney.png', 'Im_RyanReynolds.png', 'Im_BradPitt.png', 'Im_DanielCraig.png', 'Im_KeanuReeves.png', 'Im_LeonardoDiCaprio.png', 'Im_ElijahWood.png', 'Im_PatrickDempsey.png', 'Im_DanielRadcliffe.png', 'Im_RyanGosling.png'],diff,1,0.6335801999994146,3,61.904761904761905,
STCH0106,train,inv,fs,posfs_id21_im16.bmp_posfs_id13_im15.bmp,['Im_GeorgeClooney.png', 'Im_RyanReynolds.png', 'Im_BradPitt.png', 'Im_DanielCraig.png', 'Im_KeanuReeves.png', 'Im_LeonardoDiCaprio.png', 'Im_ElijahWood.png', 'Im_PatrickDempsey.png', 'Im_DanielRadcliffe.png', 'Im_RyanGosling.png'],diff,1,0.6334504999995261,4,61.904761904761905,
STCH0106,train,inv,0,pos0_id11_im2.bmp_pos0_id13_im29.bmp,['Im_GeorgeClooney.png', 'Im_RyanReynolds.png', 'Im_BradPitt.png', 'Im_DanielCraig.png', 'Im_KeanuReeves.png', 'Im_LeonardoDiCaprio.png', 'Im_ElijahWood.png', 'Im_PatrickDempsey.png', 'Im_DanielRadcliffe.png', 'Im_RyanGosling.png'],diff,1,1.6003174000006766,5,61.904761904761905,
STCH0106,train,inv,150,pos150_id4_im20.bmp_pos150_id4_im15.bmp,['Im_GeorgeClooney.png', 'Im_RyanReynolds.png', 'Im_BradPitt.png', 'Im_DanielCraig.png', 'Im_KeanuReeves.png', 'Im_LeonardoDiCaprio.png', 'Im_ElijahWood.png', 'Im_PatrickDempsey.png', 'Im_DanielRadcliffe.png', 'Im_RyanGosling.png'],same,1,0.5501987999996345,6,61.904761904761905,
STCH0106,train,inv,fs,posfs_id5_im1.bmp_posfs_id6_im12.bmp,['Im_GeorgeClooney.png', 'Im_RyanReynolds.png', 'Im_BradPitt.png', 'Im_DanielCraig.png', 'Im_KeanuReeves.png', 'Im_LeonardoDiCaprio.png', 'Im_ElijahWood.png', 'Im_PatrickDempsey.png', 'Im_DanielRadcliffe.png', 'Im_RyanGosling.png'],diff,1,0.7668669999993654,7,61.904761904761905,
STCH0106,train,inv,120,pos120_id5_im20.bmp_pos120_id5_im10.bmp,['Im_GeorgeClooney.png', 'Im_RyanReynolds.png', 'Im_BradPitt.png', 'Im_DanielCraig.png', 'Im_KeanuReeves.png', 'Im_LeonardoDiCaprio.png', 'Im_ElijahWood.png', 'Im_PatrickDempsey.png', 'Im_DanielRadcliffe.png', 'Im_RyanGosling.png'],diff,0,0.6668454000000565,7,61.904761904761905,
STCH0106,train,inv,90,pos90_id7_im14.bmp_pos90_id7_im26.bmp,['Im_GeorgeClooney.png', 'Im_RyanReynolds.png', 'Im_BradPitt.png', 'Im_DanielCraig.png', 'Im_KeanuReeves.png', 'Im_LeonardoDiCaprio.png', 'Im_ElijahWood.png', 'Im_PatrickDempsey.png', 'Im_DanielRadcliffe.png', 'Im_RyanGosling.png'],same,1,0.6586344999996072,8,61.904761904761905,
STCH0106,train,pos,0,pos0_id17_im8.bmp_pos0_id17_im14.bmp,['Im_GeorgeClooney.png', 'Im_RyanReynolds.png', 'Im_BradPitt.png', 'Im_DanielCraig.png', 'Im_KeanuReeves.png', 'Im_LeonardoDiCaprio.png', 'Im_ElijahWood.png', 'Im_PatrickDempsey.png', 'Im_DanielRadcliffe.png', 'Im_RyanGosling.png'],same,1,0.5085276999998314,9,61.904761904761905,
STCH0106,train,pos,fs,posfs_id11_im1.bmp_posfs_id4_im15.bmp,['Im_GeorgeClooney.png', 'Im_RyanReynolds.png', 'Im_BradPitt.png', 'Im_DanielCraig.png', 'Im_KeanuReeves.png', 'Im_LeonardoDiCaprio.png', 'Im_ElijahWood.png', 'Im_PatrickDempsey.png', 'Im_DanielRadcliffe.png', 'Im_RyanGosling.png'],diff,1,0.416701600000124,10,61.904761904761905,
STCH0106,train,pos,120,pos120_id20_im30.bmp_pos120_id20_im3.bmp,['Im_GeorgeClooney.png', 'Im_RyanReynolds.png', 'Im_BradPitt.png', 'Im_DanielCraig.png', 'Im_KeanuReeves.png', 'Im_LeonardoDiCaprio.png', 'Im_ElijahWood.png', 'Im_PatrickDempsey.png', 'Im_DanielRadcliffe.png', 'Im_RyanGosling.png'],same,1,0.5169000999994751,11,61.904761904761905,
STCH0106,train,pos,90,pos90_id4_im7.bmp_pos90_id4_im15.bmp,['Im_GeorgeClooney.png', 'Im_RyanReynolds.png', 'Im_BradPitt.png', 'Im_DanielCraig.png', 'Im_KeanuReeves.png', 'Im_LeonardoDiCaprio.png', 'Im_ElijahWood.png', 'Im_PatrickDempsey.png', 'Im_DanielRadcliffe.png', 'Im_RyanGosling.png'],same,1,0.416753599999538,12,61.904761904761905,
STCH0106,train,pos,60,pos60_id20_im12.bmp_pos60_id13_im15.bmp,['Im_GeorgeClooney.png', 'Im_RyanReynolds.png', 'Im_BradPitt.png', 'Im_DanielCraig.png', 'Im_KeanuReeves.png', 'Im_LeonardoDiCaprio.png', 'Im_ElijahWood.png', 'Im_PatrickDempsey.png', 'Im_DanielRadcliffe.png', 'Im_RyanGosling.png'],diff,1,0.4168256000002657,13,61.904761904761905,
STCH0106,train,pos,150,pos150_id5_im1.bmp_pos150_id21_im16.bmp,['Im_GeorgeClooney.png', 'Im_RyanReynolds.png', 'Im_BradPitt.png', 'Im_DanielCraig.png', 'Im_KeanuReeves.png', 'Im_LeonardoDiCaprio.png', 'Im_ElijahWood.png', 'Im_PatrickDempsey.png', 'Im_DanielRadcliffe.png', 'Im_RyanGosling.png'],diff,1,0.4168790000003355,14,61.904761904761905,
STCH0106,train,pos,fs,posfs_id11_im1.bmp_posfs_id11_im10.bmp,['Im_GeorgeClooney.png', 'Im_RyanReynolds.png', 'Im_BradPitt.png', 'Im_DanielCraig.png', 'Im_KeanuReeves.png', 'Im_LeonardoDiCaprio.png', 'Im_ElijahWood.png', 'Im_PatrickDempsey.png', 'Im_DanielRadcliffe.png', 'Im_RyanGosling.png'],same,1,0.5917664999997214,15,61.904761904761905,
STCH0106,train,pos,0,pos0_id4_im7.bmp_pos0_id7_im26.bmp,['Im_GeorgeClooney.png', 'Im_RyanReynolds.png', 'Im_BradPitt.png', 'Im_DanielCraig.png', 'Im_KeanuReeves.png', 'Im_LeonardoDiCaprio.png', 'Im_ElijahWood.png', 'Im_PatrickDempsey.png', 'Im_DanielRadcliffe.png', 'Im_RyanGosling.png'],same,0,1.799631799999588,15,61.904761904761905,
STCH0106,train,pos,30,pos30_id17_im9.bmp_pos30_id7_im14.bmp,['Im_GeorgeClooney.png', 'Im_RyanReynolds.png', 'Im_BradPitt.png', 'Im_DanielCraig.png', 'Im_KeanuReeves.png', 'Im_LeonardoDiCaprio.png', 'Im_ElijahWood.png', 'Im_PatrickDempsey.png', 'Im_DanielRadcliffe.png', 'Im_RyanGosling.png'],diff,1,0.41671820000010484,16,61.904761904761905,
STCH0106,train,pos,30,pos30_id7_im26.bmp_pos30_id7_im15.bmp,['Im_GeorgeClooney.png', 'Im_RyanReynolds.png', 'Im_BradPitt.png', 'Im_DanielCraig.png', 'Im_KeanuReeves.png', 'Im_LeonardoDiCaprio.png', 'Im_ElijahWood.png', 'Im_PatrickDempsey.png', 'Im_DanielRadcliffe.png', 'Im_RyanGosling.png'],diff,0,1.1834055999997872,16,61.904761904761905,
STCH0106,train,pos,150,pos150_id20_im3.bmp_pos150_id20_im12.bmp,['Im_GeorgeClooney.png', 'Im_RyanReynolds.png', 'Im_BradPitt.png', 'Im_DanielCraig.png', 'Im_KeanuReeves.png', 'Im_LeonardoDiCaprio.png', 'Im_ElijahWood.png', 'Im_PatrickDempsey.png', 'Im_DanielRadcliffe.png', 'Im_RyanGosling.png'],same,1,0.41650429999936023,17,61.904761904761905,
STCH0106,train,pos,120,pos120_id7_im15.bmp_pos120_id21_im17.bmp,['Im_GeorgeClooney.png', 'Im_RyanReynolds.png', 'Im_BradPitt.png', 'Im_DanielCraig.png', 'Im_KeanuReeves.png', 'Im_LeonardoDiCaprio.png', 'Im_ElijahWood.png', 'Im_PatrickDempsey.png', 'Im_DanielRadcliffe.png', 'Im_RyanGosling.png'],diff,1,1.0335943000000043,18,61.904761904761905,
STCH0106,train,pos,90,pos90_id3_im17.bmp_pos90_id17_im14.bmp,['Im_GeorgeClooney.png', 'Im_RyanReynolds.png', 'Im_BradPitt.png', 'Im_DanielCraig.png', 'Im_KeanuReeves.png', 'Im_LeonardoDiCaprio.png', 'Im_ElijahWood.png', 'Im_PatrickDempsey.png', 'Im_DanielRadcliffe.png', 'Im_RyanGosling.png'],diff,1,0.6666629999999714,19,61.904761904761905,
STCH0106,train,pos,60,pos60_id3_im6.bmp_pos60_id6_im18.bmp,['Im_GeorgeClooney.png', 'Im_RyanReynolds.png', 'Im_BradPitt.png', 'Im_DanielCraig.png', 'Im_KeanuReeves.png', 'Im_LeonardoDiCaprio.png', 'Im_ElijahWood.png', 'Im_PatrickDempsey.png', 'Im_DanielRadcliffe.png', 'Im_RyanGosling.png'],diff,1,0.4833911999994598,20,61.904761904761905,
STCH0106,train,neg,fs,negfs_id4_im15.bmp_negfs_id11_im1.bmp,['Im_GeorgeClooney.png', 'Im_RyanReynolds.png', 'Im_BradPitt.png', 'Im_DanielCraig.png', 'Im_KeanuReeves.png', 'Im_LeonardoDiCaprio.png', 'Im_ElijahWood.png', 'Im_PatrickDempsey.png', 'Im_DanielRadcliffe.png', 'Im_RyanGosling.png'],diff,1,0.5916958999996496,21,61.904761904761905,
STCH0106,train,neg,30,neg30_id11_im2.bmp_neg30_id11_im1.bmp,['Im_GeorgeClooney.png', 'Im_RyanReynolds.png', 'Im_BradPitt.png', 'Im_DanielCraig.png', 'Im_KeanuReeves.png', 'Im_LeonardoDiCaprio.png', 'Im_ElijahWood.png', 'Im_PatrickDempsey.png', 'Im_DanielRadcliffe.png', 'Im_RyanGosling.png'],diff,0,0.6333451000000423,21,61.904761904761905,
STCH0106,train,neg,120,neg120_id20_im12.bmp_neg120_id20_im30.bmp,['Im_GeorgeClooney.png', 'Im_RyanReynolds.png', 'Im_BradPitt.png', 'Im_DanielCraig.png', 'Im_KeanuReeves.png', 'Im_LeonardoDiCaprio.png', 'Im_ElijahWood.png', 'Im_PatrickDempsey.png', 'Im_DanielRadcliffe.png', 'Im_RyanGosling.png'],same,1,0.8332581000004211,22,61.904761904761905,
STCH0106,train,neg,30,neg30_id21_im17.bmp_neg30_id21_im22.bmp,['Im_GeorgeClooney.png', 'Im_RyanReynolds.png', 'Im_BradPitt.png', 'Im_DanielCraig.png', 'Im_KeanuReeves.png', 'Im_LeonardoDiCaprio.png', 'Im_ElijahWood.png', 'Im_PatrickDempsey.png', 'Im_DanielRadcliffe.png', 'Im_RyanGosling.png'],same,1,0.4167348999999376,23,61.904761904761905,
STCH0106,train,neg,0,neg0_id3_im17.bmp_neg0_id3_im8.bmp,['Im_GeorgeClooney.png', 'Im_RyanReynolds.png', 'Im_BradPitt.png', 'Im_DanielCraig.png', 'Im_KeanuReeves.png', 'Im_LeonardoDiCaprio.png', 'Im_ElijahWood.png', 'Im_PatrickDempsey.png', 'Im_DanielRadcliffe.png', 'Im_RyanGosling.png'],diff,0,0.7006393000001481,23,61.904761904761905,
STCH0106,train,neg,fs,negfs_id4_im20.bmp_negfs_id4_im15.bmp,['Im_GeorgeClooney.png', 'Im_RyanReynolds.png', 'Im_BradPitt.png', 'Im_DanielCraig.png', 'Im_KeanuReeves.png', 'Im_LeonardoDiCaprio.png', 'Im_ElijahWood.png', 'Im_PatrickDempsey.png', 'Im_DanielRadcliffe.png', 'Im_RyanGosling.png'],diff,0,1.2417628999992303,23,61.904761904761905,
STCH0106,train,neg,60,neg60_id13_im10.bmp_neg60_id21_im22.bmp,['Im_GeorgeClooney.png', 'Im_RyanReynolds.png', 'Im_BradPitt.png', 'Im_DanielCraig.png', 'Im_KeanuReeves.png', 'Im_LeonardoDiCaprio.png', 'Im_ElijahWood.png', 'Im_PatrickDempsey.png', 'Im_DanielRadcliffe.png', 'Im_RyanGosling.png'],diff,1,2.133355599999959,24,61.904761904761905,
STCH0106,train,neg,60,neg60_id3_im6.bmp_neg60_id3_im17.bmp,['Im_GeorgeClooney.png', 'Im_RyanReynolds.png', 'Im_BradPitt.png', 'Im_DanielCraig.png', 'Im_KeanuReeves.png', 'Im_LeonardoDiCaprio.png', 'Im_ElijahWood.png', 'Im_PatrickDempsey.png', 'Im_DanielRadcliffe.png', 'Im_RyanGosling.png'],diff,0,1.417023099999824,24,61.904761904761905,
STCH0106,train,neg,90,neg90_id17_im8.bmp_neg90_id17_im14.bmp,['Im_GeorgeClooney.png', 'Im_RyanReynolds.png', 'Im_BradPitt.png', 'Im_DanielCraig.png', 'Im_KeanuReeves.png', 'Im_LeonardoDiCaprio.png', 'Im_ElijahWood.png', 'Im_PatrickDempsey.png', 'Im_DanielRadcliffe.png', 'Im_RyanGosling.png'],same,1,0.4168160999997781,25,61.904761904761905,
STCH0106,train,neg,150,neg150_id20_im3.bmp_neg150_id20_im30.bmp,['Im_GeorgeClooney.png', 'Im_RyanReynolds.png', 'Im_BradPitt.png', 'Im_DanielCraig.png', 'Im_KeanuReeves.png', 'Im_LeonardoDiCaprio.png', 'Im_ElijahWood.png', 'Im_PatrickDempsey.png', 'Im_DanielRadcliffe.png', 'Im_RyanGosling.png'],same,1,0.5584583999998358,26,61.904761904761905,
STCH0106,train,neg,0,neg0_id20_im12.bmp_neg0_id13_im15.bmp,['Im_GeorgeClooney.png', 'Im_RyanReynolds.png', 'Im_BradPitt.png', 'Im_DanielCraig.png', 'Im_KeanuReeves.png', 'Im_LeonardoDiCaprio.png', 'Im_ElijahWood.png', 'Im_PatrickDempsey.png', 'Im_DanielRadcliffe.png', 'Im_RyanGosling.png'],diff,1,0.4837751000004573,27,61.904761904761905,
STCH0106,train,neg,150,neg150_id17_im8.bmp_neg150_id13_im10.bmp,['Im_GeorgeClooney.png', 'Im_RyanReynolds.png', 'Im_BradPitt.png', 'Im_DanielCraig.png', 'Im_KeanuReeves.png', 'Im_LeonardoDiCaprio.png', 'Im_ElijahWood.png', 'Im_PatrickDempsey.png', 'Im_DanielRadcliffe.png', 'Im_RyanGosling.png'],diff,1,1.1831912999996348,28,61.904761904761905,
STCH0106,train,neg,120,neg120_id4_im7.bmp_neg120_id4_im15.bmp,['Im_GeorgeClooney.png', 'Im_RyanReynolds.png', 'Im_BradPitt.png', 'Im_DanielCraig.png', 'Im_KeanuReeves.png', 'Im_LeonardoDiCaprio.png', 'Im_ElijahWood.png', 'Im_PatrickDempsey.png', 'Im_DanielRadcliffe.png', 'Im_RyanGosling.png'],same,1,0.666631299999608,29,61.904761904761905,
STCH0106,train,neg,90,neg90_id6_im12.bmp_neg90_id6_im18.bmp,['Im_GeorgeClooney.png', 'Im_RyanReynolds.png', 'Im_BradPitt.png', 'Im_DanielCraig.png', 'Im_KeanuReeves.png', 'Im_LeonardoDiCaprio.png', 'Im_ElijahWood.png', 'Im_PatrickDempsey.png', 'Im_DanielRadcliffe.png', 'Im_RyanGosling.png'],diff,0,1.9086937000001853,29,61.904761904761905,
