Sujet,Trial,Condition,Filter,Imname,Actor0,Actor1,Actor2,Actor3,Actor4,Actor5,Actor6,Actor7,Actor8,Actor9,Answer,Accu,RT,Score,Scoreperc, 
STCH0106,train,pos,0,pos0_id20_im30.bmp_pos0_id5_im20.bmp,['Im_PatrickDempsey.png', 'Im_ElijahWood.png', 'Im_DanielCraig.png', 'Im_GeorgeClooney.png', 'Im_BradPitt.png', 'Im_LeonardoDiCaprio.png', 'Im_DanielRadcliffe.png', 'Im_KeanuReeves.png', 'Im_RyanGosling.png', 'Im_RyanReynolds.png'],same,0,0.9419490000000224,0,0,
STCH0106,train,pos,150,pos150_id13_im29.bmp_pos150_id4_im15.bmp,['Im_PatrickDempsey.png', 'Im_ElijahWood.png', 'Im_DanielCraig.png', 'Im_GeorgeClooney.png', 'Im_BradPitt.png', 'Im_LeonardoDiCaprio.png', 'Im_DanielRadcliffe.png', 'Im_KeanuReeves.png', 'Im_RyanGosling.png', 'Im_RyanReynolds.png'],same,0,2.050646900002903,0,0,
STCH0106,train,pos,0,pos0_id17_im9.bmp_pos0_id7_im14.bmp,['Im_PatrickDempsey.png', 'Im_ElijahWood.png', 'Im_DanielCraig.png', 'Im_GeorgeClooney.png', 'Im_BradPitt.png', 'Im_LeonardoDiCaprio.png', 'Im_DanielRadcliffe.png', 'Im_KeanuReeves.png', 'Im_RyanGosling.png', 'Im_RyanReynolds.png'],diff,1,2.2914584999998624,1,0,
STCH0106,train,pos,30,pos30_id20_im3.bmp_pos30_id5_im20.bmp,['Im_PatrickDempsey.png', 'Im_ElijahWood.png', 'Im_DanielCraig.png', 'Im_GeorgeClooney.png', 'Im_BradPitt.png', 'Im_LeonardoDiCaprio.png', 'Im_DanielRadcliffe.png', 'Im_KeanuReeves.png', 'Im_RyanGosling.png', 'Im_RyanReynolds.png'],same,0,1.5502073999996355,1,0,
STCH0106,train,pos,30,pos30_id4_im15.bmp_pos30_id4_im20.bmp,['Im_PatrickDempsey.png', 'Im_ElijahWood.png', 'Im_DanielCraig.png', 'Im_GeorgeClooney.png', 'Im_BradPitt.png', 'Im_LeonardoDiCaprio.png', 'Im_DanielRadcliffe.png', 'Im_KeanuReeves.png', 'Im_RyanGosling.png', 'Im_RyanReynolds.png'],diff,0,0.42481430000043474,1,0,
STCH0106,train,pos,60,pos60_id7_im14.bmp_pos60_id7_im15.bmp,['Im_PatrickDempsey.png', 'Im_ElijahWood.png', 'Im_DanielCraig.png', 'Im_GeorgeClooney.png', 'Im_BradPitt.png', 'Im_LeonardoDiCaprio.png', 'Im_DanielRadcliffe.png', 'Im_KeanuReeves.png', 'Im_RyanGosling.png', 'Im_RyanReynolds.png'],same,1,2.2249155000026803,2,0,
STCH0106,train,pos,120,pos120_id21_im17.bmp_pos120_id7_im26.bmp,['Im_PatrickDempsey.png', 'Im_ElijahWood.png', 'Im_DanielCraig.png', 'Im_GeorgeClooney.png', 'Im_BradPitt.png', 'Im_LeonardoDiCaprio.png', 'Im_DanielRadcliffe.png', 'Im_KeanuReeves.png', 'Im_RyanGosling.png', 'Im_RyanReynolds.png'],same,0,0.683315300000686,2,0,
STCH0106,train,pos,60,pos60_id6_im12.bmp_pos60_id6_im18.bmp,['Im_PatrickDempsey.png', 'Im_ElijahWood.png', 'Im_DanielCraig.png', 'Im_GeorgeClooney.png', 'Im_BradPitt.png', 'Im_LeonardoDiCaprio.png', 'Im_DanielRadcliffe.png', 'Im_KeanuReeves.png', 'Im_RyanGosling.png', 'Im_RyanReynolds.png'],diff,0,2.2249350999991293,2,0,
STCH0106,train,pos,fs,posfs_id6_im18.bmp_posfs_id17_im8.bmp,['Im_PatrickDempsey.png', 'Im_ElijahWood.png', 'Im_DanielCraig.png', 'Im_GeorgeClooney.png', 'Im_BradPitt.png', 'Im_LeonardoDiCaprio.png', 'Im_DanielRadcliffe.png', 'Im_KeanuReeves.png', 'Im_RyanGosling.png', 'Im_RyanReynolds.png'],diff,1,1.6585177999986627,3,0,
STCH0106,train,pos,90,pos90_id3_im17.bmp_pos90_id3_im6.bmp,['Im_PatrickDempsey.png', 'Im_ElijahWood.png', 'Im_DanielCraig.png', 'Im_GeorgeClooney.png', 'Im_BradPitt.png', 'Im_LeonardoDiCaprio.png', 'Im_DanielRadcliffe.png', 'Im_KeanuReeves.png', 'Im_RyanGosling.png', 'Im_RyanReynolds.png'],same,1,0.7665285999974003,4,0,
STCH0106,train,pos,120,pos120_id21_im16.bmp_pos120_id5_im1.bmp,['Im_PatrickDempsey.png', 'Im_ElijahWood.png', 'Im_DanielCraig.png', 'Im_GeorgeClooney.png', 'Im_BradPitt.png', 'Im_LeonardoDiCaprio.png', 'Im_DanielRadcliffe.png', 'Im_KeanuReeves.png', 'Im_RyanGosling.png', 'Im_RyanReynolds.png'],diff,1,0.5923856000008527,5,0,
STCH0106,train,pos,fs,posfs_id3_im6.bmp_posfs_id3_im17.bmp,['Im_PatrickDempsey.png', 'Im_ElijahWood.png', 'Im_DanielCraig.png', 'Im_GeorgeClooney.png', 'Im_BradPitt.png', 'Im_LeonardoDiCaprio.png', 'Im_DanielRadcliffe.png', 'Im_KeanuReeves.png', 'Im_RyanGosling.png', 'Im_RyanReynolds.png'],diff,0,2.6583532000004197,5,0,
STCH0106,train,pos,150,pos150_id13_im29.bmp_pos150_id11_im2.bmp,['Im_PatrickDempsey.png', 'Im_ElijahWood.png', 'Im_DanielCraig.png', 'Im_GeorgeClooney.png', 'Im_BradPitt.png', 'Im_LeonardoDiCaprio.png', 'Im_DanielRadcliffe.png', 'Im_KeanuReeves.png', 'Im_RyanGosling.png', 'Im_RyanReynolds.png'],diff,1,0.7335429999984626,6,0,
STCH0106,train,pos,90,pos90_id7_im26.bmp_pos90_id4_im7.bmp,['Im_PatrickDempsey.png', 'Im_ElijahWood.png', 'Im_DanielCraig.png', 'Im_GeorgeClooney.png', 'Im_BradPitt.png', 'Im_LeonardoDiCaprio.png', 'Im_DanielRadcliffe.png', 'Im_KeanuReeves.png', 'Im_RyanGosling.png', 'Im_RyanReynolds.png'],diff,1,1.800023699997837,7,0,
STCH0106,train,neg,150,neg150_id17_im8.bmp_neg150_id17_im14.bmp,['Im_PatrickDempsey.png', 'Im_ElijahWood.png', 'Im_DanielCraig.png', 'Im_GeorgeClooney.png', 'Im_BradPitt.png', 'Im_LeonardoDiCaprio.png', 'Im_DanielRadcliffe.png', 'Im_KeanuReeves.png', 'Im_RyanGosling.png', 'Im_RyanReynolds.png'],same,1,0.6419057000020985,8,0,
STCH0106,train,neg,120,neg120_id13_im15.bmp_neg120_id20_im12.bmp,['Im_PatrickDempsey.png', 'Im_ElijahWood.png', 'Im_DanielCraig.png', 'Im_GeorgeClooney.png', 'Im_BradPitt.png', 'Im_LeonardoDiCaprio.png', 'Im_DanielRadcliffe.png', 'Im_KeanuReeves.png', 'Im_RyanGosling.png', 'Im_RyanReynolds.png'],diff,1,0.7171053999991273,9,0,
STCH0106,train,neg,60,neg60_id13_im10.bmp_neg60_id13_im29.bmp,['Im_PatrickDempsey.png', 'Im_ElijahWood.png', 'Im_DanielCraig.png', 'Im_GeorgeClooney.png', 'Im_BradPitt.png', 'Im_LeonardoDiCaprio.png', 'Im_DanielRadcliffe.png', 'Im_KeanuReeves.png', 'Im_RyanGosling.png', 'Im_RyanReynolds.png'],same,1,0.6503867999999784,10,0,
STCH0106,train,neg,60,neg60_id7_im26.bmp_neg60_id7_im14.bmp,['Im_PatrickDempsey.png', 'Im_ElijahWood.png', 'Im_DanielCraig.png', 'Im_GeorgeClooney.png', 'Im_BradPitt.png', 'Im_LeonardoDiCaprio.png', 'Im_DanielRadcliffe.png', 'Im_KeanuReeves.png', 'Im_RyanGosling.png', 'Im_RyanReynolds.png'],same,1,1.0498693000008643,11,0,
STCH0106,train,neg,30,neg30_id3_im17.bmp_neg30_id17_im14.bmp,['Im_PatrickDempsey.png', 'Im_ElijahWood.png', 'Im_DanielCraig.png', 'Im_GeorgeClooney.png', 'Im_BradPitt.png', 'Im_LeonardoDiCaprio.png', 'Im_DanielRadcliffe.png', 'Im_KeanuReeves.png', 'Im_RyanGosling.png', 'Im_RyanReynolds.png'],diff,1,0.7668245999993815,12,0,
STCH0106,train,neg,0,neg0_id11_im2.bmp_neg0_id11_im10.bmp,['Im_PatrickDempsey.png', 'Im_ElijahWood.png', 'Im_DanielCraig.png', 'Im_GeorgeClooney.png', 'Im_BradPitt.png', 'Im_LeonardoDiCaprio.png', 'Im_DanielRadcliffe.png', 'Im_KeanuReeves.png', 'Im_RyanGosling.png', 'Im_RyanReynolds.png'],same,1,0.8666986000025645,13,0,
STCH0106,train,neg,150,neg150_id21_im22.bmp_neg150_id13_im10.bmp,['Im_PatrickDempsey.png', 'Im_ElijahWood.png', 'Im_DanielCraig.png', 'Im_GeorgeClooney.png', 'Im_BradPitt.png', 'Im_LeonardoDiCaprio.png', 'Im_DanielRadcliffe.png', 'Im_KeanuReeves.png', 'Im_RyanGosling.png', 'Im_RyanReynolds.png'],diff,1,0.45855089999895426,14,0,
STCH0106,train,neg,fs,negfs_id21_im16.bmp_negfs_id21_im17.bmp,['Im_PatrickDempsey.png', 'Im_ElijahWood.png', 'Im_DanielCraig.png', 'Im_GeorgeClooney.png', 'Im_BradPitt.png', 'Im_LeonardoDiCaprio.png', 'Im_DanielRadcliffe.png', 'Im_KeanuReeves.png', 'Im_RyanGosling.png', 'Im_RyanReynolds.png'],same,1,0.6750103000013041,15,0,
STCH0106,train,neg,0,neg0_id7_im14.bmp_neg0_id7_im26.bmp,['Im_PatrickDempsey.png', 'Im_ElijahWood.png', 'Im_DanielCraig.png', 'Im_GeorgeClooney.png', 'Im_BradPitt.png', 'Im_LeonardoDiCaprio.png', 'Im_DanielRadcliffe.png', 'Im_KeanuReeves.png', 'Im_RyanGosling.png', 'Im_RyanReynolds.png'],same,1,0.6585156000001007,16,0,
STCH0106,train,neg,120,neg120_id17_im9.bmp_neg120_id17_im14.bmp,['Im_PatrickDempsey.png', 'Im_ElijahWood.png', 'Im_DanielCraig.png', 'Im_GeorgeClooney.png', 'Im_BradPitt.png', 'Im_LeonardoDiCaprio.png', 'Im_DanielRadcliffe.png', 'Im_KeanuReeves.png', 'Im_RyanGosling.png', 'Im_RyanReynolds.png'],diff,0,0.7250451999971119,16,0,
STCH0106,train,neg,90,neg90_id11_im2.bmp_neg90_id13_im29.bmp,['Im_PatrickDempsey.png', 'Im_ElijahWood.png', 'Im_DanielCraig.png', 'Im_GeorgeClooney.png', 'Im_BradPitt.png', 'Im_LeonardoDiCaprio.png', 'Im_DanielRadcliffe.png', 'Im_KeanuReeves.png', 'Im_RyanGosling.png', 'Im_RyanReynolds.png'],diff,1,0.9831498999992618,17,0,
STCH0106,train,neg,90,neg90_id4_im20.bmp_neg90_id4_im15.bmp,['Im_PatrickDempsey.png', 'Im_ElijahWood.png', 'Im_DanielCraig.png', 'Im_GeorgeClooney.png', 'Im_BradPitt.png', 'Im_LeonardoDiCaprio.png', 'Im_DanielRadcliffe.png', 'Im_KeanuReeves.png', 'Im_RyanGosling.png', 'Im_RyanReynolds.png'],same,1,0.8168975999979011,18,0,
STCH0106,train,neg,fs,negfs_id6_im19.bmp_negfs_id17_im14.bmp,['Im_PatrickDempsey.png', 'Im_ElijahWood.png', 'Im_DanielCraig.png', 'Im_GeorgeClooney.png', 'Im_BradPitt.png', 'Im_LeonardoDiCaprio.png', 'Im_DanielRadcliffe.png', 'Im_KeanuReeves.png', 'Im_RyanGosling.png', 'Im_RyanReynolds.png'],diff,1,0.45037710000178777,19,0,
STCH0106,train,neg,30,neg30_id13_im15.bmp_neg30_id13_im29.bmp,['Im_PatrickDempsey.png', 'Im_ElijahWood.png', 'Im_DanielCraig.png', 'Im_GeorgeClooney.png', 'Im_BradPitt.png', 'Im_LeonardoDiCaprio.png', 'Im_DanielRadcliffe.png', 'Im_KeanuReeves.png', 'Im_RyanGosling.png', 'Im_RyanReynolds.png'],diff,0,0.5170109999999113,19,0,
STCH0106,train,inv,0,pos0_id17_im8.bmp_pos0_id17_im9.bmp,['Im_PatrickDempsey.png', 'Im_ElijahWood.png', 'Im_DanielCraig.png', 'Im_GeorgeClooney.png', 'Im_BradPitt.png', 'Im_LeonardoDiCaprio.png', 'Im_DanielRadcliffe.png', 'Im_KeanuReeves.png', 'Im_RyanGosling.png', 'Im_RyanReynolds.png'],same,1,0.675275599998713,20,0,
STCH0106,train,inv,150,pos150_id5_im20.bmp_pos150_id5_im10.bmp,['Im_PatrickDempsey.png', 'Im_ElijahWood.png', 'Im_DanielCraig.png', 'Im_GeorgeClooney.png', 'Im_BradPitt.png', 'Im_LeonardoDiCaprio.png', 'Im_DanielRadcliffe.png', 'Im_KeanuReeves.png', 'Im_RyanGosling.png', 'Im_RyanReynolds.png'],diff,0,0.750162199998158,20,0,
STCH0106,train,inv,150,pos150_id4_im7.bmp_pos150_id20_im12.bmp,['Im_PatrickDempsey.png', 'Im_ElijahWood.png', 'Im_DanielCraig.png', 'Im_GeorgeClooney.png', 'Im_BradPitt.png', 'Im_LeonardoDiCaprio.png', 'Im_DanielRadcliffe.png', 'Im_KeanuReeves.png', 'Im_RyanGosling.png', 'Im_RyanReynolds.png'],diff,1,1.4917134999996051,21,0,
STCH0106,train,inv,fs,posfs_id11_im10.bmp_posfs_id11_im1.bmp,['Im_PatrickDempsey.png', 'Im_ElijahWood.png', 'Im_DanielCraig.png', 'Im_GeorgeClooney.png', 'Im_BradPitt.png', 'Im_LeonardoDiCaprio.png', 'Im_DanielRadcliffe.png', 'Im_KeanuReeves.png', 'Im_RyanGosling.png', 'Im_RyanReynolds.png'],same,1,3.0085354000002553,22,0,
STCH0106,train,inv,120,pos120_id6_im19.bmp_pos120_id6_im18.bmp,['Im_PatrickDempsey.png', 'Im_ElijahWood.png', 'Im_DanielCraig.png', 'Im_GeorgeClooney.png', 'Im_BradPitt.png', 'Im_LeonardoDiCaprio.png', 'Im_DanielRadcliffe.png', 'Im_KeanuReeves.png', 'Im_RyanGosling.png', 'Im_RyanReynolds.png'],diff,0,0.7836700999978348,22,0,
STCH0106,train,inv,30,pos30_id17_im8.bmp_pos30_id17_im9.bmp,['Im_PatrickDempsey.png', 'Im_ElijahWood.png', 'Im_DanielCraig.png', 'Im_GeorgeClooney.png', 'Im_BradPitt.png', 'Im_LeonardoDiCaprio.png', 'Im_DanielRadcliffe.png', 'Im_KeanuReeves.png', 'Im_RyanGosling.png', 'Im_RyanReynolds.png'],same,1,0.5000507999975525,23,0,
STCH0106,train,inv,90,pos90_id7_im26.bmp_pos90_id21_im17.bmp,['Im_PatrickDempsey.png', 'Im_ElijahWood.png', 'Im_DanielCraig.png', 'Im_GeorgeClooney.png', 'Im_BradPitt.png', 'Im_LeonardoDiCaprio.png', 'Im_DanielRadcliffe.png', 'Im_KeanuReeves.png', 'Im_RyanGosling.png', 'Im_RyanReynolds.png'],same,0,0.9335943999976735,23,0,
STCH0106,train,inv,120,pos120_id5_im10.bmp_pos120_id5_im1.bmp,['Im_PatrickDempsey.png', 'Im_ElijahWood.png', 'Im_DanielCraig.png', 'Im_GeorgeClooney.png', 'Im_BradPitt.png', 'Im_LeonardoDiCaprio.png', 'Im_DanielRadcliffe.png', 'Im_KeanuReeves.png', 'Im_RyanGosling.png', 'Im_RyanReynolds.png'],same,1,0.45865760000015143,24,0,
STCH0106,train,inv,30,pos30_id11_im2.bmp_pos30_id13_im29.bmp,['Im_PatrickDempsey.png', 'Im_ElijahWood.png', 'Im_DanielCraig.png', 'Im_GeorgeClooney.png', 'Im_BradPitt.png', 'Im_LeonardoDiCaprio.png', 'Im_DanielRadcliffe.png', 'Im_KeanuReeves.png', 'Im_RyanGosling.png', 'Im_RyanReynolds.png'],diff,1,0.5916317999981402,25,0,
STCH0106,train,inv,60,pos60_id6_im19.bmp_pos60_id17_im14.bmp,['Im_PatrickDempsey.png', 'Im_ElijahWood.png', 'Im_DanielCraig.png', 'Im_GeorgeClooney.png', 'Im_BradPitt.png', 'Im_LeonardoDiCaprio.png', 'Im_DanielRadcliffe.png', 'Im_KeanuReeves.png', 'Im_RyanGosling.png', 'Im_RyanReynolds.png'],diff,1,0.5583423999996739,26,0,
STCH0106,train,inv,90,pos90_id20_im12.bmp_pos90_id20_im30.bmp,['Im_PatrickDempsey.png', 'Im_ElijahWood.png', 'Im_DanielCraig.png', 'Im_GeorgeClooney.png', 'Im_BradPitt.png', 'Im_LeonardoDiCaprio.png', 'Im_DanielRadcliffe.png', 'Im_KeanuReeves.png', 'Im_RyanGosling.png', 'Im_RyanReynolds.png'],same,1,1.0752713999972912,27,0,
STCH0106,train,inv,60,pos60_id6_im18.bmp_pos60_id6_im12.bmp,['Im_PatrickDempsey.png', 'Im_ElijahWood.png', 'Im_DanielCraig.png', 'Im_GeorgeClooney.png', 'Im_BradPitt.png', 'Im_LeonardoDiCaprio.png', 'Im_DanielRadcliffe.png', 'Im_KeanuReeves.png', 'Im_RyanGosling.png', 'Im_RyanReynolds.png'],diff,0,0.6001612999971258,27,0,
STCH0106,train,inv,fs,posfs_id13_im15.bmp_posfs_id20_im12.bmp,['Im_PatrickDempsey.png', 'Im_ElijahWood.png', 'Im_DanielCraig.png', 'Im_GeorgeClooney.png', 'Im_BradPitt.png', 'Im_LeonardoDiCaprio.png', 'Im_DanielRadcliffe.png', 'Im_KeanuReeves.png', 'Im_RyanGosling.png', 'Im_RyanReynolds.png'],diff,1,0.6752833999998984,28,0,
STCH0106,train,inv,0,pos0_id3_im6.bmp_pos0_id6_im19.bmp,['Im_PatrickDempsey.png', 'Im_ElijahWood.png', 'Im_DanielCraig.png', 'Im_GeorgeClooney.png', 'Im_BradPitt.png', 'Im_LeonardoDiCaprio.png', 'Im_DanielRadcliffe.png', 'Im_KeanuReeves.png', 'Im_RyanGosling.png', 'Im_RyanReynolds.png'],diff,1,0.7584811999986414,29,0,
STCH0106,train,inv,30,pos30_id20_im30.bmp_pos30_id5_im20.bmp,['Im_PatrickDempsey.png', 'Im_ElijahWood.png', 'Im_DanielCraig.png', 'Im_GeorgeClooney.png', 'Im_BradPitt.png', 'Im_LeonardoDiCaprio.png', 'Im_DanielRadcliffe.png', 'Im_KeanuReeves.png', 'Im_RyanGosling.png', 'Im_RyanReynolds.png'],diff,1,0.8003121000001556,1,69.04761904761905,
STCH0106,train,inv,0,pos0_id3_im6.bmp_pos0_id3_im8.bmp,['Im_PatrickDempsey.png', 'Im_ElijahWood.png', 'Im_DanielCraig.png', 'Im_GeorgeClooney.png', 'Im_BradPitt.png', 'Im_LeonardoDiCaprio.png', 'Im_DanielRadcliffe.png', 'Im_KeanuReeves.png', 'Im_RyanGosling.png', 'Im_RyanReynolds.png'],same,1,0.6831663000011758,2,69.04761904761905,
STCH0106,train,inv,0,pos0_id7_im15.bmp_pos0_id7_im14.bmp,['Im_PatrickDempsey.png', 'Im_ElijahWood.png', 'Im_DanielCraig.png', 'Im_GeorgeClooney.png', 'Im_BradPitt.png', 'Im_LeonardoDiCaprio.png', 'Im_DanielRadcliffe.png', 'Im_KeanuReeves.png', 'Im_RyanGosling.png', 'Im_RyanReynolds.png'],same,1,1.4923735999982455,3,69.04761904761905,
STCH0106,train,inv,fs,posfs_id4_im7.bmp_posfs_id4_im20.bmp,['Im_PatrickDempsey.png', 'Im_ElijahWood.png', 'Im_DanielCraig.png', 'Im_GeorgeClooney.png', 'Im_BradPitt.png', 'Im_LeonardoDiCaprio.png', 'Im_DanielRadcliffe.png', 'Im_KeanuReeves.png', 'Im_RyanGosling.png', 'Im_RyanReynolds.png'],same,1,0.5082048000003851,4,69.04761904761905,
STCH0106,train,inv,90,pos90_id5_im10.bmp_pos90_id3_im8.bmp,['Im_PatrickDempsey.png', 'Im_ElijahWood.png', 'Im_DanielCraig.png', 'Im_GeorgeClooney.png', 'Im_BradPitt.png', 'Im_LeonardoDiCaprio.png', 'Im_DanielRadcliffe.png', 'Im_KeanuReeves.png', 'Im_RyanGosling.png', 'Im_RyanReynolds.png'],diff,1,0.40852409999934025,5,69.04761904761905,
STCH0106,train,inv,120,pos120_id6_im18.bmp_pos120_id6_im12.bmp,['Im_PatrickDempsey.png', 'Im_ElijahWood.png', 'Im_DanielCraig.png', 'Im_GeorgeClooney.png', 'Im_BradPitt.png', 'Im_LeonardoDiCaprio.png', 'Im_DanielRadcliffe.png', 'Im_KeanuReeves.png', 'Im_RyanGosling.png', 'Im_RyanReynolds.png'],diff,0,0.40839020000203163,5,69.04761904761905,
STCH0106,train,inv,fs,posfs_id7_im26.bmp_posfs_id4_im7.bmp,['Im_PatrickDempsey.png', 'Im_ElijahWood.png', 'Im_DanielCraig.png', 'Im_GeorgeClooney.png', 'Im_BradPitt.png', 'Im_LeonardoDiCaprio.png', 'Im_DanielRadcliffe.png', 'Im_KeanuReeves.png', 'Im_RyanGosling.png', 'Im_RyanReynolds.png'],diff,1,0.5247154999997292,6,69.04761904761905,
STCH0106,train,inv,60,pos60_id11_im10.bmp_pos60_id11_im2.bmp,['Im_PatrickDempsey.png', 'Im_ElijahWood.png', 'Im_DanielCraig.png', 'Im_GeorgeClooney.png', 'Im_BradPitt.png', 'Im_LeonardoDiCaprio.png', 'Im_DanielRadcliffe.png', 'Im_KeanuReeves.png', 'Im_RyanGosling.png', 'Im_RyanReynolds.png'],diff,0,0.774915099998907,6,69.04761904761905,
STCH0106,train,inv,60,pos60_id5_im1.bmp_pos60_id21_im16.bmp,['Im_PatrickDempsey.png', 'Im_ElijahWood.png', 'Im_DanielCraig.png', 'Im_GeorgeClooney.png', 'Im_BradPitt.png', 'Im_LeonardoDiCaprio.png', 'Im_DanielRadcliffe.png', 'Im_KeanuReeves.png', 'Im_RyanGosling.png', 'Im_RyanReynolds.png'],diff,1,0.4333760000008624,7,69.04761904761905,
STCH0106,train,inv,150,pos150_id7_im14.bmp_pos150_id17_im9.bmp,['Im_PatrickDempsey.png', 'Im_ElijahWood.png', 'Im_DanielCraig.png', 'Im_GeorgeClooney.png', 'Im_BradPitt.png', 'Im_LeonardoDiCaprio.png', 'Im_DanielRadcliffe.png', 'Im_KeanuReeves.png', 'Im_RyanGosling.png', 'Im_RyanReynolds.png'],diff,1,0.9586221999998088,8,69.04761904761905,
STCH0106,train,inv,120,pos120_id11_im2.bmp_pos120_id11_im10.bmp,['Im_PatrickDempsey.png', 'Im_ElijahWood.png', 'Im_DanielCraig.png', 'Im_GeorgeClooney.png', 'Im_BradPitt.png', 'Im_LeonardoDiCaprio.png', 'Im_DanielRadcliffe.png', 'Im_KeanuReeves.png', 'Im_RyanGosling.png', 'Im_RyanReynolds.png'],diff,0,0.7420122000003175,8,69.04761904761905,
STCH0106,train,inv,150,pos150_id5_im20.bmp_pos150_id20_im3.bmp,['Im_PatrickDempsey.png', 'Im_ElijahWood.png', 'Im_DanielCraig.png', 'Im_GeorgeClooney.png', 'Im_BradPitt.png', 'Im_LeonardoDiCaprio.png', 'Im_DanielRadcliffe.png', 'Im_KeanuReeves.png', 'Im_RyanGosling.png', 'Im_RyanReynolds.png'],diff,1,0.4169554000000062,9,69.04761904761905,
STCH0106,train,inv,30,pos30_id6_im19.bmp_pos30_id6_im18.bmp,['Im_PatrickDempsey.png', 'Im_ElijahWood.png', 'Im_DanielCraig.png', 'Im_GeorgeClooney.png', 'Im_BradPitt.png', 'Im_LeonardoDiCaprio.png', 'Im_DanielRadcliffe.png', 'Im_KeanuReeves.png', 'Im_RyanGosling.png', 'Im_RyanReynolds.png'],same,1,0.6752210000013292,10,69.04761904761905,
STCH0106,train,inv,90,pos90_id13_im15.bmp_pos90_id21_im16.bmp,['Im_PatrickDempsey.png', 'Im_ElijahWood.png', 'Im_DanielCraig.png', 'Im_GeorgeClooney.png', 'Im_BradPitt.png', 'Im_LeonardoDiCaprio.png', 'Im_DanielRadcliffe.png', 'Im_KeanuReeves.png', 'Im_RyanGosling.png', 'Im_RyanReynolds.png'],same,0,0.8167010999968625,10,69.04761904761905,
STCH0106,train,neg,0,neg0_id7_im14.bmp_neg0_id5_im10.bmp,['Im_PatrickDempsey.png', 'Im_ElijahWood.png', 'Im_DanielCraig.png', 'Im_GeorgeClooney.png', 'Im_BradPitt.png', 'Im_LeonardoDiCaprio.png', 'Im_DanielRadcliffe.png', 'Im_KeanuReeves.png', 'Im_RyanGosling.png', 'Im_RyanReynolds.png'],diff,1,0.4251369999983581,11,69.04761904761905,
STCH0106,train,neg,150,neg150_id17_im8.bmp_neg150_id17_im9.bmp,['Im_PatrickDempsey.png', 'Im_ElijahWood.png', 'Im_DanielCraig.png', 'Im_GeorgeClooney.png', 'Im_BradPitt.png', 'Im_LeonardoDiCaprio.png', 'Im_DanielRadcliffe.png', 'Im_KeanuReeves.png', 'Im_RyanGosling.png', 'Im_RyanReynolds.png'],same,1,0.42516510000132257,12,69.04761904761905,
STCH0106,train,neg,fs,negfs_id6_im19.bmp_negfs_id6_im12.bmp,['Im_PatrickDempsey.png', 'Im_ElijahWood.png', 'Im_DanielCraig.png', 'Im_GeorgeClooney.png', 'Im_BradPitt.png', 'Im_LeonardoDiCaprio.png', 'Im_DanielRadcliffe.png', 'Im_KeanuReeves.png', 'Im_RyanGosling.png', 'Im_RyanReynolds.png'],diff,0,0.9166589999986172,12,69.04761904761905,
STCH0106,train,neg,120,neg120_id17_im14.bmp_neg120_id6_im19.bmp,['Im_PatrickDempsey.png', 'Im_ElijahWood.png', 'Im_DanielCraig.png', 'Im_GeorgeClooney.png', 'Im_BradPitt.png', 'Im_LeonardoDiCaprio.png', 'Im_DanielRadcliffe.png', 'Im_KeanuReeves.png', 'Im_RyanGosling.png', 'Im_RyanReynolds.png'],diff,1,0.5582878999994136,13,69.04761904761905,
STCH0106,train,neg,30,neg30_id20_im3.bmp_neg30_id20_im12.bmp,['Im_PatrickDempsey.png', 'Im_ElijahWood.png', 'Im_DanielCraig.png', 'Im_GeorgeClooney.png', 'Im_BradPitt.png', 'Im_LeonardoDiCaprio.png', 'Im_DanielRadcliffe.png', 'Im_KeanuReeves.png', 'Im_RyanGosling.png', 'Im_RyanReynolds.png'],same,1,0.5752779999966151,14,69.04761904761905,
STCH0106,train,neg,120,neg120_id7_im26.bmp_neg120_id4_im7.bmp,['Im_PatrickDempsey.png', 'Im_ElijahWood.png', 'Im_DanielCraig.png', 'Im_GeorgeClooney.png', 'Im_BradPitt.png', 'Im_LeonardoDiCaprio.png', 'Im_DanielRadcliffe.png', 'Im_KeanuReeves.png', 'Im_RyanGosling.png', 'Im_RyanReynolds.png'],diff,1,0.9751418000014382,15,69.04761904761905,
STCH0106,train,neg,90,neg90_id11_im10.bmp_neg90_id11_im2.bmp,['Im_PatrickDempsey.png', 'Im_ElijahWood.png', 'Im_DanielCraig.png', 'Im_GeorgeClooney.png', 'Im_BradPitt.png', 'Im_LeonardoDiCaprio.png', 'Im_DanielRadcliffe.png', 'Im_KeanuReeves.png', 'Im_RyanGosling.png', 'Im_RyanReynolds.png'],same,1,1.458308000001125,16,69.04761904761905,
STCH0106,train,neg,60,neg60_id4_im20.bmp_neg60_id20_im30.bmp,['Im_PatrickDempsey.png', 'Im_ElijahWood.png', 'Im_DanielCraig.png', 'Im_GeorgeClooney.png', 'Im_BradPitt.png', 'Im_LeonardoDiCaprio.png', 'Im_DanielRadcliffe.png', 'Im_KeanuReeves.png', 'Im_RyanGosling.png', 'Im_RyanReynolds.png'],diff,1,0.41673050000099465,17,69.04761904761905,
STCH0106,train,neg,150,neg150_id11_im2.bmp_neg150_id3_im8.bmp,['Im_PatrickDempsey.png', 'Im_ElijahWood.png', 'Im_DanielCraig.png', 'Im_GeorgeClooney.png', 'Im_BradPitt.png', 'Im_LeonardoDiCaprio.png', 'Im_DanielRadcliffe.png', 'Im_KeanuReeves.png', 'Im_RyanGosling.png', 'Im_RyanReynolds.png'],same,0,0.4083565000000817,17,69.04761904761905,
STCH0106,train,neg,30,neg30_id13_im15.bmp_neg30_id20_im12.bmp,['Im_PatrickDempsey.png', 'Im_ElijahWood.png', 'Im_DanielCraig.png', 'Im_GeorgeClooney.png', 'Im_BradPitt.png', 'Im_LeonardoDiCaprio.png', 'Im_DanielRadcliffe.png', 'Im_KeanuReeves.png', 'Im_RyanGosling.png', 'Im_RyanReynolds.png'],diff,1,0.40840039999966393,18,69.04761904761905,
STCH0106,train,neg,0,neg0_id13_im15.bmp_neg0_id21_im16.bmp,['Im_PatrickDempsey.png', 'Im_ElijahWood.png', 'Im_DanielCraig.png', 'Im_GeorgeClooney.png', 'Im_BradPitt.png', 'Im_LeonardoDiCaprio.png', 'Im_DanielRadcliffe.png', 'Im_KeanuReeves.png', 'Im_RyanGosling.png', 'Im_RyanReynolds.png'],diff,1,0.42501720000291243,19,69.04761904761905,
STCH0106,train,neg,90,neg90_id11_im1.bmp_neg90_id11_im2.bmp,['Im_PatrickDempsey.png', 'Im_ElijahWood.png', 'Im_DanielCraig.png', 'Im_GeorgeClooney.png', 'Im_BradPitt.png', 'Im_LeonardoDiCaprio.png', 'Im_DanielRadcliffe.png', 'Im_KeanuReeves.png', 'Im_RyanGosling.png', 'Im_RyanReynolds.png'],same,1,0.9749153999982809,20,69.04761904761905,
STCH0106,train,neg,60,neg60_id17_im8.bmp_neg60_id17_im14.bmp,['Im_PatrickDempsey.png', 'Im_ElijahWood.png', 'Im_DanielCraig.png', 'Im_GeorgeClooney.png', 'Im_BradPitt.png', 'Im_LeonardoDiCaprio.png', 'Im_DanielRadcliffe.png', 'Im_KeanuReeves.png', 'Im_RyanGosling.png', 'Im_RyanReynolds.png'],same,1,0.5833490000004531,21,69.04761904761905,
STCH0106,train,neg,fs,negfs_id3_im8.bmp_negfs_id11_im2.bmp,['Im_PatrickDempsey.png', 'Im_ElijahWood.png', 'Im_DanielCraig.png', 'Im_GeorgeClooney.png', 'Im_BradPitt.png', 'Im_LeonardoDiCaprio.png', 'Im_DanielRadcliffe.png', 'Im_KeanuReeves.png', 'Im_RyanGosling.png', 'Im_RyanReynolds.png'],same,0,0.5500276999991911,21,69.04761904761905,
STCH0106,train,pos,150,pos150_id5_im1.bmp_pos150_id6_im12.bmp,['Im_PatrickDempsey.png', 'Im_ElijahWood.png', 'Im_DanielCraig.png', 'Im_GeorgeClooney.png', 'Im_BradPitt.png', 'Im_LeonardoDiCaprio.png', 'Im_DanielRadcliffe.png', 'Im_KeanuReeves.png', 'Im_RyanGosling.png', 'Im_RyanReynolds.png'],diff,1,0.8085944999984349,22,69.04761904761905,
STCH0106,train,pos,30,pos30_id3_im17.bmp_pos30_id3_im8.bmp,['Im_PatrickDempsey.png', 'Im_ElijahWood.png', 'Im_DanielCraig.png', 'Im_GeorgeClooney.png', 'Im_BradPitt.png', 'Im_LeonardoDiCaprio.png', 'Im_DanielRadcliffe.png', 'Im_KeanuReeves.png', 'Im_RyanGosling.png', 'Im_RyanReynolds.png'],same,1,0.7917343000008259,23,69.04761904761905,
STCH0106,train,pos,0,pos0_id5_im20.bmp_pos0_id20_im3.bmp,['Im_PatrickDempsey.png', 'Im_ElijahWood.png', 'Im_DanielCraig.png', 'Im_GeorgeClooney.png', 'Im_BradPitt.png', 'Im_LeonardoDiCaprio.png', 'Im_DanielRadcliffe.png', 'Im_KeanuReeves.png', 'Im_RyanGosling.png', 'Im_RyanReynolds.png'],diff,1,0.44192670000120415,24,69.04761904761905,
STCH0106,train,pos,150,pos150_id17_im8.bmp_pos150_id13_im10.bmp,['Im_PatrickDempsey.png', 'Im_ElijahWood.png', 'Im_DanielCraig.png', 'Im_GeorgeClooney.png', 'Im_BradPitt.png', 'Im_LeonardoDiCaprio.png', 'Im_DanielRadcliffe.png', 'Im_KeanuReeves.png', 'Im_RyanGosling.png', 'Im_RyanReynolds.png'],diff,1,0.6585725999975693,25,69.04761904761905,
STCH0106,train,pos,90,pos90_id13_im10.bmp_pos90_id21_im22.bmp,['Im_PatrickDempsey.png', 'Im_ElijahWood.png', 'Im_DanielCraig.png', 'Im_GeorgeClooney.png', 'Im_BradPitt.png', 'Im_LeonardoDiCaprio.png', 'Im_DanielRadcliffe.png', 'Im_KeanuReeves.png', 'Im_RyanGosling.png', 'Im_RyanReynolds.png'],diff,1,0.9251995999984501,26,69.04761904761905,
STCH0106,train,pos,120,pos120_id11_im1.bmp_pos120_id11_im2.bmp,['Im_PatrickDempsey.png', 'Im_ElijahWood.png', 'Im_DanielCraig.png', 'Im_GeorgeClooney.png', 'Im_BradPitt.png', 'Im_LeonardoDiCaprio.png', 'Im_DanielRadcliffe.png', 'Im_KeanuReeves.png', 'Im_RyanGosling.png', 'Im_RyanReynolds.png'],same,1,0.9084207999985665,27,69.04761904761905,
STCH0106,train,pos,60,pos60_id13_im29.bmp_pos60_id13_im10.bmp,['Im_PatrickDempsey.png', 'Im_ElijahWood.png', 'Im_DanielCraig.png', 'Im_GeorgeClooney.png', 'Im_BradPitt.png', 'Im_LeonardoDiCaprio.png', 'Im_DanielRadcliffe.png', 'Im_KeanuReeves.png', 'Im_RyanGosling.png', 'Im_RyanReynolds.png'],diff,0,0.9751925999989908,27,69.04761904761905,
STCH0106,train,pos,fs,posfs_id20_im3.bmp_posfs_id20_im12.bmp,['Im_PatrickDempsey.png', 'Im_ElijahWood.png', 'Im_DanielCraig.png', 'Im_GeorgeClooney.png', 'Im_BradPitt.png', 'Im_LeonardoDiCaprio.png', 'Im_DanielRadcliffe.png', 'Im_KeanuReeves.png', 'Im_RyanGosling.png', 'Im_RyanReynolds.png'],same,1,0.40837240000109887,28,69.04761904761905,
STCH0106,train,pos,60,pos60_id21_im22.bmp_pos60_id21_im17.bmp,['Im_PatrickDempsey.png', 'Im_ElijahWood.png', 'Im_DanielCraig.png', 'Im_GeorgeClooney.png', 'Im_BradPitt.png', 'Im_LeonardoDiCaprio.png', 'Im_DanielRadcliffe.png', 'Im_KeanuReeves.png', 'Im_RyanGosling.png', 'Im_RyanReynolds.png'],same,1,0.8752429000014672,29,69.04761904761905,
STCH0106,train,pos,30,pos30_id13_im10.bmp_pos30_id17_im8.bmp,['Im_PatrickDempsey.png', 'Im_ElijahWood.png', 'Im_DanielCraig.png', 'Im_GeorgeClooney.png', 'Im_BradPitt.png', 'Im_LeonardoDiCaprio.png', 'Im_DanielRadcliffe.png', 'Im_KeanuReeves.png', 'Im_RyanGosling.png', 'Im_RyanReynolds.png'],diff,1,0.7415494999986549,30,69.04761904761905,
STCH0106,train,pos,120,pos120_id13_im15.bmp_pos120_id21_im16.bmp,['Im_PatrickDempsey.png', 'Im_ElijahWood.png', 'Im_DanielCraig.png', 'Im_GeorgeClooney.png', 'Im_BradPitt.png', 'Im_LeonardoDiCaprio.png', 'Im_DanielRadcliffe.png', 'Im_KeanuReeves.png', 'Im_RyanGosling.png', 'Im_RyanReynolds.png'],diff,1,0.41666819999954896,31,69.04761904761905,
STCH0106,train,pos,90,pos90_id21_im22.bmp_pos90_id17_im9.bmp,['Im_PatrickDempsey.png', 'Im_ElijahWood.png', 'Im_DanielCraig.png', 'Im_GeorgeClooney.png', 'Im_BradPitt.png', 'Im_LeonardoDiCaprio.png', 'Im_DanielRadcliffe.png', 'Im_KeanuReeves.png', 'Im_RyanGosling.png', 'Im_RyanReynolds.png'],diff,1,0.8001180999999633,32,69.04761904761905,
STCH0106,train,pos,fs,posfs_id4_im15.bmp_posfs_id4_im20.bmp,['Im_PatrickDempsey.png', 'Im_ElijahWood.png', 'Im_DanielCraig.png', 'Im_GeorgeClooney.png', 'Im_BradPitt.png', 'Im_LeonardoDiCaprio.png', 'Im_DanielRadcliffe.png', 'Im_KeanuReeves.png', 'Im_RyanGosling.png', 'Im_RyanReynolds.png'],same,1,0.40834320000067237,33,69.04761904761905,
STCH0106,train,pos,0,pos0_id17_im9.bmp_pos0_id21_im22.bmp,['Im_PatrickDempsey.png', 'Im_ElijahWood.png', 'Im_DanielCraig.png', 'Im_GeorgeClooney.png', 'Im_BradPitt.png', 'Im_LeonardoDiCaprio.png', 'Im_DanielRadcliffe.png', 'Im_KeanuReeves.png', 'Im_RyanGosling.png', 'Im_RyanReynolds.png'],diff,1,0.4084020000009332,34,69.04761904761905,
STCH0106,train,pos,150,pos150_id11_im10.bmp_pos150_id20_im3.bmp,['Im_PatrickDempsey.png', 'Im_ElijahWood.png', 'Im_DanielCraig.png', 'Im_GeorgeClooney.png', 'Im_BradPitt.png', 'Im_LeonardoDiCaprio.png', 'Im_DanielRadcliffe.png', 'Im_KeanuReeves.png', 'Im_RyanGosling.png', 'Im_RyanReynolds.png'],diff,1,0.8832115000004706,1,80.95238095238095,
STCH0106,train,pos,30,pos30_id13_im29.bmp_pos30_id4_im15.bmp,['Im_PatrickDempsey.png', 'Im_ElijahWood.png', 'Im_DanielCraig.png', 'Im_GeorgeClooney.png', 'Im_BradPitt.png', 'Im_LeonardoDiCaprio.png', 'Im_DanielRadcliffe.png', 'Im_KeanuReeves.png', 'Im_RyanGosling.png', 'Im_RyanReynolds.png'],diff,1,0.76659749999817,2,80.95238095238095,
STCH0106,train,pos,90,pos90_id11_im1.bmp_pos90_id11_im2.bmp,['Im_PatrickDempsey.png', 'Im_ElijahWood.png', 'Im_DanielCraig.png', 'Im_GeorgeClooney.png', 'Im_BradPitt.png', 'Im_LeonardoDiCaprio.png', 'Im_DanielRadcliffe.png', 'Im_KeanuReeves.png', 'Im_RyanGosling.png', 'Im_RyanReynolds.png'],diff,0,0.6500492999984999,2,80.95238095238095,
STCH0106,train,pos,0,pos0_id13_im10.bmp_pos0_id17_im8.bmp,['Im_PatrickDempsey.png', 'Im_ElijahWood.png', 'Im_DanielCraig.png', 'Im_GeorgeClooney.png', 'Im_BradPitt.png', 'Im_LeonardoDiCaprio.png', 'Im_DanielRadcliffe.png', 'Im_KeanuReeves.png', 'Im_RyanGosling.png', 'Im_RyanReynolds.png'],diff,1,0.7250965999992331,3,80.95238095238095,
STCH0106,train,pos,150,pos150_id21_im17.bmp_pos150_id21_im16.bmp,['Im_PatrickDempsey.png', 'Im_ElijahWood.png', 'Im_DanielCraig.png', 'Im_GeorgeClooney.png', 'Im_BradPitt.png', 'Im_LeonardoDiCaprio.png', 'Im_DanielRadcliffe.png', 'Im_KeanuReeves.png', 'Im_RyanGosling.png', 'Im_RyanReynolds.png'],same,1,1.1419052000019292,4,80.95238095238095,
STCH0106,train,pos,fs,posfs_id21_im16.bmp_posfs_id21_im22.bmp,['Im_PatrickDempsey.png', 'Im_ElijahWood.png', 'Im_DanielCraig.png', 'Im_GeorgeClooney.png', 'Im_BradPitt.png', 'Im_LeonardoDiCaprio.png', 'Im_DanielRadcliffe.png', 'Im_KeanuReeves.png', 'Im_RyanGosling.png', 'Im_RyanReynolds.png'],same,1,0.6248995999994804,5,80.95238095238095,
STCH0106,train,pos,120,pos120_id5_im1.bmp_pos120_id5_im20.bmp,['Im_PatrickDempsey.png', 'Im_ElijahWood.png', 'Im_DanielCraig.png', 'Im_GeorgeClooney.png', 'Im_BradPitt.png', 'Im_LeonardoDiCaprio.png', 'Im_DanielRadcliffe.png', 'Im_KeanuReeves.png', 'Im_RyanGosling.png', 'Im_RyanReynolds.png'],same,1,0.7166789000002609,6,80.95238095238095,
STCH0106,train,pos,60,pos60_id13_im10.bmp_pos60_id17_im8.bmp,['Im_PatrickDempsey.png', 'Im_ElijahWood.png', 'Im_DanielCraig.png', 'Im_GeorgeClooney.png', 'Im_BradPitt.png', 'Im_LeonardoDiCaprio.png', 'Im_DanielRadcliffe.png', 'Im_KeanuReeves.png', 'Im_RyanGosling.png', 'Im_RyanReynolds.png'],diff,1,0.4499759000027552,7,80.95238095238095,
STCH0106,train,pos,90,pos90_id6_im18.bmp_pos90_id6_im19.bmp,['Im_PatrickDempsey.png', 'Im_ElijahWood.png', 'Im_DanielCraig.png', 'Im_GeorgeClooney.png', 'Im_BradPitt.png', 'Im_LeonardoDiCaprio.png', 'Im_DanielRadcliffe.png', 'Im_KeanuReeves.png', 'Im_RyanGosling.png', 'Im_RyanReynolds.png'],same,1,0.5587683000012476,8,80.95238095238095,
STCH0106,train,pos,120,pos120_id17_im9.bmp_pos120_id17_im8.bmp,['Im_PatrickDempsey.png', 'Im_ElijahWood.png', 'Im_DanielCraig.png', 'Im_GeorgeClooney.png', 'Im_BradPitt.png', 'Im_LeonardoDiCaprio.png', 'Im_DanielRadcliffe.png', 'Im_KeanuReeves.png', 'Im_RyanGosling.png', 'Im_RyanReynolds.png'],same,1,0.42447829999946407,9,80.95238095238095,
STCH0106,train,pos,30,pos30_id17_im8.bmp_pos30_id17_im9.bmp,['Im_PatrickDempsey.png', 'Im_ElijahWood.png', 'Im_DanielCraig.png', 'Im_GeorgeClooney.png', 'Im_BradPitt.png', 'Im_LeonardoDiCaprio.png', 'Im_DanielRadcliffe.png', 'Im_KeanuReeves.png', 'Im_RyanGosling.png', 'Im_RyanReynolds.png'],same,1,0.9836740999999165,10,80.95238095238095,
STCH0106,train,pos,fs,posfs_id21_im17.bmp_posfs_id7_im26.bmp,['Im_PatrickDempsey.png', 'Im_ElijahWood.png', 'Im_DanielCraig.png', 'Im_GeorgeClooney.png', 'Im_BradPitt.png', 'Im_LeonardoDiCaprio.png', 'Im_DanielRadcliffe.png', 'Im_KeanuReeves.png', 'Im_RyanGosling.png', 'Im_RyanReynolds.png'],diff,1,0.8678308999988076,11,80.95238095238095,
STCH0106,train,pos,0,pos0_id17_im14.bmp_pos0_id6_im19.bmp,['Im_PatrickDempsey.png', 'Im_ElijahWood.png', 'Im_DanielCraig.png', 'Im_GeorgeClooney.png', 'Im_BradPitt.png', 'Im_LeonardoDiCaprio.png', 'Im_DanielRadcliffe.png', 'Im_KeanuReeves.png', 'Im_RyanGosling.png', 'Im_RyanReynolds.png'],diff,1,0.4083771000005072,12,80.95238095238095,
STCH0106,train,pos,60,pos60_id5_im20.bmp_pos60_id20_im30.bmp,['Im_PatrickDempsey.png', 'Im_ElijahWood.png', 'Im_DanielCraig.png', 'Im_GeorgeClooney.png', 'Im_BradPitt.png', 'Im_LeonardoDiCaprio.png', 'Im_DanielRadcliffe.png', 'Im_KeanuReeves.png', 'Im_RyanGosling.png', 'Im_RyanReynolds.png'],diff,1,0.5417998000011721,13,80.95238095238095,
STCH0106,train,neg,fs,negfs_id3_im17.bmp_negfs_id3_im8.bmp,['Im_PatrickDempsey.png', 'Im_ElijahWood.png', 'Im_DanielCraig.png', 'Im_GeorgeClooney.png', 'Im_BradPitt.png', 'Im_LeonardoDiCaprio.png', 'Im_DanielRadcliffe.png', 'Im_KeanuReeves.png', 'Im_RyanGosling.png', 'Im_RyanReynolds.png'],same,1,0.6835743999981787,14,80.95238095238095,
STCH0106,train,neg,120,neg120_id6_im19.bmp_neg120_id3_im6.bmp,['Im_PatrickDempsey.png', 'Im_ElijahWood.png', 'Im_DanielCraig.png', 'Im_GeorgeClooney.png', 'Im_BradPitt.png', 'Im_LeonardoDiCaprio.png', 'Im_DanielRadcliffe.png', 'Im_KeanuReeves.png', 'Im_RyanGosling.png', 'Im_RyanReynolds.png'],diff,1,0.41672169999947073,15,80.95238095238095,
STCH0106,train,neg,60,neg60_id7_im15.bmp_neg60_id7_im14.bmp,['Im_PatrickDempsey.png', 'Im_ElijahWood.png', 'Im_DanielCraig.png', 'Im_GeorgeClooney.png', 'Im_BradPitt.png', 'Im_LeonardoDiCaprio.png', 'Im_DanielRadcliffe.png', 'Im_KeanuReeves.png', 'Im_RyanGosling.png', 'Im_RyanReynolds.png'],same,1,0.41666239999904064,16,80.95238095238095,
STCH0106,train,neg,120,neg120_id21_im17.bmp_neg120_id21_im22.bmp,['Im_PatrickDempsey.png', 'Im_ElijahWood.png', 'Im_DanielCraig.png', 'Im_GeorgeClooney.png', 'Im_BradPitt.png', 'Im_LeonardoDiCaprio.png', 'Im_DanielRadcliffe.png', 'Im_KeanuReeves.png', 'Im_RyanGosling.png', 'Im_RyanReynolds.png'],same,1,0.4918312999980117,17,80.95238095238095,
STCH0106,train,neg,0,neg0_id21_im22.bmp_neg0_id21_im17.bmp,['Im_PatrickDempsey.png', 'Im_ElijahWood.png', 'Im_DanielCraig.png', 'Im_GeorgeClooney.png', 'Im_BradPitt.png', 'Im_LeonardoDiCaprio.png', 'Im_DanielRadcliffe.png', 'Im_KeanuReeves.png', 'Im_RyanGosling.png', 'Im_RyanReynolds.png'],same,1,0.4083982999982254,18,80.95238095238095,
STCH0106,train,neg,150,neg150_id6_im18.bmp_neg150_id6_im19.bmp,['Im_PatrickDempsey.png', 'Im_ElijahWood.png', 'Im_DanielCraig.png', 'Im_GeorgeClooney.png', 'Im_BradPitt.png', 'Im_LeonardoDiCaprio.png', 'Im_DanielRadcliffe.png', 'Im_KeanuReeves.png', 'Im_RyanGosling.png', 'Im_RyanReynolds.png'],same,1,0.41673290000107954,19,80.95238095238095,
STCH0106,train,neg,150,neg150_id3_im8.bmp_neg150_id5_im10.bmp,['Im_PatrickDempsey.png', 'Im_ElijahWood.png', 'Im_DanielCraig.png', 'Im_GeorgeClooney.png', 'Im_BradPitt.png', 'Im_LeonardoDiCaprio.png', 'Im_DanielRadcliffe.png', 'Im_KeanuReeves.png', 'Im_RyanGosling.png', 'Im_RyanReynolds.png'],diff,1,0.45864320000328007,20,80.95238095238095,
STCH0106,train,neg,60,neg60_id4_im7.bmp_neg60_id7_im26.bmp,['Im_PatrickDempsey.png', 'Im_ElijahWood.png', 'Im_DanielCraig.png', 'Im_GeorgeClooney.png', 'Im_BradPitt.png', 'Im_LeonardoDiCaprio.png', 'Im_DanielRadcliffe.png', 'Im_KeanuReeves.png', 'Im_RyanGosling.png', 'Im_RyanReynolds.png'],diff,1,0.4252077000019199,21,80.95238095238095,
STCH0106,train,neg,30,neg30_id7_im15.bmp_neg30_id7_im26.bmp,['Im_PatrickDempsey.png', 'Im_ElijahWood.png', 'Im_DanielCraig.png', 'Im_GeorgeClooney.png', 'Im_BradPitt.png', 'Im_LeonardoDiCaprio.png', 'Im_DanielRadcliffe.png', 'Im_KeanuReeves.png', 'Im_RyanGosling.png', 'Im_RyanReynolds.png'],diff,0,0.6335194999992382,21,80.95238095238095,
STCH0106,train,neg,fs,negfs_id21_im22.bmp_negfs_id17_im9.bmp,['Im_PatrickDempsey.png', 'Im_ElijahWood.png', 'Im_DanielCraig.png', 'Im_GeorgeClooney.png', 'Im_BradPitt.png', 'Im_LeonardoDiCaprio.png', 'Im_DanielRadcliffe.png', 'Im_KeanuReeves.png', 'Im_RyanGosling.png', 'Im_RyanReynolds.png'],diff,1,1.0502822999987984,22,80.95238095238095,
STCH0106,train,neg,90,neg90_id17_im9.bmp_neg90_id17_im8.bmp,['Im_PatrickDempsey.png', 'Im_ElijahWood.png', 'Im_DanielCraig.png', 'Im_GeorgeClooney.png', 'Im_BradPitt.png', 'Im_LeonardoDiCaprio.png', 'Im_DanielRadcliffe.png', 'Im_KeanuReeves.png', 'Im_RyanGosling.png', 'Im_RyanReynolds.png'],diff,0,1.5004044999986945,22,80.95238095238095,
STCH0106,train,neg,90,neg90_id4_im20.bmp_neg90_id11_im10.bmp,['Im_PatrickDempsey.png', 'Im_ElijahWood.png', 'Im_DanielCraig.png', 'Im_GeorgeClooney.png', 'Im_BradPitt.png', 'Im_LeonardoDiCaprio.png', 'Im_DanielRadcliffe.png', 'Im_KeanuReeves.png', 'Im_RyanGosling.png', 'Im_RyanReynolds.png'],same,0,0.8831472999991092,22,80.95238095238095,
STCH0106,train,neg,30,neg30_id17_im8.bmp_neg30_id17_im14.bmp,['Im_PatrickDempsey.png', 'Im_ElijahWood.png', 'Im_DanielCraig.png', 'Im_GeorgeClooney.png', 'Im_BradPitt.png', 'Im_LeonardoDiCaprio.png', 'Im_DanielRadcliffe.png', 'Im_KeanuReeves.png', 'Im_RyanGosling.png', 'Im_RyanReynolds.png'],same,1,0.6583996000008483,23,80.95238095238095,
STCH0106,train,neg,0,neg0_id20_im30.bmp_neg0_id20_im12.bmp,['Im_PatrickDempsey.png', 'Im_ElijahWood.png', 'Im_DanielCraig.png', 'Im_GeorgeClooney.png', 'Im_BradPitt.png', 'Im_LeonardoDiCaprio.png', 'Im_DanielRadcliffe.png', 'Im_KeanuReeves.png', 'Im_RyanGosling.png', 'Im_RyanReynolds.png'],same,1,0.5083584000021801,24,80.95238095238095,
STCH0106,train,inv,30,pos30_id21_im17.bmp_pos30_id7_im26.bmp,['Im_PatrickDempsey.png', 'Im_ElijahWood.png', 'Im_DanielCraig.png', 'Im_GeorgeClooney.png', 'Im_BradPitt.png', 'Im_LeonardoDiCaprio.png', 'Im_DanielRadcliffe.png', 'Im_KeanuReeves.png', 'Im_RyanGosling.png', 'Im_RyanReynolds.png'],diff,1,0.6084348000003956,25,80.95238095238095,
STCH0106,train,inv,0,pos0_id7_im14.bmp_pos0_id7_im26.bmp,['Im_PatrickDempsey.png', 'Im_ElijahWood.png', 'Im_DanielCraig.png', 'Im_GeorgeClooney.png', 'Im_BradPitt.png', 'Im_LeonardoDiCaprio.png', 'Im_DanielRadcliffe.png', 'Im_KeanuReeves.png', 'Im_RyanGosling.png', 'Im_RyanReynolds.png'],same,1,0.6167836999993597,26,80.95238095238095,
STCH0106,train,inv,120,pos120_id4_im15.bmp_pos120_id4_im7.bmp,['Im_PatrickDempsey.png', 'Im_ElijahWood.png', 'Im_DanielCraig.png', 'Im_GeorgeClooney.png', 'Im_BradPitt.png', 'Im_LeonardoDiCaprio.png', 'Im_DanielRadcliffe.png', 'Im_KeanuReeves.png', 'Im_RyanGosling.png', 'Im_RyanReynolds.png'],same,1,0.42488180000145803,27,80.95238095238095,
STCH0106,train,inv,150,pos150_id7_im26.bmp_pos150_id7_im15.bmp,['Im_PatrickDempsey.png', 'Im_ElijahWood.png', 'Im_DanielCraig.png', 'Im_GeorgeClooney.png', 'Im_BradPitt.png', 'Im_LeonardoDiCaprio.png', 'Im_DanielRadcliffe.png', 'Im_KeanuReeves.png', 'Im_RyanGosling.png', 'Im_RyanReynolds.png'],same,1,0.4586309000005713,28,80.95238095238095,
STCH0106,train,inv,120,pos120_id11_im1.bmp_pos120_id6_im12.bmp,['Im_PatrickDempsey.png', 'Im_ElijahWood.png', 'Im_DanielCraig.png', 'Im_GeorgeClooney.png', 'Im_BradPitt.png', 'Im_LeonardoDiCaprio.png', 'Im_DanielRadcliffe.png', 'Im_KeanuReeves.png', 'Im_RyanGosling.png', 'Im_RyanReynolds.png'],diff,1,0.6584172000002582,29,80.95238095238095,
STCH0106,train,inv,0,pos0_id5_im20.bmp_pos0_id5_im10.bmp,['Im_PatrickDempsey.png', 'Im_ElijahWood.png', 'Im_DanielCraig.png', 'Im_GeorgeClooney.png', 'Im_BradPitt.png', 'Im_LeonardoDiCaprio.png', 'Im_DanielRadcliffe.png', 'Im_KeanuReeves.png', 'Im_RyanGosling.png', 'Im_RyanReynolds.png'],diff,0,0.5750267000003078,29,80.95238095238095,
STCH0106,train,inv,90,pos90_id6_im18.bmp_pos90_id3_im6.bmp,['Im_PatrickDempsey.png', 'Im_ElijahWood.png', 'Im_DanielCraig.png', 'Im_GeorgeClooney.png', 'Im_BradPitt.png', 'Im_LeonardoDiCaprio.png', 'Im_DanielRadcliffe.png', 'Im_KeanuReeves.png', 'Im_RyanGosling.png', 'Im_RyanReynolds.png'],diff,1,1.509104099997785,30,80.95238095238095,
STCH0106,train,inv,60,pos60_id20_im3.bmp_pos60_id11_im10.bmp,['Im_PatrickDempsey.png', 'Im_ElijahWood.png', 'Im_DanielCraig.png', 'Im_GeorgeClooney.png', 'Im_BradPitt.png', 'Im_LeonardoDiCaprio.png', 'Im_DanielRadcliffe.png', 'Im_KeanuReeves.png', 'Im_RyanGosling.png', 'Im_RyanReynolds.png'],same,0,0.6745328000033624,30,80.95238095238095,
STCH0106,train,inv,fs,posfs_id3_im8.bmp_posfs_id3_im6.bmp,['Im_PatrickDempsey.png', 'Im_ElijahWood.png', 'Im_DanielCraig.png', 'Im_GeorgeClooney.png', 'Im_BradPitt.png', 'Im_LeonardoDiCaprio.png', 'Im_DanielRadcliffe.png', 'Im_KeanuReeves.png', 'Im_RyanGosling.png', 'Im_RyanReynolds.png'],same,1,0.5167897999999695,31,80.95238095238095,
STCH0106,train,inv,fs,posfs_id11_im2.bmp_posfs_id11_im10.bmp,['Im_PatrickDempsey.png', 'Im_ElijahWood.png', 'Im_DanielCraig.png', 'Im_GeorgeClooney.png', 'Im_BradPitt.png', 'Im_LeonardoDiCaprio.png', 'Im_DanielRadcliffe.png', 'Im_KeanuReeves.png', 'Im_RyanGosling.png', 'Im_RyanReynolds.png'],same,1,0.8750602000000072,32,80.95238095238095,
STCH0106,train,inv,60,pos60_id3_im17.bmp_pos60_id7_im15.bmp,['Im_PatrickDempsey.png', 'Im_ElijahWood.png', 'Im_DanielCraig.png', 'Im_GeorgeClooney.png', 'Im_BradPitt.png', 'Im_LeonardoDiCaprio.png', 'Im_DanielRadcliffe.png', 'Im_KeanuReeves.png', 'Im_RyanGosling.png', 'Im_RyanReynolds.png'],same,0,0.6501648999983445,32,80.95238095238095,
STCH0106,train,inv,150,pos150_id20_im3.bmp_pos150_id20_im30.bmp,['Im_PatrickDempsey.png', 'Im_ElijahWood.png', 'Im_DanielCraig.png', 'Im_GeorgeClooney.png', 'Im_BradPitt.png', 'Im_LeonardoDiCaprio.png', 'Im_DanielRadcliffe.png', 'Im_KeanuReeves.png', 'Im_RyanGosling.png', 'Im_RyanReynolds.png'],same,1,1.0586517000010645,33,80.95238095238095,
STCH0106,train,inv,30,pos30_id20_im12.bmp_pos30_id4_im7.bmp,['Im_PatrickDempsey.png', 'Im_ElijahWood.png', 'Im_DanielCraig.png', 'Im_GeorgeClooney.png', 'Im_BradPitt.png', 'Im_LeonardoDiCaprio.png', 'Im_DanielRadcliffe.png', 'Im_KeanuReeves.png', 'Im_RyanGosling.png', 'Im_RyanReynolds.png'],diff,1,1.6330319000007876,34,80.95238095238095,
STCH0106,train,inv,90,pos90_id13_im10.bmp_pos90_id13_im15.bmp,['Im_PatrickDempsey.png', 'Im_ElijahWood.png', 'Im_DanielCraig.png', 'Im_GeorgeClooney.png', 'Im_BradPitt.png', 'Im_LeonardoDiCaprio.png', 'Im_DanielRadcliffe.png', 'Im_KeanuReeves.png', 'Im_RyanGosling.png', 'Im_RyanReynolds.png'],diff,0,0.7335635999988881,34,80.95238095238095,
STCH0106,0,inv,0,pos0_id13_im10.bmp_pos0_id13_im15.bmp,['Im_PatrickDempsey.png', 'Im_ElijahWood.png', 'Im_DanielCraig.png', 'Im_GeorgeClooney.png', 'Im_BradPitt.png', 'Im_LeonardoDiCaprio.png', 'Im_DanielRadcliffe.png', 'Im_KeanuReeves.png', 'Im_RyanGosling.png', 'Im_RyanReynolds.png'],same,1,1.0167707000000519,1,0,
STCH0106,0,inv,120,pos120_id11_im1.bmp_pos120_id4_im15.bmp,['Im_PatrickDempsey.png', 'Im_ElijahWood.png', 'Im_DanielCraig.png', 'Im_GeorgeClooney.png', 'Im_BradPitt.png', 'Im_LeonardoDiCaprio.png', 'Im_DanielRadcliffe.png', 'Im_KeanuReeves.png', 'Im_RyanGosling.png', 'Im_RyanReynolds.png'],diff,1,0.4000627999994322,2,0,
STCH0106,0,inv,30,pos30_id13_im10.bmp_pos30_id13_im29.bmp,['Im_PatrickDempsey.png', 'Im_ElijahWood.png', 'Im_DanielCraig.png', 'Im_GeorgeClooney.png', 'Im_BradPitt.png', 'Im_LeonardoDiCaprio.png', 'Im_DanielRadcliffe.png', 'Im_KeanuReeves.png', 'Im_RyanGosling.png', 'Im_RyanReynolds.png'],diff,0,0.4334345999996003,2,0,
STCH0106,0,inv,90,pos90_id3_im6.bmp_pos90_id3_im17.bmp,['Im_PatrickDempsey.png', 'Im_ElijahWood.png', 'Im_DanielCraig.png', 'Im_GeorgeClooney.png', 'Im_BradPitt.png', 'Im_LeonardoDiCaprio.png', 'Im_DanielRadcliffe.png', 'Im_KeanuReeves.png', 'Im_RyanGosling.png', 'Im_RyanReynolds.png'],same,1,0.4584500000019034,3,0,
STCH0106,0,inv,60,pos60_id4_im15.bmp_pos60_id11_im1.bmp,['Im_PatrickDempsey.png', 'Im_ElijahWood.png', 'Im_DanielCraig.png', 'Im_GeorgeClooney.png', 'Im_BradPitt.png', 'Im_LeonardoDiCaprio.png', 'Im_DanielRadcliffe.png', 'Im_KeanuReeves.png', 'Im_RyanGosling.png', 'Im_RyanReynolds.png'],diff,1,0.4334092999997665,4,0,
STCH0106,0,inv,fs,posfs_id13_im10.bmp_posfs_id13_im15.bmp,['Im_PatrickDempsey.png', 'Im_ElijahWood.png', 'Im_DanielCraig.png', 'Im_GeorgeClooney.png', 'Im_BradPitt.png', 'Im_LeonardoDiCaprio.png', 'Im_DanielRadcliffe.png', 'Im_KeanuReeves.png', 'Im_RyanGosling.png', 'Im_RyanReynolds.png'],same,1,0.6251202999992529,5,0,
STCH0106,0,inv,150,pos150_id17_im8.bmp_pos150_id17_im14.bmp,['Im_PatrickDempsey.png', 'Im_ElijahWood.png', 'Im_DanielCraig.png', 'Im_GeorgeClooney.png', 'Im_BradPitt.png', 'Im_LeonardoDiCaprio.png', 'Im_DanielRadcliffe.png', 'Im_KeanuReeves.png', 'Im_RyanGosling.png', 'Im_RyanReynolds.png'],same,1,0.616798100003507,6,0,
STCH0106,0,inv,fs,posfs_id5_im10.bmp_posfs_id7_im14.bmp,['Im_PatrickDempsey.png', 'Im_ElijahWood.png', 'Im_DanielCraig.png', 'Im_GeorgeClooney.png', 'Im_BradPitt.png', 'Im_LeonardoDiCaprio.png', 'Im_DanielRadcliffe.png', 'Im_KeanuReeves.png', 'Im_RyanGosling.png', 'Im_RyanReynolds.png'],diff,1,0.4331056000009994,7,0,
STCH0106,0,inv,30,pos30_id5_im1.bmp_pos30_id6_im12.bmp,['Im_PatrickDempsey.png', 'Im_ElijahWood.png', 'Im_DanielCraig.png', 'Im_GeorgeClooney.png', 'Im_BradPitt.png', 'Im_LeonardoDiCaprio.png', 'Im_DanielRadcliffe.png', 'Im_KeanuReeves.png', 'Im_RyanGosling.png', 'Im_RyanReynolds.png'],same,0,0.4083410000021104,7,0,
STCH0106,0,inv,60,pos60_id6_im12.bmp_pos60_id6_im19.bmp,['Im_PatrickDempsey.png', 'Im_ElijahWood.png', 'Im_DanielCraig.png', 'Im_GeorgeClooney.png', 'Im_BradPitt.png', 'Im_LeonardoDiCaprio.png', 'Im_DanielRadcliffe.png', 'Im_KeanuReeves.png', 'Im_RyanGosling.png', 'Im_RyanReynolds.png'],diff,0,0.76673369999844,7,0,
STCH0106,0,inv,120,pos120_id21_im16.bmp_pos120_id5_im1.bmp,['Im_PatrickDempsey.png', 'Im_ElijahWood.png', 'Im_DanielCraig.png', 'Im_GeorgeClooney.png', 'Im_BradPitt.png', 'Im_LeonardoDiCaprio.png', 'Im_DanielRadcliffe.png', 'Im_KeanuReeves.png', 'Im_RyanGosling.png', 'Im_RyanReynolds.png'],diff,1,0.5333971999971254,8,0,
STCH0106,0,inv,90,pos90_id6_im19.bmp_pos90_id6_im12.bmp,['Im_PatrickDempsey.png', 'Im_ElijahWood.png', 'Im_DanielCraig.png', 'Im_GeorgeClooney.png', 'Im_BradPitt.png', 'Im_LeonardoDiCaprio.png', 'Im_DanielRadcliffe.png', 'Im_KeanuReeves.png', 'Im_RyanGosling.png', 'Im_RyanReynolds.png'],diff,0,1.5000333999996656,8,0,
STCH0106,0,inv,0,pos0_id20_im3.bmp_pos0_id20_im30.bmp,['Im_PatrickDempsey.png', 'Im_ElijahWood.png', 'Im_DanielCraig.png', 'Im_GeorgeClooney.png', 'Im_BradPitt.png', 'Im_LeonardoDiCaprio.png', 'Im_DanielRadcliffe.png', 'Im_KeanuReeves.png', 'Im_RyanGosling.png', 'Im_RyanReynolds.png'],same,1,0.4251153000004706,9,0,
STCH0106,0,inv,150,pos150_id11_im2.bmp_pos150_id13_im29.bmp,['Im_PatrickDempsey.png', 'Im_ElijahWood.png', 'Im_DanielCraig.png', 'Im_GeorgeClooney.png', 'Im_BradPitt.png', 'Im_LeonardoDiCaprio.png', 'Im_DanielRadcliffe.png', 'Im_KeanuReeves.png', 'Im_RyanGosling.png', 'Im_RyanReynolds.png'],diff,1,0.4251113999998779,10,0,
STCH0106,1,neg,150,neg150_id4_im7.bmp_neg150_id4_im15.bmp,['Im_PatrickDempsey.png', 'Im_ElijahWood.png', 'Im_DanielCraig.png', 'Im_GeorgeClooney.png', 'Im_BradPitt.png', 'Im_LeonardoDiCaprio.png', 'Im_DanielRadcliffe.png', 'Im_KeanuReeves.png', 'Im_RyanGosling.png', 'Im_RyanReynolds.png'],diff,0,1.166555399999197,10,0,
STCH0106,1,neg,fs,negfs_id3_im6.bmp_negfs_id3_im8.bmp,['Im_PatrickDempsey.png', 'Im_ElijahWood.png', 'Im_DanielCraig.png', 'Im_GeorgeClooney.png', 'Im_BradPitt.png', 'Im_LeonardoDiCaprio.png', 'Im_DanielRadcliffe.png', 'Im_KeanuReeves.png', 'Im_RyanGosling.png', 'Im_RyanReynolds.png'],same,1,0.4252587999981188,11,0,
STCH0106,1,neg,0,neg0_id20_im12.bmp_neg0_id20_im3.bmp,['Im_PatrickDempsey.png', 'Im_ElijahWood.png', 'Im_DanielCraig.png', 'Im_GeorgeClooney.png', 'Im_BradPitt.png', 'Im_LeonardoDiCaprio.png', 'Im_DanielRadcliffe.png', 'Im_KeanuReeves.png', 'Im_RyanGosling.png', 'Im_RyanReynolds.png'],same,1,1.0833630000015546,12,0,
STCH0106,1,neg,120,neg120_id5_im10.bmp_neg120_id3_im8.bmp,['Im_PatrickDempsey.png', 'Im_ElijahWood.png', 'Im_DanielCraig.png', 'Im_GeorgeClooney.png', 'Im_BradPitt.png', 'Im_LeonardoDiCaprio.png', 'Im_DanielRadcliffe.png', 'Im_KeanuReeves.png', 'Im_RyanGosling.png', 'Im_RyanReynolds.png'],diff,1,0.4250945999992837,13,0,
STCH0106,1,neg,fs,negfs_id21_im22.bmp_negfs_id21_im17.bmp,['Im_PatrickDempsey.png', 'Im_ElijahWood.png', 'Im_DanielCraig.png', 'Im_GeorgeClooney.png', 'Im_BradPitt.png', 'Im_LeonardoDiCaprio.png', 'Im_DanielRadcliffe.png', 'Im_KeanuReeves.png', 'Im_RyanGosling.png', 'Im_RyanReynolds.png'],same,1,1.1501167999995232,14,0,
STCH0106,1,neg,120,neg120_id7_im14.bmp_neg120_id5_im10.bmp,['Im_PatrickDempsey.png', 'Im_ElijahWood.png', 'Im_DanielCraig.png', 'Im_GeorgeClooney.png', 'Im_BradPitt.png', 'Im_LeonardoDiCaprio.png', 'Im_DanielRadcliffe.png', 'Im_KeanuReeves.png', 'Im_RyanGosling.png', 'Im_RyanReynolds.png'],diff,1,0.4166827999979432,15,0,
STCH0106,1,neg,90,neg90_id3_im8.bmp_neg90_id3_im6.bmp,['Im_PatrickDempsey.png', 'Im_ElijahWood.png', 'Im_DanielCraig.png', 'Im_GeorgeClooney.png', 'Im_BradPitt.png', 'Im_LeonardoDiCaprio.png', 'Im_DanielRadcliffe.png', 'Im_KeanuReeves.png', 'Im_RyanGosling.png', 'Im_RyanReynolds.png'],same,1,0.45819850000043516,16,0,
STCH0106,1,neg,90,neg90_id6_im19.bmp_neg90_id6_im18.bmp,['Im_PatrickDempsey.png', 'Im_ElijahWood.png', 'Im_DanielCraig.png', 'Im_GeorgeClooney.png', 'Im_BradPitt.png', 'Im_LeonardoDiCaprio.png', 'Im_DanielRadcliffe.png', 'Im_KeanuReeves.png', 'Im_RyanGosling.png', 'Im_RyanReynolds.png'],same,1,0.4167039999992994,17,0,
STCH0106,1,neg,60,neg60_id17_im14.bmp_neg60_id6_im19.bmp,['Im_PatrickDempsey.png', 'Im_ElijahWood.png', 'Im_DanielCraig.png', 'Im_GeorgeClooney.png', 'Im_BradPitt.png', 'Im_LeonardoDiCaprio.png', 'Im_DanielRadcliffe.png', 'Im_KeanuReeves.png', 'Im_RyanGosling.png', 'Im_RyanReynolds.png'],diff,1,0.4167273999992176,18,0,
STCH0106,1,neg,60,neg60_id21_im22.bmp_neg60_id21_im17.bmp,['Im_PatrickDempsey.png', 'Im_ElijahWood.png', 'Im_DanielCraig.png', 'Im_GeorgeClooney.png', 'Im_BradPitt.png', 'Im_LeonardoDiCaprio.png', 'Im_DanielRadcliffe.png', 'Im_KeanuReeves.png', 'Im_RyanGosling.png', 'Im_RyanReynolds.png'],same,1,0.9082323000002361,19,0,
STCH0106,1,neg,30,neg30_id17_im8.bmp_neg30_id13_im10.bmp,['Im_PatrickDempsey.png', 'Im_ElijahWood.png', 'Im_DanielCraig.png', 'Im_GeorgeClooney.png', 'Im_BradPitt.png', 'Im_LeonardoDiCaprio.png', 'Im_DanielRadcliffe.png', 'Im_KeanuReeves.png', 'Im_RyanGosling.png', 'Im_RyanReynolds.png'],diff,1,0.5583606000000145,20,0,
STCH0106,1,neg,30,neg30_id17_im8.bmp_neg30_id17_im9.bmp,['Im_PatrickDempsey.png', 'Im_ElijahWood.png', 'Im_DanielCraig.png', 'Im_GeorgeClooney.png', 'Im_BradPitt.png', 'Im_LeonardoDiCaprio.png', 'Im_DanielRadcliffe.png', 'Im_KeanuReeves.png', 'Im_RyanGosling.png', 'Im_RyanReynolds.png'],same,1,0.41687529999762774,21,0,
STCH0106,1,neg,150,neg150_id11_im10.bmp_neg150_id11_im2.bmp,['Im_PatrickDempsey.png', 'Im_ElijahWood.png', 'Im_DanielCraig.png', 'Im_GeorgeClooney.png', 'Im_BradPitt.png', 'Im_LeonardoDiCaprio.png', 'Im_DanielRadcliffe.png', 'Im_KeanuReeves.png', 'Im_RyanGosling.png', 'Im_RyanReynolds.png'],same,1,0.5332645999988017,22,0,
STCH0106,1,neg,0,neg0_id4_im15.bmp_neg0_id13_im29.bmp,['Im_PatrickDempsey.png', 'Im_ElijahWood.png', 'Im_DanielCraig.png', 'Im_GeorgeClooney.png', 'Im_BradPitt.png', 'Im_LeonardoDiCaprio.png', 'Im_DanielRadcliffe.png', 'Im_KeanuReeves.png', 'Im_RyanGosling.png', 'Im_RyanReynolds.png'],diff,1,0.6917036000013468,23,0,
STCH0106,2,pos,90,pos90_id21_im17.bmp_pos90_id21_im16.bmp,['Im_PatrickDempsey.png', 'Im_ElijahWood.png', 'Im_DanielCraig.png', 'Im_GeorgeClooney.png', 'Im_BradPitt.png', 'Im_LeonardoDiCaprio.png', 'Im_DanielRadcliffe.png', 'Im_KeanuReeves.png', 'Im_RyanGosling.png', 'Im_RyanReynolds.png'],diff,0,0.6502236000014818,23,0,
STCH0106,2,pos,60,pos60_id6_im12.bmp_pos60_id6_im19.bmp,['Im_PatrickDempsey.png', 'Im_ElijahWood.png', 'Im_DanielCraig.png', 'Im_GeorgeClooney.png', 'Im_BradPitt.png', 'Im_LeonardoDiCaprio.png', 'Im_DanielRadcliffe.png', 'Im_KeanuReeves.png', 'Im_RyanGosling.png', 'Im_RyanReynolds.png'],diff,0,1.400155299998005,23,0,
STCH0106,2,pos,0,pos0_id4_im7.bmp_pos0_id20_im12.bmp,['Im_PatrickDempsey.png', 'Im_ElijahWood.png', 'Im_DanielCraig.png', 'Im_GeorgeClooney.png', 'Im_BradPitt.png', 'Im_LeonardoDiCaprio.png', 'Im_DanielRadcliffe.png', 'Im_KeanuReeves.png', 'Im_RyanGosling.png', 'Im_RyanReynolds.png'],diff,1,0.6416138999993564,24,0,
STCH0106,2,pos,0,pos0_id6_im18.bmp_pos0_id3_im6.bmp,['Im_PatrickDempsey.png', 'Im_ElijahWood.png', 'Im_DanielCraig.png', 'Im_GeorgeClooney.png', 'Im_BradPitt.png', 'Im_LeonardoDiCaprio.png', 'Im_DanielRadcliffe.png', 'Im_KeanuReeves.png', 'Im_RyanGosling.png', 'Im_RyanReynolds.png'],diff,1,0.43344770000112476,25,0,
STCH0106,2,pos,150,pos150_id6_im18.bmp_pos150_id6_im19.bmp,['Im_PatrickDempsey.png', 'Im_ElijahWood.png', 'Im_DanielCraig.png', 'Im_GeorgeClooney.png', 'Im_BradPitt.png', 'Im_LeonardoDiCaprio.png', 'Im_DanielRadcliffe.png', 'Im_KeanuReeves.png', 'Im_RyanGosling.png', 'Im_RyanReynolds.png'],same,1,0.4587498000000778,26,0,
STCH0106,2,pos,fs,posfs_id5_im1.bmp_posfs_id5_im20.bmp,['Im_PatrickDempsey.png', 'Im_ElijahWood.png', 'Im_DanielCraig.png', 'Im_GeorgeClooney.png', 'Im_BradPitt.png', 'Im_LeonardoDiCaprio.png', 'Im_DanielRadcliffe.png', 'Im_KeanuReeves.png', 'Im_RyanGosling.png', 'Im_RyanReynolds.png'],same,1,0.5752635999997437,27,0,
STCH0106,2,pos,fs,posfs_id4_im7.bmp_posfs_id4_im15.bmp,['Im_PatrickDempsey.png', 'Im_ElijahWood.png', 'Im_DanielCraig.png', 'Im_GeorgeClooney.png', 'Im_BradPitt.png', 'Im_LeonardoDiCaprio.png', 'Im_DanielRadcliffe.png', 'Im_KeanuReeves.png', 'Im_RyanGosling.png', 'Im_RyanReynolds.png'],same,1,0.41656439999860595,28,0,
STCH0106,2,pos,60,pos60_id13_im15.bmp_pos60_id13_im10.bmp,['Im_PatrickDempsey.png', 'Im_ElijahWood.png', 'Im_DanielCraig.png', 'Im_GeorgeClooney.png', 'Im_BradPitt.png', 'Im_LeonardoDiCaprio.png', 'Im_DanielRadcliffe.png', 'Im_KeanuReeves.png', 'Im_RyanGosling.png', 'Im_RyanReynolds.png'],same,1,0.4170005999985733,29,0,
STCH0106,2,pos,30,pos30_id7_im15.bmp_pos30_id21_im17.bmp,['Im_PatrickDempsey.png', 'Im_ElijahWood.png', 'Im_DanielCraig.png', 'Im_GeorgeClooney.png', 'Im_BradPitt.png', 'Im_LeonardoDiCaprio.png', 'Im_DanielRadcliffe.png', 'Im_KeanuReeves.png', 'Im_RyanGosling.png', 'Im_RyanReynolds.png'],same,0,0.42507320000004256,29,0,
STCH0106,2,pos,90,pos90_id13_im29.bmp_pos90_id13_im15.bmp,['Im_PatrickDempsey.png', 'Im_ElijahWood.png', 'Im_DanielCraig.png', 'Im_GeorgeClooney.png', 'Im_BradPitt.png', 'Im_LeonardoDiCaprio.png', 'Im_DanielRadcliffe.png', 'Im_KeanuReeves.png', 'Im_RyanGosling.png', 'Im_RyanReynolds.png'],same,1,0.4082916000006662,30,0,
STCH0106,2,pos,120,pos120_id17_im8.bmp_pos120_id17_im14.bmp,['Im_PatrickDempsey.png', 'Im_ElijahWood.png', 'Im_DanielCraig.png', 'Im_GeorgeClooney.png', 'Im_BradPitt.png', 'Im_LeonardoDiCaprio.png', 'Im_DanielRadcliffe.png', 'Im_KeanuReeves.png', 'Im_RyanGosling.png', 'Im_RyanReynolds.png'],same,1,0.599961700001586,31,0,
STCH0106,2,pos,150,pos150_id20_im30.bmp_pos150_id20_im3.bmp,['Im_PatrickDempsey.png', 'Im_ElijahWood.png', 'Im_DanielCraig.png', 'Im_GeorgeClooney.png', 'Im_BradPitt.png', 'Im_LeonardoDiCaprio.png', 'Im_DanielRadcliffe.png', 'Im_KeanuReeves.png', 'Im_RyanGosling.png', 'Im_RyanReynolds.png'],same,1,0.41663210000115214,32,0,
STCH0106,2,pos,30,pos30_id20_im30.bmp_pos30_id4_im20.bmp,['Im_PatrickDempsey.png', 'Im_ElijahWood.png', 'Im_DanielCraig.png', 'Im_GeorgeClooney.png', 'Im_BradPitt.png', 'Im_LeonardoDiCaprio.png', 'Im_DanielRadcliffe.png', 'Im_KeanuReeves.png', 'Im_RyanGosling.png', 'Im_RyanReynolds.png'],diff,1,0.5838565999983985,33,0,
STCH0106,2,pos,120,pos120_id21_im17.bmp_pos120_id21_im16.bmp,['Im_PatrickDempsey.png', 'Im_ElijahWood.png', 'Im_DanielCraig.png', 'Im_GeorgeClooney.png', 'Im_BradPitt.png', 'Im_LeonardoDiCaprio.png', 'Im_DanielRadcliffe.png', 'Im_KeanuReeves.png', 'Im_RyanGosling.png', 'Im_RyanReynolds.png'],same,1,0.5583545000008598,34,0,
STCH0106,3,neg,60,neg60_id5_im10.bmp_neg60_id3_im8.bmp,['Im_PatrickDempsey.png', 'Im_ElijahWood.png', 'Im_DanielCraig.png', 'Im_GeorgeClooney.png', 'Im_BradPitt.png', 'Im_LeonardoDiCaprio.png', 'Im_DanielRadcliffe.png', 'Im_KeanuReeves.png', 'Im_RyanGosling.png', 'Im_RyanReynolds.png'],diff,1,0.41669270000056713,1,80.95238095238095,
STCH0106,3,neg,90,neg90_id13_im10.bmp_neg90_id13_im29.bmp,['Im_PatrickDempsey.png', 'Im_ElijahWood.png', 'Im_DanielCraig.png', 'Im_GeorgeClooney.png', 'Im_BradPitt.png', 'Im_LeonardoDiCaprio.png', 'Im_DanielRadcliffe.png', 'Im_KeanuReeves.png', 'Im_RyanGosling.png', 'Im_RyanReynolds.png'],same,1,1.1252311999996891,2,80.95238095238095,
STCH0106,3,neg,0,neg0_id7_im15.bmp_neg0_id7_im14.bmp,['Im_PatrickDempsey.png', 'Im_ElijahWood.png', 'Im_DanielCraig.png', 'Im_GeorgeClooney.png', 'Im_BradPitt.png', 'Im_LeonardoDiCaprio.png', 'Im_DanielRadcliffe.png', 'Im_KeanuReeves.png', 'Im_RyanGosling.png', 'Im_RyanReynolds.png'],same,1,0.40854810000018915,3,80.95238095238095,
STCH0106,3,neg,30,neg30_id7_im14.bmp_neg30_id5_im10.bmp,['Im_PatrickDempsey.png', 'Im_ElijahWood.png', 'Im_DanielCraig.png', 'Im_GeorgeClooney.png', 'Im_BradPitt.png', 'Im_LeonardoDiCaprio.png', 'Im_DanielRadcliffe.png', 'Im_KeanuReeves.png', 'Im_RyanGosling.png', 'Im_RyanReynolds.png'],diff,1,0.4167139999990468,4,80.95238095238095,
STCH0106,3,neg,0,neg0_id17_im8.bmp_neg0_id6_im18.bmp,['Im_PatrickDempsey.png', 'Im_ElijahWood.png', 'Im_DanielCraig.png', 'Im_GeorgeClooney.png', 'Im_BradPitt.png', 'Im_LeonardoDiCaprio.png', 'Im_DanielRadcliffe.png', 'Im_KeanuReeves.png', 'Im_RyanGosling.png', 'Im_RyanReynolds.png'],diff,1,0.48378819999925327,5,80.95238095238095,
STCH0106,3,neg,30,neg30_id7_im15.bmp_neg30_id7_im14.bmp,['Im_PatrickDempsey.png', 'Im_ElijahWood.png', 'Im_DanielCraig.png', 'Im_GeorgeClooney.png', 'Im_BradPitt.png', 'Im_LeonardoDiCaprio.png', 'Im_DanielRadcliffe.png', 'Im_KeanuReeves.png', 'Im_RyanGosling.png', 'Im_RyanReynolds.png'],same,1,0.40810700000292854,6,80.95238095238095,
STCH0106,3,neg,60,neg60_id20_im3.bmp_neg60_id5_im20.bmp,['Im_PatrickDempsey.png', 'Im_ElijahWood.png', 'Im_DanielCraig.png', 'Im_GeorgeClooney.png', 'Im_BradPitt.png', 'Im_LeonardoDiCaprio.png', 'Im_DanielRadcliffe.png', 'Im_KeanuReeves.png', 'Im_RyanGosling.png', 'Im_RyanReynolds.png'],diff,1,0.4169666999987385,7,80.95238095238095,
STCH0106,3,neg,90,neg90_id21_im22.bmp_neg90_id21_im17.bmp,['Im_PatrickDempsey.png', 'Im_ElijahWood.png', 'Im_DanielCraig.png', 'Im_GeorgeClooney.png', 'Im_BradPitt.png', 'Im_LeonardoDiCaprio.png', 'Im_DanielRadcliffe.png', 'Im_KeanuReeves.png', 'Im_RyanGosling.png', 'Im_RyanReynolds.png'],diff,0,0.44987789999868255,7,80.95238095238095,
STCH0106,3,neg,120,neg120_id20_im30.bmp_neg120_id20_im3.bmp,['Im_PatrickDempsey.png', 'Im_ElijahWood.png', 'Im_DanielCraig.png', 'Im_GeorgeClooney.png', 'Im_BradPitt.png', 'Im_LeonardoDiCaprio.png', 'Im_DanielRadcliffe.png', 'Im_KeanuReeves.png', 'Im_RyanGosling.png', 'Im_RyanReynolds.png'],same,1,0.42504510000071605,8,80.95238095238095,
STCH0106,3,neg,fs,negfs_id7_im26.bmp_negfs_id4_im7.bmp,['Im_PatrickDempsey.png', 'Im_ElijahWood.png', 'Im_DanielCraig.png', 'Im_GeorgeClooney.png', 'Im_BradPitt.png', 'Im_LeonardoDiCaprio.png', 'Im_DanielRadcliffe.png', 'Im_KeanuReeves.png', 'Im_RyanGosling.png', 'Im_RyanReynolds.png'],diff,1,3.6251344999982393,9,80.95238095238095,
STCH0106,3,neg,120,neg120_id5_im1.bmp_neg120_id5_im10.bmp,['Im_PatrickDempsey.png', 'Im_ElijahWood.png', 'Im_DanielCraig.png', 'Im_GeorgeClooney.png', 'Im_BradPitt.png', 'Im_LeonardoDiCaprio.png', 'Im_DanielRadcliffe.png', 'Im_KeanuReeves.png', 'Im_RyanGosling.png', 'Im_RyanReynolds.png'],same,1,0.41675799999939045,10,80.95238095238095,
STCH0106,3,neg,150,neg150_id17_im14.bmp_neg150_id6_im19.bmp,['Im_PatrickDempsey.png', 'Im_ElijahWood.png', 'Im_DanielCraig.png', 'Im_GeorgeClooney.png', 'Im_BradPitt.png', 'Im_LeonardoDiCaprio.png', 'Im_DanielRadcliffe.png', 'Im_KeanuReeves.png', 'Im_RyanGosling.png', 'Im_RyanReynolds.png'],diff,1,0.4164516000018921,11,80.95238095238095,
STCH0106,3,neg,fs,negfs_id3_im6.bmp_negfs_id6_im19.bmp,['Im_PatrickDempsey.png', 'Im_ElijahWood.png', 'Im_DanielCraig.png', 'Im_GeorgeClooney.png', 'Im_BradPitt.png', 'Im_LeonardoDiCaprio.png', 'Im_DanielRadcliffe.png', 'Im_KeanuReeves.png', 'Im_RyanGosling.png', 'Im_RyanReynolds.png'],diff,1,0.6586152999989281,12,80.95238095238095,
STCH0106,3,neg,150,neg150_id7_im15.bmp_neg150_id21_im17.bmp,['Im_PatrickDempsey.png', 'Im_ElijahWood.png', 'Im_DanielCraig.png', 'Im_GeorgeClooney.png', 'Im_BradPitt.png', 'Im_LeonardoDiCaprio.png', 'Im_DanielRadcliffe.png', 'Im_KeanuReeves.png', 'Im_RyanGosling.png', 'Im_RyanReynolds.png'],diff,1,0.4669099000020651,13,80.95238095238095,
STCH0106,4,inv,120,pos120_id21_im17.bmp_pos120_id7_im15.bmp,['Im_PatrickDempsey.png', 'Im_ElijahWood.png', 'Im_DanielCraig.png', 'Im_GeorgeClooney.png', 'Im_BradPitt.png', 'Im_LeonardoDiCaprio.png', 'Im_DanielRadcliffe.png', 'Im_KeanuReeves.png', 'Im_RyanGosling.png', 'Im_RyanReynolds.png'],diff,1,0.6166373999985808,14,80.95238095238095,
STCH0106,4,inv,150,pos150_id11_im10.bmp_pos150_id11_im2.bmp,['Im_PatrickDempsey.png', 'Im_ElijahWood.png', 'Im_DanielCraig.png', 'Im_GeorgeClooney.png', 'Im_BradPitt.png', 'Im_LeonardoDiCaprio.png', 'Im_DanielRadcliffe.png', 'Im_KeanuReeves.png', 'Im_RyanGosling.png', 'Im_RyanReynolds.png'],diff,0,0.6502091999973345,14,80.95238095238095,
STCH0106,4,inv,0,pos0_id3_im8.bmp_pos0_id5_im10.bmp,['Im_PatrickDempsey.png', 'Im_ElijahWood.png', 'Im_DanielCraig.png', 'Im_GeorgeClooney.png', 'Im_BradPitt.png', 'Im_LeonardoDiCaprio.png', 'Im_DanielRadcliffe.png', 'Im_KeanuReeves.png', 'Im_RyanGosling.png', 'Im_RyanReynolds.png'],diff,1,0.41681249999965075,15,80.95238095238095,
STCH0106,4,inv,0,pos0_id20_im12.bmp_pos0_id4_im7.bmp,['Im_PatrickDempsey.png', 'Im_ElijahWood.png', 'Im_DanielCraig.png', 'Im_GeorgeClooney.png', 'Im_BradPitt.png', 'Im_LeonardoDiCaprio.png', 'Im_DanielRadcliffe.png', 'Im_KeanuReeves.png', 'Im_RyanGosling.png', 'Im_RyanReynolds.png'],diff,1,0.4250819999979285,16,80.95238095238095,
STCH0106,4,inv,120,pos120_id7_im15.bmp_pos120_id3_im17.bmp,['Im_PatrickDempsey.png', 'Im_ElijahWood.png', 'Im_DanielCraig.png', 'Im_GeorgeClooney.png', 'Im_BradPitt.png', 'Im_LeonardoDiCaprio.png', 'Im_DanielRadcliffe.png', 'Im_KeanuReeves.png', 'Im_RyanGosling.png', 'Im_RyanReynolds.png'],same,0,0.4250724000012269,16,80.95238095238095,
STCH0106,4,inv,fs,posfs_id7_im15.bmp_posfs_id7_im14.bmp,['Im_PatrickDempsey.png', 'Im_ElijahWood.png', 'Im_DanielCraig.png', 'Im_GeorgeClooney.png', 'Im_BradPitt.png', 'Im_LeonardoDiCaprio.png', 'Im_DanielRadcliffe.png', 'Im_KeanuReeves.png', 'Im_RyanGosling.png', 'Im_RyanReynolds.png'],same,1,1.0333251000010932,17,80.95238095238095,
STCH0106,4,inv,fs,posfs_id7_im26.bmp_posfs_id21_im17.bmp,['Im_PatrickDempsey.png', 'Im_ElijahWood.png', 'Im_DanielCraig.png', 'Im_GeorgeClooney.png', 'Im_BradPitt.png', 'Im_LeonardoDiCaprio.png', 'Im_DanielRadcliffe.png', 'Im_KeanuReeves.png', 'Im_RyanGosling.png', 'Im_RyanReynolds.png'],diff,1,0.5003098000015598,18,80.95238095238095,
STCH0106,4,inv,30,pos30_id7_im15.bmp_pos30_id7_im26.bmp,['Im_PatrickDempsey.png', 'Im_ElijahWood.png', 'Im_DanielCraig.png', 'Im_GeorgeClooney.png', 'Im_BradPitt.png', 'Im_LeonardoDiCaprio.png', 'Im_DanielRadcliffe.png', 'Im_KeanuReeves.png', 'Im_RyanGosling.png', 'Im_RyanReynolds.png'],same,1,1.075309500000003,19,80.95238095238095,
STCH0106,4,inv,90,pos90_id4_im20.bmp_pos90_id4_im7.bmp,['Im_PatrickDempsey.png', 'Im_ElijahWood.png', 'Im_DanielCraig.png', 'Im_GeorgeClooney.png', 'Im_BradPitt.png', 'Im_LeonardoDiCaprio.png', 'Im_DanielRadcliffe.png', 'Im_KeanuReeves.png', 'Im_RyanGosling.png', 'Im_RyanReynolds.png'],same,1,0.4506638999991992,20,80.95238095238095,
STCH0106,4,inv,60,pos60_id7_im15.bmp_pos60_id7_im26.bmp,['Im_PatrickDempsey.png', 'Im_ElijahWood.png', 'Im_DanielCraig.png', 'Im_GeorgeClooney.png', 'Im_BradPitt.png', 'Im_LeonardoDiCaprio.png', 'Im_DanielRadcliffe.png', 'Im_KeanuReeves.png', 'Im_RyanGosling.png', 'Im_RyanReynolds.png'],same,1,0.4084139000005962,21,80.95238095238095,
STCH0106,4,inv,90,pos90_id6_im18.bmp_pos90_id6_im12.bmp,['Im_PatrickDempsey.png', 'Im_ElijahWood.png', 'Im_DanielCraig.png', 'Im_GeorgeClooney.png', 'Im_BradPitt.png', 'Im_LeonardoDiCaprio.png', 'Im_DanielRadcliffe.png', 'Im_KeanuReeves.png', 'Im_RyanGosling.png', 'Im_RyanReynolds.png'],diff,0,0.7417404000007082,21,80.95238095238095,
STCH0106,4,inv,150,pos150_id4_im15.bmp_pos150_id13_im29.bmp,['Im_PatrickDempsey.png', 'Im_ElijahWood.png', 'Im_DanielCraig.png', 'Im_GeorgeClooney.png', 'Im_BradPitt.png', 'Im_LeonardoDiCaprio.png', 'Im_DanielRadcliffe.png', 'Im_KeanuReeves.png', 'Im_RyanGosling.png', 'Im_RyanReynolds.png'],diff,1,0.8751321999989159,22,80.95238095238095,
STCH0106,4,inv,60,pos60_id4_im20.bmp_pos60_id4_im7.bmp,['Im_PatrickDempsey.png', 'Im_ElijahWood.png', 'Im_DanielCraig.png', 'Im_GeorgeClooney.png', 'Im_BradPitt.png', 'Im_LeonardoDiCaprio.png', 'Im_DanielRadcliffe.png', 'Im_KeanuReeves.png', 'Im_RyanGosling.png', 'Im_RyanReynolds.png'],diff,0,0.6000802000016847,22,80.95238095238095,
STCH0106,4,inv,30,pos30_id17_im14.bmp_pos30_id17_im8.bmp,['Im_PatrickDempsey.png', 'Im_ElijahWood.png', 'Im_DanielCraig.png', 'Im_GeorgeClooney.png', 'Im_BradPitt.png', 'Im_LeonardoDiCaprio.png', 'Im_DanielRadcliffe.png', 'Im_KeanuReeves.png', 'Im_RyanGosling.png', 'Im_RyanReynolds.png'],same,1,0.4083546000001661,23,80.95238095238095,
STCH0106,5,pos,fs,posfs_id3_im17.bmp_posfs_id3_im8.bmp,['Im_PatrickDempsey.png', 'Im_ElijahWood.png', 'Im_DanielCraig.png', 'Im_GeorgeClooney.png', 'Im_BradPitt.png', 'Im_LeonardoDiCaprio.png', 'Im_DanielRadcliffe.png', 'Im_KeanuReeves.png', 'Im_RyanGosling.png', 'Im_RyanReynolds.png'],same,1,0.675196699998196,24,80.95238095238095,
STCH0106,5,pos,90,pos90_id13_im15.bmp_pos90_id21_im16.bmp,['Im_PatrickDempsey.png', 'Im_ElijahWood.png', 'Im_DanielCraig.png', 'Im_GeorgeClooney.png', 'Im_BradPitt.png', 'Im_LeonardoDiCaprio.png', 'Im_DanielRadcliffe.png', 'Im_KeanuReeves.png', 'Im_RyanGosling.png', 'Im_RyanReynolds.png'],diff,1,0.41693490000034217,25,80.95238095238095,
STCH0106,5,pos,90,pos90_id5_im20.bmp_pos90_id5_im1.bmp,['Im_PatrickDempsey.png', 'Im_ElijahWood.png', 'Im_DanielCraig.png', 'Im_GeorgeClooney.png', 'Im_BradPitt.png', 'Im_LeonardoDiCaprio.png', 'Im_DanielRadcliffe.png', 'Im_KeanuReeves.png', 'Im_RyanGosling.png', 'Im_RyanReynolds.png'],same,1,0.41674869999769726,26,80.95238095238095,
STCH0106,5,pos,30,pos30_id5_im10.bmp_pos30_id5_im20.bmp,['Im_PatrickDempsey.png', 'Im_ElijahWood.png', 'Im_DanielCraig.png', 'Im_GeorgeClooney.png', 'Im_BradPitt.png', 'Im_LeonardoDiCaprio.png', 'Im_DanielRadcliffe.png', 'Im_KeanuReeves.png', 'Im_RyanGosling.png', 'Im_RyanReynolds.png'],same,1,1.041743600002519,27,80.95238095238095,
STCH0106,5,pos,150,pos150_id5_im20.bmp_pos150_id5_im1.bmp,['Im_PatrickDempsey.png', 'Im_ElijahWood.png', 'Im_DanielCraig.png', 'Im_GeorgeClooney.png', 'Im_BradPitt.png', 'Im_LeonardoDiCaprio.png', 'Im_DanielRadcliffe.png', 'Im_KeanuReeves.png', 'Im_RyanGosling.png', 'Im_RyanReynolds.png'],diff,0,0.7421770000000834,27,80.95238095238095,
STCH0106,5,pos,60,pos60_id7_im26.bmp_pos60_id4_im7.bmp,['Im_PatrickDempsey.png', 'Im_ElijahWood.png', 'Im_DanielCraig.png', 'Im_GeorgeClooney.png', 'Im_BradPitt.png', 'Im_LeonardoDiCaprio.png', 'Im_DanielRadcliffe.png', 'Im_KeanuReeves.png', 'Im_RyanGosling.png', 'Im_RyanReynolds.png'],diff,1,0.7919800000017858,28,80.95238095238095,
STCH0106,5,pos,0,pos0_id17_im14.bmp_pos0_id17_im9.bmp,['Im_PatrickDempsey.png', 'Im_ElijahWood.png', 'Im_DanielCraig.png', 'Im_GeorgeClooney.png', 'Im_BradPitt.png', 'Im_LeonardoDiCaprio.png', 'Im_DanielRadcliffe.png', 'Im_KeanuReeves.png', 'Im_RyanGosling.png', 'Im_RyanReynolds.png'],same,1,0.4252102000027662,29,80.95238095238095,
STCH0106,5,pos,150,pos150_id11_im10.bmp_pos150_id11_im1.bmp,['Im_PatrickDempsey.png', 'Im_ElijahWood.png', 'Im_DanielCraig.png', 'Im_GeorgeClooney.png', 'Im_BradPitt.png', 'Im_LeonardoDiCaprio.png', 'Im_DanielRadcliffe.png', 'Im_KeanuReeves.png', 'Im_RyanGosling.png', 'Im_RyanReynolds.png'],same,1,1.0084102000000712,30,80.95238095238095,
STCH0106,5,pos,120,pos120_id5_im10.bmp_pos120_id7_im14.bmp,['Im_PatrickDempsey.png', 'Im_ElijahWood.png', 'Im_DanielCraig.png', 'Im_GeorgeClooney.png', 'Im_BradPitt.png', 'Im_LeonardoDiCaprio.png', 'Im_DanielRadcliffe.png', 'Im_KeanuReeves.png', 'Im_RyanGosling.png', 'Im_RyanReynolds.png'],diff,1,0.41668339999887394,31,80.95238095238095,
STCH0106,5,pos,120,pos120_id17_im9.bmp_pos120_id7_im14.bmp,['Im_PatrickDempsey.png', 'Im_ElijahWood.png', 'Im_DanielCraig.png', 'Im_GeorgeClooney.png', 'Im_BradPitt.png', 'Im_LeonardoDiCaprio.png', 'Im_DanielRadcliffe.png', 'Im_KeanuReeves.png', 'Im_RyanGosling.png', 'Im_RyanReynolds.png'],diff,1,0.4835926000014297,32,80.95238095238095,
STCH0106,5,pos,0,pos0_id3_im8.bmp_pos0_id11_im2.bmp,['Im_PatrickDempsey.png', 'Im_ElijahWood.png', 'Im_DanielCraig.png', 'Im_GeorgeClooney.png', 'Im_BradPitt.png', 'Im_LeonardoDiCaprio.png', 'Im_DanielRadcliffe.png', 'Im_KeanuReeves.png', 'Im_RyanGosling.png', 'Im_RyanReynolds.png'],same,0,0.4251904000011564,32,80.95238095238095,
STCH0106,5,pos,fs,posfs_id6_im12.bmp_posfs_id6_im18.bmp,['Im_PatrickDempsey.png', 'Im_ElijahWood.png', 'Im_DanielCraig.png', 'Im_GeorgeClooney.png', 'Im_BradPitt.png', 'Im_LeonardoDiCaprio.png', 'Im_DanielRadcliffe.png', 'Im_KeanuReeves.png', 'Im_RyanGosling.png', 'Im_RyanReynolds.png'],same,1,0.7083051000008709,33,80.95238095238095,
STCH0106,5,pos,30,pos30_id21_im16.bmp_pos30_id21_im17.bmp,['Im_PatrickDempsey.png', 'Im_ElijahWood.png', 'Im_DanielCraig.png', 'Im_GeorgeClooney.png', 'Im_BradPitt.png', 'Im_LeonardoDiCaprio.png', 'Im_DanielRadcliffe.png', 'Im_KeanuReeves.png', 'Im_RyanGosling.png', 'Im_RyanReynolds.png'],same,1,0.44171429999914835,34,80.95238095238095,
STCH0106,5,pos,60,pos60_id20_im30.bmp_pos60_id20_im3.bmp,['Im_PatrickDempsey.png', 'Im_ElijahWood.png', 'Im_DanielCraig.png', 'Im_GeorgeClooney.png', 'Im_BradPitt.png', 'Im_LeonardoDiCaprio.png', 'Im_DanielRadcliffe.png', 'Im_KeanuReeves.png', 'Im_RyanGosling.png', 'Im_RyanReynolds.png'],same,1,0.7915953999981866,35,80.95238095238095,
STCH0106,6,inv,60,pos60_id20_im12.bmp_pos60_id20_im3.bmp,['Im_PatrickDempsey.png', 'Im_ElijahWood.png', 'Im_DanielCraig.png', 'Im_GeorgeClooney.png', 'Im_BradPitt.png', 'Im_LeonardoDiCaprio.png', 'Im_DanielRadcliffe.png', 'Im_KeanuReeves.png', 'Im_RyanGosling.png', 'Im_RyanReynolds.png'],same,1,0.850309900000866,1,83.33333333333333,
STCH0106,6,inv,0,pos0_id4_im7.bmp_pos0_id4_im15.bmp,['Im_PatrickDempsey.png', 'Im_ElijahWood.png', 'Im_DanielCraig.png', 'Im_GeorgeClooney.png', 'Im_BradPitt.png', 'Im_LeonardoDiCaprio.png', 'Im_DanielRadcliffe.png', 'Im_KeanuReeves.png', 'Im_RyanGosling.png', 'Im_RyanReynolds.png'],same,1,0.4252888000009989,2,83.33333333333333,
STCH0106,6,inv,fs,posfs_id4_im20.bmp_posfs_id20_im30.bmp,['Im_PatrickDempsey.png', 'Im_ElijahWood.png', 'Im_DanielCraig.png', 'Im_GeorgeClooney.png', 'Im_BradPitt.png', 'Im_LeonardoDiCaprio.png', 'Im_DanielRadcliffe.png', 'Im_KeanuReeves.png', 'Im_RyanGosling.png', 'Im_RyanReynolds.png'],diff,1,0.5749973999991198,3,83.33333333333333,
STCH0106,6,inv,90,pos90_id21_im16.bmp_pos90_id21_im22.bmp,['Im_PatrickDempsey.png', 'Im_ElijahWood.png', 'Im_DanielCraig.png', 'Im_GeorgeClooney.png', 'Im_BradPitt.png', 'Im_LeonardoDiCaprio.png', 'Im_DanielRadcliffe.png', 'Im_KeanuReeves.png', 'Im_RyanGosling.png', 'Im_RyanReynolds.png'],same,1,0.4999348999990616,4,83.33333333333333,
STCH0106,6,inv,150,pos150_id11_im1.bmp_pos150_id6_im12.bmp,['Im_PatrickDempsey.png', 'Im_ElijahWood.png', 'Im_DanielCraig.png', 'Im_GeorgeClooney.png', 'Im_BradPitt.png', 'Im_LeonardoDiCaprio.png', 'Im_DanielRadcliffe.png', 'Im_KeanuReeves.png', 'Im_RyanGosling.png', 'Im_RyanReynolds.png'],diff,1,0.4251213999996253,5,83.33333333333333,
STCH0106,6,inv,30,pos30_id13_im10.bmp_pos30_id21_im22.bmp,['Im_PatrickDempsey.png', 'Im_ElijahWood.png', 'Im_DanielCraig.png', 'Im_GeorgeClooney.png', 'Im_BradPitt.png', 'Im_LeonardoDiCaprio.png', 'Im_DanielRadcliffe.png', 'Im_KeanuReeves.png', 'Im_RyanGosling.png', 'Im_RyanReynolds.png'],diff,1,0.4835721999988891,6,83.33333333333333,
STCH0106,6,inv,60,pos60_id20_im12.bmp_pos60_id13_im15.bmp,['Im_PatrickDempsey.png', 'Im_ElijahWood.png', 'Im_DanielCraig.png', 'Im_GeorgeClooney.png', 'Im_BradPitt.png', 'Im_LeonardoDiCaprio.png', 'Im_DanielRadcliffe.png', 'Im_KeanuReeves.png', 'Im_RyanGosling.png', 'Im_RyanReynolds.png'],diff,1,0.48337439999886556,7,83.33333333333333,
STCH0106,6,inv,0,pos0_id21_im17.bmp_pos0_id7_im26.bmp,['Im_PatrickDempsey.png', 'Im_ElijahWood.png', 'Im_DanielCraig.png', 'Im_GeorgeClooney.png', 'Im_BradPitt.png', 'Im_LeonardoDiCaprio.png', 'Im_DanielRadcliffe.png', 'Im_KeanuReeves.png', 'Im_RyanGosling.png', 'Im_RyanReynolds.png'],diff,1,0.6752023999979428,8,83.33333333333333,
STCH0106,6,inv,150,pos150_id13_im15.bmp_pos150_id13_im10.bmp,['Im_PatrickDempsey.png', 'Im_ElijahWood.png', 'Im_DanielCraig.png', 'Im_GeorgeClooney.png', 'Im_BradPitt.png', 'Im_LeonardoDiCaprio.png', 'Im_DanielRadcliffe.png', 'Im_KeanuReeves.png', 'Im_RyanGosling.png', 'Im_RyanReynolds.png'],same,1,0.4249820000004547,9,83.33333333333333,
STCH0106,6,inv,30,pos30_id21_im16.bmp_pos30_id5_im1.bmp,['Im_PatrickDempsey.png', 'Im_ElijahWood.png', 'Im_DanielCraig.png', 'Im_GeorgeClooney.png', 'Im_BradPitt.png', 'Im_LeonardoDiCaprio.png', 'Im_DanielRadcliffe.png', 'Im_KeanuReeves.png', 'Im_RyanGosling.png', 'Im_RyanReynolds.png'],diff,1,0.4082620999979554,10,83.33333333333333,
STCH0106,6,inv,fs,posfs_id21_im22.bmp_posfs_id21_im17.bmp,['Im_PatrickDempsey.png', 'Im_ElijahWood.png', 'Im_DanielCraig.png', 'Im_GeorgeClooney.png', 'Im_BradPitt.png', 'Im_LeonardoDiCaprio.png', 'Im_DanielRadcliffe.png', 'Im_KeanuReeves.png', 'Im_RyanGosling.png', 'Im_RyanReynolds.png'],same,1,0.5583925999999337,11,83.33333333333333,
STCH0106,6,inv,120,pos120_id5_im20.bmp_pos120_id20_im3.bmp,['Im_PatrickDempsey.png', 'Im_ElijahWood.png', 'Im_DanielCraig.png', 'Im_GeorgeClooney.png', 'Im_BradPitt.png', 'Im_LeonardoDiCaprio.png', 'Im_DanielRadcliffe.png', 'Im_KeanuReeves.png', 'Im_RyanGosling.png', 'Im_RyanReynolds.png'],diff,1,0.41641380000146455,12,83.33333333333333,
STCH0106,6,inv,90,pos90_id6_im19.bmp_pos90_id3_im6.bmp,['Im_PatrickDempsey.png', 'Im_ElijahWood.png', 'Im_DanielCraig.png', 'Im_GeorgeClooney.png', 'Im_BradPitt.png', 'Im_LeonardoDiCaprio.png', 'Im_DanielRadcliffe.png', 'Im_KeanuReeves.png', 'Im_RyanGosling.png', 'Im_RyanReynolds.png'],diff,1,0.4167721000012534,13,83.33333333333333,
STCH0106,6,inv,120,pos120_id3_im8.bmp_pos120_id5_im10.bmp,['Im_PatrickDempsey.png', 'Im_ElijahWood.png', 'Im_DanielCraig.png', 'Im_GeorgeClooney.png', 'Im_BradPitt.png', 'Im_LeonardoDiCaprio.png', 'Im_DanielRadcliffe.png', 'Im_KeanuReeves.png', 'Im_RyanGosling.png', 'Im_RyanReynolds.png'],diff,1,0.4169876000014483,14,83.33333333333333,
STCH0106,7,pos,60,pos60_id21_im22.bmp_pos60_id17_im9.bmp,['Im_PatrickDempsey.png', 'Im_ElijahWood.png', 'Im_DanielCraig.png', 'Im_GeorgeClooney.png', 'Im_BradPitt.png', 'Im_LeonardoDiCaprio.png', 'Im_DanielRadcliffe.png', 'Im_KeanuReeves.png', 'Im_RyanGosling.png', 'Im_RyanReynolds.png'],diff,1,0.7420028999986243,15,83.33333333333333,
STCH0106,7,pos,150,pos150_id4_im20.bmp_pos150_id4_im15.bmp,['Im_PatrickDempsey.png', 'Im_ElijahWood.png', 'Im_DanielCraig.png', 'Im_GeorgeClooney.png', 'Im_BradPitt.png', 'Im_LeonardoDiCaprio.png', 'Im_DanielRadcliffe.png', 'Im_KeanuReeves.png', 'Im_RyanGosling.png', 'Im_RyanReynolds.png'],same,1,1.0004247000033502,16,83.33333333333333,
STCH0106,7,pos,30,pos30_id21_im17.bmp_pos30_id7_im26.bmp,['Im_PatrickDempsey.png', 'Im_ElijahWood.png', 'Im_DanielCraig.png', 'Im_GeorgeClooney.png', 'Im_BradPitt.png', 'Im_LeonardoDiCaprio.png', 'Im_DanielRadcliffe.png', 'Im_KeanuReeves.png', 'Im_RyanGosling.png', 'Im_RyanReynolds.png'],diff,1,1.3004354999975476,17,83.33333333333333,
STCH0106,7,pos,fs,posfs_id20_im3.bmp_posfs_id11_im10.bmp,['Im_PatrickDempsey.png', 'Im_ElijahWood.png', 'Im_DanielCraig.png', 'Im_GeorgeClooney.png', 'Im_BradPitt.png', 'Im_LeonardoDiCaprio.png', 'Im_DanielRadcliffe.png', 'Im_KeanuReeves.png', 'Im_RyanGosling.png', 'Im_RyanReynolds.png'],diff,1,0.6583532000004197,18,83.33333333333333,
STCH0106,7,pos,0,pos0_id13_im15.bmp_pos0_id13_im29.bmp,['Im_PatrickDempsey.png', 'Im_ElijahWood.png', 'Im_DanielCraig.png', 'Im_GeorgeClooney.png', 'Im_BradPitt.png', 'Im_LeonardoDiCaprio.png', 'Im_DanielRadcliffe.png', 'Im_KeanuReeves.png', 'Im_RyanGosling.png', 'Im_RyanReynolds.png'],diff,0,0.8333963000004587,18,83.33333333333333,
STCH0106,7,pos,90,pos90_id6_im18.bmp_pos90_id17_im8.bmp,['Im_PatrickDempsey.png', 'Im_ElijahWood.png', 'Im_DanielCraig.png', 'Im_GeorgeClooney.png', 'Im_BradPitt.png', 'Im_LeonardoDiCaprio.png', 'Im_DanielRadcliffe.png', 'Im_KeanuReeves.png', 'Im_RyanGosling.png', 'Im_RyanReynolds.png'],diff,1,0.42507519999708165,19,83.33333333333333,
STCH0106,7,pos,120,pos120_id5_im20.bmp_pos120_id5_im10.bmp,['Im_PatrickDempsey.png', 'Im_ElijahWood.png', 'Im_DanielCraig.png', 'Im_GeorgeClooney.png', 'Im_BradPitt.png', 'Im_LeonardoDiCaprio.png', 'Im_DanielRadcliffe.png', 'Im_KeanuReeves.png', 'Im_RyanGosling.png', 'Im_RyanReynolds.png'],same,1,0.5000722000004316,20,83.33333333333333,
STCH0106,7,pos,90,pos90_id17_im14.bmp_pos90_id17_im8.bmp,['Im_PatrickDempsey.png', 'Im_ElijahWood.png', 'Im_DanielCraig.png', 'Im_GeorgeClooney.png', 'Im_BradPitt.png', 'Im_LeonardoDiCaprio.png', 'Im_DanielRadcliffe.png', 'Im_KeanuReeves.png', 'Im_RyanGosling.png', 'Im_RyanReynolds.png'],same,1,0.416586900002585,21,83.33333333333333,
STCH0106,7,pos,fs,posfs_id20_im3.bmp_posfs_id5_im20.bmp,['Im_PatrickDempsey.png', 'Im_ElijahWood.png', 'Im_DanielCraig.png', 'Im_GeorgeClooney.png', 'Im_BradPitt.png', 'Im_LeonardoDiCaprio.png', 'Im_DanielRadcliffe.png', 'Im_KeanuReeves.png', 'Im_RyanGosling.png', 'Im_RyanReynolds.png'],diff,1,0.416773099997954,22,83.33333333333333,
STCH0106,7,pos,0,pos0_id5_im10.bmp_pos0_id3_im8.bmp,['Im_PatrickDempsey.png', 'Im_ElijahWood.png', 'Im_DanielCraig.png', 'Im_GeorgeClooney.png', 'Im_BradPitt.png', 'Im_LeonardoDiCaprio.png', 'Im_DanielRadcliffe.png', 'Im_KeanuReeves.png', 'Im_RyanGosling.png', 'Im_RyanReynolds.png'],diff,1,0.4333976000016264,23,83.33333333333333,
STCH0106,7,pos,60,pos60_id3_im6.bmp_pos60_id6_im19.bmp,['Im_PatrickDempsey.png', 'Im_ElijahWood.png', 'Im_DanielCraig.png', 'Im_GeorgeClooney.png', 'Im_BradPitt.png', 'Im_LeonardoDiCaprio.png', 'Im_DanielRadcliffe.png', 'Im_KeanuReeves.png', 'Im_RyanGosling.png', 'Im_RyanReynolds.png'],diff,1,0.4167636999991373,24,83.33333333333333,
STCH0106,7,pos,150,pos150_id17_im9.bmp_pos150_id7_im14.bmp,['Im_PatrickDempsey.png', 'Im_ElijahWood.png', 'Im_DanielCraig.png', 'Im_GeorgeClooney.png', 'Im_BradPitt.png', 'Im_LeonardoDiCaprio.png', 'Im_DanielRadcliffe.png', 'Im_KeanuReeves.png', 'Im_RyanGosling.png', 'Im_RyanReynolds.png'],diff,1,0.416725499999302,25,83.33333333333333,
STCH0106,7,pos,30,pos30_id6_im12.bmp_pos30_id6_im19.bmp,['Im_PatrickDempsey.png', 'Im_ElijahWood.png', 'Im_DanielCraig.png', 'Im_GeorgeClooney.png', 'Im_BradPitt.png', 'Im_LeonardoDiCaprio.png', 'Im_DanielRadcliffe.png', 'Im_KeanuReeves.png', 'Im_RyanGosling.png', 'Im_RyanReynolds.png'],same,1,0.5669525999983307,26,83.33333333333333,
STCH0106,7,pos,120,pos120_id3_im17.bmp_pos120_id3_im6.bmp,['Im_PatrickDempsey.png', 'Im_ElijahWood.png', 'Im_DanielCraig.png', 'Im_GeorgeClooney.png', 'Im_BradPitt.png', 'Im_LeonardoDiCaprio.png', 'Im_DanielRadcliffe.png', 'Im_KeanuReeves.png', 'Im_RyanGosling.png', 'Im_RyanReynolds.png'],diff,0,0.5752423999983876,26,83.33333333333333,
STCH0106,8,neg,150,neg150_id20_im3.bmp_neg150_id20_im12.bmp,['Im_PatrickDempsey.png', 'Im_ElijahWood.png', 'Im_DanielCraig.png', 'Im_GeorgeClooney.png', 'Im_BradPitt.png', 'Im_LeonardoDiCaprio.png', 'Im_DanielRadcliffe.png', 'Im_KeanuReeves.png', 'Im_RyanGosling.png', 'Im_RyanReynolds.png'],same,1,0.4250672999987728,27,83.33333333333333,
STCH0106,8,neg,120,neg120_id21_im22.bmp_neg120_id17_im9.bmp,['Im_PatrickDempsey.png', 'Im_ElijahWood.png', 'Im_DanielCraig.png', 'Im_GeorgeClooney.png', 'Im_BradPitt.png', 'Im_LeonardoDiCaprio.png', 'Im_DanielRadcliffe.png', 'Im_KeanuReeves.png', 'Im_RyanGosling.png', 'Im_RyanReynolds.png'],same,0,0.5417028999981994,27,83.33333333333333,
STCH0106,8,neg,fs,negfs_id5_im20.bmp_negfs_id5_im10.bmp,['Im_PatrickDempsey.png', 'Im_ElijahWood.png', 'Im_DanielCraig.png', 'Im_GeorgeClooney.png', 'Im_BradPitt.png', 'Im_LeonardoDiCaprio.png', 'Im_DanielRadcliffe.png', 'Im_KeanuReeves.png', 'Im_RyanGosling.png', 'Im_RyanReynolds.png'],same,1,0.8169272999984969,28,83.33333333333333,
STCH0106,8,neg,30,neg30_id20_im30.bmp_neg30_id5_im20.bmp,['Im_PatrickDempsey.png', 'Im_ElijahWood.png', 'Im_DanielCraig.png', 'Im_GeorgeClooney.png', 'Im_BradPitt.png', 'Im_LeonardoDiCaprio.png', 'Im_DanielRadcliffe.png', 'Im_KeanuReeves.png', 'Im_RyanGosling.png', 'Im_RyanReynolds.png'],diff,1,0.73346329999913,29,83.33333333333333,
STCH0106,8,neg,150,neg150_id5_im1.bmp_neg150_id21_im16.bmp,['Im_PatrickDempsey.png', 'Im_ElijahWood.png', 'Im_DanielCraig.png', 'Im_GeorgeClooney.png', 'Im_BradPitt.png', 'Im_LeonardoDiCaprio.png', 'Im_DanielRadcliffe.png', 'Im_KeanuReeves.png', 'Im_RyanGosling.png', 'Im_RyanReynolds.png'],diff,1,0.40833679999923334,30,83.33333333333333,
STCH0106,8,neg,90,neg90_id21_im16.bmp_neg90_id21_im22.bmp,['Im_PatrickDempsey.png', 'Im_ElijahWood.png', 'Im_DanielCraig.png', 'Im_GeorgeClooney.png', 'Im_BradPitt.png', 'Im_LeonardoDiCaprio.png', 'Im_DanielRadcliffe.png', 'Im_KeanuReeves.png', 'Im_RyanGosling.png', 'Im_RyanReynolds.png'],diff,0,0.8000305999994453,30,83.33333333333333,
STCH0106,8,neg,120,neg120_id6_im12.bmp_neg120_id6_im18.bmp,['Im_PatrickDempsey.png', 'Im_ElijahWood.png', 'Im_DanielCraig.png', 'Im_GeorgeClooney.png', 'Im_BradPitt.png', 'Im_LeonardoDiCaprio.png', 'Im_DanielRadcliffe.png', 'Im_KeanuReeves.png', 'Im_RyanGosling.png', 'Im_RyanReynolds.png'],same,1,0.4919293999992078,31,83.33333333333333,
STCH0106,8,neg,60,neg60_id6_im18.bmp_neg60_id3_im6.bmp,['Im_PatrickDempsey.png', 'Im_ElijahWood.png', 'Im_DanielCraig.png', 'Im_GeorgeClooney.png', 'Im_BradPitt.png', 'Im_LeonardoDiCaprio.png', 'Im_DanielRadcliffe.png', 'Im_KeanuReeves.png', 'Im_RyanGosling.png', 'Im_RyanReynolds.png'],diff,1,0.42507449999902747,32,83.33333333333333,
STCH0106,8,neg,30,neg30_id4_im15.bmp_neg30_id11_im1.bmp,['Im_PatrickDempsey.png', 'Im_ElijahWood.png', 'Im_DanielCraig.png', 'Im_GeorgeClooney.png', 'Im_BradPitt.png', 'Im_LeonardoDiCaprio.png', 'Im_DanielRadcliffe.png', 'Im_KeanuReeves.png', 'Im_RyanGosling.png', 'Im_RyanReynolds.png'],diff,1,1.4750332000003255,33,83.33333333333333,
STCH0106,8,neg,fs,negfs_id13_im15.bmp_negfs_id20_im12.bmp,['Im_PatrickDempsey.png', 'Im_ElijahWood.png', 'Im_DanielCraig.png', 'Im_GeorgeClooney.png', 'Im_BradPitt.png', 'Im_LeonardoDiCaprio.png', 'Im_DanielRadcliffe.png', 'Im_KeanuReeves.png', 'Im_RyanGosling.png', 'Im_RyanReynolds.png'],diff,1,0.44175370000084513,34,83.33333333333333,
STCH0106,8,neg,90,neg90_id4_im15.bmp_neg90_id11_im1.bmp,['Im_PatrickDempsey.png', 'Im_ElijahWood.png', 'Im_DanielCraig.png', 'Im_GeorgeClooney.png', 'Im_BradPitt.png', 'Im_LeonardoDiCaprio.png', 'Im_DanielRadcliffe.png', 'Im_KeanuReeves.png', 'Im_RyanGosling.png', 'Im_RyanReynolds.png'],diff,1,0.6588919000023452,35,83.33333333333333,
STCH0106,8,neg,60,neg60_id11_im1.bmp_neg60_id11_im10.bmp,['Im_PatrickDempsey.png', 'Im_ElijahWood.png', 'Im_DanielCraig.png', 'Im_GeorgeClooney.png', 'Im_BradPitt.png', 'Im_LeonardoDiCaprio.png', 'Im_DanielRadcliffe.png', 'Im_KeanuReeves.png', 'Im_RyanGosling.png', 'Im_RyanReynolds.png'],diff,0,0.7753417999992962,35,83.33333333333333,
STCH0106,8,neg,0,neg0_id11_im1.bmp_neg0_id6_im12.bmp,['Im_PatrickDempsey.png', 'Im_ElijahWood.png', 'Im_DanielCraig.png', 'Im_GeorgeClooney.png', 'Im_BradPitt.png', 'Im_LeonardoDiCaprio.png', 'Im_DanielRadcliffe.png', 'Im_KeanuReeves.png', 'Im_RyanGosling.png', 'Im_RyanReynolds.png'],same,0,0.7500848999989103,35,83.33333333333333,
STCH0106,8,neg,0,neg0_id5_im1.bmp_neg0_id21_im16.bmp,['Im_PatrickDempsey.png', 'Im_ElijahWood.png', 'Im_DanielCraig.png', 'Im_GeorgeClooney.png', 'Im_BradPitt.png', 'Im_LeonardoDiCaprio.png', 'Im_DanielRadcliffe.png', 'Im_KeanuReeves.png', 'Im_RyanGosling.png', 'Im_RyanReynolds.png'],diff,1,0.40819959999862476,36,83.33333333333333,
STCH0106,9,neg,90,neg90_id20_im3.bmp_neg90_id20_im30.bmp,['Im_PatrickDempsey.png', 'Im_ElijahWood.png', 'Im_DanielCraig.png', 'Im_GeorgeClooney.png', 'Im_BradPitt.png', 'Im_LeonardoDiCaprio.png', 'Im_DanielRadcliffe.png', 'Im_KeanuReeves.png', 'Im_RyanGosling.png', 'Im_RyanReynolds.png'],same,1,0.4249653999977454,1,85.71428571428571,
STCH0106,9,neg,0,neg0_id5_im10.bmp_neg0_id5_im20.bmp,['Im_PatrickDempsey.png', 'Im_ElijahWood.png', 'Im_DanielCraig.png', 'Im_GeorgeClooney.png', 'Im_BradPitt.png', 'Im_LeonardoDiCaprio.png', 'Im_DanielRadcliffe.png', 'Im_KeanuReeves.png', 'Im_RyanGosling.png', 'Im_RyanReynolds.png'],same,1,0.5336833000001207,2,85.71428571428571,
STCH0106,9,neg,60,neg60_id13_im10.bmp_neg60_id17_im8.bmp,['Im_PatrickDempsey.png', 'Im_ElijahWood.png', 'Im_DanielCraig.png', 'Im_GeorgeClooney.png', 'Im_BradPitt.png', 'Im_LeonardoDiCaprio.png', 'Im_DanielRadcliffe.png', 'Im_KeanuReeves.png', 'Im_RyanGosling.png', 'Im_RyanReynolds.png'],diff,1,0.6167305999988457,3,85.71428571428571,
STCH0106,9,neg,60,neg60_id6_im19.bmp_neg60_id3_im6.bmp,['Im_PatrickDempsey.png', 'Im_ElijahWood.png', 'Im_DanielCraig.png', 'Im_GeorgeClooney.png', 'Im_BradPitt.png', 'Im_LeonardoDiCaprio.png', 'Im_DanielRadcliffe.png', 'Im_KeanuReeves.png', 'Im_RyanGosling.png', 'Im_RyanReynolds.png'],diff,1,0.42505460000029416,4,85.71428571428571,
STCH0106,9,neg,fs,negfs_id3_im6.bmp_negfs_id3_im17.bmp,['Im_PatrickDempsey.png', 'Im_ElijahWood.png', 'Im_DanielCraig.png', 'Im_GeorgeClooney.png', 'Im_BradPitt.png', 'Im_LeonardoDiCaprio.png', 'Im_DanielRadcliffe.png', 'Im_KeanuReeves.png', 'Im_RyanGosling.png', 'Im_RyanReynolds.png'],diff,0,0.8086375999992015,4,85.71428571428571,
STCH0106,9,neg,90,neg90_id3_im8.bmp_neg90_id11_im2.bmp,['Im_PatrickDempsey.png', 'Im_ElijahWood.png', 'Im_DanielCraig.png', 'Im_GeorgeClooney.png', 'Im_BradPitt.png', 'Im_LeonardoDiCaprio.png', 'Im_DanielRadcliffe.png', 'Im_KeanuReeves.png', 'Im_RyanGosling.png', 'Im_RyanReynolds.png'],diff,1,0.750095199997304,5,85.71428571428571,
STCH0106,9,neg,30,neg30_id17_im9.bmp_neg30_id17_im14.bmp,['Im_PatrickDempsey.png', 'Im_ElijahWood.png', 'Im_DanielCraig.png', 'Im_GeorgeClooney.png', 'Im_BradPitt.png', 'Im_LeonardoDiCaprio.png', 'Im_DanielRadcliffe.png', 'Im_KeanuReeves.png', 'Im_RyanGosling.png', 'Im_RyanReynolds.png'],same,1,0.4669991000009759,6,85.71428571428571,
STCH0106,9,neg,120,neg120_id20_im3.bmp_neg120_id20_im12.bmp,['Im_PatrickDempsey.png', 'Im_ElijahWood.png', 'Im_DanielCraig.png', 'Im_GeorgeClooney.png', 'Im_BradPitt.png', 'Im_LeonardoDiCaprio.png', 'Im_DanielRadcliffe.png', 'Im_KeanuReeves.png', 'Im_RyanGosling.png', 'Im_RyanReynolds.png'],same,1,0.41676989999905345,7,85.71428571428571,
STCH0106,9,neg,fs,negfs_id7_im26.bmp_negfs_id7_im15.bmp,['Im_PatrickDempsey.png', 'Im_ElijahWood.png', 'Im_DanielCraig.png', 'Im_GeorgeClooney.png', 'Im_BradPitt.png', 'Im_LeonardoDiCaprio.png', 'Im_DanielRadcliffe.png', 'Im_KeanuReeves.png', 'Im_RyanGosling.png', 'Im_RyanReynolds.png'],same,1,0.8004146000021137,8,85.71428571428571,
STCH0106,9,neg,150,neg150_id7_im26.bmp_neg150_id4_im7.bmp,['Im_PatrickDempsey.png', 'Im_ElijahWood.png', 'Im_DanielCraig.png', 'Im_GeorgeClooney.png', 'Im_BradPitt.png', 'Im_LeonardoDiCaprio.png', 'Im_DanielRadcliffe.png', 'Im_KeanuReeves.png', 'Im_RyanGosling.png', 'Im_RyanReynolds.png'],diff,1,0.6752068999994663,9,85.71428571428571,
STCH0106,9,neg,150,neg150_id20_im12.bmp_neg150_id13_im15.bmp,['Im_PatrickDempsey.png', 'Im_ElijahWood.png', 'Im_DanielCraig.png', 'Im_GeorgeClooney.png', 'Im_BradPitt.png', 'Im_LeonardoDiCaprio.png', 'Im_DanielRadcliffe.png', 'Im_KeanuReeves.png', 'Im_RyanGosling.png', 'Im_RyanReynolds.png'],diff,1,0.42500070000096457,10,85.71428571428571,
STCH0106,9,neg,120,neg120_id21_im22.bmp_neg120_id21_im16.bmp,['Im_PatrickDempsey.png', 'Im_ElijahWood.png', 'Im_DanielCraig.png', 'Im_GeorgeClooney.png', 'Im_BradPitt.png', 'Im_LeonardoDiCaprio.png', 'Im_DanielRadcliffe.png', 'Im_KeanuReeves.png', 'Im_RyanGosling.png', 'Im_RyanReynolds.png'],diff,0,0.7915618999977596,10,85.71428571428571,
STCH0106,9,neg,30,neg30_id5_im10.bmp_neg30_id3_im8.bmp,['Im_PatrickDempsey.png', 'Im_ElijahWood.png', 'Im_DanielCraig.png', 'Im_GeorgeClooney.png', 'Im_BradPitt.png', 'Im_LeonardoDiCaprio.png', 'Im_DanielRadcliffe.png', 'Im_KeanuReeves.png', 'Im_RyanGosling.png', 'Im_RyanReynolds.png'],diff,1,0.7004347000001871,11,85.71428571428571,
STCH0106,9,neg,0,neg0_id4_im15.bmp_neg0_id4_im20.bmp,['Im_PatrickDempsey.png', 'Im_ElijahWood.png', 'Im_DanielCraig.png', 'Im_GeorgeClooney.png', 'Im_BradPitt.png', 'Im_LeonardoDiCaprio.png', 'Im_DanielRadcliffe.png', 'Im_KeanuReeves.png', 'Im_RyanGosling.png', 'Im_RyanReynolds.png'],diff,0,0.6751864000034402,11,85.71428571428571,
STCH0106,10,pos,0,pos0_id11_im1.bmp_pos0_id4_im15.bmp,['Im_PatrickDempsey.png', 'Im_ElijahWood.png', 'Im_DanielCraig.png', 'Im_GeorgeClooney.png', 'Im_BradPitt.png', 'Im_LeonardoDiCaprio.png', 'Im_DanielRadcliffe.png', 'Im_KeanuReeves.png', 'Im_RyanGosling.png', 'Im_RyanReynolds.png'],diff,1,0.4167455999995582,12,85.71428571428571,
STCH0106,10,pos,60,pos60_id5_im1.bmp_pos60_id5_im20.bmp,['Im_PatrickDempsey.png', 'Im_ElijahWood.png', 'Im_DanielCraig.png', 'Im_GeorgeClooney.png', 'Im_BradPitt.png', 'Im_LeonardoDiCaprio.png', 'Im_DanielRadcliffe.png', 'Im_KeanuReeves.png', 'Im_RyanGosling.png', 'Im_RyanReynolds.png'],same,1,0.41661350000140374,13,85.71428571428571,
STCH0106,10,pos,0,pos0_id4_im15.bmp_pos0_id4_im7.bmp,['Im_PatrickDempsey.png', 'Im_ElijahWood.png', 'Im_DanielCraig.png', 'Im_GeorgeClooney.png', 'Im_BradPitt.png', 'Im_LeonardoDiCaprio.png', 'Im_DanielRadcliffe.png', 'Im_KeanuReeves.png', 'Im_RyanGosling.png', 'Im_RyanReynolds.png'],same,1,0.40855609999925946,14,85.71428571428571,
STCH0106,10,pos,30,pos30_id11_im10.bmp_pos30_id11_im1.bmp,['Im_PatrickDempsey.png', 'Im_ElijahWood.png', 'Im_DanielCraig.png', 'Im_GeorgeClooney.png', 'Im_BradPitt.png', 'Im_LeonardoDiCaprio.png', 'Im_DanielRadcliffe.png', 'Im_KeanuReeves.png', 'Im_RyanGosling.png', 'Im_RyanReynolds.png'],same,1,0.5749552999986918,15,85.71428571428571,
STCH0106,10,pos,90,pos90_id20_im12.bmp_pos90_id20_im30.bmp,['Im_PatrickDempsey.png', 'Im_ElijahWood.png', 'Im_DanielCraig.png', 'Im_GeorgeClooney.png', 'Im_BradPitt.png', 'Im_LeonardoDiCaprio.png', 'Im_DanielRadcliffe.png', 'Im_KeanuReeves.png', 'Im_RyanGosling.png', 'Im_RyanReynolds.png'],same,1,0.48376250000001164,16,85.71428571428571,
STCH0106,10,pos,fs,posfs_id5_im10.bmp_posfs_id5_im20.bmp,['Im_PatrickDempsey.png', 'Im_ElijahWood.png', 'Im_DanielCraig.png', 'Im_GeorgeClooney.png', 'Im_BradPitt.png', 'Im_LeonardoDiCaprio.png', 'Im_DanielRadcliffe.png', 'Im_KeanuReeves.png', 'Im_RyanGosling.png', 'Im_RyanReynolds.png'],same,1,0.41668879999997444,17,85.71428571428571,
STCH0106,10,pos,120,pos120_id6_im12.bmp_pos120_id6_im18.bmp,['Im_PatrickDempsey.png', 'Im_ElijahWood.png', 'Im_DanielCraig.png', 'Im_GeorgeClooney.png', 'Im_BradPitt.png', 'Im_LeonardoDiCaprio.png', 'Im_DanielRadcliffe.png', 'Im_KeanuReeves.png', 'Im_RyanGosling.png', 'Im_RyanReynolds.png'],same,1,0.42507929999919725,18,85.71428571428571,
STCH0106,10,pos,150,pos150_id3_im17.bmp_pos150_id7_im15.bmp,['Im_PatrickDempsey.png', 'Im_ElijahWood.png', 'Im_DanielCraig.png', 'Im_GeorgeClooney.png', 'Im_BradPitt.png', 'Im_LeonardoDiCaprio.png', 'Im_DanielRadcliffe.png', 'Im_KeanuReeves.png', 'Im_RyanGosling.png', 'Im_RyanReynolds.png'],diff,1,1.6499041999995825,19,85.71428571428571,
STCH0106,10,pos,90,pos90_id3_im6.bmp_pos90_id6_im18.bmp,['Im_PatrickDempsey.png', 'Im_ElijahWood.png', 'Im_DanielCraig.png', 'Im_GeorgeClooney.png', 'Im_BradPitt.png', 'Im_LeonardoDiCaprio.png', 'Im_DanielRadcliffe.png', 'Im_KeanuReeves.png', 'Im_RyanGosling.png', 'Im_RyanReynolds.png'],diff,1,0.7423478999990039,20,85.71428571428571,
STCH0106,10,pos,120,pos120_id17_im9.bmp_pos120_id21_im22.bmp,['Im_PatrickDempsey.png', 'Im_ElijahWood.png', 'Im_DanielCraig.png', 'Im_GeorgeClooney.png', 'Im_BradPitt.png', 'Im_LeonardoDiCaprio.png', 'Im_DanielRadcliffe.png', 'Im_KeanuReeves.png', 'Im_RyanGosling.png', 'Im_RyanReynolds.png'],diff,1,1.0504135999981372,21,85.71428571428571,
STCH0106,10,pos,30,pos30_id13_im15.bmp_pos30_id13_im10.bmp,['Im_PatrickDempsey.png', 'Im_ElijahWood.png', 'Im_DanielCraig.png', 'Im_GeorgeClooney.png', 'Im_BradPitt.png', 'Im_LeonardoDiCaprio.png', 'Im_DanielRadcliffe.png', 'Im_KeanuReeves.png', 'Im_RyanGosling.png', 'Im_RyanReynolds.png'],same,1,0.43338560000120196,22,85.71428571428571,
STCH0106,10,pos,fs,posfs_id13_im10.bmp_posfs_id17_im8.bmp,['Im_PatrickDempsey.png', 'Im_ElijahWood.png', 'Im_DanielCraig.png', 'Im_GeorgeClooney.png', 'Im_BradPitt.png', 'Im_LeonardoDiCaprio.png', 'Im_DanielRadcliffe.png', 'Im_KeanuReeves.png', 'Im_RyanGosling.png', 'Im_RyanReynolds.png'],diff,1,0.4252379999998084,23,85.71428571428571,
STCH0106,10,pos,150,pos150_id11_im2.bmp_pos150_id11_im1.bmp,['Im_PatrickDempsey.png', 'Im_ElijahWood.png', 'Im_DanielCraig.png', 'Im_GeorgeClooney.png', 'Im_BradPitt.png', 'Im_LeonardoDiCaprio.png', 'Im_DanielRadcliffe.png', 'Im_KeanuReeves.png', 'Im_RyanGosling.png', 'Im_RyanReynolds.png'],diff,0,1.674853599997732,23,85.71428571428571,
STCH0106,10,pos,60,pos60_id17_im8.bmp_pos60_id6_im18.bmp,['Im_PatrickDempsey.png', 'Im_ElijahWood.png', 'Im_DanielCraig.png', 'Im_GeorgeClooney.png', 'Im_BradPitt.png', 'Im_LeonardoDiCaprio.png', 'Im_DanielRadcliffe.png', 'Im_KeanuReeves.png', 'Im_RyanGosling.png', 'Im_RyanReynolds.png'],diff,1,0.4249611000013829,24,85.71428571428571,
STCH0106,11,inv,0,pos0_id6_im12.bmp_pos0_id6_im18.bmp,['Im_PatrickDempsey.png', 'Im_ElijahWood.png', 'Im_DanielCraig.png', 'Im_GeorgeClooney.png', 'Im_BradPitt.png', 'Im_LeonardoDiCaprio.png', 'Im_DanielRadcliffe.png', 'Im_KeanuReeves.png', 'Im_RyanGosling.png', 'Im_RyanReynolds.png'],same,1,0.8668809999981022,25,85.71428571428571,
STCH0106,11,inv,120,pos120_id13_im29.bmp_pos120_id13_im10.bmp,['Im_PatrickDempsey.png', 'Im_ElijahWood.png', 'Im_DanielCraig.png', 'Im_GeorgeClooney.png', 'Im_BradPitt.png', 'Im_LeonardoDiCaprio.png', 'Im_DanielRadcliffe.png', 'Im_KeanuReeves.png', 'Im_RyanGosling.png', 'Im_RyanReynolds.png'],diff,0,1.0252080999998725,25,85.71428571428571,
STCH0106,11,inv,fs,posfs_id21_im17.bmp_posfs_id21_im16.bmp,['Im_PatrickDempsey.png', 'Im_ElijahWood.png', 'Im_DanielCraig.png', 'Im_GeorgeClooney.png', 'Im_BradPitt.png', 'Im_LeonardoDiCaprio.png', 'Im_DanielRadcliffe.png', 'Im_KeanuReeves.png', 'Im_RyanGosling.png', 'Im_RyanReynolds.png'],same,1,0.43323700000109966,26,85.71428571428571,
STCH0106,11,inv,0,pos0_id20_im3.bmp_pos0_id11_im10.bmp,['Im_PatrickDempsey.png', 'Im_ElijahWood.png', 'Im_DanielCraig.png', 'Im_GeorgeClooney.png', 'Im_BradPitt.png', 'Im_LeonardoDiCaprio.png', 'Im_DanielRadcliffe.png', 'Im_KeanuReeves.png', 'Im_RyanGosling.png', 'Im_RyanReynolds.png'],diff,1,0.6586864999990212,27,85.71428571428571,
STCH0106,11,inv,60,pos60_id21_im22.bmp_pos60_id21_im16.bmp,['Im_PatrickDempsey.png', 'Im_ElijahWood.png', 'Im_DanielCraig.png', 'Im_GeorgeClooney.png', 'Im_BradPitt.png', 'Im_LeonardoDiCaprio.png', 'Im_DanielRadcliffe.png', 'Im_KeanuReeves.png', 'Im_RyanGosling.png', 'Im_RyanReynolds.png'],diff,0,0.5085063999977137,27,85.71428571428571,
STCH0106,11,inv,150,pos150_id13_im10.bmp_pos150_id17_im8.bmp,['Im_PatrickDempsey.png', 'Im_ElijahWood.png', 'Im_DanielCraig.png', 'Im_GeorgeClooney.png', 'Im_BradPitt.png', 'Im_LeonardoDiCaprio.png', 'Im_DanielRadcliffe.png', 'Im_KeanuReeves.png', 'Im_RyanGosling.png', 'Im_RyanReynolds.png'],diff,1,0.5500887999987754,28,85.71428571428571,
STCH0106,11,inv,60,pos60_id20_im30.bmp_pos60_id5_im20.bmp,['Im_PatrickDempsey.png', 'Im_ElijahWood.png', 'Im_DanielCraig.png', 'Im_GeorgeClooney.png', 'Im_BradPitt.png', 'Im_LeonardoDiCaprio.png', 'Im_DanielRadcliffe.png', 'Im_KeanuReeves.png', 'Im_RyanGosling.png', 'Im_RyanReynolds.png'],diff,1,0.9415088999994623,29,85.71428571428571,
STCH0106,11,inv,30,pos30_id5_im10.bmp_pos30_id7_im14.bmp,['Im_PatrickDempsey.png', 'Im_ElijahWood.png', 'Im_DanielCraig.png', 'Im_GeorgeClooney.png', 'Im_BradPitt.png', 'Im_LeonardoDiCaprio.png', 'Im_DanielRadcliffe.png', 'Im_KeanuReeves.png', 'Im_RyanGosling.png', 'Im_RyanReynolds.png'],diff,1,0.4166822000006505,30,85.71428571428571,
STCH0106,11,inv,150,pos150_id21_im17.bmp_pos150_id7_im26.bmp,['Im_PatrickDempsey.png', 'Im_ElijahWood.png', 'Im_DanielCraig.png', 'Im_GeorgeClooney.png', 'Im_BradPitt.png', 'Im_LeonardoDiCaprio.png', 'Im_DanielRadcliffe.png', 'Im_KeanuReeves.png', 'Im_RyanGosling.png', 'Im_RyanReynolds.png'],diff,1,1.3170351999979175,31,85.71428571428571,
STCH0106,11,inv,fs,posfs_id17_im8.bmp_posfs_id6_im18.bmp,['Im_PatrickDempsey.png', 'Im_ElijahWood.png', 'Im_DanielCraig.png', 'Im_GeorgeClooney.png', 'Im_BradPitt.png', 'Im_LeonardoDiCaprio.png', 'Im_DanielRadcliffe.png', 'Im_KeanuReeves.png', 'Im_RyanGosling.png', 'Im_RyanReynolds.png'],diff,1,1.591866700000537,32,85.71428571428571,
STCH0106,11,inv,90,pos90_id20_im12.bmp_pos90_id13_im15.bmp,['Im_PatrickDempsey.png', 'Im_ElijahWood.png', 'Im_DanielCraig.png', 'Im_GeorgeClooney.png', 'Im_BradPitt.png', 'Im_LeonardoDiCaprio.png', 'Im_DanielRadcliffe.png', 'Im_KeanuReeves.png', 'Im_RyanGosling.png', 'Im_RyanReynolds.png'],same,0,0.7498715999972774,32,85.71428571428571,
STCH0106,11,inv,30,pos30_id6_im12.bmp_pos30_id6_im19.bmp,['Im_PatrickDempsey.png', 'Im_ElijahWood.png', 'Im_DanielCraig.png', 'Im_GeorgeClooney.png', 'Im_BradPitt.png', 'Im_LeonardoDiCaprio.png', 'Im_DanielRadcliffe.png', 'Im_KeanuReeves.png', 'Im_RyanGosling.png', 'Im_RyanReynolds.png'],diff,0,0.7334556999994675,32,85.71428571428571,
STCH0106,11,inv,120,pos120_id11_im10.bmp_pos120_id11_im1.bmp,['Im_PatrickDempsey.png', 'Im_ElijahWood.png', 'Im_DanielCraig.png', 'Im_GeorgeClooney.png', 'Im_BradPitt.png', 'Im_LeonardoDiCaprio.png', 'Im_DanielRadcliffe.png', 'Im_KeanuReeves.png', 'Im_RyanGosling.png', 'Im_RyanReynolds.png'],same,1,1.3000753999986046,33,85.71428571428571,
STCH0106,11,inv,90,pos90_id17_im8.bmp_pos90_id17_im14.bmp,['Im_PatrickDempsey.png', 'Im_ElijahWood.png', 'Im_DanielCraig.png', 'Im_GeorgeClooney.png', 'Im_BradPitt.png', 'Im_LeonardoDiCaprio.png', 'Im_DanielRadcliffe.png', 'Im_KeanuReeves.png', 'Im_RyanGosling.png', 'Im_RyanReynolds.png'],same,1,0.42475809999814373,34,85.71428571428571,
STCH0106,12,inv,60,pos60_id20_im30.bmp_pos60_id4_im20.bmp,['Im_PatrickDempsey.png', 'Im_ElijahWood.png', 'Im_DanielCraig.png', 'Im_GeorgeClooney.png', 'Im_BradPitt.png', 'Im_LeonardoDiCaprio.png', 'Im_DanielRadcliffe.png', 'Im_KeanuReeves.png', 'Im_RyanGosling.png', 'Im_RyanReynolds.png'],diff,1,0.47545309999986785,1,80.95238095238095,
STCH0106,12,inv,fs,posfs_id20_im3.bmp_posfs_id5_im20.bmp,['Im_PatrickDempsey.png', 'Im_ElijahWood.png', 'Im_DanielCraig.png', 'Im_GeorgeClooney.png', 'Im_BradPitt.png', 'Im_LeonardoDiCaprio.png', 'Im_DanielRadcliffe.png', 'Im_KeanuReeves.png', 'Im_RyanGosling.png', 'Im_RyanReynolds.png'],diff,1,0.8418718000029912,2,80.95238095238095,
STCH0106,12,inv,120,pos120_id7_im26.bmp_pos120_id7_im15.bmp,['Im_PatrickDempsey.png', 'Im_ElijahWood.png', 'Im_DanielCraig.png', 'Im_GeorgeClooney.png', 'Im_BradPitt.png', 'Im_LeonardoDiCaprio.png', 'Im_DanielRadcliffe.png', 'Im_KeanuReeves.png', 'Im_RyanGosling.png', 'Im_RyanReynolds.png'],same,1,0.42509530000097584,3,80.95238095238095,
STCH0106,12,inv,30,pos30_id6_im19.bmp_pos30_id3_im6.bmp,['Im_PatrickDempsey.png', 'Im_ElijahWood.png', 'Im_DanielCraig.png', 'Im_GeorgeClooney.png', 'Im_BradPitt.png', 'Im_LeonardoDiCaprio.png', 'Im_DanielRadcliffe.png', 'Im_KeanuReeves.png', 'Im_RyanGosling.png', 'Im_RyanReynolds.png'],same,0,0.408812300000136,3,80.95238095238095,
