Sujet,Trial,Condition,Filter,Imname,Actor0,Actor1,Actor2,Actor3,Actor4,Actor5,Actor6,Actor7,Actor8,Actor9,Answer,Accu,RT,Score,Scoreperc, 
_,posfs_BenAffleck_im4.bmp,BenAffleck,BenStiller,BenStiller,KeanuReeves,ElijahWood,PatrickDempsey,,,,,posfs_BenAffleck_im4.bmp,3.0093461999999818,
_,posfs_BenStiller_im7.bmp,BenStiller,LeonardoDiCaprio,LeonardoDiCaprio,RyanGosling,DanielCraig,PatrickDempsey,,,,,posfs_BenStiller_im7.bmp,1.6538221999999223,
_,posfs_DanielRadcliffe_im10.bmp,DanielRadcliffe,LeonardoDiCaprio,LeonardoDiCaprio,KeanuReeves,ElijahWood,MattDamon,,,,,posfs_DanielRadcliffe_im10.bmp,1.9927923999998711,
_,posfs_RyanGosling_im12.bmp,RyanGosling,PatrickDempsey,PatrickDempsey,RyanReynolds,BradPitt,DanielCraig,,,,,posfs_RyanGosling_im12.bmp,1.3893415000002278,
_,posfs_BenStiller_im3.bmp,BenStiller,ElijahWood,ElijahWood,JustinTimberlake,BradPitt,RobertDowneyJr,,,,,posfs_BenStiller_im3.bmp,1.6189684999999372,
_,posfs_RyanGosling_im25.bmp,RyanGosling,DanielCraig,DanielCraig,KeanuReeves,BradPitt,MattDamon,,,,,posfs_RyanGosling_im25.bmp,1.0393675000000258,
_,posfs_DanielRadcliffe_im8.bmp,DanielRadcliffe,MattDamon,MattDamon,PatrickDempsey,RyanReynolds,RobertDowneyJr,,,,,posfs_DanielRadcliffe_im8.bmp,1.8837045000000217,
_,posfs_OrlandoBloom_im2.bmp,OrlandoBloom,BenAffleck,BenAffleck,RyanGosling,MattDamon,RobertDowneyJr,,,,,posfs_OrlandoBloom_im2.bmp,2.541128200000003,
_,posfs_JustinTimberlake_im1.bmp,JustinTimberlake,BenAffleck,BenAffleck,ElijahWood,PatrickDempsey,HughJackman,,,,,posfs_JustinTimberlake_im1.bmp,2.172254800000246,
_,posfs_JustinTimberlake_im17.bmp,JustinTimberlake,MattDamon,MattDamon,LeonardoDiCaprio,ElijahWood,GeorgeClooney,,,,,posfs_JustinTimberlake_im17.bmp,1.2826610000001892,
_,posfs_RyanReynolds_im22.bmp,RyanReynolds,JustinTimberlake,JustinTimberlake,BradPitt,KeanuReeves,LeonardoDiCaprio,,,,,posfs_RyanReynolds_im22.bmp,1.4285436999998637,
_,posfs_MattDamon_im18.bmp,MattDamon,DanielCraig,DanielCraig,PatrickDempsey,DanielRadcliffe,ElijahWood,,,,,posfs_MattDamon_im18.bmp,2.0314668999999412,
_,posfs_RobertPattinson_im27.bmp,RobertPattinson,RyanReynolds,RyanReynolds,OrlandoBloom,MattDamon,KeanuReeves,,,,,posfs_RobertPattinson_im27.bmp,1.4037531999997555,
_,posfs_RyanReynolds_im16.bmp,RyanReynolds,OrlandoBloom,OrlandoBloom,RobertPattinson,RyanGosling,LeonardoDiCaprio,,,,,posfs_RyanReynolds_im16.bmp,2.872563700000228,
_,posfs_RobertDowneyJr_im4.bmp,RobertDowneyJr,RyanGosling,RyanGosling,BradPitt,HughJackman,ElijahWood,,,,,posfs_RobertDowneyJr_im4.bmp,1.5629555999998956,
_,posfs_OrlandoBloom_im30.bmp,OrlandoBloom,JustinTimberlake,JustinTimberlake,BradPitt,KeanuReeves,RyanGosling,,,,,posfs_OrlandoBloom_im30.bmp,2.833125000000109,
_,posfs_GeorgeClooney_im14.bmp,GeorgeClooney,KeanuReeves,KeanuReeves,LeonardoDiCaprio,PatrickDempsey,RobertPattinson,,,,,posfs_GeorgeClooney_im14.bmp,1.4766505000002326,
_,posfs_DanielCraig_im8.bmp,DanielCraig,RobertPattinson,RobertPattinson,BenAffleck,BenStiller,LeonardoDiCaprio,,,,,posfs_DanielCraig_im8.bmp,1.0092082999999548,
_,posfs_GeorgeClooney_im26.bmp,GeorgeClooney,LeonardoDiCaprio,LeonardoDiCaprio,RobertPattinson,BenAffleck,ElijahWood,,,,,posfs_GeorgeClooney_im26.bmp,1.9967544999999518,
_,posfs_RobertDowneyJr_im19.bmp,RobertDowneyJr,DanielRadcliffe,DanielRadcliffe,DanielCraig,PatrickDempsey,BenStiller,,,,,posfs_RobertDowneyJr_im19.bmp,1.378173600000082,
_,posfs_KeanuReeves_im1.bmp,KeanuReeves,LeonardoDiCaprio,LeonardoDiCaprio,BradPitt,JustinTimberlake,RobertPattinson,,,,,posfs_KeanuReeves_im1.bmp,1.7763742000001912,
_,posfs_DanielRadcliffe_im20.bmp,DanielRadcliffe,GeorgeClooney,GeorgeClooney,ElijahWood,RobertPattinson,KeanuReeves,,,,,posfs_DanielRadcliffe_im20.bmp,0.9356983000002401,
_,posfs_DanielCraig_im15.bmp,DanielCraig,BenAffleck,BenAffleck,MattDamon,BenStiller,HughJackman,,,,,posfs_DanielCraig_im15.bmp,2.2229882999999973,
_,posfs_JustinTimberlake_im18.bmp,JustinTimberlake,ElijahWood,ElijahWood,RyanGosling,DanielRadcliffe,LeonardoDiCaprio,,,,,posfs_JustinTimberlake_im18.bmp,1.8118934999997691,
_,posfs_RyanGosling_im30.bmp,RyanGosling,RyanReynolds,RyanReynolds,DanielCraig,PatrickDempsey,RobertPattinson,,,,,posfs_RyanGosling_im30.bmp,1.944792100000086,
_,posfs_RyanReynolds_im3.bmp,RyanReynolds,BenAffleck,BenAffleck,DanielCraig,MattDamon,OrlandoBloom,,,,,posfs_RyanReynolds_im3.bmp,2.1594374000001153,
_,posfs_GeorgeClooney_im15.bmp,GeorgeClooney,JustinTimberlake,JustinTimberlake,DanielRadcliffe,DanielCraig,BenAffleck,,,,,posfs_GeorgeClooney_im15.bmp,2.5263248000001113,
_,posfs_RobertDowneyJr_im11.bmp,RobertDowneyJr,HughJackman,HughJackman,RyanGosling,JustinTimberlake,BenStiller,,,,,posfs_RobertDowneyJr_im11.bmp,1.342793299999812,
_,posfs_ElijahWood_im12.bmp,ElijahWood,DanielRadcliffe,DanielRadcliffe,RobertDowneyJr,GeorgeClooney,BenStiller,,,,,posfs_ElijahWood_im12.bmp,0.8629590000000462,
_,posfs_BradPitt_im17.bmp,BradPitt,PatrickDempsey,PatrickDempsey,LeonardoDiCaprio,JustinTimberlake,HughJackman,,,,,posfs_BradPitt_im17.bmp,1.1536239000001842,
_,posfs_MattDamon_im9.bmp,MattDamon,BradPitt,BradPitt,HughJackman,DanielCraig,LeonardoDiCaprio,,,,,posfs_MattDamon_im9.bmp,1.8718521000000692,
_,posfs_RobertDowneyJr_im18.bmp,RobertDowneyJr,MattDamon,MattDamon,BradPitt,GeorgeClooney,JustinTimberlake,,,,,posfs_RobertDowneyJr_im18.bmp,1.2351745999999366,
_,posfs_PatrickDempsey_im9.bmp,PatrickDempsey,HughJackman,HughJackman,RobertDowneyJr,KeanuReeves,BenAffleck,,,,,posfs_PatrickDempsey_im9.bmp,2.8382723999998234,
_,posfs_ElijahWood_im23.bmp,ElijahWood,BenAffleck,BenAffleck,RyanGosling,BenStiller,RobertDowneyJr,,,,,posfs_ElijahWood_im23.bmp,2.09878290000006,
_,posfs_JustinTimberlake_im4.bmp,JustinTimberlake,BenStiller,BenStiller,RobertDowneyJr,OrlandoBloom,PatrickDempsey,,,,,posfs_JustinTimberlake_im4.bmp,2.1253771000001507,
_,posfs_BradPitt_im8.bmp,BradPitt,BenStiller,BenStiller,BenAffleck,OrlandoBloom,RobertPattinson,,,,,posfs_BradPitt_im8.bmp,1.901046899999983,
_,posfs_RobertPattinson_im30.bmp,RobertPattinson,DanielRadcliffe,DanielRadcliffe,DanielCraig,BenAffleck,JustinTimberlake,,,,,posfs_RobertPattinson_im30.bmp,2.126090799999929,
_,posfs_BenAffleck_im8.bmp,BenAffleck,OrlandoBloom,OrlandoBloom,RobertPattinson,RyanReynolds,MattDamon,,,,,posfs_BenAffleck_im8.bmp,1.4797696000000542,
_,posfs_BenStiller_im2.bmp,BenStiller,RobertDowneyJr,RobertDowneyJr,GeorgeClooney,DanielCraig,RyanReynolds,,,,,posfs_BenStiller_im2.bmp,1.2413967999996203,
_,posfs_HughJackman_im13.bmp,HughJackman,BradPitt,BradPitt,PatrickDempsey,MattDamon,RobertPattinson,,,,,posfs_HughJackman_im13.bmp,2.700949799999762,
_,posfs_LeonardoDiCaprio_im15.bmp,LeonardoDiCaprio,RobertPattinson,RobertPattinson,DanielCraig,BradPitt,DanielRadcliffe,,,,,posfs_LeonardoDiCaprio_im15.bmp,1.670600800000102,
_,posfs_DanielRadcliffe_im1.bmp,DanielRadcliffe,BradPitt,BradPitt,LeonardoDiCaprio,BenStiller,RobertPattinson,,,,,posfs_DanielRadcliffe_im1.bmp,1.601141799999823,
_,posfs_PatrickDempsey_im14.bmp,PatrickDempsey,KeanuReeves,KeanuReeves,RobertDowneyJr,HughJackman,RyanReynolds,,,,,posfs_PatrickDempsey_im14.bmp,2.0388146999998753,
_,posfs_BradPitt_im6.bmp,BradPitt,RyanGosling,RyanGosling,RobertDowneyJr,OrlandoBloom,HughJackman,,,,,posfs_BradPitt_im6.bmp,1.2509245000001101,
_,posfs_DanielCraig_im20.bmp,DanielCraig,BenStiller,BenStiller,BradPitt,LeonardoDiCaprio,OrlandoBloom,,,,,posfs_DanielCraig_im20.bmp,1.9176501000001736,
_,posfs_KeanuReeves_im10.bmp,KeanuReeves,MattDamon,MattDamon,OrlandoBloom,PatrickDempsey,LeonardoDiCaprio,,,,,posfs_KeanuReeves_im10.bmp,1.1342967999999019,
_,posfs_LeonardoDiCaprio_im24.bmp,LeonardoDiCaprio,DanielCraig,DanielCraig,BradPitt,PatrickDempsey,RyanGosling,,,,,posfs_LeonardoDiCaprio_im24.bmp,1.7175308999999288,
_,posfs_RyanGosling_im3.bmp,RyanGosling,RobertPattinson,RobertPattinson,PatrickDempsey,DanielCraig,JustinTimberlake,,,,,posfs_RyanGosling_im3.bmp,1.5914504000002125,
_,posfs_LeonardoDiCaprio_im29.bmp,LeonardoDiCaprio,RobertDowneyJr,RobertDowneyJr,PatrickDempsey,OrlandoBloom,DanielCraig,,,,,posfs_LeonardoDiCaprio_im29.bmp,1.3731090000001132,
_,posfs_BenStiller_im16.bmp,BenStiller,KeanuReeves,KeanuReeves,MattDamon,JustinTimberlake,BenAffleck,,,,,posfs_BenStiller_im16.bmp,1.0509683000000223,
_,posfs_LeonardoDiCaprio_im10.bmp,LeonardoDiCaprio,BenStiller,BenStiller,RyanGosling,PatrickDempsey,RobertPattinson,,,,,posfs_LeonardoDiCaprio_im10.bmp,1.5664437999998881,
_,posfs_BradPitt_im14.bmp,BradPitt,MattDamon,MattDamon,DanielCraig,OrlandoBloom,LeonardoDiCaprio,,,,,posfs_BradPitt_im14.bmp,1.4839887000002818,
_,posfs_PatrickDempsey_im16.bmp,PatrickDempsey,BradPitt,BradPitt,DanielCraig,DanielRadcliffe,LeonardoDiCaprio,,,,,posfs_PatrickDempsey_im16.bmp,1.4862323000002107,
_,posfs_RyanReynolds_im17.bmp,RyanReynolds,PatrickDempsey,PatrickDempsey,ElijahWood,BenStiller,BradPitt,,,,,posfs_RyanReynolds_im17.bmp,1.2805803000001106,
_,posfs_HughJackman_im18.bmp,HughJackman,LeonardoDiCaprio,LeonardoDiCaprio,BradPitt,RyanGosling,DanielRadcliffe,,,,,posfs_HughJackman_im18.bmp,3.2747497000000294,
_,posfs_DanielCraig_im7.bmp,DanielCraig,BenAffleck,BenAffleck,KeanuReeves,PatrickDempsey,DanielRadcliffe,,,,,posfs_DanielCraig_im7.bmp,1.8696170999996866,
_,posfs_MattDamon_im16.bmp,MattDamon,LeonardoDiCaprio,LeonardoDiCaprio,RyanGosling,KeanuReeves,BenStiller,,,,,posfs_MattDamon_im16.bmp,1.1348226999998587,
_,posfs_BenAffleck_im24.bmp,BenAffleck,OrlandoBloom,OrlandoBloom,DanielRadcliffe,MattDamon,GeorgeClooney,,,,,posfs_BenAffleck_im24.bmp,1.383051499999965,
_,posfs_OrlandoBloom_im3.bmp,OrlandoBloom,RobertPattinson,RobertPattinson,RyanReynolds,RyanGosling,RobertDowneyJr,,,,,posfs_OrlandoBloom_im3.bmp,1.709778500000084,
_,posfs_HughJackman_im20.bmp,HughJackman,JustinTimberlake,JustinTimberlake,RyanReynolds,DanielCraig,OrlandoBloom,,,,,posfs_HughJackman_im20.bmp,1.8858783000000585,
_,posfs_ElijahWood_im19.bmp,ElijahWood,PatrickDempsey,PatrickDempsey,RyanReynolds,BenAffleck,OrlandoBloom,,,,,posfs_ElijahWood_im19.bmp,1.2478046000001086,
_,posfs_RobertPattinson_im8.bmp,RobertPattinson,DanielRadcliffe,DanielRadcliffe,OrlandoBloom,MattDamon,RyanGosling,,,,,posfs_RobertPattinson_im8.bmp,1.9471646000001783,
_,posfs_MattDamon_im24.bmp,MattDamon,RobertDowneyJr,RobertDowneyJr,BradPitt,HughJackman,RobertPattinson,,,,,posfs_MattDamon_im24.bmp,1.3626850000000559,
_,posfs_HughJackman_im21.bmp,HughJackman,OrlandoBloom,OrlandoBloom,GeorgeClooney,RyanGosling,BradPitt,,,,,posfs_HughJackman_im21.bmp,1.9856912999998713,
_,posfs_ElijahWood_im18.bmp,ElijahWood,PatrickDempsey,PatrickDempsey,JustinTimberlake,RobertPattinson,RobertDowneyJr,,,,,posfs_ElijahWood_im18.bmp,1.9440330000002177,
_,posfs_BenAffleck_im21.bmp,BenAffleck,RyanGosling,RyanGosling,GeorgeClooney,ElijahWood,BradPitt,,,,,posfs_BenAffleck_im21.bmp,2.127592999999706,
_,posfs_KeanuReeves_im8.bmp,KeanuReeves,BenAffleck,BenAffleck,LeonardoDiCaprio,RyanGosling,GeorgeClooney,,,,,posfs_KeanuReeves_im8.bmp,1.0244061000003057,
_,posfs_PatrickDempsey_im8.bmp,PatrickDempsey,BenStiller,BenStiller,MattDamon,BradPitt,RyanGosling,,,,,posfs_PatrickDempsey_im8.bmp,1.284313299999667,
_,posfs_RobertPattinson_im4.bmp,RobertPattinson,DanielRadcliffe,DanielRadcliffe,RyanGosling,MattDamon,ElijahWood,,,,,posfs_RobertPattinson_im4.bmp,0.9423472999997102,
_,posfs_GeorgeClooney_im23.bmp,GeorgeClooney,BenAffleck,BenAffleck,MattDamon,OrlandoBloom,KeanuReeves,,,,,posfs_GeorgeClooney_im23.bmp,1.9586716000003435,
_,posfs_KeanuReeves_im2.bmp,KeanuReeves,HughJackman,HughJackman,GeorgeClooney,RobertPattinson,BenStiller,,,,,posfs_KeanuReeves_im2.bmp,0.9167980999995962,
_,posfs_OrlandoBloom_im19.bmp,OrlandoBloom,ElijahWood,ElijahWood,DanielCraig,PatrickDempsey,LeonardoDiCaprio,,,,,posfs_OrlandoBloom_im19.bmp,0.8927866999997605,
VIRE0605,train,pos,fs,posfs_id4_im20.bmp_posfs_id4_im7.bmp,['Im_HughJackman.png', 'Im_DanielCraig.png', 'Im_ElijahWood.png', 'Im_LeonardoDiCaprio.png', 'Im_DanielRadcliffe.png', 'Im_RyanReynolds.png', 'Im_RyanGosling.png', 'Im_BenAffleck.png', 'Im_BenStiller.png', 'Im_MattDamon.png'],same,1,1.4833914999999251,1,0,
VIRE0605,train,pos,fs,posfs_id1_im4.bmp_posfs_id21_im22.bmp,['Im_HughJackman.png', 'Im_DanielCraig.png', 'Im_ElijahWood.png', 'Im_LeonardoDiCaprio.png', 'Im_DanielRadcliffe.png', 'Im_RyanReynolds.png', 'Im_RyanGosling.png', 'Im_BenAffleck.png', 'Im_BenStiller.png', 'Im_MattDamon.png'],diff,1,0.9999556999996457,2,0,
VIRE0605,train,pos,fs,posfs_id21_im22.bmp_posfs_id14_im16.bmp,['Im_HughJackman.png', 'Im_DanielCraig.png', 'Im_ElijahWood.png', 'Im_LeonardoDiCaprio.png', 'Im_DanielRadcliffe.png', 'Im_RyanReynolds.png', 'Im_RyanGosling.png', 'Im_BenAffleck.png', 'Im_BenStiller.png', 'Im_MattDamon.png'],diff,1,1.091957999999977,3,0,
VIRE0605,train,pos,fs,posfs_id21_im16.bmp_posfs_id21_im17.bmp,['Im_HughJackman.png', 'Im_DanielCraig.png', 'Im_ElijahWood.png', 'Im_LeonardoDiCaprio.png', 'Im_DanielRadcliffe.png', 'Im_RyanReynolds.png', 'Im_RyanGosling.png', 'Im_BenAffleck.png', 'Im_BenStiller.png', 'Im_MattDamon.png'],same,1,0.9081431000004159,4,0,
VIRE0605,train,pos,fs,posfs_id8_im13.bmp_posfs_id8_im21.bmp,['Im_HughJackman.png', 'Im_DanielCraig.png', 'Im_ElijahWood.png', 'Im_LeonardoDiCaprio.png', 'Im_DanielRadcliffe.png', 'Im_RyanReynolds.png', 'Im_RyanGosling.png', 'Im_BenAffleck.png', 'Im_BenStiller.png', 'Im_MattDamon.png'],same,1,0.8250817000002826,5,0,
VIRE0605,train,pos,fs,posfs_id8_im20.bmp_posfs_id2_im16.bmp,['Im_HughJackman.png', 'Im_DanielCraig.png', 'Im_ElijahWood.png', 'Im_LeonardoDiCaprio.png', 'Im_DanielRadcliffe.png', 'Im_RyanReynolds.png', 'Im_RyanGosling.png', 'Im_BenAffleck.png', 'Im_BenStiller.png', 'Im_MattDamon.png'],diff,1,0.5164891999997963,6,0,
VIRE0605,train,pos,fs,posfs_id5_im1.bmp_posfs_id21_im16.bmp,['Im_HughJackman.png', 'Im_DanielCraig.png', 'Im_ElijahWood.png', 'Im_LeonardoDiCaprio.png', 'Im_DanielRadcliffe.png', 'Im_RyanReynolds.png', 'Im_RyanGosling.png', 'Im_BenAffleck.png', 'Im_BenStiller.png', 'Im_MattDamon.png'],diff,1,0.8999251000000186,7,0,
VIRE0605,train,pos,fs,posfs_id6_im12.bmp_posfs_id6_im19.bmp,['Im_HughJackman.png', 'Im_DanielCraig.png', 'Im_ElijahWood.png', 'Im_LeonardoDiCaprio.png', 'Im_DanielRadcliffe.png', 'Im_RyanReynolds.png', 'Im_RyanGosling.png', 'Im_BenAffleck.png', 'Im_BenStiller.png', 'Im_MattDamon.png'],same,1,0.7417752000001201,8,0,
VIRE0605,train,pos,fs,posfs_id20_im12.bmp_posfs_id14_im18.bmp,['Im_HughJackman.png', 'Im_DanielCraig.png', 'Im_ElijahWood.png', 'Im_LeonardoDiCaprio.png', 'Im_DanielRadcliffe.png', 'Im_RyanReynolds.png', 'Im_RyanGosling.png', 'Im_BenAffleck.png', 'Im_BenStiller.png', 'Im_MattDamon.png'],diff,1,0.683152400000381,9,0,
VIRE0605,train,pos,fs,posfs_id8_im21.bmp_posfs_id21_im17.bmp,['Im_HughJackman.png', 'Im_DanielCraig.png', 'Im_ElijahWood.png', 'Im_LeonardoDiCaprio.png', 'Im_DanielRadcliffe.png', 'Im_RyanReynolds.png', 'Im_RyanGosling.png', 'Im_BenAffleck.png', 'Im_BenStiller.png', 'Im_MattDamon.png'],diff,1,0.6331374999999753,10,0,
VIRE0605,train,pos,fs,posfs_id2_im2.bmp_posfs_id6_im19.bmp,['Im_HughJackman.png', 'Im_DanielCraig.png', 'Im_ElijahWood.png', 'Im_LeonardoDiCaprio.png', 'Im_DanielRadcliffe.png', 'Im_RyanReynolds.png', 'Im_RyanGosling.png', 'Im_BenAffleck.png', 'Im_BenStiller.png', 'Im_MattDamon.png'],diff,1,0.6416642999997748,11,0,
VIRE0605,train,pos,fs,posfs_id20_im30.bmp_posfs_id20_im12.bmp,['Im_HughJackman.png', 'Im_DanielCraig.png', 'Im_ElijahWood.png', 'Im_LeonardoDiCaprio.png', 'Im_DanielRadcliffe.png', 'Im_RyanReynolds.png', 'Im_RyanGosling.png', 'Im_BenAffleck.png', 'Im_BenStiller.png', 'Im_MattDamon.png'],same,1,0.6581270000001496,12,0,
VIRE0605,train,pos,fs,posfs_id2_im16.bmp_posfs_id1_im21.bmp,['Im_HughJackman.png', 'Im_DanielCraig.png', 'Im_ElijahWood.png', 'Im_LeonardoDiCaprio.png', 'Im_DanielRadcliffe.png', 'Im_RyanReynolds.png', 'Im_RyanGosling.png', 'Im_BenAffleck.png', 'Im_BenStiller.png', 'Im_MattDamon.png'],diff,1,0.975191999999879,13,0,
VIRE0605,train,pos,fs,posfs_id8_im21.bmp_posfs_id4_im7.bmp,['Im_HughJackman.png', 'Im_DanielCraig.png', 'Im_ElijahWood.png', 'Im_LeonardoDiCaprio.png', 'Im_DanielRadcliffe.png', 'Im_RyanReynolds.png', 'Im_RyanGosling.png', 'Im_BenAffleck.png', 'Im_BenStiller.png', 'Im_MattDamon.png'],diff,1,0.5749766000003547,14,0,
VIRE0605,train,pos,fs,posfs_id6_im19.bmp_posfs_id6_im18.bmp,['Im_HughJackman.png', 'Im_DanielCraig.png', 'Im_ElijahWood.png', 'Im_LeonardoDiCaprio.png', 'Im_DanielRadcliffe.png', 'Im_RyanReynolds.png', 'Im_RyanGosling.png', 'Im_BenAffleck.png', 'Im_BenStiller.png', 'Im_MattDamon.png'],same,1,0.7000985000004221,15,0,
VIRE0605,train,pos,fs,posfs_id21_im17.bmp_posfs_id21_im22.bmp,['Im_HughJackman.png', 'Im_DanielCraig.png', 'Im_ElijahWood.png', 'Im_LeonardoDiCaprio.png', 'Im_DanielRadcliffe.png', 'Im_RyanReynolds.png', 'Im_RyanGosling.png', 'Im_BenAffleck.png', 'Im_BenStiller.png', 'Im_MattDamon.png'],same,1,0.6585463000001255,16,0,
VIRE0605,train,pos,fs,posfs_id2_im3.bmp_posfs_id13_im29.bmp,['Im_HughJackman.png', 'Im_DanielCraig.png', 'Im_ElijahWood.png', 'Im_LeonardoDiCaprio.png', 'Im_DanielRadcliffe.png', 'Im_RyanReynolds.png', 'Im_RyanGosling.png', 'Im_BenAffleck.png', 'Im_BenStiller.png', 'Im_MattDamon.png'],diff,1,0.6749982999999702,17,0,
VIRE0605,train,pos,fs,posfs_id4_im15.bmp_posfs_id4_im20.bmp,['Im_HughJackman.png', 'Im_DanielCraig.png', 'Im_ElijahWood.png', 'Im_LeonardoDiCaprio.png', 'Im_DanielRadcliffe.png', 'Im_RyanReynolds.png', 'Im_RyanGosling.png', 'Im_BenAffleck.png', 'Im_BenStiller.png', 'Im_MattDamon.png'],same,1,0.6998499999999694,18,0,
VIRE0605,train,pos,fs,posfs_id2_im16.bmp_posfs_id2_im3.bmp,['Im_HughJackman.png', 'Im_DanielCraig.png', 'Im_ElijahWood.png', 'Im_LeonardoDiCaprio.png', 'Im_DanielRadcliffe.png', 'Im_RyanReynolds.png', 'Im_RyanGosling.png', 'Im_BenAffleck.png', 'Im_BenStiller.png', 'Im_MattDamon.png'],same,1,0.7082694000000629,19,0,
VIRE0605,train,pos,fs,posfs_id5_im20.bmp_posfs_id20_im3.bmp,['Im_HughJackman.png', 'Im_DanielCraig.png', 'Im_ElijahWood.png', 'Im_LeonardoDiCaprio.png', 'Im_DanielRadcliffe.png', 'Im_RyanReynolds.png', 'Im_RyanGosling.png', 'Im_BenAffleck.png', 'Im_BenStiller.png', 'Im_MattDamon.png'],diff,1,0.6831194999999752,20,0,
VIRE0605,train,pos,fs,posfs_id5_im20.bmp_posfs_id5_im1.bmp,['Im_HughJackman.png', 'Im_DanielCraig.png', 'Im_ElijahWood.png', 'Im_LeonardoDiCaprio.png', 'Im_DanielRadcliffe.png', 'Im_RyanReynolds.png', 'Im_RyanGosling.png', 'Im_BenAffleck.png', 'Im_BenStiller.png', 'Im_MattDamon.png'],same,1,0.6836106000000655,1,0,
VIRE0605,train,inv,fs,posfs_id13_im29.bmp_posfs_id2_im3.bmp,['Im_HughJackman.png', 'Im_DanielCraig.png', 'Im_ElijahWood.png', 'Im_LeonardoDiCaprio.png', 'Im_DanielRadcliffe.png', 'Im_RyanReynolds.png', 'Im_RyanGosling.png', 'Im_BenAffleck.png', 'Im_BenStiller.png', 'Im_MattDamon.png'],diff,1,0.4501470000000154,2,0,
VIRE0605,train,neg,fs,negfs_id6_im18.bmp_negfs_id1_im24.bmp,['Im_HughJackman.png', 'Im_DanielCraig.png', 'Im_ElijahWood.png', 'Im_LeonardoDiCaprio.png', 'Im_DanielRadcliffe.png', 'Im_RyanReynolds.png', 'Im_RyanGosling.png', 'Im_BenAffleck.png', 'Im_BenStiller.png', 'Im_MattDamon.png'],diff,1,0.40865759999996953,3,0,
VIRE0605,train,neg,fs,negfs_id14_im24.bmp_negfs_id4_im15.bmp,['Im_HughJackman.png', 'Im_DanielCraig.png', 'Im_ElijahWood.png', 'Im_LeonardoDiCaprio.png', 'Im_DanielRadcliffe.png', 'Im_RyanReynolds.png', 'Im_RyanGosling.png', 'Im_BenAffleck.png', 'Im_BenStiller.png', 'Im_MattDamon.png'],diff,1,0.400107499999649,4,0,
VIRE0605,train,inv,fs,posfs_id1_im4.bmp_posfs_id21_im22.bmp,['Im_HughJackman.png', 'Im_DanielCraig.png', 'Im_ElijahWood.png', 'Im_LeonardoDiCaprio.png', 'Im_DanielRadcliffe.png', 'Im_RyanReynolds.png', 'Im_RyanGosling.png', 'Im_BenAffleck.png', 'Im_BenStiller.png', 'Im_MattDamon.png'],diff,1,0.4082158999999592,5,0,
VIRE0605,train,pos,fs,posfs_id14_im18.bmp_posfs_id14_im16.bmp,['Im_HughJackman.png', 'Im_DanielCraig.png', 'Im_ElijahWood.png', 'Im_LeonardoDiCaprio.png', 'Im_DanielRadcliffe.png', 'Im_RyanReynolds.png', 'Im_RyanGosling.png', 'Im_BenAffleck.png', 'Im_BenStiller.png', 'Im_MattDamon.png'],same,1,0.6251389000003655,6,0,
VIRE0605,train,pos,fs,posfs_id4_im7.bmp_posfs_id4_im20.bmp,['Im_HughJackman.png', 'Im_DanielCraig.png', 'Im_ElijahWood.png', 'Im_LeonardoDiCaprio.png', 'Im_DanielRadcliffe.png', 'Im_RyanReynolds.png', 'Im_RyanGosling.png', 'Im_BenAffleck.png', 'Im_BenStiller.png', 'Im_MattDamon.png'],same,1,0.4084282999997413,7,0,
VIRE0605,train,inv,fs,posfs_id5_im1.bmp_posfs_id21_im16.bmp,['Im_HughJackman.png', 'Im_DanielCraig.png', 'Im_ElijahWood.png', 'Im_LeonardoDiCaprio.png', 'Im_DanielRadcliffe.png', 'Im_RyanReynolds.png', 'Im_RyanGosling.png', 'Im_BenAffleck.png', 'Im_BenStiller.png', 'Im_MattDamon.png'],diff,1,0.4000968999998804,8,0,
VIRE0605,train,inv,fs,posfs_id1_im4.bmp_posfs_id1_im21.bmp,['Im_HughJackman.png', 'Im_DanielCraig.png', 'Im_ElijahWood.png', 'Im_LeonardoDiCaprio.png', 'Im_DanielRadcliffe.png', 'Im_RyanReynolds.png', 'Im_RyanGosling.png', 'Im_BenAffleck.png', 'Im_BenStiller.png', 'Im_MattDamon.png'],same,1,0.42528700000002573,9,0,
VIRE0605,train,inv,fs,posfs_id8_im21.bmp_posfs_id4_im7.bmp,['Im_HughJackman.png', 'Im_DanielCraig.png', 'Im_ElijahWood.png', 'Im_LeonardoDiCaprio.png', 'Im_DanielRadcliffe.png', 'Im_RyanReynolds.png', 'Im_RyanGosling.png', 'Im_BenAffleck.png', 'Im_BenStiller.png', 'Im_MattDamon.png'],diff,1,0.4000826000001325,10,0,
VIRE0605,train,neg,fs,negfs_id5_im20.bmp_negfs_id20_im3.bmp,['Im_HughJackman.png', 'Im_DanielCraig.png', 'Im_ElijahWood.png', 'Im_LeonardoDiCaprio.png', 'Im_DanielRadcliffe.png', 'Im_RyanReynolds.png', 'Im_RyanGosling.png', 'Im_BenAffleck.png', 'Im_BenStiller.png', 'Im_MattDamon.png'],diff,1,0.4004261999998562,11,0,
VIRE0605,train,pos,fs,posfs_id21_im22.bmp_posfs_id21_im16.bmp,['Im_HughJackman.png', 'Im_DanielCraig.png', 'Im_ElijahWood.png', 'Im_LeonardoDiCaprio.png', 'Im_DanielRadcliffe.png', 'Im_RyanReynolds.png', 'Im_RyanGosling.png', 'Im_BenAffleck.png', 'Im_BenStiller.png', 'Im_MattDamon.png'],same,1,0.4001054000000295,12,0,
VIRE0605,train,neg,fs,negfs_id13_im10.bmp_negfs_id13_im29.bmp,['Im_HughJackman.png', 'Im_DanielCraig.png', 'Im_ElijahWood.png', 'Im_LeonardoDiCaprio.png', 'Im_DanielRadcliffe.png', 'Im_RyanReynolds.png', 'Im_RyanGosling.png', 'Im_BenAffleck.png', 'Im_BenStiller.png', 'Im_MattDamon.png'],same,1,0.4250761999996939,13,0,
VIRE0605,train,neg,fs,negfs_id6_im18.bmp_negfs_id6_im12.bmp,['Im_HughJackman.png', 'Im_DanielCraig.png', 'Im_ElijahWood.png', 'Im_LeonardoDiCaprio.png', 'Im_DanielRadcliffe.png', 'Im_RyanReynolds.png', 'Im_RyanGosling.png', 'Im_BenAffleck.png', 'Im_BenStiller.png', 'Im_MattDamon.png'],same,1,0.4082562999997208,14,0,
VIRE0605,train,neg,fs,negfs_id20_im12.bmp_negfs_id20_im3.bmp,['Im_HughJackman.png', 'Im_DanielCraig.png', 'Im_ElijahWood.png', 'Im_LeonardoDiCaprio.png', 'Im_DanielRadcliffe.png', 'Im_RyanReynolds.png', 'Im_RyanGosling.png', 'Im_BenAffleck.png', 'Im_BenStiller.png', 'Im_MattDamon.png'],same,1,0.4083663000001252,15,0,
VIRE0605,train,pos,fs,posfs_id13_im29.bmp_posfs_id2_im3.bmp,['Im_HughJackman.png', 'Im_DanielCraig.png', 'Im_ElijahWood.png', 'Im_LeonardoDiCaprio.png', 'Im_DanielRadcliffe.png', 'Im_RyanReynolds.png', 'Im_RyanGosling.png', 'Im_BenAffleck.png', 'Im_BenStiller.png', 'Im_MattDamon.png'],diff,1,0.4002642000000378,16,0,
VIRE0605,train,pos,fs,posfs_id21_im16.bmp_posfs_id5_im1.bmp,['Im_HughJackman.png', 'Im_DanielCraig.png', 'Im_ElijahWood.png', 'Im_LeonardoDiCaprio.png', 'Im_DanielRadcliffe.png', 'Im_RyanReynolds.png', 'Im_RyanGosling.png', 'Im_BenAffleck.png', 'Im_BenStiller.png', 'Im_MattDamon.png'],diff,1,0.4335351999998238,17,0,
VIRE0605,train,pos,fs,posfs_id13_im15.bmp_posfs_id4_im20.bmp,['Im_HughJackman.png', 'Im_DanielCraig.png', 'Im_ElijahWood.png', 'Im_LeonardoDiCaprio.png', 'Im_DanielRadcliffe.png', 'Im_RyanReynolds.png', 'Im_RyanGosling.png', 'Im_BenAffleck.png', 'Im_BenStiller.png', 'Im_MattDamon.png'],diff,1,0.40844240000024,18,0,
VIRE0605,train,pos,fs,posfs_id2_im3.bmp_posfs_id5_im10.bmp,['Im_HughJackman.png', 'Im_DanielCraig.png', 'Im_ElijahWood.png', 'Im_LeonardoDiCaprio.png', 'Im_DanielRadcliffe.png', 'Im_RyanReynolds.png', 'Im_RyanGosling.png', 'Im_BenAffleck.png', 'Im_BenStiller.png', 'Im_MattDamon.png'],diff,1,0.4084345999999641,19,0,
VIRE0605,train,inv,fs,posfs_id2_im16.bmp_posfs_id2_im3.bmp,['Im_HughJackman.png', 'Im_DanielCraig.png', 'Im_ElijahWood.png', 'Im_LeonardoDiCaprio.png', 'Im_DanielRadcliffe.png', 'Im_RyanReynolds.png', 'Im_RyanGosling.png', 'Im_BenAffleck.png', 'Im_BenStiller.png', 'Im_MattDamon.png'],same,1,0.6585343000001558,20,0,
VIRE0605,train,neg,150,neg150_id21_im22.bmp_neg150_id21_im17.bmp,['Im_HughJackman.png', 'Im_DanielCraig.png', 'Im_ElijahWood.png', 'Im_LeonardoDiCaprio.png', 'Im_DanielRadcliffe.png', 'Im_RyanReynolds.png', 'Im_RyanGosling.png', 'Im_BenAffleck.png', 'Im_BenStiller.png', 'Im_MattDamon.png'],same,1,0.44988859999966735,1,0,
VIRE0605,train,neg,fs,negfs_id2_im2.bmp_negfs_id6_im19.bmp,['Im_HughJackman.png', 'Im_DanielCraig.png', 'Im_ElijahWood.png', 'Im_LeonardoDiCaprio.png', 'Im_DanielRadcliffe.png', 'Im_RyanReynolds.png', 'Im_RyanGosling.png', 'Im_BenAffleck.png', 'Im_BenStiller.png', 'Im_MattDamon.png'],diff,1,0.41706269999986034,2,0,
VIRE0605,train,neg,fs,negfs_id5_im20.bmp_negfs_id5_im1.bmp,['Im_HughJackman.png', 'Im_DanielCraig.png', 'Im_ElijahWood.png', 'Im_LeonardoDiCaprio.png', 'Im_DanielRadcliffe.png', 'Im_RyanReynolds.png', 'Im_RyanGosling.png', 'Im_BenAffleck.png', 'Im_BenStiller.png', 'Im_MattDamon.png'],same,1,1.5168034999996962,3,0,
VIRE0605,train,neg,0,neg0_id13_im29.bmp_neg0_id2_im3.bmp,['Im_HughJackman.png', 'Im_DanielCraig.png', 'Im_ElijahWood.png', 'Im_LeonardoDiCaprio.png', 'Im_DanielRadcliffe.png', 'Im_RyanReynolds.png', 'Im_RyanGosling.png', 'Im_BenAffleck.png', 'Im_BenStiller.png', 'Im_MattDamon.png'],diff,1,0.4166517000003296,4,0,
VIRE0605,train,neg,0,neg0_id1_im24.bmp_neg0_id14_im16.bmp,['Im_HughJackman.png', 'Im_DanielCraig.png', 'Im_ElijahWood.png', 'Im_LeonardoDiCaprio.png', 'Im_DanielRadcliffe.png', 'Im_RyanReynolds.png', 'Im_RyanGosling.png', 'Im_BenAffleck.png', 'Im_BenStiller.png', 'Im_MattDamon.png'],same,0,0.48350390000041443,4,0,
VIRE0605,train,neg,150,neg150_id20_im30.bmp_neg150_id20_im3.bmp,['Im_HughJackman.png', 'Im_DanielCraig.png', 'Im_ElijahWood.png', 'Im_LeonardoDiCaprio.png', 'Im_DanielRadcliffe.png', 'Im_RyanReynolds.png', 'Im_RyanGosling.png', 'Im_BenAffleck.png', 'Im_BenStiller.png', 'Im_MattDamon.png'],same,1,0.41672680000010587,5,0,
VIRE0605,train,neg,90,neg90_id2_im2.bmp_neg90_id2_im3.bmp,['Im_HughJackman.png', 'Im_DanielCraig.png', 'Im_ElijahWood.png', 'Im_LeonardoDiCaprio.png', 'Im_DanielRadcliffe.png', 'Im_RyanReynolds.png', 'Im_RyanGosling.png', 'Im_BenAffleck.png', 'Im_BenStiller.png', 'Im_MattDamon.png'],diff,0,0.7087336000004143,5,0,
VIRE0605,train,neg,60,neg60_id14_im24.bmp_neg60_id4_im15.bmp,['Im_HughJackman.png', 'Im_DanielCraig.png', 'Im_ElijahWood.png', 'Im_LeonardoDiCaprio.png', 'Im_DanielRadcliffe.png', 'Im_RyanReynolds.png', 'Im_RyanGosling.png', 'Im_BenAffleck.png', 'Im_BenStiller.png', 'Im_MattDamon.png'],diff,1,0.44998900000018693,6,0,
VIRE0605,train,neg,90,neg90_id2_im3.bmp_neg90_id13_im29.bmp,['Im_HughJackman.png', 'Im_DanielCraig.png', 'Im_ElijahWood.png', 'Im_LeonardoDiCaprio.png', 'Im_DanielRadcliffe.png', 'Im_RyanReynolds.png', 'Im_RyanGosling.png', 'Im_BenAffleck.png', 'Im_BenStiller.png', 'Im_MattDamon.png'],diff,1,0.4166554999997061,7,0,
VIRE0605,train,neg,30,neg30_id13_im29.bmp_neg30_id14_im24.bmp,['Im_HughJackman.png', 'Im_DanielCraig.png', 'Im_ElijahWood.png', 'Im_LeonardoDiCaprio.png', 'Im_DanielRadcliffe.png', 'Im_RyanReynolds.png', 'Im_RyanGosling.png', 'Im_BenAffleck.png', 'Im_BenStiller.png', 'Im_MattDamon.png'],diff,1,0.5083809000002475,8,0,
VIRE0605,train,neg,120,neg120_id20_im3.bmp_neg120_id13_im15.bmp,['Im_HughJackman.png', 'Im_DanielCraig.png', 'Im_ElijahWood.png', 'Im_LeonardoDiCaprio.png', 'Im_DanielRadcliffe.png', 'Im_RyanReynolds.png', 'Im_RyanGosling.png', 'Im_BenAffleck.png', 'Im_BenStiller.png', 'Im_MattDamon.png'],diff,1,0.4334506000000147,9,0,
VIRE0605,train,neg,60,neg60_id21_im22.bmp_neg60_id14_im16.bmp,['Im_HughJackman.png', 'Im_DanielCraig.png', 'Im_ElijahWood.png', 'Im_LeonardoDiCaprio.png', 'Im_DanielRadcliffe.png', 'Im_RyanReynolds.png', 'Im_RyanGosling.png', 'Im_BenAffleck.png', 'Im_BenStiller.png', 'Im_MattDamon.png'],diff,1,0.5835858000000371,10,0,
VIRE0605,train,neg,120,neg120_id2_im3.bmp_neg120_id2_im2.bmp,['Im_HughJackman.png', 'Im_DanielCraig.png', 'Im_ElijahWood.png', 'Im_LeonardoDiCaprio.png', 'Im_DanielRadcliffe.png', 'Im_RyanReynolds.png', 'Im_RyanGosling.png', 'Im_BenAffleck.png', 'Im_BenStiller.png', 'Im_MattDamon.png'],same,1,0.6587517999996635,11,0,
VIRE0605,train,neg,30,neg30_id2_im2.bmp_neg30_id6_im18.bmp,['Im_HughJackman.png', 'Im_DanielCraig.png', 'Im_ElijahWood.png', 'Im_LeonardoDiCaprio.png', 'Im_DanielRadcliffe.png', 'Im_RyanReynolds.png', 'Im_RyanGosling.png', 'Im_BenAffleck.png', 'Im_BenStiller.png', 'Im_MattDamon.png'],diff,1,0.41683839999996053,12,0,
VIRE0605,train,pos,30,pos30_id8_im21.bmp_pos30_id21_im17.bmp,['Im_HughJackman.png', 'Im_DanielCraig.png', 'Im_ElijahWood.png', 'Im_LeonardoDiCaprio.png', 'Im_DanielRadcliffe.png', 'Im_RyanReynolds.png', 'Im_RyanGosling.png', 'Im_BenAffleck.png', 'Im_BenStiller.png', 'Im_MattDamon.png'],diff,1,0.4167182999999568,13,0,
VIRE0605,train,pos,0,pos0_id2_im3.bmp_pos0_id2_im16.bmp,['Im_HughJackman.png', 'Im_DanielCraig.png', 'Im_ElijahWood.png', 'Im_LeonardoDiCaprio.png', 'Im_DanielRadcliffe.png', 'Im_RyanReynolds.png', 'Im_RyanGosling.png', 'Im_BenAffleck.png', 'Im_BenStiller.png', 'Im_MattDamon.png'],diff,0,0.4167069000000083,13,0,
VIRE0605,train,pos,fs,posfs_id4_im20.bmp_posfs_id4_im15.bmp,['Im_HughJackman.png', 'Im_DanielCraig.png', 'Im_ElijahWood.png', 'Im_LeonardoDiCaprio.png', 'Im_DanielRadcliffe.png', 'Im_RyanReynolds.png', 'Im_RyanGosling.png', 'Im_BenAffleck.png', 'Im_BenStiller.png', 'Im_MattDamon.png'],same,1,0.41677590000017517,14,0,
VIRE0605,train,pos,90,pos90_id2_im3.bmp_pos90_id2_im2.bmp,['Im_HughJackman.png', 'Im_DanielCraig.png', 'Im_ElijahWood.png', 'Im_LeonardoDiCaprio.png', 'Im_DanielRadcliffe.png', 'Im_RyanReynolds.png', 'Im_RyanGosling.png', 'Im_BenAffleck.png', 'Im_BenStiller.png', 'Im_MattDamon.png'],same,1,0.7665710999999646,15,0,
VIRE0605,train,pos,60,pos60_id2_im2.bmp_pos60_id6_im18.bmp,['Im_HughJackman.png', 'Im_DanielCraig.png', 'Im_ElijahWood.png', 'Im_LeonardoDiCaprio.png', 'Im_DanielRadcliffe.png', 'Im_RyanReynolds.png', 'Im_RyanGosling.png', 'Im_BenAffleck.png', 'Im_BenStiller.png', 'Im_MattDamon.png'],diff,1,0.4166230999999243,16,0,
VIRE0605,train,pos,120,pos120_id14_im24.bmp_pos120_id4_im15.bmp,['Im_HughJackman.png', 'Im_DanielCraig.png', 'Im_ElijahWood.png', 'Im_LeonardoDiCaprio.png', 'Im_DanielRadcliffe.png', 'Im_RyanReynolds.png', 'Im_RyanGosling.png', 'Im_BenAffleck.png', 'Im_BenStiller.png', 'Im_MattDamon.png'],diff,1,0.5333309000002373,17,0,
VIRE0605,train,pos,150,pos150_id13_im15.bmp_pos150_id20_im3.bmp,['Im_HughJackman.png', 'Im_DanielCraig.png', 'Im_ElijahWood.png', 'Im_LeonardoDiCaprio.png', 'Im_DanielRadcliffe.png', 'Im_RyanReynolds.png', 'Im_RyanGosling.png', 'Im_BenAffleck.png', 'Im_BenStiller.png', 'Im_MattDamon.png'],diff,1,0.4168269000001601,18,0,
VIRE0605,train,pos,0,pos0_id8_im20.bmp_pos0_id8_im21.bmp,['Im_HughJackman.png', 'Im_DanielCraig.png', 'Im_ElijahWood.png', 'Im_LeonardoDiCaprio.png', 'Im_DanielRadcliffe.png', 'Im_RyanReynolds.png', 'Im_RyanGosling.png', 'Im_BenAffleck.png', 'Im_BenStiller.png', 'Im_MattDamon.png'],same,1,0.41678219999994326,19,0,
VIRE0605,train,pos,90,pos90_id21_im22.bmp_pos90_id1_im4.bmp,['Im_HughJackman.png', 'Im_DanielCraig.png', 'Im_ElijahWood.png', 'Im_LeonardoDiCaprio.png', 'Im_DanielRadcliffe.png', 'Im_RyanReynolds.png', 'Im_RyanGosling.png', 'Im_BenAffleck.png', 'Im_BenStiller.png', 'Im_MattDamon.png'],diff,1,1.2501335000001745,20,0,
VIRE0605,train,pos,120,pos120_id4_im20.bmp_pos120_id20_im30.bmp,['Im_HughJackman.png', 'Im_DanielCraig.png', 'Im_ElijahWood.png', 'Im_LeonardoDiCaprio.png', 'Im_DanielRadcliffe.png', 'Im_RyanReynolds.png', 'Im_RyanGosling.png', 'Im_BenAffleck.png', 'Im_BenStiller.png', 'Im_MattDamon.png'],diff,1,0.4000866000001224,21,0,
VIRE0605,train,pos,60,pos60_id6_im19.bmp_pos60_id1_im21.bmp,['Im_HughJackman.png', 'Im_DanielCraig.png', 'Im_ElijahWood.png', 'Im_LeonardoDiCaprio.png', 'Im_DanielRadcliffe.png', 'Im_RyanReynolds.png', 'Im_RyanGosling.png', 'Im_BenAffleck.png', 'Im_BenStiller.png', 'Im_MattDamon.png'],diff,1,0.39991650000001755,22,0,
VIRE0605,train,pos,fs,posfs_id2_im3.bmp_posfs_id13_im29.bmp,['Im_HughJackman.png', 'Im_DanielCraig.png', 'Im_ElijahWood.png', 'Im_LeonardoDiCaprio.png', 'Im_DanielRadcliffe.png', 'Im_RyanReynolds.png', 'Im_RyanGosling.png', 'Im_BenAffleck.png', 'Im_BenStiller.png', 'Im_MattDamon.png'],diff,1,0.41684629999963363,23,0,
VIRE0605,train,pos,30,pos30_id1_im4.bmp_pos30_id8_im13.bmp,['Im_HughJackman.png', 'Im_DanielCraig.png', 'Im_ElijahWood.png', 'Im_LeonardoDiCaprio.png', 'Im_DanielRadcliffe.png', 'Im_RyanReynolds.png', 'Im_RyanGosling.png', 'Im_BenAffleck.png', 'Im_BenStiller.png', 'Im_MattDamon.png'],diff,1,0.4166995999999017,24,0,
VIRE0605,train,pos,150,pos150_id20_im30.bmp_pos150_id20_im3.bmp,['Im_HughJackman.png', 'Im_DanielCraig.png', 'Im_ElijahWood.png', 'Im_LeonardoDiCaprio.png', 'Im_DanielRadcliffe.png', 'Im_RyanReynolds.png', 'Im_RyanGosling.png', 'Im_BenAffleck.png', 'Im_BenStiller.png', 'Im_MattDamon.png'],same,1,0.41671199999973396,25,0,
VIRE0605,train,inv,0,pos0_id1_im4.bmp_pos0_id1_im21.bmp,['Im_HughJackman.png', 'Im_DanielCraig.png', 'Im_ElijahWood.png', 'Im_LeonardoDiCaprio.png', 'Im_DanielRadcliffe.png', 'Im_RyanReynolds.png', 'Im_RyanGosling.png', 'Im_BenAffleck.png', 'Im_BenStiller.png', 'Im_MattDamon.png'],diff,0,1.767059999999674,25,0,
VIRE0605,train,inv,120,pos120_id1_im24.bmp_pos120_id1_im4.bmp,['Im_HughJackman.png', 'Im_DanielCraig.png', 'Im_ElijahWood.png', 'Im_LeonardoDiCaprio.png', 'Im_DanielRadcliffe.png', 'Im_RyanReynolds.png', 'Im_RyanGosling.png', 'Im_BenAffleck.png', 'Im_BenStiller.png', 'Im_MattDamon.png'],diff,0,0.8500355000001036,25,0,
VIRE0605,train,inv,60,pos60_id6_im18.bmp_pos60_id1_im24.bmp,['Im_HughJackman.png', 'Im_DanielCraig.png', 'Im_ElijahWood.png', 'Im_LeonardoDiCaprio.png', 'Im_DanielRadcliffe.png', 'Im_RyanReynolds.png', 'Im_RyanGosling.png', 'Im_BenAffleck.png', 'Im_BenStiller.png', 'Im_MattDamon.png'],diff,1,0.5336996999999428,26,0,
VIRE0605,train,inv,fs,posfs_id20_im12.bmp_posfs_id4_im7.bmp,['Im_HughJackman.png', 'Im_DanielCraig.png', 'Im_ElijahWood.png', 'Im_LeonardoDiCaprio.png', 'Im_DanielRadcliffe.png', 'Im_RyanReynolds.png', 'Im_RyanGosling.png', 'Im_BenAffleck.png', 'Im_BenStiller.png', 'Im_MattDamon.png'],diff,1,0.6836449000002176,27,0,
VIRE0605,train,inv,fs,posfs_id14_im16.bmp_posfs_id21_im22.bmp,['Im_HughJackman.png', 'Im_DanielCraig.png', 'Im_ElijahWood.png', 'Im_LeonardoDiCaprio.png', 'Im_DanielRadcliffe.png', 'Im_RyanReynolds.png', 'Im_RyanGosling.png', 'Im_BenAffleck.png', 'Im_BenStiller.png', 'Im_MattDamon.png'],same,0,2.1333685999998124,27,0,
VIRE0605,train,inv,60,pos60_id8_im13.bmp_pos60_id8_im21.bmp,['Im_HughJackman.png', 'Im_DanielCraig.png', 'Im_ElijahWood.png', 'Im_LeonardoDiCaprio.png', 'Im_DanielRadcliffe.png', 'Im_RyanReynolds.png', 'Im_RyanGosling.png', 'Im_BenAffleck.png', 'Im_BenStiller.png', 'Im_MattDamon.png'],same,1,0.4921171000000868,28,0,
VIRE0605,train,inv,0,pos0_id20_im12.bmp_pos0_id4_im7.bmp,['Im_HughJackman.png', 'Im_DanielCraig.png', 'Im_ElijahWood.png', 'Im_LeonardoDiCaprio.png', 'Im_DanielRadcliffe.png', 'Im_RyanReynolds.png', 'Im_RyanGosling.png', 'Im_BenAffleck.png', 'Im_BenStiller.png', 'Im_MattDamon.png'],diff,1,1.4253631000001405,29,0,
VIRE0605,train,inv,150,pos150_id8_im13.bmp_pos150_id1_im4.bmp,['Im_HughJackman.png', 'Im_DanielCraig.png', 'Im_ElijahWood.png', 'Im_LeonardoDiCaprio.png', 'Im_DanielRadcliffe.png', 'Im_RyanReynolds.png', 'Im_RyanGosling.png', 'Im_BenAffleck.png', 'Im_BenStiller.png', 'Im_MattDamon.png'],same,0,0.4335638000002291,29,0,
VIRE0605,train,inv,90,pos90_id20_im12.bmp_pos90_id4_im7.bmp,['Im_HughJackman.png', 'Im_DanielCraig.png', 'Im_ElijahWood.png', 'Im_LeonardoDiCaprio.png', 'Im_DanielRadcliffe.png', 'Im_RyanReynolds.png', 'Im_RyanGosling.png', 'Im_BenAffleck.png', 'Im_BenStiller.png', 'Im_MattDamon.png'],diff,1,1.016762000000199,30,0,
VIRE0605,train,inv,30,pos30_id1_im21.bmp_pos30_id1_im4.bmp,['Im_HughJackman.png', 'Im_DanielCraig.png', 'Im_ElijahWood.png', 'Im_LeonardoDiCaprio.png', 'Im_DanielRadcliffe.png', 'Im_RyanReynolds.png', 'Im_RyanGosling.png', 'Im_BenAffleck.png', 'Im_BenStiller.png', 'Im_MattDamon.png'],same,1,0.441868599999907,31,0,
VIRE0605,train,inv,30,pos30_id6_im18.bmp_pos30_id2_im2.bmp,['Im_HughJackman.png', 'Im_DanielCraig.png', 'Im_ElijahWood.png', 'Im_LeonardoDiCaprio.png', 'Im_DanielRadcliffe.png', 'Im_RyanReynolds.png', 'Im_RyanGosling.png', 'Im_BenAffleck.png', 'Im_BenStiller.png', 'Im_MattDamon.png'],diff,1,0.4170595999999023,32,0,
VIRE0605,train,inv,90,pos90_id21_im22.bmp_pos90_id14_im16.bmp,['Im_HughJackman.png', 'Im_DanielCraig.png', 'Im_ElijahWood.png', 'Im_LeonardoDiCaprio.png', 'Im_DanielRadcliffe.png', 'Im_RyanReynolds.png', 'Im_RyanGosling.png', 'Im_BenAffleck.png', 'Im_BenStiller.png', 'Im_MattDamon.png'],diff,1,0.6919229000000087,33,0,
VIRE0605,train,inv,120,pos120_id13_im10.bmp_pos120_id13_im15.bmp,['Im_HughJackman.png', 'Im_DanielCraig.png', 'Im_ElijahWood.png', 'Im_LeonardoDiCaprio.png', 'Im_DanielRadcliffe.png', 'Im_RyanReynolds.png', 'Im_RyanGosling.png', 'Im_BenAffleck.png', 'Im_BenStiller.png', 'Im_MattDamon.png'],same,1,0.4166049999998904,34,0,
VIRE0605,train,inv,150,pos150_id2_im2.bmp_pos150_id2_im3.bmp,['Im_HughJackman.png', 'Im_DanielCraig.png', 'Im_ElijahWood.png', 'Im_LeonardoDiCaprio.png', 'Im_DanielRadcliffe.png', 'Im_RyanReynolds.png', 'Im_RyanGosling.png', 'Im_BenAffleck.png', 'Im_BenStiller.png', 'Im_MattDamon.png'],same,1,0.4084003000002667,35,0,
VIRE0605,train,inv,60,pos60_id20_im30.bmp_pos60_id4_im20.bmp,['Im_HughJackman.png', 'Im_DanielCraig.png', 'Im_ElijahWood.png', 'Im_LeonardoDiCaprio.png', 'Im_DanielRadcliffe.png', 'Im_RyanReynolds.png', 'Im_RyanGosling.png', 'Im_BenAffleck.png', 'Im_BenStiller.png', 'Im_MattDamon.png'],diff,1,1.00817219999999,1,83.33333333333333,
VIRE0605,train,inv,90,pos90_id14_im18.bmp_pos90_id20_im12.bmp,['Im_HughJackman.png', 'Im_DanielCraig.png', 'Im_ElijahWood.png', 'Im_LeonardoDiCaprio.png', 'Im_DanielRadcliffe.png', 'Im_RyanReynolds.png', 'Im_RyanGosling.png', 'Im_BenAffleck.png', 'Im_BenStiller.png', 'Im_MattDamon.png'],same,0,0.5754305999998905,1,83.33333333333333,
VIRE0605,train,inv,120,pos120_id5_im1.bmp_pos120_id21_im16.bmp,['Im_HughJackman.png', 'Im_DanielCraig.png', 'Im_ElijahWood.png', 'Im_LeonardoDiCaprio.png', 'Im_DanielRadcliffe.png', 'Im_RyanReynolds.png', 'Im_RyanGosling.png', 'Im_BenAffleck.png', 'Im_BenStiller.png', 'Im_MattDamon.png'],same,0,1.3667274999997971,1,83.33333333333333,
VIRE0605,train,inv,120,pos120_id21_im22.bmp_pos120_id21_im17.bmp,['Im_HughJackman.png', 'Im_DanielCraig.png', 'Im_ElijahWood.png', 'Im_LeonardoDiCaprio.png', 'Im_DanielRadcliffe.png', 'Im_RyanReynolds.png', 'Im_RyanGosling.png', 'Im_BenAffleck.png', 'Im_BenStiller.png', 'Im_MattDamon.png'],same,1,0.41653120000000854,2,83.33333333333333,
VIRE0605,train,inv,0,pos0_id14_im24.bmp_pos0_id13_im29.bmp,['Im_HughJackman.png', 'Im_DanielCraig.png', 'Im_ElijahWood.png', 'Im_LeonardoDiCaprio.png', 'Im_DanielRadcliffe.png', 'Im_RyanReynolds.png', 'Im_RyanGosling.png', 'Im_BenAffleck.png', 'Im_BenStiller.png', 'Im_MattDamon.png'],same,0,0.6665580999997474,2,83.33333333333333,
VIRE0605,train,inv,30,pos30_id2_im16.bmp_pos30_id2_im2.bmp,['Im_HughJackman.png', 'Im_DanielCraig.png', 'Im_ElijahWood.png', 'Im_LeonardoDiCaprio.png', 'Im_DanielRadcliffe.png', 'Im_RyanReynolds.png', 'Im_RyanGosling.png', 'Im_BenAffleck.png', 'Im_BenStiller.png', 'Im_MattDamon.png'],diff,0,0.7164106000000174,2,83.33333333333333,
VIRE0605,train,inv,150,pos150_id21_im16.bmp_pos150_id21_im17.bmp,['Im_HughJackman.png', 'Im_DanielCraig.png', 'Im_ElijahWood.png', 'Im_LeonardoDiCaprio.png', 'Im_DanielRadcliffe.png', 'Im_RyanReynolds.png', 'Im_RyanGosling.png', 'Im_BenAffleck.png', 'Im_BenStiller.png', 'Im_MattDamon.png'],same,1,0.5252368000001297,3,83.33333333333333,
VIRE0605,train,inv,0,pos0_id21_im22.bmp_pos0_id21_im16.bmp,['Im_HughJackman.png', 'Im_DanielCraig.png', 'Im_ElijahWood.png', 'Im_LeonardoDiCaprio.png', 'Im_DanielRadcliffe.png', 'Im_RyanReynolds.png', 'Im_RyanGosling.png', 'Im_BenAffleck.png', 'Im_BenStiller.png', 'Im_MattDamon.png'],same,1,0.8168726000003517,4,83.33333333333333,
VIRE0605,train,inv,60,pos60_id13_im10.bmp_pos60_id13_im15.bmp,['Im_HughJackman.png', 'Im_DanielCraig.png', 'Im_ElijahWood.png', 'Im_LeonardoDiCaprio.png', 'Im_DanielRadcliffe.png', 'Im_RyanReynolds.png', 'Im_RyanGosling.png', 'Im_BenAffleck.png', 'Im_BenStiller.png', 'Im_MattDamon.png'],same,1,0.3998842999999397,5,83.33333333333333,
VIRE0605,train,inv,30,pos30_id20_im3.bmp_pos30_id20_im30.bmp,['Im_HughJackman.png', 'Im_DanielCraig.png', 'Im_ElijahWood.png', 'Im_LeonardoDiCaprio.png', 'Im_DanielRadcliffe.png', 'Im_RyanReynolds.png', 'Im_RyanGosling.png', 'Im_BenAffleck.png', 'Im_BenStiller.png', 'Im_MattDamon.png'],same,1,0.4166635999999926,6,83.33333333333333,
VIRE0605,train,inv,fs,posfs_id4_im20.bmp_posfs_id13_im15.bmp,['Im_HughJackman.png', 'Im_DanielCraig.png', 'Im_ElijahWood.png', 'Im_LeonardoDiCaprio.png', 'Im_DanielRadcliffe.png', 'Im_RyanReynolds.png', 'Im_RyanGosling.png', 'Im_BenAffleck.png', 'Im_BenStiller.png', 'Im_MattDamon.png'],diff,1,0.39990120000038587,7,83.33333333333333,
VIRE0605,train,inv,fs,posfs_id5_im20.bmp_posfs_id20_im30.bmp,['Im_HughJackman.png', 'Im_DanielCraig.png', 'Im_ElijahWood.png', 'Im_LeonardoDiCaprio.png', 'Im_DanielRadcliffe.png', 'Im_RyanReynolds.png', 'Im_RyanGosling.png', 'Im_BenAffleck.png', 'Im_BenStiller.png', 'Im_MattDamon.png'],diff,1,0.4168457999999191,8,83.33333333333333,
VIRE0605,train,inv,90,pos90_id4_im7.bmp_pos90_id8_im21.bmp,['Im_HughJackman.png', 'Im_DanielCraig.png', 'Im_ElijahWood.png', 'Im_LeonardoDiCaprio.png', 'Im_DanielRadcliffe.png', 'Im_RyanReynolds.png', 'Im_RyanGosling.png', 'Im_BenAffleck.png', 'Im_BenStiller.png', 'Im_MattDamon.png'],same,0,1.8167089999997188,8,83.33333333333333,
VIRE0605,train,inv,150,pos150_id14_im24.bmp_pos150_id14_im18.bmp,['Im_HughJackman.png', 'Im_DanielCraig.png', 'Im_ElijahWood.png', 'Im_LeonardoDiCaprio.png', 'Im_DanielRadcliffe.png', 'Im_RyanReynolds.png', 'Im_RyanGosling.png', 'Im_BenAffleck.png', 'Im_BenStiller.png', 'Im_MattDamon.png'],same,1,0.41652750000002925,9,83.33333333333333,
VIRE0605,train,neg,fs,negfs_id6_im18.bmp_negfs_id6_im19.bmp,['Im_HughJackman.png', 'Im_DanielCraig.png', 'Im_ElijahWood.png', 'Im_LeonardoDiCaprio.png', 'Im_DanielRadcliffe.png', 'Im_RyanReynolds.png', 'Im_RyanGosling.png', 'Im_BenAffleck.png', 'Im_BenStiller.png', 'Im_MattDamon.png'],same,1,0.4083714999997028,10,83.33333333333333,
VIRE0605,train,neg,30,neg30_id6_im19.bmp_neg30_id6_im18.bmp,['Im_HughJackman.png', 'Im_DanielCraig.png', 'Im_ElijahWood.png', 'Im_LeonardoDiCaprio.png', 'Im_DanielRadcliffe.png', 'Im_RyanReynolds.png', 'Im_RyanGosling.png', 'Im_BenAffleck.png', 'Im_BenStiller.png', 'Im_MattDamon.png'],same,1,0.40824750000001586,11,83.33333333333333,
VIRE0605,train,neg,fs,negfs_id6_im12.bmp_negfs_id6_im18.bmp,['Im_HughJackman.png', 'Im_DanielCraig.png', 'Im_ElijahWood.png', 'Im_LeonardoDiCaprio.png', 'Im_DanielRadcliffe.png', 'Im_RyanReynolds.png', 'Im_RyanGosling.png', 'Im_BenAffleck.png', 'Im_BenStiller.png', 'Im_MattDamon.png'],same,1,0.40835580000020855,12,83.33333333333333,
VIRE0605,train,neg,120,neg120_id2_im2.bmp_neg120_id6_im19.bmp,['Im_HughJackman.png', 'Im_DanielCraig.png', 'Im_ElijahWood.png', 'Im_LeonardoDiCaprio.png', 'Im_DanielRadcliffe.png', 'Im_RyanReynolds.png', 'Im_RyanGosling.png', 'Im_BenAffleck.png', 'Im_BenStiller.png', 'Im_MattDamon.png'],diff,1,0.4165389000004325,13,83.33333333333333,
VIRE0605,train,neg,60,neg60_id4_im15.bmp_neg60_id4_im7.bmp,['Im_HughJackman.png', 'Im_DanielCraig.png', 'Im_ElijahWood.png', 'Im_LeonardoDiCaprio.png', 'Im_DanielRadcliffe.png', 'Im_RyanReynolds.png', 'Im_RyanGosling.png', 'Im_BenAffleck.png', 'Im_BenStiller.png', 'Im_MattDamon.png'],same,1,0.5914980000002288,14,83.33333333333333,
VIRE0605,train,neg,120,neg120_id6_im18.bmp_neg120_id2_im2.bmp,['Im_HughJackman.png', 'Im_DanielCraig.png', 'Im_ElijahWood.png', 'Im_LeonardoDiCaprio.png', 'Im_DanielRadcliffe.png', 'Im_RyanReynolds.png', 'Im_RyanGosling.png', 'Im_BenAffleck.png', 'Im_BenStiller.png', 'Im_MattDamon.png'],diff,1,0.39972409999973024,15,83.33333333333333,
VIRE0605,train,neg,150,neg150_id8_im20.bmp_neg150_id8_im21.bmp,['Im_HughJackman.png', 'Im_DanielCraig.png', 'Im_ElijahWood.png', 'Im_LeonardoDiCaprio.png', 'Im_DanielRadcliffe.png', 'Im_RyanReynolds.png', 'Im_RyanGosling.png', 'Im_BenAffleck.png', 'Im_BenStiller.png', 'Im_MattDamon.png'],same,1,0.41700270000001183,16,83.33333333333333,
VIRE0605,train,neg,150,neg150_id13_im10.bmp_neg150_id13_im29.bmp,['Im_HughJackman.png', 'Im_DanielCraig.png', 'Im_ElijahWood.png', 'Im_LeonardoDiCaprio.png', 'Im_DanielRadcliffe.png', 'Im_RyanReynolds.png', 'Im_RyanGosling.png', 'Im_BenAffleck.png', 'Im_BenStiller.png', 'Im_MattDamon.png'],diff,0,0.8083817000001545,16,83.33333333333333,
VIRE0605,train,neg,90,neg90_id20_im3.bmp_neg90_id20_im30.bmp,['Im_HughJackman.png', 'Im_DanielCraig.png', 'Im_ElijahWood.png', 'Im_LeonardoDiCaprio.png', 'Im_DanielRadcliffe.png', 'Im_RyanReynolds.png', 'Im_RyanGosling.png', 'Im_BenAffleck.png', 'Im_BenStiller.png', 'Im_MattDamon.png'],same,1,0.3998603000000003,17,83.33333333333333,
VIRE0605,train,neg,90,neg90_id8_im20.bmp_neg90_id8_im13.bmp,['Im_HughJackman.png', 'Im_DanielCraig.png', 'Im_ElijahWood.png', 'Im_LeonardoDiCaprio.png', 'Im_DanielRadcliffe.png', 'Im_RyanReynolds.png', 'Im_RyanGosling.png', 'Im_BenAffleck.png', 'Im_BenStiller.png', 'Im_MattDamon.png'],same,1,0.39984469999990324,18,83.33333333333333,
VIRE0605,train,neg,0,neg0_id6_im18.bmp_neg0_id6_im19.bmp,['Im_HughJackman.png', 'Im_DanielCraig.png', 'Im_ElijahWood.png', 'Im_LeonardoDiCaprio.png', 'Im_DanielRadcliffe.png', 'Im_RyanReynolds.png', 'Im_RyanGosling.png', 'Im_BenAffleck.png', 'Im_BenStiller.png', 'Im_MattDamon.png'],same,1,0.3995445999998992,19,83.33333333333333,
VIRE0605,train,neg,30,neg30_id5_im20.bmp_neg30_id20_im30.bmp,['Im_HughJackman.png', 'Im_DanielCraig.png', 'Im_ElijahWood.png', 'Im_LeonardoDiCaprio.png', 'Im_DanielRadcliffe.png', 'Im_RyanReynolds.png', 'Im_RyanGosling.png', 'Im_BenAffleck.png', 'Im_BenStiller.png', 'Im_MattDamon.png'],diff,1,0.41653720000022076,20,83.33333333333333,
VIRE0605,train,neg,60,neg60_id5_im10.bmp_neg60_id5_im20.bmp,['Im_HughJackman.png', 'Im_DanielCraig.png', 'Im_ElijahWood.png', 'Im_LeonardoDiCaprio.png', 'Im_DanielRadcliffe.png', 'Im_RyanReynolds.png', 'Im_RyanGosling.png', 'Im_BenAffleck.png', 'Im_BenStiller.png', 'Im_MattDamon.png'],same,1,0.4167434000000867,21,83.33333333333333,
VIRE0605,train,neg,0,neg0_id14_im24.bmp_neg0_id4_im15.bmp,['Im_HughJackman.png', 'Im_DanielCraig.png', 'Im_ElijahWood.png', 'Im_LeonardoDiCaprio.png', 'Im_DanielRadcliffe.png', 'Im_RyanReynolds.png', 'Im_RyanGosling.png', 'Im_BenAffleck.png', 'Im_BenStiller.png', 'Im_MattDamon.png'],diff,1,0.6250111000003926,22,83.33333333333333,
VIRE0605,train,pos,150,pos150_id4_im15.bmp_pos150_id13_im10.bmp,['Im_HughJackman.png', 'Im_DanielCraig.png', 'Im_ElijahWood.png', 'Im_LeonardoDiCaprio.png', 'Im_DanielRadcliffe.png', 'Im_RyanReynolds.png', 'Im_RyanGosling.png', 'Im_BenAffleck.png', 'Im_BenStiller.png', 'Im_MattDamon.png'],diff,1,0.4167468999999073,23,83.33333333333333,
VIRE0605,train,pos,30,pos30_id4_im20.bmp_pos30_id13_im15.bmp,['Im_HughJackman.png', 'Im_DanielCraig.png', 'Im_ElijahWood.png', 'Im_LeonardoDiCaprio.png', 'Im_DanielRadcliffe.png', 'Im_RyanReynolds.png', 'Im_RyanGosling.png', 'Im_BenAffleck.png', 'Im_BenStiller.png', 'Im_MattDamon.png'],diff,1,0.4083683000003475,24,83.33333333333333,
VIRE0605,train,pos,0,pos0_id5_im10.bmp_pos0_id5_im20.bmp,['Im_HughJackman.png', 'Im_DanielCraig.png', 'Im_ElijahWood.png', 'Im_LeonardoDiCaprio.png', 'Im_DanielRadcliffe.png', 'Im_RyanReynolds.png', 'Im_RyanGosling.png', 'Im_BenAffleck.png', 'Im_BenStiller.png', 'Im_MattDamon.png'],same,1,0.4169291999996858,25,83.33333333333333,
VIRE0605,train,pos,fs,posfs_id5_im20.bmp_posfs_id20_im3.bmp,['Im_HughJackman.png', 'Im_DanielCraig.png', 'Im_ElijahWood.png', 'Im_LeonardoDiCaprio.png', 'Im_DanielRadcliffe.png', 'Im_RyanReynolds.png', 'Im_RyanGosling.png', 'Im_BenAffleck.png', 'Im_BenStiller.png', 'Im_MattDamon.png'],diff,1,0.41669480000018666,26,83.33333333333333,
VIRE0605,train,pos,90,pos90_id1_im4.bmp_pos90_id1_im21.bmp,['Im_HughJackman.png', 'Im_DanielCraig.png', 'Im_ElijahWood.png', 'Im_LeonardoDiCaprio.png', 'Im_DanielRadcliffe.png', 'Im_RyanReynolds.png', 'Im_RyanGosling.png', 'Im_BenAffleck.png', 'Im_BenStiller.png', 'Im_MattDamon.png'],same,1,0.4085377999999764,27,83.33333333333333,
VIRE0605,train,pos,60,pos60_id8_im21.bmp_pos60_id8_im20.bmp,['Im_HughJackman.png', 'Im_DanielCraig.png', 'Im_ElijahWood.png', 'Im_LeonardoDiCaprio.png', 'Im_DanielRadcliffe.png', 'Im_RyanReynolds.png', 'Im_RyanGosling.png', 'Im_BenAffleck.png', 'Im_BenStiller.png', 'Im_MattDamon.png'],same,1,0.39989009999999325,28,83.33333333333333,
VIRE0605,train,pos,fs,posfs_id2_im16.bmp_posfs_id2_im3.bmp,['Im_HughJackman.png', 'Im_DanielCraig.png', 'Im_ElijahWood.png', 'Im_LeonardoDiCaprio.png', 'Im_DanielRadcliffe.png', 'Im_RyanReynolds.png', 'Im_RyanGosling.png', 'Im_BenAffleck.png', 'Im_BenStiller.png', 'Im_MattDamon.png'],same,1,0.4834771999999248,29,83.33333333333333,
VIRE0605,train,pos,120,pos120_id2_im16.bmp_pos120_id2_im3.bmp,['Im_HughJackman.png', 'Im_DanielCraig.png', 'Im_ElijahWood.png', 'Im_LeonardoDiCaprio.png', 'Im_DanielRadcliffe.png', 'Im_RyanReynolds.png', 'Im_RyanGosling.png', 'Im_BenAffleck.png', 'Im_BenStiller.png', 'Im_MattDamon.png'],same,1,0.4165845000002264,30,83.33333333333333,
VIRE0605,train,pos,150,pos150_id5_im1.bmp_pos150_id21_im16.bmp,['Im_HughJackman.png', 'Im_DanielCraig.png', 'Im_ElijahWood.png', 'Im_LeonardoDiCaprio.png', 'Im_DanielRadcliffe.png', 'Im_RyanReynolds.png', 'Im_RyanGosling.png', 'Im_BenAffleck.png', 'Im_BenStiller.png', 'Im_MattDamon.png'],diff,1,0.41656590000002325,31,83.33333333333333,
VIRE0605,train,pos,90,pos90_id4_im15.bmp_pos90_id13_im10.bmp,['Im_HughJackman.png', 'Im_DanielCraig.png', 'Im_ElijahWood.png', 'Im_LeonardoDiCaprio.png', 'Im_DanielRadcliffe.png', 'Im_RyanReynolds.png', 'Im_RyanGosling.png', 'Im_BenAffleck.png', 'Im_BenStiller.png', 'Im_MattDamon.png'],diff,1,0.3997318000001542,32,83.33333333333333,
VIRE0605,train,pos,30,pos30_id5_im20.bmp_pos30_id5_im10.bmp,['Im_HughJackman.png', 'Im_DanielCraig.png', 'Im_ElijahWood.png', 'Im_LeonardoDiCaprio.png', 'Im_DanielRadcliffe.png', 'Im_RyanReynolds.png', 'Im_RyanGosling.png', 'Im_BenAffleck.png', 'Im_BenStiller.png', 'Im_MattDamon.png'],same,1,0.408402400000341,33,83.33333333333333,
VIRE0605,train,pos,120,pos120_id20_im30.bmp_pos120_id20_im12.bmp,['Im_HughJackman.png', 'Im_DanielCraig.png', 'Im_ElijahWood.png', 'Im_LeonardoDiCaprio.png', 'Im_DanielRadcliffe.png', 'Im_RyanReynolds.png', 'Im_RyanGosling.png', 'Im_BenAffleck.png', 'Im_BenStiller.png', 'Im_MattDamon.png'],same,1,0.4168053999997028,34,83.33333333333333,
VIRE0605,train,pos,60,pos60_id13_im10.bmp_pos60_id6_im12.bmp,['Im_HughJackman.png', 'Im_DanielCraig.png', 'Im_ElijahWood.png', 'Im_LeonardoDiCaprio.png', 'Im_DanielRadcliffe.png', 'Im_RyanReynolds.png', 'Im_RyanGosling.png', 'Im_BenAffleck.png', 'Im_BenStiller.png', 'Im_MattDamon.png'],diff,1,0.41669050000018615,35,83.33333333333333,
VIRE0605,train,pos,0,pos0_id6_im18.bmp_pos0_id6_im19.bmp,['Im_HughJackman.png', 'Im_DanielCraig.png', 'Im_ElijahWood.png', 'Im_LeonardoDiCaprio.png', 'Im_DanielRadcliffe.png', 'Im_RyanReynolds.png', 'Im_RyanGosling.png', 'Im_BenAffleck.png', 'Im_BenStiller.png', 'Im_MattDamon.png'],same,1,0.4836960999996336,36,83.33333333333333,
VIRE0605,0,inv,90,pos90_id21_im17.bmp_pos90_id21_im22.bmp,['Im_HughJackman.png', 'Im_DanielCraig.png', 'Im_ElijahWood.png', 'Im_LeonardoDiCaprio.png', 'Im_DanielRadcliffe.png', 'Im_RyanReynolds.png', 'Im_RyanGosling.png', 'Im_BenAffleck.png', 'Im_BenStiller.png', 'Im_MattDamon.png'],diff,0,0.6252737999998317,0,0,
VIRE0605,0,inv,fs,posfs_id2_im2.bmp_posfs_id2_im16.bmp,['Im_HughJackman.png', 'Im_DanielCraig.png', 'Im_ElijahWood.png', 'Im_LeonardoDiCaprio.png', 'Im_DanielRadcliffe.png', 'Im_RyanReynolds.png', 'Im_RyanGosling.png', 'Im_BenAffleck.png', 'Im_BenStiller.png', 'Im_MattDamon.png'],same,1,0.3998076000002584,1,0,
VIRE0605,0,inv,90,pos90_id6_im12.bmp_pos90_id6_im19.bmp,['Im_HughJackman.png', 'Im_DanielCraig.png', 'Im_ElijahWood.png', 'Im_LeonardoDiCaprio.png', 'Im_DanielRadcliffe.png', 'Im_RyanReynolds.png', 'Im_RyanGosling.png', 'Im_BenAffleck.png', 'Im_BenStiller.png', 'Im_MattDamon.png'],same,1,0.40855280000005223,2,0,
VIRE0605,0,inv,0,pos0_id8_im13.bmp_pos0_id5_im10.bmp,['Im_HughJackman.png', 'Im_DanielCraig.png', 'Im_ElijahWood.png', 'Im_LeonardoDiCaprio.png', 'Im_DanielRadcliffe.png', 'Im_RyanReynolds.png', 'Im_RyanGosling.png', 'Im_BenAffleck.png', 'Im_BenStiller.png', 'Im_MattDamon.png'],diff,1,0.4081949000001259,3,0,
VIRE0605,0,inv,60,pos60_id2_im2.bmp_pos60_id2_im3.bmp,['Im_HughJackman.png', 'Im_DanielCraig.png', 'Im_ElijahWood.png', 'Im_LeonardoDiCaprio.png', 'Im_DanielRadcliffe.png', 'Im_RyanReynolds.png', 'Im_RyanGosling.png', 'Im_BenAffleck.png', 'Im_BenStiller.png', 'Im_MattDamon.png'],same,1,0.40003600000000006,4,0,
VIRE0605,0,inv,30,pos30_id5_im1.bmp_pos30_id6_im12.bmp,['Im_HughJackman.png', 'Im_DanielCraig.png', 'Im_ElijahWood.png', 'Im_LeonardoDiCaprio.png', 'Im_DanielRadcliffe.png', 'Im_RyanReynolds.png', 'Im_RyanGosling.png', 'Im_BenAffleck.png', 'Im_BenStiller.png', 'Im_MattDamon.png'],diff,1,0.8920923999999104,5,0,
VIRE0605,0,inv,120,pos120_id6_im19.bmp_pos120_id1_im21.bmp,['Im_HughJackman.png', 'Im_DanielCraig.png', 'Im_ElijahWood.png', 'Im_LeonardoDiCaprio.png', 'Im_DanielRadcliffe.png', 'Im_RyanReynolds.png', 'Im_RyanGosling.png', 'Im_BenAffleck.png', 'Im_BenStiller.png', 'Im_MattDamon.png'],same,0,0.4834068999998635,5,0,
VIRE0605,0,inv,150,pos150_id8_im13.bmp_pos150_id8_im21.bmp,['Im_HughJackman.png', 'Im_DanielCraig.png', 'Im_ElijahWood.png', 'Im_LeonardoDiCaprio.png', 'Im_DanielRadcliffe.png', 'Im_RyanReynolds.png', 'Im_RyanGosling.png', 'Im_BenAffleck.png', 'Im_BenStiller.png', 'Im_MattDamon.png'],same,1,0.4587043999999878,6,0,
VIRE0605,0,inv,120,pos120_id4_im15.bmp_pos120_id14_im24.bmp,['Im_HughJackman.png', 'Im_DanielCraig.png', 'Im_ElijahWood.png', 'Im_LeonardoDiCaprio.png', 'Im_DanielRadcliffe.png', 'Im_RyanReynolds.png', 'Im_RyanGosling.png', 'Im_BenAffleck.png', 'Im_BenStiller.png', 'Im_MattDamon.png'],same,0,0.4253825999999208,6,0,
VIRE0605,0,inv,150,pos150_id1_im21.bmp_pos150_id1_im4.bmp,['Im_HughJackman.png', 'Im_DanielCraig.png', 'Im_ElijahWood.png', 'Im_LeonardoDiCaprio.png', 'Im_DanielRadcliffe.png', 'Im_RyanReynolds.png', 'Im_RyanGosling.png', 'Im_BenAffleck.png', 'Im_BenStiller.png', 'Im_MattDamon.png'],same,1,0.4084819999998217,7,0,
VIRE0605,0,inv,0,pos0_id4_im15.bmp_pos0_id14_im24.bmp,['Im_HughJackman.png', 'Im_DanielCraig.png', 'Im_ElijahWood.png', 'Im_LeonardoDiCaprio.png', 'Im_DanielRadcliffe.png', 'Im_RyanReynolds.png', 'Im_RyanGosling.png', 'Im_BenAffleck.png', 'Im_BenStiller.png', 'Im_MattDamon.png'],diff,1,0.6002618000002258,8,0,
VIRE0605,0,inv,fs,posfs_id1_im21.bmp_posfs_id6_im19.bmp,['Im_HughJackman.png', 'Im_DanielCraig.png', 'Im_ElijahWood.png', 'Im_LeonardoDiCaprio.png', 'Im_DanielRadcliffe.png', 'Im_RyanReynolds.png', 'Im_RyanGosling.png', 'Im_BenAffleck.png', 'Im_BenStiller.png', 'Im_MattDamon.png'],diff,1,0.408437000000049,9,0,
VIRE0605,0,inv,60,pos60_id4_im7.bmp_pos60_id20_im12.bmp,['Im_HughJackman.png', 'Im_DanielCraig.png', 'Im_ElijahWood.png', 'Im_LeonardoDiCaprio.png', 'Im_DanielRadcliffe.png', 'Im_RyanReynolds.png', 'Im_RyanGosling.png', 'Im_BenAffleck.png', 'Im_BenStiller.png', 'Im_MattDamon.png'],diff,1,0.44159739999986414,10,0,
VIRE0605,0,inv,30,pos30_id21_im17.bmp_pos30_id8_im20.bmp,['Im_HughJackman.png', 'Im_DanielCraig.png', 'Im_ElijahWood.png', 'Im_LeonardoDiCaprio.png', 'Im_DanielRadcliffe.png', 'Im_RyanReynolds.png', 'Im_RyanGosling.png', 'Im_BenAffleck.png', 'Im_BenStiller.png', 'Im_MattDamon.png'],diff,1,1.0087870000002113,11,0,
VIRE0605,1,pos,30,pos30_id21_im16.bmp_pos30_id5_im1.bmp,['Im_HughJackman.png', 'Im_DanielCraig.png', 'Im_ElijahWood.png', 'Im_LeonardoDiCaprio.png', 'Im_DanielRadcliffe.png', 'Im_RyanReynolds.png', 'Im_RyanGosling.png', 'Im_BenAffleck.png', 'Im_BenStiller.png', 'Im_MattDamon.png'],diff,1,0.43313850000004095,12,0,
VIRE0605,1,pos,90,pos90_id2_im3.bmp_pos90_id2_im16.bmp,['Im_HughJackman.png', 'Im_DanielCraig.png', 'Im_ElijahWood.png', 'Im_LeonardoDiCaprio.png', 'Im_DanielRadcliffe.png', 'Im_RyanReynolds.png', 'Im_RyanGosling.png', 'Im_BenAffleck.png', 'Im_BenStiller.png', 'Im_MattDamon.png'],same,1,0.4084755999997469,13,0,
VIRE0605,1,pos,fs,posfs_id1_im4.bmp_posfs_id21_im22.bmp,['Im_HughJackman.png', 'Im_DanielCraig.png', 'Im_ElijahWood.png', 'Im_LeonardoDiCaprio.png', 'Im_DanielRadcliffe.png', 'Im_RyanReynolds.png', 'Im_RyanGosling.png', 'Im_BenAffleck.png', 'Im_BenStiller.png', 'Im_MattDamon.png'],diff,1,0.40848589999995966,14,0,
VIRE0605,1,pos,0,pos0_id13_im15.bmp_pos0_id20_im3.bmp,['Im_HughJackman.png', 'Im_DanielCraig.png', 'Im_ElijahWood.png', 'Im_LeonardoDiCaprio.png', 'Im_DanielRadcliffe.png', 'Im_RyanReynolds.png', 'Im_RyanGosling.png', 'Im_BenAffleck.png', 'Im_BenStiller.png', 'Im_MattDamon.png'],diff,1,0.4168573000001743,15,0,
VIRE0605,1,pos,120,pos120_id5_im1.bmp_pos120_id6_im12.bmp,['Im_HughJackman.png', 'Im_DanielCraig.png', 'Im_ElijahWood.png', 'Im_LeonardoDiCaprio.png', 'Im_DanielRadcliffe.png', 'Im_RyanReynolds.png', 'Im_RyanGosling.png', 'Im_BenAffleck.png', 'Im_BenStiller.png', 'Im_MattDamon.png'],diff,1,0.42506630000025325,16,0,
VIRE0605,1,pos,120,pos120_id13_im29.bmp_pos120_id2_im3.bmp,['Im_HughJackman.png', 'Im_DanielCraig.png', 'Im_ElijahWood.png', 'Im_LeonardoDiCaprio.png', 'Im_DanielRadcliffe.png', 'Im_RyanReynolds.png', 'Im_RyanGosling.png', 'Im_BenAffleck.png', 'Im_BenStiller.png', 'Im_MattDamon.png'],diff,1,0.42515810000031706,17,0,
VIRE0605,1,pos,90,pos90_id14_im18.bmp_pos90_id14_im24.bmp,['Im_HughJackman.png', 'Im_DanielCraig.png', 'Im_ElijahWood.png', 'Im_LeonardoDiCaprio.png', 'Im_DanielRadcliffe.png', 'Im_RyanReynolds.png', 'Im_RyanGosling.png', 'Im_BenAffleck.png', 'Im_BenStiller.png', 'Im_MattDamon.png'],same,1,0.4251119999998991,18,0,
VIRE0605,1,pos,150,pos150_id4_im20.bmp_pos150_id13_im15.bmp,['Im_HughJackman.png', 'Im_DanielCraig.png', 'Im_ElijahWood.png', 'Im_LeonardoDiCaprio.png', 'Im_DanielRadcliffe.png', 'Im_RyanReynolds.png', 'Im_RyanGosling.png', 'Im_BenAffleck.png', 'Im_BenStiller.png', 'Im_MattDamon.png'],diff,1,0.4250879999999597,19,0,
VIRE0605,1,pos,60,pos60_id5_im10.bmp_pos60_id2_im3.bmp,['Im_HughJackman.png', 'Im_DanielCraig.png', 'Im_ElijahWood.png', 'Im_LeonardoDiCaprio.png', 'Im_DanielRadcliffe.png', 'Im_RyanReynolds.png', 'Im_RyanGosling.png', 'Im_BenAffleck.png', 'Im_BenStiller.png', 'Im_MattDamon.png'],diff,1,0.433563999999933,20,0,
VIRE0605,1,pos,fs,posfs_id4_im7.bmp_posfs_id4_im20.bmp,['Im_HughJackman.png', 'Im_DanielCraig.png', 'Im_ElijahWood.png', 'Im_LeonardoDiCaprio.png', 'Im_DanielRadcliffe.png', 'Im_RyanReynolds.png', 'Im_RyanGosling.png', 'Im_BenAffleck.png', 'Im_BenStiller.png', 'Im_MattDamon.png'],same,1,0.4167331000003287,21,0,
VIRE0605,1,pos,0,pos0_id8_im13.bmp_pos0_id5_im10.bmp,['Im_HughJackman.png', 'Im_DanielCraig.png', 'Im_ElijahWood.png', 'Im_LeonardoDiCaprio.png', 'Im_DanielRadcliffe.png', 'Im_RyanReynolds.png', 'Im_RyanGosling.png', 'Im_BenAffleck.png', 'Im_BenStiller.png', 'Im_MattDamon.png'],diff,1,0.4168803000002299,22,0,
VIRE0605,1,pos,30,pos30_id8_im13.bmp_pos30_id8_im20.bmp,['Im_HughJackman.png', 'Im_DanielCraig.png', 'Im_ElijahWood.png', 'Im_LeonardoDiCaprio.png', 'Im_DanielRadcliffe.png', 'Im_RyanReynolds.png', 'Im_RyanGosling.png', 'Im_BenAffleck.png', 'Im_BenStiller.png', 'Im_MattDamon.png'],same,1,0.4250221000002057,23,0,
VIRE0605,1,pos,150,pos150_id20_im3.bmp_pos150_id5_im20.bmp,['Im_HughJackman.png', 'Im_DanielCraig.png', 'Im_ElijahWood.png', 'Im_LeonardoDiCaprio.png', 'Im_DanielRadcliffe.png', 'Im_RyanReynolds.png', 'Im_RyanGosling.png', 'Im_BenAffleck.png', 'Im_BenStiller.png', 'Im_MattDamon.png'],diff,1,0.41668920000029175,24,0,
VIRE0605,1,pos,60,pos60_id1_im4.bmp_pos60_id8_im13.bmp,['Im_HughJackman.png', 'Im_DanielCraig.png', 'Im_ElijahWood.png', 'Im_LeonardoDiCaprio.png', 'Im_DanielRadcliffe.png', 'Im_RyanReynolds.png', 'Im_RyanGosling.png', 'Im_BenAffleck.png', 'Im_BenStiller.png', 'Im_MattDamon.png'],diff,1,0.9750684000000547,25,0,
VIRE0605,2,neg,fs,negfs_id20_im12.bmp_negfs_id20_im3.bmp,['Im_HughJackman.png', 'Im_DanielCraig.png', 'Im_ElijahWood.png', 'Im_LeonardoDiCaprio.png', 'Im_DanielRadcliffe.png', 'Im_RyanReynolds.png', 'Im_RyanGosling.png', 'Im_BenAffleck.png', 'Im_BenStiller.png', 'Im_MattDamon.png'],same,1,0.42502090000016324,26,0,
VIRE0605,2,neg,30,neg30_id14_im16.bmp_neg30_id14_im24.bmp,['Im_HughJackman.png', 'Im_DanielCraig.png', 'Im_ElijahWood.png', 'Im_LeonardoDiCaprio.png', 'Im_DanielRadcliffe.png', 'Im_RyanReynolds.png', 'Im_RyanGosling.png', 'Im_BenAffleck.png', 'Im_BenStiller.png', 'Im_MattDamon.png'],same,1,0.9000095999999758,27,0,
VIRE0605,2,neg,150,neg150_id21_im16.bmp_neg150_id5_im1.bmp,['Im_HughJackman.png', 'Im_DanielCraig.png', 'Im_ElijahWood.png', 'Im_LeonardoDiCaprio.png', 'Im_DanielRadcliffe.png', 'Im_RyanReynolds.png', 'Im_RyanGosling.png', 'Im_BenAffleck.png', 'Im_BenStiller.png', 'Im_MattDamon.png'],diff,1,0.4248830999999882,28,0,
VIRE0605,2,neg,60,neg60_id2_im16.bmp_neg60_id1_im21.bmp,['Im_HughJackman.png', 'Im_DanielCraig.png', 'Im_ElijahWood.png', 'Im_LeonardoDiCaprio.png', 'Im_DanielRadcliffe.png', 'Im_RyanReynolds.png', 'Im_RyanGosling.png', 'Im_BenAffleck.png', 'Im_BenStiller.png', 'Im_MattDamon.png'],same,0,0.4167483999999604,28,0,
VIRE0605,2,neg,60,neg60_id13_im15.bmp_neg60_id20_im3.bmp,['Im_HughJackman.png', 'Im_DanielCraig.png', 'Im_ElijahWood.png', 'Im_LeonardoDiCaprio.png', 'Im_DanielRadcliffe.png', 'Im_RyanReynolds.png', 'Im_RyanGosling.png', 'Im_BenAffleck.png', 'Im_BenStiller.png', 'Im_MattDamon.png'],diff,1,0.42503949999991164,29,0,
VIRE0605,2,neg,30,neg30_id4_im15.bmp_neg30_id13_im10.bmp,['Im_HughJackman.png', 'Im_DanielCraig.png', 'Im_ElijahWood.png', 'Im_LeonardoDiCaprio.png', 'Im_DanielRadcliffe.png', 'Im_RyanReynolds.png', 'Im_RyanGosling.png', 'Im_BenAffleck.png', 'Im_BenStiller.png', 'Im_MattDamon.png'],diff,1,0.41676419999976133,30,0,
VIRE0605,2,neg,150,neg150_id14_im18.bmp_neg150_id14_im24.bmp,['Im_HughJackman.png', 'Im_DanielCraig.png', 'Im_ElijahWood.png', 'Im_LeonardoDiCaprio.png', 'Im_DanielRadcliffe.png', 'Im_RyanReynolds.png', 'Im_RyanGosling.png', 'Im_BenAffleck.png', 'Im_BenStiller.png', 'Im_MattDamon.png'],same,1,0.41679679999970176,31,0,
VIRE0605,2,neg,0,neg0_id21_im17.bmp_neg0_id8_im21.bmp,['Im_HughJackman.png', 'Im_DanielCraig.png', 'Im_ElijahWood.png', 'Im_LeonardoDiCaprio.png', 'Im_DanielRadcliffe.png', 'Im_RyanReynolds.png', 'Im_RyanGosling.png', 'Im_BenAffleck.png', 'Im_BenStiller.png', 'Im_MattDamon.png'],diff,1,0.42509279999967475,32,0,
VIRE0605,2,neg,fs,negfs_id13_im10.bmp_negfs_id13_im29.bmp,['Im_HughJackman.png', 'Im_DanielCraig.png', 'Im_ElijahWood.png', 'Im_LeonardoDiCaprio.png', 'Im_DanielRadcliffe.png', 'Im_RyanReynolds.png', 'Im_RyanGosling.png', 'Im_BenAffleck.png', 'Im_BenStiller.png', 'Im_MattDamon.png'],same,1,0.45860240000001795,33,0,
VIRE0605,2,neg,90,neg90_id21_im16.bmp_neg90_id21_im22.bmp,['Im_HughJackman.png', 'Im_DanielCraig.png', 'Im_ElijahWood.png', 'Im_LeonardoDiCaprio.png', 'Im_DanielRadcliffe.png', 'Im_RyanReynolds.png', 'Im_RyanGosling.png', 'Im_BenAffleck.png', 'Im_BenStiller.png', 'Im_MattDamon.png'],same,1,1.0836051000001135,34,0,
VIRE0605,2,neg,120,neg120_id21_im17.bmp_neg120_id8_im21.bmp,['Im_HughJackman.png', 'Im_DanielCraig.png', 'Im_ElijahWood.png', 'Im_LeonardoDiCaprio.png', 'Im_DanielRadcliffe.png', 'Im_RyanReynolds.png', 'Im_RyanGosling.png', 'Im_BenAffleck.png', 'Im_BenStiller.png', 'Im_MattDamon.png'],diff,1,0.4250919999999496,35,0,
VIRE0605,2,neg,90,neg90_id13_im10.bmp_neg90_id13_im15.bmp,['Im_HughJackman.png', 'Im_DanielCraig.png', 'Im_ElijahWood.png', 'Im_LeonardoDiCaprio.png', 'Im_DanielRadcliffe.png', 'Im_RyanReynolds.png', 'Im_RyanGosling.png', 'Im_BenAffleck.png', 'Im_BenStiller.png', 'Im_MattDamon.png'],same,1,0.5918308000000252,36,0,
VIRE0605,2,neg,0,neg0_id5_im10.bmp_neg0_id2_im3.bmp,['Im_HughJackman.png', 'Im_DanielCraig.png', 'Im_ElijahWood.png', 'Im_LeonardoDiCaprio.png', 'Im_DanielRadcliffe.png', 'Im_RyanReynolds.png', 'Im_RyanGosling.png', 'Im_BenAffleck.png', 'Im_BenStiller.png', 'Im_MattDamon.png'],diff,1,0.41669110000020737,37,0,
VIRE0605,2,neg,120,neg120_id20_im30.bmp_neg120_id20_im3.bmp,['Im_HughJackman.png', 'Im_DanielCraig.png', 'Im_ElijahWood.png', 'Im_LeonardoDiCaprio.png', 'Im_DanielRadcliffe.png', 'Im_RyanReynolds.png', 'Im_RyanGosling.png', 'Im_BenAffleck.png', 'Im_BenStiller.png', 'Im_MattDamon.png'],same,1,0.5672168999999485,38,0,
VIRE0605,3,inv,fs,posfs_id14_im24.bmp_posfs_id4_im15.bmp,['Im_HughJackman.png', 'Im_DanielCraig.png', 'Im_ElijahWood.png', 'Im_LeonardoDiCaprio.png', 'Im_DanielRadcliffe.png', 'Im_RyanReynolds.png', 'Im_RyanGosling.png', 'Im_BenAffleck.png', 'Im_BenStiller.png', 'Im_MattDamon.png'],diff,1,0.7002545000000282,1,90.47619047619048,
VIRE0605,3,inv,90,pos90_id21_im22.bmp_pos90_id1_im4.bmp,['Im_HughJackman.png', 'Im_DanielCraig.png', 'Im_ElijahWood.png', 'Im_LeonardoDiCaprio.png', 'Im_DanielRadcliffe.png', 'Im_RyanReynolds.png', 'Im_RyanGosling.png', 'Im_BenAffleck.png', 'Im_BenStiller.png', 'Im_MattDamon.png'],same,0,0.650081499999942,1,90.47619047619048,
VIRE0605,3,inv,120,pos120_id8_im20.bmp_pos120_id8_im21.bmp,['Im_HughJackman.png', 'Im_DanielCraig.png', 'Im_ElijahWood.png', 'Im_LeonardoDiCaprio.png', 'Im_DanielRadcliffe.png', 'Im_RyanReynolds.png', 'Im_RyanGosling.png', 'Im_BenAffleck.png', 'Im_BenStiller.png', 'Im_MattDamon.png'],same,1,0.40839869999990697,2,90.47619047619048,
VIRE0605,3,inv,60,pos60_id4_im15.bmp_pos60_id4_im7.bmp,['Im_HughJackman.png', 'Im_DanielCraig.png', 'Im_ElijahWood.png', 'Im_LeonardoDiCaprio.png', 'Im_DanielRadcliffe.png', 'Im_RyanReynolds.png', 'Im_RyanGosling.png', 'Im_BenAffleck.png', 'Im_BenStiller.png', 'Im_MattDamon.png'],diff,0,0.6083495999996558,2,90.47619047619048,
VIRE0605,3,inv,30,pos30_id4_im15.bmp_pos30_id4_im7.bmp,['Im_HughJackman.png', 'Im_DanielCraig.png', 'Im_ElijahWood.png', 'Im_LeonardoDiCaprio.png', 'Im_DanielRadcliffe.png', 'Im_RyanReynolds.png', 'Im_RyanGosling.png', 'Im_BenAffleck.png', 'Im_BenStiller.png', 'Im_MattDamon.png'],same,1,0.41681119999975635,3,90.47619047619048,
VIRE0605,3,inv,fs,posfs_id8_im13.bmp_posfs_id5_im10.bmp,['Im_HughJackman.png', 'Im_DanielCraig.png', 'Im_ElijahWood.png', 'Im_LeonardoDiCaprio.png', 'Im_DanielRadcliffe.png', 'Im_RyanReynolds.png', 'Im_RyanGosling.png', 'Im_BenAffleck.png', 'Im_BenStiller.png', 'Im_MattDamon.png'],diff,1,0.42484590000003664,4,90.47619047619048,
VIRE0605,3,inv,0,pos0_id20_im3.bmp_pos0_id13_im15.bmp,['Im_HughJackman.png', 'Im_DanielCraig.png', 'Im_ElijahWood.png', 'Im_LeonardoDiCaprio.png', 'Im_DanielRadcliffe.png', 'Im_RyanReynolds.png', 'Im_RyanGosling.png', 'Im_BenAffleck.png', 'Im_BenStiller.png', 'Im_MattDamon.png'],diff,1,0.42502379999996265,5,90.47619047619048,
VIRE0605,3,inv,30,pos30_id4_im7.bmp_pos30_id4_im20.bmp,['Im_HughJackman.png', 'Im_DanielCraig.png', 'Im_ElijahWood.png', 'Im_LeonardoDiCaprio.png', 'Im_DanielRadcliffe.png', 'Im_RyanReynolds.png', 'Im_RyanGosling.png', 'Im_BenAffleck.png', 'Im_BenStiller.png', 'Im_MattDamon.png'],same,1,0.5085432999999284,6,90.47619047619048,
VIRE0605,3,inv,0,pos0_id20_im12.bmp_pos0_id14_im18.bmp,['Im_HughJackman.png', 'Im_DanielCraig.png', 'Im_ElijahWood.png', 'Im_LeonardoDiCaprio.png', 'Im_DanielRadcliffe.png', 'Im_RyanReynolds.png', 'Im_RyanGosling.png', 'Im_BenAffleck.png', 'Im_BenStiller.png', 'Im_MattDamon.png'],diff,1,0.5917564000001221,7,90.47619047619048,
VIRE0605,3,inv,120,pos120_id8_im20.bmp_pos120_id8_im13.bmp,['Im_HughJackman.png', 'Im_DanielCraig.png', 'Im_ElijahWood.png', 'Im_LeonardoDiCaprio.png', 'Im_DanielRadcliffe.png', 'Im_RyanReynolds.png', 'Im_RyanGosling.png', 'Im_BenAffleck.png', 'Im_BenStiller.png', 'Im_MattDamon.png'],same,1,0.567008800000167,8,90.47619047619048,
VIRE0605,3,inv,60,pos60_id8_im13.bmp_pos60_id5_im10.bmp,['Im_HughJackman.png', 'Im_DanielCraig.png', 'Im_ElijahWood.png', 'Im_LeonardoDiCaprio.png', 'Im_DanielRadcliffe.png', 'Im_RyanReynolds.png', 'Im_RyanGosling.png', 'Im_BenAffleck.png', 'Im_BenStiller.png', 'Im_MattDamon.png'],diff,1,0.4333738000000267,9,90.47619047619048,
VIRE0605,3,inv,150,pos150_id5_im1.bmp_pos150_id21_im16.bmp,['Im_HughJackman.png', 'Im_DanielCraig.png', 'Im_ElijahWood.png', 'Im_LeonardoDiCaprio.png', 'Im_DanielRadcliffe.png', 'Im_RyanReynolds.png', 'Im_RyanGosling.png', 'Im_BenAffleck.png', 'Im_BenStiller.png', 'Im_MattDamon.png'],diff,1,0.4165822999998454,10,90.47619047619048,
VIRE0605,3,inv,90,pos90_id2_im2.bmp_pos90_id2_im3.bmp,['Im_HughJackman.png', 'Im_DanielCraig.png', 'Im_ElijahWood.png', 'Im_LeonardoDiCaprio.png', 'Im_DanielRadcliffe.png', 'Im_RyanReynolds.png', 'Im_RyanGosling.png', 'Im_BenAffleck.png', 'Im_BenStiller.png', 'Im_MattDamon.png'],same,1,0.4250990999998976,11,90.47619047619048,
VIRE0605,3,inv,150,pos150_id20_im3.bmp_pos150_id5_im20.bmp,['Im_HughJackman.png', 'Im_DanielCraig.png', 'Im_ElijahWood.png', 'Im_LeonardoDiCaprio.png', 'Im_DanielRadcliffe.png', 'Im_RyanReynolds.png', 'Im_RyanGosling.png', 'Im_BenAffleck.png', 'Im_BenStiller.png', 'Im_MattDamon.png'],diff,1,0.4251664999997047,12,90.47619047619048,
VIRE0605,4,pos,120,pos120_id2_im16.bmp_pos120_id1_im21.bmp,['Im_HughJackman.png', 'Im_DanielCraig.png', 'Im_ElijahWood.png', 'Im_LeonardoDiCaprio.png', 'Im_DanielRadcliffe.png', 'Im_RyanReynolds.png', 'Im_RyanGosling.png', 'Im_BenAffleck.png', 'Im_BenStiller.png', 'Im_MattDamon.png'],diff,1,0.40853040000001783,13,90.47619047619048,
VIRE0605,4,pos,150,pos150_id8_im13.bmp_pos150_id1_im4.bmp,['Im_HughJackman.png', 'Im_DanielCraig.png', 'Im_ElijahWood.png', 'Im_LeonardoDiCaprio.png', 'Im_DanielRadcliffe.png', 'Im_RyanReynolds.png', 'Im_RyanGosling.png', 'Im_BenAffleck.png', 'Im_BenStiller.png', 'Im_MattDamon.png'],diff,1,0.4083356000001004,14,90.47619047619048,
VIRE0605,4,pos,30,pos30_id2_im3.bmp_pos30_id13_im29.bmp,['Im_HughJackman.png', 'Im_DanielCraig.png', 'Im_ElijahWood.png', 'Im_LeonardoDiCaprio.png', 'Im_DanielRadcliffe.png', 'Im_RyanReynolds.png', 'Im_RyanGosling.png', 'Im_BenAffleck.png', 'Im_BenStiller.png', 'Im_MattDamon.png'],diff,1,0.4250472999997328,15,90.47619047619048,
VIRE0605,4,pos,90,pos90_id14_im24.bmp_pos90_id4_im15.bmp,['Im_HughJackman.png', 'Im_DanielCraig.png', 'Im_ElijahWood.png', 'Im_LeonardoDiCaprio.png', 'Im_DanielRadcliffe.png', 'Im_RyanReynolds.png', 'Im_RyanGosling.png', 'Im_BenAffleck.png', 'Im_BenStiller.png', 'Im_MattDamon.png'],diff,1,0.4250738000000638,16,90.47619047619048,
VIRE0605,4,pos,fs,posfs_id14_im16.bmp_posfs_id21_im22.bmp,['Im_HughJackman.png', 'Im_DanielCraig.png', 'Im_ElijahWood.png', 'Im_LeonardoDiCaprio.png', 'Im_DanielRadcliffe.png', 'Im_RyanReynolds.png', 'Im_RyanGosling.png', 'Im_BenAffleck.png', 'Im_BenStiller.png', 'Im_MattDamon.png'],diff,1,0.42504989999997633,17,90.47619047619048,
VIRE0605,4,pos,150,pos150_id8_im20.bmp_pos150_id8_im13.bmp,['Im_HughJackman.png', 'Im_DanielCraig.png', 'Im_ElijahWood.png', 'Im_LeonardoDiCaprio.png', 'Im_DanielRadcliffe.png', 'Im_RyanReynolds.png', 'Im_RyanGosling.png', 'Im_BenAffleck.png', 'Im_BenStiller.png', 'Im_MattDamon.png'],same,1,0.4167355999998108,18,90.47619047619048,
VIRE0605,4,pos,0,pos0_id8_im20.bmp_pos0_id21_im17.bmp,['Im_HughJackman.png', 'Im_DanielCraig.png', 'Im_ElijahWood.png', 'Im_LeonardoDiCaprio.png', 'Im_DanielRadcliffe.png', 'Im_RyanReynolds.png', 'Im_RyanGosling.png', 'Im_BenAffleck.png', 'Im_BenStiller.png', 'Im_MattDamon.png'],diff,1,0.4250238999998146,19,90.47619047619048,
VIRE0605,4,pos,120,pos120_id4_im7.bmp_pos120_id4_im20.bmp,['Im_HughJackman.png', 'Im_DanielCraig.png', 'Im_ElijahWood.png', 'Im_LeonardoDiCaprio.png', 'Im_DanielRadcliffe.png', 'Im_RyanReynolds.png', 'Im_RyanGosling.png', 'Im_BenAffleck.png', 'Im_BenStiller.png', 'Im_MattDamon.png'],same,1,0.41680740000037986,20,90.47619047619048,
VIRE0605,4,pos,30,pos30_id21_im17.bmp_pos30_id8_im20.bmp,['Im_HughJackman.png', 'Im_DanielCraig.png', 'Im_ElijahWood.png', 'Im_LeonardoDiCaprio.png', 'Im_DanielRadcliffe.png', 'Im_RyanReynolds.png', 'Im_RyanGosling.png', 'Im_BenAffleck.png', 'Im_BenStiller.png', 'Im_MattDamon.png'],diff,1,0.4250886999998329,21,90.47619047619048,
VIRE0605,4,pos,0,pos0_id5_im1.bmp_pos0_id5_im20.bmp,['Im_HughJackman.png', 'Im_DanielCraig.png', 'Im_ElijahWood.png', 'Im_LeonardoDiCaprio.png', 'Im_DanielRadcliffe.png', 'Im_RyanReynolds.png', 'Im_RyanGosling.png', 'Im_BenAffleck.png', 'Im_BenStiller.png', 'Im_MattDamon.png'],same,1,0.5082526000001053,22,90.47619047619048,
VIRE0605,4,pos,60,pos60_id1_im4.bmp_pos60_id1_im21.bmp,['Im_HughJackman.png', 'Im_DanielCraig.png', 'Im_ElijahWood.png', 'Im_LeonardoDiCaprio.png', 'Im_DanielRadcliffe.png', 'Im_RyanReynolds.png', 'Im_RyanGosling.png', 'Im_BenAffleck.png', 'Im_BenStiller.png', 'Im_MattDamon.png'],same,1,0.42480650000015885,23,90.47619047619048,
VIRE0605,4,pos,fs,posfs_id21_im17.bmp_posfs_id21_im16.bmp,['Im_HughJackman.png', 'Im_DanielCraig.png', 'Im_ElijahWood.png', 'Im_LeonardoDiCaprio.png', 'Im_DanielRadcliffe.png', 'Im_RyanReynolds.png', 'Im_RyanGosling.png', 'Im_BenAffleck.png', 'Im_BenStiller.png', 'Im_MattDamon.png'],same,1,0.4250632000002952,24,90.47619047619048,
VIRE0605,4,pos,90,pos90_id8_im21.bmp_pos90_id8_im13.bmp,['Im_HughJackman.png', 'Im_DanielCraig.png', 'Im_ElijahWood.png', 'Im_LeonardoDiCaprio.png', 'Im_DanielRadcliffe.png', 'Im_RyanReynolds.png', 'Im_RyanGosling.png', 'Im_BenAffleck.png', 'Im_BenStiller.png', 'Im_MattDamon.png'],same,1,0.4167139999999563,25,90.47619047619048,
VIRE0605,4,pos,60,pos60_id8_im13.bmp_pos60_id5_im10.bmp,['Im_HughJackman.png', 'Im_DanielCraig.png', 'Im_ElijahWood.png', 'Im_LeonardoDiCaprio.png', 'Im_DanielRadcliffe.png', 'Im_RyanReynolds.png', 'Im_RyanGosling.png', 'Im_BenAffleck.png', 'Im_BenStiller.png', 'Im_MattDamon.png'],diff,1,0.41689999999971405,26,90.47619047619048,
VIRE0605,5,neg,150,neg150_id5_im10.bmp_neg150_id5_im1.bmp,['Im_HughJackman.png', 'Im_DanielCraig.png', 'Im_ElijahWood.png', 'Im_LeonardoDiCaprio.png', 'Im_DanielRadcliffe.png', 'Im_RyanReynolds.png', 'Im_RyanGosling.png', 'Im_BenAffleck.png', 'Im_BenStiller.png', 'Im_MattDamon.png'],same,1,1.1417325999996137,27,90.47619047619048,
VIRE0605,5,neg,150,neg150_id5_im10.bmp_neg150_id8_im13.bmp,['Im_HughJackman.png', 'Im_DanielCraig.png', 'Im_ElijahWood.png', 'Im_LeonardoDiCaprio.png', 'Im_DanielRadcliffe.png', 'Im_RyanReynolds.png', 'Im_RyanGosling.png', 'Im_BenAffleck.png', 'Im_BenStiller.png', 'Im_MattDamon.png'],diff,1,0.42500040000004446,28,90.47619047619048,
VIRE0605,5,neg,120,neg120_id8_im20.bmp_neg120_id8_im21.bmp,['Im_HughJackman.png', 'Im_DanielCraig.png', 'Im_ElijahWood.png', 'Im_LeonardoDiCaprio.png', 'Im_DanielRadcliffe.png', 'Im_RyanReynolds.png', 'Im_RyanGosling.png', 'Im_BenAffleck.png', 'Im_BenStiller.png', 'Im_MattDamon.png'],same,1,0.4167545999998765,29,90.47619047619048,
VIRE0605,5,neg,90,neg90_id4_im20.bmp_neg90_id20_im30.bmp,['Im_HughJackman.png', 'Im_DanielCraig.png', 'Im_ElijahWood.png', 'Im_LeonardoDiCaprio.png', 'Im_DanielRadcliffe.png', 'Im_RyanReynolds.png', 'Im_RyanGosling.png', 'Im_BenAffleck.png', 'Im_BenStiller.png', 'Im_MattDamon.png'],diff,1,0.4251505000001998,30,90.47619047619048,
VIRE0605,5,neg,120,neg120_id4_im7.bmp_neg120_id8_im21.bmp,['Im_HughJackman.png', 'Im_DanielCraig.png', 'Im_ElijahWood.png', 'Im_LeonardoDiCaprio.png', 'Im_DanielRadcliffe.png', 'Im_RyanReynolds.png', 'Im_RyanGosling.png', 'Im_BenAffleck.png', 'Im_BenStiller.png', 'Im_MattDamon.png'],diff,1,1.8835908999999447,31,90.47619047619048,
VIRE0605,5,neg,90,neg90_id5_im10.bmp_neg90_id2_im3.bmp,['Im_HughJackman.png', 'Im_DanielCraig.png', 'Im_ElijahWood.png', 'Im_LeonardoDiCaprio.png', 'Im_DanielRadcliffe.png', 'Im_RyanReynolds.png', 'Im_RyanGosling.png', 'Im_BenAffleck.png', 'Im_BenStiller.png', 'Im_MattDamon.png'],diff,1,0.5833624000001691,32,90.47619047619048,
VIRE0605,5,neg,0,neg0_id4_im7.bmp_neg0_id4_im20.bmp,['Im_HughJackman.png', 'Im_DanielCraig.png', 'Im_ElijahWood.png', 'Im_LeonardoDiCaprio.png', 'Im_DanielRadcliffe.png', 'Im_RyanReynolds.png', 'Im_RyanGosling.png', 'Im_BenAffleck.png', 'Im_BenStiller.png', 'Im_MattDamon.png'],same,1,0.4165484000000106,33,90.47619047619048,
VIRE0605,5,neg,0,neg0_id8_im21.bmp_neg0_id8_im13.bmp,['Im_HughJackman.png', 'Im_DanielCraig.png', 'Im_ElijahWood.png', 'Im_LeonardoDiCaprio.png', 'Im_DanielRadcliffe.png', 'Im_RyanReynolds.png', 'Im_RyanGosling.png', 'Im_BenAffleck.png', 'Im_BenStiller.png', 'Im_MattDamon.png'],same,1,0.4250923999998122,34,90.47619047619048,
VIRE0605,5,neg,60,neg60_id13_im10.bmp_neg60_id6_im12.bmp,['Im_HughJackman.png', 'Im_DanielCraig.png', 'Im_ElijahWood.png', 'Im_LeonardoDiCaprio.png', 'Im_DanielRadcliffe.png', 'Im_RyanReynolds.png', 'Im_RyanGosling.png', 'Im_BenAffleck.png', 'Im_BenStiller.png', 'Im_MattDamon.png'],diff,1,0.42509659999996074,35,90.47619047619048,
VIRE0605,5,neg,fs,negfs_id13_im15.bmp_negfs_id4_im20.bmp,['Im_HughJackman.png', 'Im_DanielCraig.png', 'Im_ElijahWood.png', 'Im_LeonardoDiCaprio.png', 'Im_DanielRadcliffe.png', 'Im_RyanReynolds.png', 'Im_RyanGosling.png', 'Im_BenAffleck.png', 'Im_BenStiller.png', 'Im_MattDamon.png'],diff,1,0.4333407000003717,36,90.47619047619048,
VIRE0605,5,neg,30,neg30_id4_im20.bmp_neg30_id13_im15.bmp,['Im_HughJackman.png', 'Im_DanielCraig.png', 'Im_ElijahWood.png', 'Im_LeonardoDiCaprio.png', 'Im_DanielRadcliffe.png', 'Im_RyanReynolds.png', 'Im_RyanGosling.png', 'Im_BenAffleck.png', 'Im_BenStiller.png', 'Im_MattDamon.png'],diff,1,0.650155199999972,37,90.47619047619048,
VIRE0605,5,neg,60,neg60_id8_im13.bmp_neg60_id8_im21.bmp,['Im_HughJackman.png', 'Im_DanielCraig.png', 'Im_ElijahWood.png', 'Im_LeonardoDiCaprio.png', 'Im_DanielRadcliffe.png', 'Im_RyanReynolds.png', 'Im_RyanGosling.png', 'Im_BenAffleck.png', 'Im_BenStiller.png', 'Im_MattDamon.png'],same,1,0.5253335000002153,38,90.47619047619048,
VIRE0605,5,neg,30,neg30_id13_im15.bmp_neg30_id13_im29.bmp,['Im_HughJackman.png', 'Im_DanielCraig.png', 'Im_ElijahWood.png', 'Im_LeonardoDiCaprio.png', 'Im_DanielRadcliffe.png', 'Im_RyanReynolds.png', 'Im_RyanGosling.png', 'Im_BenAffleck.png', 'Im_BenStiller.png', 'Im_MattDamon.png'],same,1,0.41664200000013807,39,90.47619047619048,
VIRE0605,5,neg,fs,negfs_id2_im3.bmp_negfs_id2_im2.bmp,['Im_HughJackman.png', 'Im_DanielCraig.png', 'Im_ElijahWood.png', 'Im_LeonardoDiCaprio.png', 'Im_DanielRadcliffe.png', 'Im_RyanReynolds.png', 'Im_RyanGosling.png', 'Im_BenAffleck.png', 'Im_BenStiller.png', 'Im_MattDamon.png'],same,1,0.4316708999999719,40,90.47619047619048,
VIRE0605,6,inv,60,pos60_id20_im3.bmp_pos60_id20_im30.bmp,['Im_HughJackman.png', 'Im_DanielCraig.png', 'Im_ElijahWood.png', 'Im_LeonardoDiCaprio.png', 'Im_DanielRadcliffe.png', 'Im_RyanReynolds.png', 'Im_RyanGosling.png', 'Im_BenAffleck.png', 'Im_BenStiller.png', 'Im_MattDamon.png'],same,1,1.0761188000001312,1,95.23809523809524,
VIRE0605,6,inv,60,pos60_id14_im24.bmp_pos60_id14_im16.bmp,['Im_HughJackman.png', 'Im_DanielCraig.png', 'Im_ElijahWood.png', 'Im_LeonardoDiCaprio.png', 'Im_DanielRadcliffe.png', 'Im_RyanReynolds.png', 'Im_RyanGosling.png', 'Im_BenAffleck.png', 'Im_BenStiller.png', 'Im_MattDamon.png'],same,1,1.083415299999615,2,95.23809523809524,
VIRE0605,6,inv,150,pos150_id6_im19.bmp_pos150_id2_im2.bmp,['Im_HughJackman.png', 'Im_DanielCraig.png', 'Im_ElijahWood.png', 'Im_LeonardoDiCaprio.png', 'Im_DanielRadcliffe.png', 'Im_RyanReynolds.png', 'Im_RyanGosling.png', 'Im_BenAffleck.png', 'Im_BenStiller.png', 'Im_MattDamon.png'],diff,1,0.43356309999990117,3,95.23809523809524,
VIRE0605,6,inv,150,pos150_id13_im15.bmp_pos150_id13_im10.bmp,['Im_HughJackman.png', 'Im_DanielCraig.png', 'Im_ElijahWood.png', 'Im_LeonardoDiCaprio.png', 'Im_DanielRadcliffe.png', 'Im_RyanReynolds.png', 'Im_RyanGosling.png', 'Im_BenAffleck.png', 'Im_BenStiller.png', 'Im_MattDamon.png'],same,1,0.42509719999998197,4,95.23809523809524,
VIRE0605,6,inv,30,pos30_id4_im20.bmp_pos30_id4_im15.bmp,['Im_HughJackman.png', 'Im_DanielCraig.png', 'Im_ElijahWood.png', 'Im_LeonardoDiCaprio.png', 'Im_DanielRadcliffe.png', 'Im_RyanReynolds.png', 'Im_RyanGosling.png', 'Im_BenAffleck.png', 'Im_BenStiller.png', 'Im_MattDamon.png'],same,1,0.49186050000025716,5,95.23809523809524,
VIRE0605,6,inv,120,pos120_id14_im16.bmp_pos120_id21_im22.bmp,['Im_HughJackman.png', 'Im_DanielCraig.png', 'Im_ElijahWood.png', 'Im_LeonardoDiCaprio.png', 'Im_DanielRadcliffe.png', 'Im_RyanReynolds.png', 'Im_RyanGosling.png', 'Im_BenAffleck.png', 'Im_BenStiller.png', 'Im_MattDamon.png'],same,0,0.6000928000003114,5,95.23809523809524,
VIRE0605,6,inv,120,pos120_id4_im20.bmp_pos120_id4_im15.bmp,['Im_HughJackman.png', 'Im_DanielCraig.png', 'Im_ElijahWood.png', 'Im_LeonardoDiCaprio.png', 'Im_DanielRadcliffe.png', 'Im_RyanReynolds.png', 'Im_RyanGosling.png', 'Im_BenAffleck.png', 'Im_BenStiller.png', 'Im_MattDamon.png'],same,1,0.42500369999970644,6,95.23809523809524,
VIRE0605,6,inv,0,pos0_id1_im21.bmp_pos0_id1_im24.bmp,['Im_HughJackman.png', 'Im_DanielCraig.png', 'Im_ElijahWood.png', 'Im_LeonardoDiCaprio.png', 'Im_DanielRadcliffe.png', 'Im_RyanReynolds.png', 'Im_RyanGosling.png', 'Im_BenAffleck.png', 'Im_BenStiller.png', 'Im_MattDamon.png'],same,1,1.3332680999997137,7,95.23809523809524,
VIRE0605,6,inv,90,pos90_id1_im24.bmp_pos90_id6_im18.bmp,['Im_HughJackman.png', 'Im_DanielCraig.png', 'Im_ElijahWood.png', 'Im_LeonardoDiCaprio.png', 'Im_DanielRadcliffe.png', 'Im_RyanReynolds.png', 'Im_RyanGosling.png', 'Im_BenAffleck.png', 'Im_BenStiller.png', 'Im_MattDamon.png'],same,0,0.44172470000012254,7,95.23809523809524,
VIRE0605,6,inv,30,pos30_id21_im17.bmp_pos30_id21_im22.bmp,['Im_HughJackman.png', 'Im_DanielCraig.png', 'Im_ElijahWood.png', 'Im_LeonardoDiCaprio.png', 'Im_DanielRadcliffe.png', 'Im_RyanReynolds.png', 'Im_RyanGosling.png', 'Im_BenAffleck.png', 'Im_BenStiller.png', 'Im_MattDamon.png'],same,1,0.41670879999992394,8,95.23809523809524,
VIRE0605,6,inv,0,pos0_id1_im4.bmp_pos0_id1_im24.bmp,['Im_HughJackman.png', 'Im_DanielCraig.png', 'Im_ElijahWood.png', 'Im_LeonardoDiCaprio.png', 'Im_DanielRadcliffe.png', 'Im_RyanReynolds.png', 'Im_RyanGosling.png', 'Im_BenAffleck.png', 'Im_BenStiller.png', 'Im_MattDamon.png'],diff,0,0.8584461000000374,8,95.23809523809524,
VIRE0605,6,inv,fs,posfs_id1_im4.bmp_posfs_id1_im24.bmp,['Im_HughJackman.png', 'Im_DanielCraig.png', 'Im_ElijahWood.png', 'Im_LeonardoDiCaprio.png', 'Im_DanielRadcliffe.png', 'Im_RyanReynolds.png', 'Im_RyanGosling.png', 'Im_BenAffleck.png', 'Im_BenStiller.png', 'Im_MattDamon.png'],same,1,0.4583532000001469,9,95.23809523809524,
VIRE0605,6,inv,fs,posfs_id6_im18.bmp_posfs_id2_im2.bmp,['Im_HughJackman.png', 'Im_DanielCraig.png', 'Im_ElijahWood.png', 'Im_LeonardoDiCaprio.png', 'Im_DanielRadcliffe.png', 'Im_RyanReynolds.png', 'Im_RyanGosling.png', 'Im_BenAffleck.png', 'Im_BenStiller.png', 'Im_MattDamon.png'],diff,1,0.4083869000000959,10,95.23809523809524,
VIRE0605,6,inv,90,pos90_id20_im30.bmp_pos90_id4_im20.bmp,['Im_HughJackman.png', 'Im_DanielCraig.png', 'Im_ElijahWood.png', 'Im_LeonardoDiCaprio.png', 'Im_DanielRadcliffe.png', 'Im_RyanReynolds.png', 'Im_RyanGosling.png', 'Im_BenAffleck.png', 'Im_BenStiller.png', 'Im_MattDamon.png'],diff,1,0.7833016999998108,11,95.23809523809524,
VIRE0605,7,neg,0,neg0_id4_im7.bmp_neg0_id4_im15.bmp,['Im_HughJackman.png', 'Im_DanielCraig.png', 'Im_ElijahWood.png', 'Im_LeonardoDiCaprio.png', 'Im_DanielRadcliffe.png', 'Im_RyanReynolds.png', 'Im_RyanGosling.png', 'Im_BenAffleck.png', 'Im_BenStiller.png', 'Im_MattDamon.png'],same,1,0.4167422999998962,12,95.23809523809524,
VIRE0605,7,neg,90,neg90_id2_im16.bmp_neg90_id2_im3.bmp,['Im_HughJackman.png', 'Im_DanielCraig.png', 'Im_ElijahWood.png', 'Im_LeonardoDiCaprio.png', 'Im_DanielRadcliffe.png', 'Im_RyanReynolds.png', 'Im_RyanGosling.png', 'Im_BenAffleck.png', 'Im_BenStiller.png', 'Im_MattDamon.png'],diff,0,0.5920173999998042,12,95.23809523809524,
VIRE0605,7,neg,120,neg120_id8_im13.bmp_neg120_id8_im21.bmp,['Im_HughJackman.png', 'Im_DanielCraig.png', 'Im_ElijahWood.png', 'Im_LeonardoDiCaprio.png', 'Im_DanielRadcliffe.png', 'Im_RyanReynolds.png', 'Im_RyanGosling.png', 'Im_BenAffleck.png', 'Im_BenStiller.png', 'Im_MattDamon.png'],same,1,0.40864970000029643,13,95.23809523809524,
VIRE0605,7,neg,0,neg0_id1_im24.bmp_neg0_id6_im18.bmp,['Im_HughJackman.png', 'Im_DanielCraig.png', 'Im_ElijahWood.png', 'Im_LeonardoDiCaprio.png', 'Im_DanielRadcliffe.png', 'Im_RyanReynolds.png', 'Im_RyanGosling.png', 'Im_BenAffleck.png', 'Im_BenStiller.png', 'Im_MattDamon.png'],diff,1,0.42521350000015445,14,95.23809523809524,
VIRE0605,7,neg,30,neg30_id20_im12.bmp_neg30_id20_im3.bmp,['Im_HughJackman.png', 'Im_DanielCraig.png', 'Im_ElijahWood.png', 'Im_LeonardoDiCaprio.png', 'Im_DanielRadcliffe.png', 'Im_RyanReynolds.png', 'Im_RyanGosling.png', 'Im_BenAffleck.png', 'Im_BenStiller.png', 'Im_MattDamon.png'],same,1,0.4250163000001521,15,95.23809523809524,
VIRE0605,7,neg,120,neg120_id4_im20.bmp_neg120_id4_im15.bmp,['Im_HughJackman.png', 'Im_DanielCraig.png', 'Im_ElijahWood.png', 'Im_LeonardoDiCaprio.png', 'Im_DanielRadcliffe.png', 'Im_RyanReynolds.png', 'Im_RyanGosling.png', 'Im_BenAffleck.png', 'Im_BenStiller.png', 'Im_MattDamon.png'],same,1,0.42497270000012577,16,95.23809523809524,
VIRE0605,7,neg,fs,negfs_id4_im20.bmp_negfs_id4_im7.bmp,['Im_HughJackman.png', 'Im_DanielCraig.png', 'Im_ElijahWood.png', 'Im_LeonardoDiCaprio.png', 'Im_DanielRadcliffe.png', 'Im_RyanReynolds.png', 'Im_RyanGosling.png', 'Im_BenAffleck.png', 'Im_BenStiller.png', 'Im_MattDamon.png'],same,1,0.4250590000001466,17,95.23809523809524,
VIRE0605,7,neg,150,neg150_id6_im18.bmp_neg150_id6_im19.bmp,['Im_HughJackman.png', 'Im_DanielCraig.png', 'Im_ElijahWood.png', 'Im_LeonardoDiCaprio.png', 'Im_DanielRadcliffe.png', 'Im_RyanReynolds.png', 'Im_RyanGosling.png', 'Im_BenAffleck.png', 'Im_BenStiller.png', 'Im_MattDamon.png'],same,1,0.42520039999999426,18,95.23809523809524,
VIRE0605,7,neg,30,neg30_id13_im29.bmp_neg30_id2_im3.bmp,['Im_HughJackman.png', 'Im_DanielCraig.png', 'Im_ElijahWood.png', 'Im_LeonardoDiCaprio.png', 'Im_DanielRadcliffe.png', 'Im_RyanReynolds.png', 'Im_RyanGosling.png', 'Im_BenAffleck.png', 'Im_BenStiller.png', 'Im_MattDamon.png'],diff,1,0.4249080000004142,19,95.23809523809524,
VIRE0605,7,neg,fs,negfs_id20_im30.bmp_negfs_id20_im12.bmp,['Im_HughJackman.png', 'Im_DanielCraig.png', 'Im_ElijahWood.png', 'Im_LeonardoDiCaprio.png', 'Im_DanielRadcliffe.png', 'Im_RyanReynolds.png', 'Im_RyanGosling.png', 'Im_BenAffleck.png', 'Im_BenStiller.png', 'Im_MattDamon.png'],same,1,0.4585363999999572,20,95.23809523809524,
VIRE0605,7,neg,60,neg60_id14_im18.bmp_neg60_id21_im16.bmp,['Im_HughJackman.png', 'Im_DanielCraig.png', 'Im_ElijahWood.png', 'Im_LeonardoDiCaprio.png', 'Im_DanielRadcliffe.png', 'Im_RyanReynolds.png', 'Im_RyanGosling.png', 'Im_BenAffleck.png', 'Im_BenStiller.png', 'Im_MattDamon.png'],diff,1,1.3170395000001918,21,95.23809523809524,
VIRE0605,7,neg,60,neg60_id1_im21.bmp_neg60_id6_im19.bmp,['Im_HughJackman.png', 'Im_DanielCraig.png', 'Im_ElijahWood.png', 'Im_LeonardoDiCaprio.png', 'Im_DanielRadcliffe.png', 'Im_RyanReynolds.png', 'Im_RyanGosling.png', 'Im_BenAffleck.png', 'Im_BenStiller.png', 'Im_MattDamon.png'],diff,1,0.4332153999998809,22,95.23809523809524,
VIRE0605,7,neg,150,neg150_id14_im24.bmp_neg150_id14_im16.bmp,['Im_HughJackman.png', 'Im_DanielCraig.png', 'Im_ElijahWood.png', 'Im_LeonardoDiCaprio.png', 'Im_DanielRadcliffe.png', 'Im_RyanReynolds.png', 'Im_RyanGosling.png', 'Im_BenAffleck.png', 'Im_BenStiller.png', 'Im_MattDamon.png'],diff,0,1.5085159000000203,22,95.23809523809524,
VIRE0605,7,neg,90,neg90_id8_im13.bmp_neg90_id8_im21.bmp,['Im_HughJackman.png', 'Im_DanielCraig.png', 'Im_ElijahWood.png', 'Im_LeonardoDiCaprio.png', 'Im_DanielRadcliffe.png', 'Im_RyanReynolds.png', 'Im_RyanGosling.png', 'Im_BenAffleck.png', 'Im_BenStiller.png', 'Im_MattDamon.png'],same,1,0.4251275000001442,23,95.23809523809524,
VIRE0605,8,pos,fs,posfs_id2_im16.bmp_posfs_id8_im20.bmp,['Im_HughJackman.png', 'Im_DanielCraig.png', 'Im_ElijahWood.png', 'Im_LeonardoDiCaprio.png', 'Im_DanielRadcliffe.png', 'Im_RyanReynolds.png', 'Im_RyanGosling.png', 'Im_BenAffleck.png', 'Im_BenStiller.png', 'Im_MattDamon.png'],diff,1,0.4251122000000578,24,95.23809523809524,
VIRE0605,8,pos,fs,posfs_id8_im13.bmp_posfs_id8_im21.bmp,['Im_HughJackman.png', 'Im_DanielCraig.png', 'Im_ElijahWood.png', 'Im_LeonardoDiCaprio.png', 'Im_DanielRadcliffe.png', 'Im_RyanReynolds.png', 'Im_RyanGosling.png', 'Im_BenAffleck.png', 'Im_BenStiller.png', 'Im_MattDamon.png'],same,1,0.4249904999996943,25,95.23809523809524,
VIRE0605,8,pos,150,pos150_id2_im16.bmp_pos150_id2_im2.bmp,['Im_HughJackman.png', 'Im_DanielCraig.png', 'Im_ElijahWood.png', 'Im_LeonardoDiCaprio.png', 'Im_DanielRadcliffe.png', 'Im_RyanReynolds.png', 'Im_RyanGosling.png', 'Im_BenAffleck.png', 'Im_BenStiller.png', 'Im_MattDamon.png'],diff,0,0.41670609999982844,25,95.23809523809524,
VIRE0605,8,pos,90,pos90_id4_im15.bmp_pos90_id4_im7.bmp,['Im_HughJackman.png', 'Im_DanielCraig.png', 'Im_ElijahWood.png', 'Im_LeonardoDiCaprio.png', 'Im_DanielRadcliffe.png', 'Im_RyanReynolds.png', 'Im_RyanGosling.png', 'Im_BenAffleck.png', 'Im_BenStiller.png', 'Im_MattDamon.png'],same,1,0.41674330000023474,26,95.23809523809524,
VIRE0605,8,pos,0,pos0_id13_im15.bmp_pos0_id13_im10.bmp,['Im_HughJackman.png', 'Im_DanielCraig.png', 'Im_ElijahWood.png', 'Im_LeonardoDiCaprio.png', 'Im_DanielRadcliffe.png', 'Im_RyanReynolds.png', 'Im_RyanGosling.png', 'Im_BenAffleck.png', 'Im_BenStiller.png', 'Im_MattDamon.png'],same,1,0.4167161000004853,27,95.23809523809524,
VIRE0605,8,pos,30,pos30_id14_im24.bmp_pos30_id14_im18.bmp,['Im_HughJackman.png', 'Im_DanielCraig.png', 'Im_ElijahWood.png', 'Im_LeonardoDiCaprio.png', 'Im_DanielRadcliffe.png', 'Im_RyanReynolds.png', 'Im_RyanGosling.png', 'Im_BenAffleck.png', 'Im_BenStiller.png', 'Im_MattDamon.png'],same,1,0.4249660999994376,28,95.23809523809524,
VIRE0605,8,pos,120,pos120_id6_im19.bmp_pos120_id2_im2.bmp,['Im_HughJackman.png', 'Im_DanielCraig.png', 'Im_ElijahWood.png', 'Im_LeonardoDiCaprio.png', 'Im_DanielRadcliffe.png', 'Im_RyanReynolds.png', 'Im_RyanGosling.png', 'Im_BenAffleck.png', 'Im_BenStiller.png', 'Im_MattDamon.png'],diff,1,0.4333473000006052,29,95.23809523809524,
VIRE0605,8,pos,60,pos60_id2_im16.bmp_pos60_id2_im3.bmp,['Im_HughJackman.png', 'Im_DanielCraig.png', 'Im_ElijahWood.png', 'Im_LeonardoDiCaprio.png', 'Im_DanielRadcliffe.png', 'Im_RyanReynolds.png', 'Im_RyanGosling.png', 'Im_BenAffleck.png', 'Im_BenStiller.png', 'Im_MattDamon.png'],same,1,0.5665450999995301,30,95.23809523809524,
VIRE0605,8,pos,0,pos0_id5_im1.bmp_pos0_id21_im16.bmp,['Im_HughJackman.png', 'Im_DanielCraig.png', 'Im_ElijahWood.png', 'Im_LeonardoDiCaprio.png', 'Im_DanielRadcliffe.png', 'Im_RyanReynolds.png', 'Im_RyanGosling.png', 'Im_BenAffleck.png', 'Im_BenStiller.png', 'Im_MattDamon.png'],diff,1,0.41675429999941116,31,95.23809523809524,
VIRE0605,8,pos,30,pos30_id20_im3.bmp_pos30_id20_im30.bmp,['Im_HughJackman.png', 'Im_DanielCraig.png', 'Im_ElijahWood.png', 'Im_LeonardoDiCaprio.png', 'Im_DanielRadcliffe.png', 'Im_RyanReynolds.png', 'Im_RyanGosling.png', 'Im_BenAffleck.png', 'Im_BenStiller.png', 'Im_MattDamon.png'],same,1,0.625344000000041,32,95.23809523809524,
VIRE0605,8,pos,90,pos90_id6_im19.bmp_pos90_id6_im18.bmp,['Im_HughJackman.png', 'Im_DanielCraig.png', 'Im_ElijahWood.png', 'Im_LeonardoDiCaprio.png', 'Im_DanielRadcliffe.png', 'Im_RyanReynolds.png', 'Im_RyanGosling.png', 'Im_BenAffleck.png', 'Im_BenStiller.png', 'Im_MattDamon.png'],same,1,0.4083164999992732,33,95.23809523809524,
VIRE0605,8,pos,60,pos60_id8_im13.bmp_pos60_id8_im20.bmp,['Im_HughJackman.png', 'Im_DanielCraig.png', 'Im_ElijahWood.png', 'Im_LeonardoDiCaprio.png', 'Im_DanielRadcliffe.png', 'Im_RyanReynolds.png', 'Im_RyanGosling.png', 'Im_BenAffleck.png', 'Im_BenStiller.png', 'Im_MattDamon.png'],same,1,0.42506479999974545,34,95.23809523809524,
VIRE0605,8,pos,150,pos150_id14_im18.bmp_pos150_id14_im16.bmp,['Im_HughJackman.png', 'Im_DanielCraig.png', 'Im_ElijahWood.png', 'Im_LeonardoDiCaprio.png', 'Im_DanielRadcliffe.png', 'Im_RyanReynolds.png', 'Im_RyanGosling.png', 'Im_BenAffleck.png', 'Im_BenStiller.png', 'Im_MattDamon.png'],same,1,0.4250435000003563,35,95.23809523809524,
VIRE0605,8,pos,120,pos120_id20_im12.bmp_pos120_id20_im3.bmp,['Im_HughJackman.png', 'Im_DanielCraig.png', 'Im_ElijahWood.png', 'Im_LeonardoDiCaprio.png', 'Im_DanielRadcliffe.png', 'Im_RyanReynolds.png', 'Im_RyanGosling.png', 'Im_BenAffleck.png', 'Im_BenStiller.png', 'Im_MattDamon.png'],same,1,1.2334037999999055,36,95.23809523809524,
VIRE0605,9,neg,60,neg60_id21_im16.bmp_neg60_id21_im17.bmp,['Im_HughJackman.png', 'Im_DanielCraig.png', 'Im_ElijahWood.png', 'Im_LeonardoDiCaprio.png', 'Im_DanielRadcliffe.png', 'Im_RyanReynolds.png', 'Im_RyanGosling.png', 'Im_BenAffleck.png', 'Im_BenStiller.png', 'Im_MattDamon.png'],same,1,0.9833275000000867,1,85.71428571428571,
VIRE0605,9,neg,120,neg120_id6_im12.bmp_neg120_id5_im1.bmp,['Im_HughJackman.png', 'Im_DanielCraig.png', 'Im_ElijahWood.png', 'Im_LeonardoDiCaprio.png', 'Im_DanielRadcliffe.png', 'Im_RyanReynolds.png', 'Im_RyanGosling.png', 'Im_BenAffleck.png', 'Im_BenStiller.png', 'Im_MattDamon.png'],diff,1,1.1499319000004107,2,85.71428571428571,
VIRE0605,9,neg,60,neg60_id4_im15.bmp_neg60_id4_im20.bmp,['Im_HughJackman.png', 'Im_DanielCraig.png', 'Im_ElijahWood.png', 'Im_LeonardoDiCaprio.png', 'Im_DanielRadcliffe.png', 'Im_RyanReynolds.png', 'Im_RyanGosling.png', 'Im_BenAffleck.png', 'Im_BenStiller.png', 'Im_MattDamon.png'],same,1,0.4083853000001909,3,85.71428571428571,
VIRE0605,9,neg,30,neg30_id20_im12.bmp_neg30_id14_im18.bmp,['Im_HughJackman.png', 'Im_DanielCraig.png', 'Im_ElijahWood.png', 'Im_LeonardoDiCaprio.png', 'Im_DanielRadcliffe.png', 'Im_RyanReynolds.png', 'Im_RyanGosling.png', 'Im_BenAffleck.png', 'Im_BenStiller.png', 'Im_MattDamon.png'],diff,1,0.5085369999997056,4,85.71428571428571,
VIRE0605,9,neg,150,neg150_id2_im16.bmp_neg150_id1_im21.bmp,['Im_HughJackman.png', 'Im_DanielCraig.png', 'Im_ElijahWood.png', 'Im_LeonardoDiCaprio.png', 'Im_DanielRadcliffe.png', 'Im_RyanReynolds.png', 'Im_RyanGosling.png', 'Im_BenAffleck.png', 'Im_BenStiller.png', 'Im_MattDamon.png'],diff,1,0.4167317000001276,5,85.71428571428571,
VIRE0605,9,neg,0,neg0_id20_im12.bmp_neg0_id20_im3.bmp,['Im_HughJackman.png', 'Im_DanielCraig.png', 'Im_ElijahWood.png', 'Im_LeonardoDiCaprio.png', 'Im_DanielRadcliffe.png', 'Im_RyanReynolds.png', 'Im_RyanGosling.png', 'Im_BenAffleck.png', 'Im_BenStiller.png', 'Im_MattDamon.png'],same,1,0.4247614000005342,6,85.71428571428571,
VIRE0605,9,neg,150,neg150_id6_im12.bmp_neg150_id6_im18.bmp,['Im_HughJackman.png', 'Im_DanielCraig.png', 'Im_ElijahWood.png', 'Im_LeonardoDiCaprio.png', 'Im_DanielRadcliffe.png', 'Im_RyanReynolds.png', 'Im_RyanGosling.png', 'Im_BenAffleck.png', 'Im_BenStiller.png', 'Im_MattDamon.png'],same,1,0.40847329999996873,7,85.71428571428571,
VIRE0605,9,neg,fs,negfs_id1_im21.bmp_negfs_id6_im19.bmp,['Im_HughJackman.png', 'Im_DanielCraig.png', 'Im_ElijahWood.png', 'Im_LeonardoDiCaprio.png', 'Im_DanielRadcliffe.png', 'Im_RyanReynolds.png', 'Im_RyanGosling.png', 'Im_BenAffleck.png', 'Im_BenStiller.png', 'Im_MattDamon.png'],diff,1,0.4167025000006106,8,85.71428571428571,
VIRE0605,9,neg,0,neg0_id14_im24.bmp_neg0_id13_im29.bmp,['Im_HughJackman.png', 'Im_DanielCraig.png', 'Im_ElijahWood.png', 'Im_LeonardoDiCaprio.png', 'Im_DanielRadcliffe.png', 'Im_RyanReynolds.png', 'Im_RyanGosling.png', 'Im_BenAffleck.png', 'Im_BenStiller.png', 'Im_MattDamon.png'],same,0,1.2502795000000333,8,85.71428571428571,
VIRE0605,9,neg,fs,negfs_id8_im20.bmp_negfs_id2_im16.bmp,['Im_HughJackman.png', 'Im_DanielCraig.png', 'Im_ElijahWood.png', 'Im_LeonardoDiCaprio.png', 'Im_DanielRadcliffe.png', 'Im_RyanReynolds.png', 'Im_RyanGosling.png', 'Im_BenAffleck.png', 'Im_BenStiller.png', 'Im_MattDamon.png'],diff,1,0.45854099999996834,9,85.71428571428571,
VIRE0605,9,neg,30,neg30_id21_im16.bmp_neg30_id5_im1.bmp,['Im_HughJackman.png', 'Im_DanielCraig.png', 'Im_ElijahWood.png', 'Im_LeonardoDiCaprio.png', 'Im_DanielRadcliffe.png', 'Im_RyanReynolds.png', 'Im_RyanGosling.png', 'Im_BenAffleck.png', 'Im_BenStiller.png', 'Im_MattDamon.png'],diff,1,0.42537739999988844,10,85.71428571428571,
VIRE0605,9,neg,120,neg120_id5_im10.bmp_neg120_id2_im3.bmp,['Im_HughJackman.png', 'Im_DanielCraig.png', 'Im_ElijahWood.png', 'Im_LeonardoDiCaprio.png', 'Im_DanielRadcliffe.png', 'Im_RyanReynolds.png', 'Im_RyanGosling.png', 'Im_BenAffleck.png', 'Im_BenStiller.png', 'Im_MattDamon.png'],diff,1,0.42516859999977896,11,85.71428571428571,
VIRE0605,9,neg,90,neg90_id1_im21.bmp_neg90_id1_im4.bmp,['Im_HughJackman.png', 'Im_DanielCraig.png', 'Im_ElijahWood.png', 'Im_LeonardoDiCaprio.png', 'Im_DanielRadcliffe.png', 'Im_RyanReynolds.png', 'Im_RyanGosling.png', 'Im_BenAffleck.png', 'Im_BenStiller.png', 'Im_MattDamon.png'],same,1,0.4166395000002012,12,85.71428571428571,
VIRE0605,9,neg,90,neg90_id4_im20.bmp_neg90_id4_im15.bmp,['Im_HughJackman.png', 'Im_DanielCraig.png', 'Im_ElijahWood.png', 'Im_LeonardoDiCaprio.png', 'Im_DanielRadcliffe.png', 'Im_RyanReynolds.png', 'Im_RyanGosling.png', 'Im_BenAffleck.png', 'Im_BenStiller.png', 'Im_MattDamon.png'],same,1,0.4333578999994643,13,85.71428571428571,
VIRE0605,10,inv,0,pos0_id2_im2.bmp_pos0_id6_im19.bmp,['Im_HughJackman.png', 'Im_DanielCraig.png', 'Im_ElijahWood.png', 'Im_LeonardoDiCaprio.png', 'Im_DanielRadcliffe.png', 'Im_RyanReynolds.png', 'Im_RyanGosling.png', 'Im_BenAffleck.png', 'Im_BenStiller.png', 'Im_MattDamon.png'],diff,1,0.8417705000001661,14,85.71428571428571,
VIRE0605,10,inv,120,pos120_id6_im18.bmp_pos120_id1_im24.bmp,['Im_HughJackman.png', 'Im_DanielCraig.png', 'Im_ElijahWood.png', 'Im_LeonardoDiCaprio.png', 'Im_DanielRadcliffe.png', 'Im_RyanReynolds.png', 'Im_RyanGosling.png', 'Im_BenAffleck.png', 'Im_BenStiller.png', 'Im_MattDamon.png'],diff,1,2.5008912000002965,15,85.71428571428571,
VIRE0605,10,inv,0,pos0_id21_im17.bmp_pos0_id8_im20.bmp,['Im_HughJackman.png', 'Im_DanielCraig.png', 'Im_ElijahWood.png', 'Im_LeonardoDiCaprio.png', 'Im_DanielRadcliffe.png', 'Im_RyanReynolds.png', 'Im_RyanGosling.png', 'Im_BenAffleck.png', 'Im_BenStiller.png', 'Im_MattDamon.png'],diff,1,0.7751708000005237,16,85.71428571428571,
VIRE0605,10,inv,fs,posfs_id20_im30.bmp_posfs_id20_im3.bmp,['Im_HughJackman.png', 'Im_DanielCraig.png', 'Im_ElijahWood.png', 'Im_LeonardoDiCaprio.png', 'Im_DanielRadcliffe.png', 'Im_RyanReynolds.png', 'Im_RyanGosling.png', 'Im_BenAffleck.png', 'Im_BenStiller.png', 'Im_MattDamon.png'],same,1,0.408328900000015,17,85.71428571428571,
VIRE0605,10,inv,150,pos150_id1_im21.bmp_pos150_id1_im24.bmp,['Im_HughJackman.png', 'Im_DanielCraig.png', 'Im_ElijahWood.png', 'Im_LeonardoDiCaprio.png', 'Im_DanielRadcliffe.png', 'Im_RyanReynolds.png', 'Im_RyanGosling.png', 'Im_BenAffleck.png', 'Im_BenStiller.png', 'Im_MattDamon.png'],same,1,0.41671749999932217,18,85.71428571428571,
VIRE0605,10,inv,30,pos30_id2_im16.bmp_pos30_id2_im3.bmp,['Im_HughJackman.png', 'Im_DanielCraig.png', 'Im_ElijahWood.png', 'Im_LeonardoDiCaprio.png', 'Im_DanielRadcliffe.png', 'Im_RyanReynolds.png', 'Im_RyanGosling.png', 'Im_BenAffleck.png', 'Im_BenStiller.png', 'Im_MattDamon.png'],same,1,0.4336198000000877,19,85.71428571428571,
