Sujet,Trial,Condition,Filter,Imname,Actor0,Actor1,Actor2,Actor3,Actor4,Actor5,Actor6,Actor7,Actor8,Actor9,Answer,Accu,RT,Score,Scoreperc, 
XABE0501,_,posfs_PatrickDempsey_im14.bmp,PatrickDempsey,KeanuReeves,KeanuReeves,RobertDowneyJr,HughJackman,RyanReynolds,,,,,4,3.4620295999993687,
XABE0501,_,posfs_RobertPattinson_im4.bmp,RobertPattinson,DanielRadcliffe,DanielRadcliffe,RyanGosling,MattDamon,ElijahWood,,,,,4,3.82380959999864,
XABE0501,_,posfs_DanielCraig_im7.bmp,DanielCraig,BenAffleck,BenAffleck,KeanuReeves,PatrickDempsey,DanielRadcliffe,,,,,4,3.8063116000012087,
XABE0501,_,posfs_BenStiller_im16.bmp,BenStiller,KeanuReeves,KeanuReeves,MattDamon,JustinTimberlake,BenAffleck,,,,,4,3.179604400000244,
XABE0501,_,posfs_MattDamon_im24.bmp,MattDamon,RobertDowneyJr,RobertDowneyJr,BradPitt,HughJackman,RobertPattinson,,,,,4,5.433610899999621,
XABE0501,_,posfs_LeonardoDiCaprio_im10.bmp,LeonardoDiCaprio,BenStiller,BenStiller,RyanGosling,PatrickDempsey,RobertPattinson,,,,,posfs_LeonardoDiCaprio_im10.bmp,1.4083580000005895,
XABE0501,_,posfs_BenAffleck_im8.bmp,BenAffleck,OrlandoBloom,OrlandoBloom,RobertPattinson,RyanReynolds,MattDamon,,,,,4,3.1573226999971666,
XABE0501,_,posfs_DanielCraig_im20.bmp,DanielCraig,BenStiller,BenStiller,BradPitt,LeonardoDiCaprio,OrlandoBloom,,,,,4,2.434921200001554,
XABE0501,_,posfs_BenAffleck_im24.bmp,BenAffleck,OrlandoBloom,OrlandoBloom,DanielRadcliffe,MattDamon,GeorgeClooney,,,,,4,4.790987100001075,
XABE0501,_,posfs_RobertDowneyJr_im18.bmp,RobertDowneyJr,MattDamon,MattDamon,BradPitt,GeorgeClooney,JustinTimberlake,,,,,4,4.533569899998838,
XABE0501,_,posfs_HughJackman_im18.bmp,HughJackman,LeonardoDiCaprio,LeonardoDiCaprio,BradPitt,RyanGosling,DanielRadcliffe,,,,,4,4.479032099996402,
XABE0501,_,posfs_DanielRadcliffe_im1.bmp,DanielRadcliffe,BradPitt,BradPitt,LeonardoDiCaprio,BenStiller,RobertPattinson,,,,,posfs_DanielRadcliffe_im1.bmp,2.640888599999016,
XABE0501,_,posfs_RyanGosling_im30.bmp,RyanGosling,RyanReynolds,RyanReynolds,DanielCraig,PatrickDempsey,RobertPattinson,,,,,4,3.789216500001203,
XABE0501,_,posfs_BradPitt_im6.bmp,BradPitt,RyanGosling,RyanGosling,RobertDowneyJr,OrlandoBloom,HughJackman,,,,,posfs_BradPitt_im6.bmp,2.8271810000005644,
XABE0501,_,posfs_KeanuReeves_im1.bmp,KeanuReeves,LeonardoDiCaprio,LeonardoDiCaprio,BradPitt,JustinTimberlake,RobertPattinson,,,,,4,3.5845251999999164,
XABE0501,_,posfs_ElijahWood_im12.bmp,ElijahWood,DanielRadcliffe,DanielRadcliffe,RobertDowneyJr,GeorgeClooney,BenStiller,,,,,0,1.7432212000021536,
XABE0501,_,posfs_PatrickDempsey_im16.bmp,PatrickDempsey,BradPitt,BradPitt,DanielCraig,DanielRadcliffe,LeonardoDiCaprio,,,,,4,3.870775900002627,
XABE0501,_,posfs_OrlandoBloom_im3.bmp,OrlandoBloom,RobertPattinson,RobertPattinson,RyanReynolds,RyanGosling,RobertDowneyJr,,,,,4,2.896002399997087,
XABE0501,_,posfs_RobertDowneyJr_im11.bmp,RobertDowneyJr,HughJackman,HughJackman,RyanGosling,JustinTimberlake,BenStiller,,,,,4,2.5587806000003184,
XABE0501,_,posfs_JustinTimberlake_im1.bmp,JustinTimberlake,BenAffleck,BenAffleck,ElijahWood,PatrickDempsey,HughJackman,,,,,4,3.049237200000789,
XABE0501,_,posfs_RobertPattinson_im27.bmp,RobertPattinson,RyanReynolds,RyanReynolds,OrlandoBloom,MattDamon,KeanuReeves,,,,,4,2.949202799998602,
XABE0501,_,posfs_ElijahWood_im19.bmp,ElijahWood,PatrickDempsey,PatrickDempsey,RyanReynolds,BenAffleck,OrlandoBloom,,,,,4,2.9651444000010088,
XABE0501,_,posfs_GeorgeClooney_im14.bmp,GeorgeClooney,KeanuReeves,KeanuReeves,LeonardoDiCaprio,PatrickDempsey,RobertPattinson,,,,,posfs_GeorgeClooney_im14.bmp,1.333449699999619,
XABE0501,_,posfs_KeanuReeves_im8.bmp,KeanuReeves,BenAffleck,BenAffleck,LeonardoDiCaprio,RyanGosling,GeorgeClooney,,,,,4,2.941543900000397,
XABE0501,_,posfs_OrlandoBloom_im30.bmp,OrlandoBloom,JustinTimberlake,JustinTimberlake,BradPitt,KeanuReeves,RyanGosling,,,,,4,2.443388399999094,
XABE0501,_,posfs_RyanReynolds_im3.bmp,RyanReynolds,BenAffleck,BenAffleck,DanielCraig,MattDamon,OrlandoBloom,,,,,4,2.080252499999915,
XABE0501,_,posfs_KeanuReeves_im10.bmp,KeanuReeves,MattDamon,MattDamon,OrlandoBloom,PatrickDempsey,LeonardoDiCaprio,,,,,4,1.6188476999996055,
XABE0501,_,posfs_GeorgeClooney_im15.bmp,GeorgeClooney,JustinTimberlake,JustinTimberlake,DanielRadcliffe,DanielCraig,BenAffleck,,,,,posfs_GeorgeClooney_im15.bmp,1.2012448000023142,
XABE0501,_,posfs_BenAffleck_im21.bmp,BenAffleck,RyanGosling,RyanGosling,GeorgeClooney,ElijahWood,BradPitt,,,,,4,2.3831819000006362,
XABE0501,_,posfs_RobertDowneyJr_im19.bmp,RobertDowneyJr,DanielRadcliffe,DanielRadcliffe,DanielCraig,PatrickDempsey,BenStiller,,,,,4,1.6198929999991378,
XABE0501,_,posfs_GeorgeClooney_im26.bmp,GeorgeClooney,LeonardoDiCaprio,LeonardoDiCaprio,RobertPattinson,BenAffleck,ElijahWood,,,,,posfs_GeorgeClooney_im26.bmp,3.3707967000009376,
XABE0501,_,posfs_DanielCraig_im8.bmp,DanielCraig,RobertPattinson,RobertPattinson,BenAffleck,BenStiller,LeonardoDiCaprio,,,,,4,1.496934800001327,
XABE0501,_,posfs_JustinTimberlake_im17.bmp,JustinTimberlake,MattDamon,MattDamon,LeonardoDiCaprio,ElijahWood,GeorgeClooney,,,,,4,1.6839074999988952,
XABE0501,_,posfs_BradPitt_im17.bmp,BradPitt,PatrickDempsey,PatrickDempsey,LeonardoDiCaprio,JustinTimberlake,HughJackman,,,,,4,0.8372390000004089,
XABE0501,_,posfs_BenStiller_im3.bmp,BenStiller,ElijahWood,ElijahWood,JustinTimberlake,BradPitt,RobertDowneyJr,,,,,4,2.7701030999996874,
XABE0501,_,posfs_PatrickDempsey_im9.bmp,PatrickDempsey,HughJackman,HughJackman,RobertDowneyJr,KeanuReeves,BenAffleck,,,,,4,2.5145309999970777,
XABE0501,_,posfs_RyanGosling_im3.bmp,RyanGosling,RobertPattinson,RobertPattinson,PatrickDempsey,DanielCraig,JustinTimberlake,,,,,4,2.7962230000011914,
XABE0501,_,posfs_RobertPattinson_im30.bmp,RobertPattinson,DanielRadcliffe,DanielRadcliffe,DanielCraig,BenAffleck,JustinTimberlake,,,,,4,2.316941900000529,
XABE0501,_,posfs_LeonardoDiCaprio_im15.bmp,LeonardoDiCaprio,RobertPattinson,RobertPattinson,DanielCraig,BradPitt,DanielRadcliffe,,,,,posfs_LeonardoDiCaprio_im15.bmp,1.1954689999984112,
XABE0501,_,posfs_RyanReynolds_im22.bmp,RyanReynolds,JustinTimberlake,JustinTimberlake,BradPitt,KeanuReeves,LeonardoDiCaprio,,,,,4,1.816831699998147,
XABE0501,_,posfs_DanielRadcliffe_im10.bmp,DanielRadcliffe,LeonardoDiCaprio,LeonardoDiCaprio,KeanuReeves,ElijahWood,MattDamon,,,,,posfs_DanielRadcliffe_im10.bmp,2.2944571000007272,
XABE0501,_,posfs_BradPitt_im8.bmp,BradPitt,BenStiller,BenStiller,BenAffleck,OrlandoBloom,RobertPattinson,,,,,posfs_BradPitt_im8.bmp,4.9680826000003435,
XABE0501,_,posfs_RobertDowneyJr_im4.bmp,RobertDowneyJr,RyanGosling,RyanGosling,BradPitt,HughJackman,ElijahWood,,,,,4,1.301904400002968,
XABE0501,_,posfs_ElijahWood_im23.bmp,ElijahWood,BenAffleck,BenAffleck,RyanGosling,BenStiller,RobertDowneyJr,,,,,4,2.9610936000026413,
XABE0501,_,posfs_MattDamon_im9.bmp,MattDamon,BradPitt,BradPitt,HughJackman,DanielCraig,LeonardoDiCaprio,,,,,0,2.048570800001471,
XABE0501,_,posfs_BradPitt_im14.bmp,BradPitt,MattDamon,MattDamon,DanielCraig,OrlandoBloom,LeonardoDiCaprio,,,,,4,2.916398699999263,
XABE0501,_,posfs_DanielCraig_im15.bmp,DanielCraig,BenAffleck,BenAffleck,MattDamon,BenStiller,HughJackman,,,,,4,1.267941599999176,
XABE0501,_,posfs_JustinTimberlake_im4.bmp,JustinTimberlake,BenStiller,BenStiller,RobertDowneyJr,OrlandoBloom,PatrickDempsey,,,,,4,2.598738800003048,
XABE0501,_,posfs_HughJackman_im20.bmp,HughJackman,JustinTimberlake,JustinTimberlake,RyanReynolds,DanielCraig,OrlandoBloom,,,,,4,2.3481824999980745,
XABE0501,_,posfs_HughJackman_im13.bmp,HughJackman,BradPitt,BradPitt,PatrickDempsey,MattDamon,RobertPattinson,,,,,4,2.25954549999733,
XABE0501,_,posfs_KeanuReeves_im2.bmp,KeanuReeves,HughJackman,HughJackman,GeorgeClooney,RobertPattinson,BenStiller,,,,,4,2.238955699998769,
XABE0501,_,posfs_RyanGosling_im25.bmp,RyanGosling,DanielCraig,DanielCraig,KeanuReeves,BradPitt,MattDamon,,,,,4,1.906827800001338,
XABE0501,_,posfs_MattDamon_im18.bmp,MattDamon,DanielCraig,DanielCraig,PatrickDempsey,DanielRadcliffe,ElijahWood,,,,,4,3.980210399997304,
XABE0501,_,posfs_BenStiller_im2.bmp,BenStiller,RobertDowneyJr,RobertDowneyJr,GeorgeClooney,DanielCraig,RyanReynolds,,,,,4,1.6829174999984389,
XABE0501,_,posfs_BenAffleck_im4.bmp,BenAffleck,BenStiller,BenStiller,KeanuReeves,ElijahWood,PatrickDempsey,,,,,4,2.0938853999978164,
XABE0501,_,posfs_GeorgeClooney_im23.bmp,GeorgeClooney,BenAffleck,BenAffleck,MattDamon,OrlandoBloom,KeanuReeves,,,,,posfs_GeorgeClooney_im23.bmp,1.4253820999983873,
XABE0501,_,posfs_LeonardoDiCaprio_im24.bmp,LeonardoDiCaprio,DanielCraig,DanielCraig,BradPitt,PatrickDempsey,RyanGosling,,,,,posfs_LeonardoDiCaprio_im24.bmp,1.3181569000007585,
XABE0501,_,posfs_RobertPattinson_im8.bmp,RobertPattinson,DanielRadcliffe,DanielRadcliffe,OrlandoBloom,MattDamon,RyanGosling,,,,,4,2.390714000001026,
XABE0501,_,posfs_HughJackman_im21.bmp,HughJackman,OrlandoBloom,OrlandoBloom,GeorgeClooney,RyanGosling,BradPitt,,,,,4,3.30710850000105,
XABE0501,_,posfs_PatrickDempsey_im8.bmp,PatrickDempsey,BenStiller,BenStiller,MattDamon,BradPitt,RyanGosling,,,,,4,2.6857644000010623,
XABE0501,_,posfs_RyanReynolds_im17.bmp,RyanReynolds,PatrickDempsey,PatrickDempsey,ElijahWood,BenStiller,BradPitt,,,,,4,2.1503292999987025,
XABE0501,_,posfs_LeonardoDiCaprio_im29.bmp,LeonardoDiCaprio,RobertDowneyJr,RobertDowneyJr,PatrickDempsey,OrlandoBloom,DanielCraig,,,,,posfs_LeonardoDiCaprio_im29.bmp,1.7758500999989337,
XABE0501,_,posfs_OrlandoBloom_im2.bmp,OrlandoBloom,BenAffleck,BenAffleck,RyanGosling,MattDamon,RobertDowneyJr,,,,,4,2.398916400001326,
XABE0501,_,posfs_DanielRadcliffe_im8.bmp,DanielRadcliffe,MattDamon,MattDamon,PatrickDempsey,RyanReynolds,RobertDowneyJr,,,,,posfs_DanielRadcliffe_im8.bmp,2.213184400003229,
XABE0501,_,posfs_RyanGosling_im12.bmp,RyanGosling,PatrickDempsey,PatrickDempsey,RyanReynolds,BradPitt,DanielCraig,,,,,4,2.8994853000003786,
XABE0501,_,posfs_MattDamon_im16.bmp,MattDamon,LeonardoDiCaprio,LeonardoDiCaprio,RyanGosling,KeanuReeves,BenStiller,,,,,4,1.4743716000011773,
XABE0501,_,posfs_ElijahWood_im18.bmp,ElijahWood,PatrickDempsey,PatrickDempsey,JustinTimberlake,RobertPattinson,RobertDowneyJr,,,,,4,2.1015197000015178,
XABE0501,_,posfs_BenStiller_im7.bmp,BenStiller,LeonardoDiCaprio,LeonardoDiCaprio,RyanGosling,DanielCraig,PatrickDempsey,,,,,4,2.080483699999604,
XABE0501,_,posfs_DanielRadcliffe_im20.bmp,DanielRadcliffe,GeorgeClooney,GeorgeClooney,ElijahWood,RobertPattinson,KeanuReeves,,,,,4,1.818041300000914,
XABE0501,_,posfs_JustinTimberlake_im18.bmp,JustinTimberlake,ElijahWood,ElijahWood,RyanGosling,DanielRadcliffe,LeonardoDiCaprio,,,,,4,1.623061999998754,
XABE0501,_,posfs_OrlandoBloom_im19.bmp,OrlandoBloom,ElijahWood,ElijahWood,DanielCraig,PatrickDempsey,LeonardoDiCaprio,,,,,4,1.1329359999981534,
XABE0501,_,posfs_RyanReynolds_im16.bmp,RyanReynolds,OrlandoBloom,OrlandoBloom,RobertPattinson,RyanGosling,LeonardoDiCaprio,,,,,4,1.8710419999988517,
XABE0501,train,pos,fs,posfs_id5_im20.bmp_posfs_id5_im10.bmp,['Im_RobertDowneyJr.png', 'Im_RobertPattinson.png', 'Im_GeorgeClooney.png', 'Im_MattDamon.png', 'Im_PatrickDempsey.png', 'Im_LeonardoDiCaprio.png', 'Im_JustinTimberlake.png', 'Im_DanielCraig.png', 'Im_RyanGosling.png', 'Im_DanielRadcliffe.png'],same,1,1.7336258000032103,1,0,
XABE0501,train,pos,fs,posfs_id20_im3.bmp_posfs_id20_im30.bmp,['Im_RobertDowneyJr.png', 'Im_RobertPattinson.png', 'Im_GeorgeClooney.png', 'Im_MattDamon.png', 'Im_PatrickDempsey.png', 'Im_LeonardoDiCaprio.png', 'Im_JustinTimberlake.png', 'Im_DanielCraig.png', 'Im_RyanGosling.png', 'Im_DanielRadcliffe.png'],diff,0,0.9915039999978035,1,0,
XABE0501,train,pos,fs,posfs_id20_im3.bmp_posfs_id10_im17.bmp,['Im_RobertDowneyJr.png', 'Im_RobertPattinson.png', 'Im_GeorgeClooney.png', 'Im_MattDamon.png', 'Im_PatrickDempsey.png', 'Im_LeonardoDiCaprio.png', 'Im_JustinTimberlake.png', 'Im_DanielCraig.png', 'Im_RyanGosling.png', 'Im_DanielRadcliffe.png'],diff,1,0.87512119999883,2,0,
XABE0501,train,pos,fs,posfs_id20_im3.bmp_posfs_id20_im12.bmp,['Im_RobertDowneyJr.png', 'Im_RobertPattinson.png', 'Im_GeorgeClooney.png', 'Im_MattDamon.png', 'Im_PatrickDempsey.png', 'Im_LeonardoDiCaprio.png', 'Im_JustinTimberlake.png', 'Im_DanielCraig.png', 'Im_RyanGosling.png', 'Im_DanielRadcliffe.png'],same,1,0.7916355000015756,3,0,
XABE0501,train,pos,fs,posfs_id7_im26.bmp_posfs_id20_im30.bmp,['Im_RobertDowneyJr.png', 'Im_RobertPattinson.png', 'Im_GeorgeClooney.png', 'Im_MattDamon.png', 'Im_PatrickDempsey.png', 'Im_LeonardoDiCaprio.png', 'Im_JustinTimberlake.png', 'Im_DanielCraig.png', 'Im_RyanGosling.png', 'Im_DanielRadcliffe.png'],diff,1,0.7249288999992132,4,0,
XABE0501,train,pos,fs,posfs_id20_im12.bmp_posfs_id10_im1.bmp,['Im_RobertDowneyJr.png', 'Im_RobertPattinson.png', 'Im_GeorgeClooney.png', 'Im_MattDamon.png', 'Im_PatrickDempsey.png', 'Im_LeonardoDiCaprio.png', 'Im_JustinTimberlake.png', 'Im_DanielCraig.png', 'Im_RyanGosling.png', 'Im_DanielRadcliffe.png'],diff,1,0.8500759000016842,5,0,
XABE0501,train,pos,fs,posfs_id7_im14.bmp_posfs_id7_im26.bmp,['Im_RobertDowneyJr.png', 'Im_RobertPattinson.png', 'Im_GeorgeClooney.png', 'Im_MattDamon.png', 'Im_PatrickDempsey.png', 'Im_LeonardoDiCaprio.png', 'Im_JustinTimberlake.png', 'Im_DanielCraig.png', 'Im_RyanGosling.png', 'Im_DanielRadcliffe.png'],same,1,0.5916964000025473,6,0,
XABE0501,train,pos,fs,posfs_id17_im8.bmp_posfs_id17_im9.bmp,['Im_RobertDowneyJr.png', 'Im_RobertPattinson.png', 'Im_GeorgeClooney.png', 'Im_MattDamon.png', 'Im_PatrickDempsey.png', 'Im_LeonardoDiCaprio.png', 'Im_JustinTimberlake.png', 'Im_DanielCraig.png', 'Im_RyanGosling.png', 'Im_DanielRadcliffe.png'],same,1,0.9166528999994625,7,0,
XABE0501,train,pos,fs,posfs_id4_im20.bmp_posfs_id4_im15.bmp,['Im_RobertDowneyJr.png', 'Im_RobertPattinson.png', 'Im_GeorgeClooney.png', 'Im_MattDamon.png', 'Im_PatrickDempsey.png', 'Im_LeonardoDiCaprio.png', 'Im_JustinTimberlake.png', 'Im_DanielCraig.png', 'Im_RyanGosling.png', 'Im_DanielRadcliffe.png'],same,1,0.6832567999990715,8,0,
XABE0501,train,pos,fs,posfs_id17_im14.bmp_posfs_id13_im15.bmp,['Im_RobertDowneyJr.png', 'Im_RobertPattinson.png', 'Im_GeorgeClooney.png', 'Im_MattDamon.png', 'Im_PatrickDempsey.png', 'Im_LeonardoDiCaprio.png', 'Im_JustinTimberlake.png', 'Im_DanielCraig.png', 'Im_RyanGosling.png', 'Im_DanielRadcliffe.png'],diff,1,0.6919491000007838,9,0,
XABE0501,train,pos,fs,posfs_id13_im10.bmp_posfs_id13_im29.bmp,['Im_RobertDowneyJr.png', 'Im_RobertPattinson.png', 'Im_GeorgeClooney.png', 'Im_MattDamon.png', 'Im_PatrickDempsey.png', 'Im_LeonardoDiCaprio.png', 'Im_JustinTimberlake.png', 'Im_DanielCraig.png', 'Im_RyanGosling.png', 'Im_DanielRadcliffe.png'],same,1,0.8585173999999824,10,0,
XABE0501,train,pos,fs,posfs_id5_im20.bmp_posfs_id14_im16.bmp,['Im_RobertDowneyJr.png', 'Im_RobertPattinson.png', 'Im_GeorgeClooney.png', 'Im_MattDamon.png', 'Im_PatrickDempsey.png', 'Im_LeonardoDiCaprio.png', 'Im_JustinTimberlake.png', 'Im_DanielCraig.png', 'Im_RyanGosling.png', 'Im_DanielRadcliffe.png'],diff,1,0.7499094000013429,11,0,
XABE0501,train,pos,fs,posfs_id18_im19.bmp_posfs_id13_im10.bmp,['Im_RobertDowneyJr.png', 'Im_RobertPattinson.png', 'Im_GeorgeClooney.png', 'Im_MattDamon.png', 'Im_PatrickDempsey.png', 'Im_LeonardoDiCaprio.png', 'Im_JustinTimberlake.png', 'Im_DanielCraig.png', 'Im_RyanGosling.png', 'Im_DanielRadcliffe.png'],diff,1,0.6917916999991576,12,0,
XABE0501,train,pos,fs,posfs_id14_im16.bmp_posfs_id19_im27.bmp,['Im_RobertDowneyJr.png', 'Im_RobertPattinson.png', 'Im_GeorgeClooney.png', 'Im_MattDamon.png', 'Im_PatrickDempsey.png', 'Im_LeonardoDiCaprio.png', 'Im_JustinTimberlake.png', 'Im_DanielCraig.png', 'Im_RyanGosling.png', 'Im_DanielRadcliffe.png'],same,0,1.5083234999983688,12,0,
XABE0501,train,pos,fs,posfs_id14_im24.bmp_posfs_id14_im18.bmp,['Im_RobertDowneyJr.png', 'Im_RobertPattinson.png', 'Im_GeorgeClooney.png', 'Im_MattDamon.png', 'Im_PatrickDempsey.png', 'Im_LeonardoDiCaprio.png', 'Im_JustinTimberlake.png', 'Im_DanielCraig.png', 'Im_RyanGosling.png', 'Im_DanielRadcliffe.png'],diff,0,2.1749651999998605,12,0,
XABE0501,train,pos,fs,posfs_id13_im10.bmp_posfs_id13_im15.bmp,['Im_RobertDowneyJr.png', 'Im_RobertPattinson.png', 'Im_GeorgeClooney.png', 'Im_MattDamon.png', 'Im_PatrickDempsey.png', 'Im_LeonardoDiCaprio.png', 'Im_JustinTimberlake.png', 'Im_DanielCraig.png', 'Im_RyanGosling.png', 'Im_DanielRadcliffe.png'],same,1,0.6003343999982462,13,0,
XABE0501,train,pos,fs,posfs_id19_im8.bmp_posfs_id19_im4.bmp,['Im_RobertDowneyJr.png', 'Im_RobertPattinson.png', 'Im_GeorgeClooney.png', 'Im_MattDamon.png', 'Im_PatrickDempsey.png', 'Im_LeonardoDiCaprio.png', 'Im_JustinTimberlake.png', 'Im_DanielCraig.png', 'Im_RyanGosling.png', 'Im_DanielRadcliffe.png'],diff,0,0.816397099999449,13,0,
XABE0501,train,pos,fs,posfs_id20_im3.bmp_posfs_id17_im9.bmp,['Im_RobertDowneyJr.png', 'Im_RobertPattinson.png', 'Im_GeorgeClooney.png', 'Im_MattDamon.png', 'Im_PatrickDempsey.png', 'Im_LeonardoDiCaprio.png', 'Im_JustinTimberlake.png', 'Im_DanielCraig.png', 'Im_RyanGosling.png', 'Im_DanielRadcliffe.png'],diff,1,1.4416091999992204,14,0,
XABE0501,train,pos,fs,posfs_id7_im15.bmp_posfs_id19_im27.bmp,['Im_RobertDowneyJr.png', 'Im_RobertPattinson.png', 'Im_GeorgeClooney.png', 'Im_MattDamon.png', 'Im_PatrickDempsey.png', 'Im_LeonardoDiCaprio.png', 'Im_JustinTimberlake.png', 'Im_DanielCraig.png', 'Im_RyanGosling.png', 'Im_DanielRadcliffe.png'],diff,1,0.8501170999988972,15,0,
XABE0501,train,pos,fs,posfs_id13_im15.bmp_posfs_id18_im11.bmp,['Im_RobertDowneyJr.png', 'Im_RobertPattinson.png', 'Im_GeorgeClooney.png', 'Im_MattDamon.png', 'Im_PatrickDempsey.png', 'Im_LeonardoDiCaprio.png', 'Im_JustinTimberlake.png', 'Im_DanielCraig.png', 'Im_RyanGosling.png', 'Im_DanielRadcliffe.png'],diff,1,0.8002058999991277,16,0,
XABE0501,train,pos,fs,posfs_id19_im8.bmp_posfs_id10_im18.bmp,['Im_RobertDowneyJr.png', 'Im_RobertPattinson.png', 'Im_GeorgeClooney.png', 'Im_MattDamon.png', 'Im_PatrickDempsey.png', 'Im_LeonardoDiCaprio.png', 'Im_JustinTimberlake.png', 'Im_DanielCraig.png', 'Im_RyanGosling.png', 'Im_DanielRadcliffe.png'],diff,1,1.4749645999982022,1,80.0,
XABE0501,train,pos,fs,posfs_id4_im7.bmp_posfs_id17_im9.bmp,['Im_RobertDowneyJr.png', 'Im_RobertPattinson.png', 'Im_GeorgeClooney.png', 'Im_MattDamon.png', 'Im_PatrickDempsey.png', 'Im_LeonardoDiCaprio.png', 'Im_JustinTimberlake.png', 'Im_DanielCraig.png', 'Im_RyanGosling.png', 'Im_DanielRadcliffe.png'],diff,1,0.9336531000008108,2,80.0,
XABE0501,train,pos,fs,posfs_id20_im30.bmp_posfs_id17_im14.bmp,['Im_RobertDowneyJr.png', 'Im_RobertPattinson.png', 'Im_GeorgeClooney.png', 'Im_MattDamon.png', 'Im_PatrickDempsey.png', 'Im_LeonardoDiCaprio.png', 'Im_JustinTimberlake.png', 'Im_DanielCraig.png', 'Im_RyanGosling.png', 'Im_DanielRadcliffe.png'],diff,1,0.8751124999980675,3,80.0,
XABE0501,train,pos,fs,posfs_id20_im12.bmp_posfs_id20_im30.bmp,['Im_RobertDowneyJr.png', 'Im_RobertPattinson.png', 'Im_GeorgeClooney.png', 'Im_MattDamon.png', 'Im_PatrickDempsey.png', 'Im_LeonardoDiCaprio.png', 'Im_JustinTimberlake.png', 'Im_DanielCraig.png', 'Im_RyanGosling.png', 'Im_DanielRadcliffe.png'],same,1,0.6168982999988657,4,80.0,
XABE0501,train,pos,fs,posfs_id14_im18.bmp_posfs_id14_im16.bmp,['Im_RobertDowneyJr.png', 'Im_RobertPattinson.png', 'Im_GeorgeClooney.png', 'Im_MattDamon.png', 'Im_PatrickDempsey.png', 'Im_LeonardoDiCaprio.png', 'Im_JustinTimberlake.png', 'Im_DanielCraig.png', 'Im_RyanGosling.png', 'Im_DanielRadcliffe.png'],same,1,0.8168865999978152,5,80.0,
XABE0501,train,pos,fs,posfs_id19_im27.bmp_posfs_id19_im4.bmp,['Im_RobertDowneyJr.png', 'Im_RobertPattinson.png', 'Im_GeorgeClooney.png', 'Im_MattDamon.png', 'Im_PatrickDempsey.png', 'Im_LeonardoDiCaprio.png', 'Im_JustinTimberlake.png', 'Im_DanielCraig.png', 'Im_RyanGosling.png', 'Im_DanielRadcliffe.png'],same,1,0.8165759000003163,6,80.0,
XABE0501,train,pos,fs,posfs_id4_im15.bmp_posfs_id4_im7.bmp,['Im_RobertDowneyJr.png', 'Im_RobertPattinson.png', 'Im_GeorgeClooney.png', 'Im_MattDamon.png', 'Im_PatrickDempsey.png', 'Im_LeonardoDiCaprio.png', 'Im_JustinTimberlake.png', 'Im_DanielCraig.png', 'Im_RyanGosling.png', 'Im_DanielRadcliffe.png'],same,1,0.7582504000019981,7,80.0,
XABE0501,train,pos,fs,posfs_id10_im1.bmp_posfs_id5_im1.bmp,['Im_RobertDowneyJr.png', 'Im_RobertPattinson.png', 'Im_GeorgeClooney.png', 'Im_MattDamon.png', 'Im_PatrickDempsey.png', 'Im_LeonardoDiCaprio.png', 'Im_JustinTimberlake.png', 'Im_DanielCraig.png', 'Im_RyanGosling.png', 'Im_DanielRadcliffe.png'],diff,1,0.8250045999993745,8,80.0,
XABE0501,train,pos,fs,posfs_id17_im14.bmp_posfs_id17_im9.bmp,['Im_RobertDowneyJr.png', 'Im_RobertPattinson.png', 'Im_GeorgeClooney.png', 'Im_MattDamon.png', 'Im_PatrickDempsey.png', 'Im_LeonardoDiCaprio.png', 'Im_JustinTimberlake.png', 'Im_DanielCraig.png', 'Im_RyanGosling.png', 'Im_DanielRadcliffe.png'],same,1,0.8416036999988137,9,80.0,
XABE0501,train,pos,fs,posfs_id7_im15.bmp_posfs_id18_im18.bmp,['Im_RobertDowneyJr.png', 'Im_RobertPattinson.png', 'Im_GeorgeClooney.png', 'Im_MattDamon.png', 'Im_PatrickDempsey.png', 'Im_LeonardoDiCaprio.png', 'Im_JustinTimberlake.png', 'Im_DanielCraig.png', 'Im_RyanGosling.png', 'Im_DanielRadcliffe.png'],diff,1,0.601265000001149,10,80.0,
XABE0501,train,pos,fs,posfs_id14_im18.bmp_posfs_id13_im10.bmp,['Im_RobertDowneyJr.png', 'Im_RobertPattinson.png', 'Im_GeorgeClooney.png', 'Im_MattDamon.png', 'Im_PatrickDempsey.png', 'Im_LeonardoDiCaprio.png', 'Im_JustinTimberlake.png', 'Im_DanielCraig.png', 'Im_RyanGosling.png', 'Im_DanielRadcliffe.png'],diff,1,0.7084555000001274,11,80.0,
XABE0501,train,pos,fs,posfs_id17_im8.bmp_posfs_id4_im7.bmp,['Im_RobertDowneyJr.png', 'Im_RobertPattinson.png', 'Im_GeorgeClooney.png', 'Im_MattDamon.png', 'Im_PatrickDempsey.png', 'Im_LeonardoDiCaprio.png', 'Im_JustinTimberlake.png', 'Im_DanielCraig.png', 'Im_RyanGosling.png', 'Im_DanielRadcliffe.png'],diff,1,1.283572300002561,12,80.0,
XABE0501,train,pos,fs,posfs_id4_im20.bmp_posfs_id19_im8.bmp,['Im_RobertDowneyJr.png', 'Im_RobertPattinson.png', 'Im_GeorgeClooney.png', 'Im_MattDamon.png', 'Im_PatrickDempsey.png', 'Im_LeonardoDiCaprio.png', 'Im_JustinTimberlake.png', 'Im_DanielCraig.png', 'Im_RyanGosling.png', 'Im_DanielRadcliffe.png'],diff,1,0.7335951999993995,13,80.0,
XABE0501,train,pos,fs,posfs_id5_im10.bmp_posfs_id19_im4.bmp,['Im_RobertDowneyJr.png', 'Im_RobertPattinson.png', 'Im_GeorgeClooney.png', 'Im_MattDamon.png', 'Im_PatrickDempsey.png', 'Im_LeonardoDiCaprio.png', 'Im_JustinTimberlake.png', 'Im_DanielCraig.png', 'Im_RyanGosling.png', 'Im_DanielRadcliffe.png'],diff,1,0.6335464999974647,14,80.0,
XABE0501,train,pos,fs,posfs_id10_im18.bmp_posfs_id10_im17.bmp,['Im_RobertDowneyJr.png', 'Im_RobertPattinson.png', 'Im_GeorgeClooney.png', 'Im_MattDamon.png', 'Im_PatrickDempsey.png', 'Im_LeonardoDiCaprio.png', 'Im_JustinTimberlake.png', 'Im_DanielCraig.png', 'Im_RyanGosling.png', 'Im_DanielRadcliffe.png'],same,1,1.2081056000024546,15,80.0,
XABE0501,train,pos,fs,posfs_id5_im1.bmp_posfs_id5_im20.bmp,['Im_RobertDowneyJr.png', 'Im_RobertPattinson.png', 'Im_GeorgeClooney.png', 'Im_MattDamon.png', 'Im_PatrickDempsey.png', 'Im_LeonardoDiCaprio.png', 'Im_JustinTimberlake.png', 'Im_DanielCraig.png', 'Im_RyanGosling.png', 'Im_DanielRadcliffe.png'],diff,0,0.7331856000018888,15,80.0,
XABE0501,train,pos,fs,posfs_id19_im27.bmp_posfs_id19_im8.bmp,['Im_RobertDowneyJr.png', 'Im_RobertPattinson.png', 'Im_GeorgeClooney.png', 'Im_MattDamon.png', 'Im_PatrickDempsey.png', 'Im_LeonardoDiCaprio.png', 'Im_JustinTimberlake.png', 'Im_DanielCraig.png', 'Im_RyanGosling.png', 'Im_DanielRadcliffe.png'],same,1,1.0251643999981752,16,80.0,
XABE0501,train,pos,fs,posfs_id5_im10.bmp_posfs_id14_im18.bmp,['Im_RobertDowneyJr.png', 'Im_RobertPattinson.png', 'Im_GeorgeClooney.png', 'Im_MattDamon.png', 'Im_PatrickDempsey.png', 'Im_LeonardoDiCaprio.png', 'Im_JustinTimberlake.png', 'Im_DanielCraig.png', 'Im_RyanGosling.png', 'Im_DanielRadcliffe.png'],diff,1,0.6501489000002039,17,80.0,
XABE0501,train,pos,fs,posfs_id17_im8.bmp_posfs_id10_im17.bmp,['Im_RobertDowneyJr.png', 'Im_RobertPattinson.png', 'Im_GeorgeClooney.png', 'Im_MattDamon.png', 'Im_PatrickDempsey.png', 'Im_LeonardoDiCaprio.png', 'Im_JustinTimberlake.png', 'Im_DanielCraig.png', 'Im_RyanGosling.png', 'Im_DanielRadcliffe.png'],diff,1,0.9165821999995387,18,80.0,
XABE0501,train,pos,fs,posfs_id10_im18.bmp_posfs_id10_im1.bmp,['Im_RobertDowneyJr.png', 'Im_RobertPattinson.png', 'Im_GeorgeClooney.png', 'Im_MattDamon.png', 'Im_PatrickDempsey.png', 'Im_LeonardoDiCaprio.png', 'Im_JustinTimberlake.png', 'Im_DanielCraig.png', 'Im_RyanGosling.png', 'Im_DanielRadcliffe.png'],same,1,1.233504299998458,19,80.0,
XABE0501,train,inv,fs,posfs_id4_im7.bmp_posfs_id17_im9.bmp,['Im_RobertDowneyJr.png', 'Im_RobertPattinson.png', 'Im_GeorgeClooney.png', 'Im_MattDamon.png', 'Im_PatrickDempsey.png', 'Im_LeonardoDiCaprio.png', 'Im_JustinTimberlake.png', 'Im_DanielCraig.png', 'Im_RyanGosling.png', 'Im_DanielRadcliffe.png'],diff,1,0.6499416000006022,1,0,
XABE0501,train,neg,fs,negfs_id14_im16.bmp_negfs_id5_im20.bmp,['Im_RobertDowneyJr.png', 'Im_RobertPattinson.png', 'Im_GeorgeClooney.png', 'Im_MattDamon.png', 'Im_PatrickDempsey.png', 'Im_LeonardoDiCaprio.png', 'Im_JustinTimberlake.png', 'Im_DanielCraig.png', 'Im_RyanGosling.png', 'Im_DanielRadcliffe.png'],diff,1,0.4169199000025401,2,0,
XABE0501,train,neg,fs,negfs_id18_im18.bmp_negfs_id18_im19.bmp,['Im_RobertDowneyJr.png', 'Im_RobertPattinson.png', 'Im_GeorgeClooney.png', 'Im_MattDamon.png', 'Im_PatrickDempsey.png', 'Im_LeonardoDiCaprio.png', 'Im_JustinTimberlake.png', 'Im_DanielCraig.png', 'Im_RyanGosling.png', 'Im_DanielRadcliffe.png'],same,1,0.40853489999790327,3,0,
XABE0501,train,pos,fs,posfs_id19_im4.bmp_posfs_id19_im27.bmp,['Im_RobertDowneyJr.png', 'Im_RobertPattinson.png', 'Im_GeorgeClooney.png', 'Im_MattDamon.png', 'Im_PatrickDempsey.png', 'Im_LeonardoDiCaprio.png', 'Im_JustinTimberlake.png', 'Im_DanielCraig.png', 'Im_RyanGosling.png', 'Im_DanielRadcliffe.png'],same,1,0.7668771999997261,4,0,
XABE0501,train,inv,fs,posfs_id18_im11.bmp_posfs_id4_im15.bmp,['Im_RobertDowneyJr.png', 'Im_RobertPattinson.png', 'Im_GeorgeClooney.png', 'Im_MattDamon.png', 'Im_PatrickDempsey.png', 'Im_LeonardoDiCaprio.png', 'Im_JustinTimberlake.png', 'Im_DanielCraig.png', 'Im_RyanGosling.png', 'Im_DanielRadcliffe.png'],diff,1,0.41671230000065407,5,0,
XABE0501,train,neg,fs,negfs_id17_im8.bmp_negfs_id10_im17.bmp,['Im_RobertDowneyJr.png', 'Im_RobertPattinson.png', 'Im_GeorgeClooney.png', 'Im_MattDamon.png', 'Im_PatrickDempsey.png', 'Im_LeonardoDiCaprio.png', 'Im_JustinTimberlake.png', 'Im_DanielCraig.png', 'Im_RyanGosling.png', 'Im_DanielRadcliffe.png'],diff,1,0.4084755000003497,6,0,
XABE0501,train,inv,fs,posfs_id20_im30.bmp_posfs_id7_im26.bmp,['Im_RobertDowneyJr.png', 'Im_RobertPattinson.png', 'Im_GeorgeClooney.png', 'Im_MattDamon.png', 'Im_PatrickDempsey.png', 'Im_LeonardoDiCaprio.png', 'Im_JustinTimberlake.png', 'Im_DanielCraig.png', 'Im_RyanGosling.png', 'Im_DanielRadcliffe.png'],diff,1,0.4334134000018821,7,0,
XABE0501,train,neg,fs,negfs_id18_im18.bmp_negfs_id18_im11.bmp,['Im_RobertDowneyJr.png', 'Im_RobertPattinson.png', 'Im_GeorgeClooney.png', 'Im_MattDamon.png', 'Im_PatrickDempsey.png', 'Im_LeonardoDiCaprio.png', 'Im_JustinTimberlake.png', 'Im_DanielCraig.png', 'Im_RyanGosling.png', 'Im_DanielRadcliffe.png'],same,1,0.958378499999526,8,0,
XABE0501,train,inv,fs,posfs_id20_im12.bmp_posfs_id10_im1.bmp,['Im_RobertDowneyJr.png', 'Im_RobertPattinson.png', 'Im_GeorgeClooney.png', 'Im_MattDamon.png', 'Im_PatrickDempsey.png', 'Im_LeonardoDiCaprio.png', 'Im_JustinTimberlake.png', 'Im_DanielCraig.png', 'Im_RyanGosling.png', 'Im_DanielRadcliffe.png'],diff,1,0.41668590000335826,9,0,
XABE0501,train,pos,fs,posfs_id17_im9.bmp_posfs_id4_im7.bmp,['Im_RobertDowneyJr.png', 'Im_RobertPattinson.png', 'Im_GeorgeClooney.png', 'Im_MattDamon.png', 'Im_PatrickDempsey.png', 'Im_LeonardoDiCaprio.png', 'Im_JustinTimberlake.png', 'Im_DanielCraig.png', 'Im_RyanGosling.png', 'Im_DanielRadcliffe.png'],diff,1,0.4252003000001423,10,0,
XABE0501,train,pos,fs,posfs_id20_im12.bmp_posfs_id10_im1.bmp,['Im_RobertDowneyJr.png', 'Im_RobertPattinson.png', 'Im_GeorgeClooney.png', 'Im_MattDamon.png', 'Im_PatrickDempsey.png', 'Im_LeonardoDiCaprio.png', 'Im_JustinTimberlake.png', 'Im_DanielCraig.png', 'Im_RyanGosling.png', 'Im_DanielRadcliffe.png'],diff,1,0.48313770000095246,11,0,
XABE0501,train,neg,fs,negfs_id10_im1.bmp_negfs_id10_im18.bmp,['Im_RobertDowneyJr.png', 'Im_RobertPattinson.png', 'Im_GeorgeClooney.png', 'Im_MattDamon.png', 'Im_PatrickDempsey.png', 'Im_LeonardoDiCaprio.png', 'Im_JustinTimberlake.png', 'Im_DanielCraig.png', 'Im_RyanGosling.png', 'Im_DanielRadcliffe.png'],same,1,0.7168480000000272,12,0,
XABE0501,train,inv,fs,posfs_id20_im30.bmp_posfs_id20_im12.bmp,['Im_RobertDowneyJr.png', 'Im_RobertPattinson.png', 'Im_GeorgeClooney.png', 'Im_MattDamon.png', 'Im_PatrickDempsey.png', 'Im_LeonardoDiCaprio.png', 'Im_JustinTimberlake.png', 'Im_DanielCraig.png', 'Im_RyanGosling.png', 'Im_DanielRadcliffe.png'],same,1,0.7095042999972065,13,0,
XABE0501,train,inv,fs,posfs_id18_im11.bmp_posfs_id18_im19.bmp,['Im_RobertDowneyJr.png', 'Im_RobertPattinson.png', 'Im_GeorgeClooney.png', 'Im_MattDamon.png', 'Im_PatrickDempsey.png', 'Im_LeonardoDiCaprio.png', 'Im_JustinTimberlake.png', 'Im_DanielCraig.png', 'Im_RyanGosling.png', 'Im_DanielRadcliffe.png'],same,1,0.7252869999974791,14,0,
XABE0501,train,pos,fs,posfs_id18_im18.bmp_posfs_id7_im15.bmp,['Im_RobertDowneyJr.png', 'Im_RobertPattinson.png', 'Im_GeorgeClooney.png', 'Im_MattDamon.png', 'Im_PatrickDempsey.png', 'Im_LeonardoDiCaprio.png', 'Im_JustinTimberlake.png', 'Im_DanielCraig.png', 'Im_RyanGosling.png', 'Im_DanielRadcliffe.png'],diff,1,0.4083935999988171,15,0,
XABE0501,train,pos,fs,posfs_id18_im19.bmp_posfs_id14_im24.bmp,['Im_RobertDowneyJr.png', 'Im_RobertPattinson.png', 'Im_GeorgeClooney.png', 'Im_MattDamon.png', 'Im_PatrickDempsey.png', 'Im_LeonardoDiCaprio.png', 'Im_JustinTimberlake.png', 'Im_DanielCraig.png', 'Im_RyanGosling.png', 'Im_DanielRadcliffe.png'],diff,1,0.4166339000003063,16,0,
XABE0501,train,neg,fs,negfs_id5_im1.bmp_negfs_id5_im10.bmp,['Im_RobertDowneyJr.png', 'Im_RobertPattinson.png', 'Im_GeorgeClooney.png', 'Im_MattDamon.png', 'Im_PatrickDempsey.png', 'Im_LeonardoDiCaprio.png', 'Im_JustinTimberlake.png', 'Im_DanielCraig.png', 'Im_RyanGosling.png', 'Im_DanielRadcliffe.png'],same,1,0.5335702999982459,17,0,
XABE0501,train,inv,fs,posfs_id14_im18.bmp_posfs_id14_im24.bmp,['Im_RobertDowneyJr.png', 'Im_RobertPattinson.png', 'Im_GeorgeClooney.png', 'Im_MattDamon.png', 'Im_PatrickDempsey.png', 'Im_LeonardoDiCaprio.png', 'Im_JustinTimberlake.png', 'Im_DanielCraig.png', 'Im_RyanGosling.png', 'Im_DanielRadcliffe.png'],same,1,0.47515000000203145,18,0,
XABE0501,train,inv,fs,posfs_id7_im26.bmp_posfs_id7_im15.bmp,['Im_RobertDowneyJr.png', 'Im_RobertPattinson.png', 'Im_GeorgeClooney.png', 'Im_MattDamon.png', 'Im_PatrickDempsey.png', 'Im_LeonardoDiCaprio.png', 'Im_JustinTimberlake.png', 'Im_DanielCraig.png', 'Im_RyanGosling.png', 'Im_DanielRadcliffe.png'],same,1,0.8419021000008797,19,0,
XABE0501,train,pos,fs,posfs_id20_im3.bmp_posfs_id20_im30.bmp,['Im_RobertDowneyJr.png', 'Im_RobertPattinson.png', 'Im_GeorgeClooney.png', 'Im_MattDamon.png', 'Im_PatrickDempsey.png', 'Im_LeonardoDiCaprio.png', 'Im_JustinTimberlake.png', 'Im_DanielCraig.png', 'Im_RyanGosling.png', 'Im_DanielRadcliffe.png'],same,1,0.5918476000006194,20,0,
XABE0501,train,pos,30,pos30_id14_im18.bmp_pos30_id14_im24.bmp,['Im_RobertDowneyJr.png', 'Im_RobertPattinson.png', 'Im_GeorgeClooney.png', 'Im_MattDamon.png', 'Im_PatrickDempsey.png', 'Im_LeonardoDiCaprio.png', 'Im_JustinTimberlake.png', 'Im_DanielCraig.png', 'Im_RyanGosling.png', 'Im_DanielRadcliffe.png'],same,1,0.7417495000008785,1,0,
XABE0501,train,pos,90,pos90_id18_im11.bmp_pos90_id4_im15.bmp,['Im_RobertDowneyJr.png', 'Im_RobertPattinson.png', 'Im_GeorgeClooney.png', 'Im_MattDamon.png', 'Im_PatrickDempsey.png', 'Im_LeonardoDiCaprio.png', 'Im_JustinTimberlake.png', 'Im_DanielCraig.png', 'Im_RyanGosling.png', 'Im_DanielRadcliffe.png'],diff,1,0.42501629999969737,2,0,
XABE0501,train,pos,0,pos0_id20_im3.bmp_pos0_id20_im30.bmp,['Im_RobertDowneyJr.png', 'Im_RobertPattinson.png', 'Im_GeorgeClooney.png', 'Im_MattDamon.png', 'Im_PatrickDempsey.png', 'Im_LeonardoDiCaprio.png', 'Im_JustinTimberlake.png', 'Im_DanielCraig.png', 'Im_RyanGosling.png', 'Im_DanielRadcliffe.png'],same,1,0.4167632999997295,3,0,
XABE0501,train,pos,150,pos150_id18_im19.bmp_pos150_id13_im10.bmp,['Im_RobertDowneyJr.png', 'Im_RobertPattinson.png', 'Im_GeorgeClooney.png', 'Im_MattDamon.png', 'Im_PatrickDempsey.png', 'Im_LeonardoDiCaprio.png', 'Im_JustinTimberlake.png', 'Im_DanielCraig.png', 'Im_RyanGosling.png', 'Im_DanielRadcliffe.png'],diff,1,0.41677379999964614,4,0,
XABE0501,train,pos,60,pos60_id10_im17.bmp_pos60_id10_im1.bmp,['Im_RobertDowneyJr.png', 'Im_RobertPattinson.png', 'Im_GeorgeClooney.png', 'Im_MattDamon.png', 'Im_PatrickDempsey.png', 'Im_LeonardoDiCaprio.png', 'Im_JustinTimberlake.png', 'Im_DanielCraig.png', 'Im_RyanGosling.png', 'Im_DanielRadcliffe.png'],diff,0,0.4585847000016656,4,0,
XABE0501,train,pos,150,pos150_id10_im18.bmp_pos150_id13_im29.bmp,['Im_RobertDowneyJr.png', 'Im_RobertPattinson.png', 'Im_GeorgeClooney.png', 'Im_MattDamon.png', 'Im_PatrickDempsey.png', 'Im_LeonardoDiCaprio.png', 'Im_JustinTimberlake.png', 'Im_DanielCraig.png', 'Im_RyanGosling.png', 'Im_DanielRadcliffe.png'],same,0,0.933631100000639,4,0,
XABE0501,train,pos,0,pos0_id19_im27.bmp_pos0_id14_im16.bmp,['Im_RobertDowneyJr.png', 'Im_RobertPattinson.png', 'Im_GeorgeClooney.png', 'Im_MattDamon.png', 'Im_PatrickDempsey.png', 'Im_LeonardoDiCaprio.png', 'Im_JustinTimberlake.png', 'Im_DanielCraig.png', 'Im_RyanGosling.png', 'Im_DanielRadcliffe.png'],same,0,0.4169084999994084,4,0,
XABE0501,train,pos,30,pos30_id14_im16.bmp_pos30_id5_im20.bmp,['Im_RobertDowneyJr.png', 'Im_RobertPattinson.png', 'Im_GeorgeClooney.png', 'Im_MattDamon.png', 'Im_PatrickDempsey.png', 'Im_LeonardoDiCaprio.png', 'Im_JustinTimberlake.png', 'Im_DanielCraig.png', 'Im_RyanGosling.png', 'Im_DanielRadcliffe.png'],diff,1,0.6252171999985876,5,0,
XABE0501,train,pos,90,pos90_id10_im17.bmp_pos90_id17_im8.bmp,['Im_RobertDowneyJr.png', 'Im_RobertPattinson.png', 'Im_GeorgeClooney.png', 'Im_MattDamon.png', 'Im_PatrickDempsey.png', 'Im_LeonardoDiCaprio.png', 'Im_JustinTimberlake.png', 'Im_DanielCraig.png', 'Im_RyanGosling.png', 'Im_DanielRadcliffe.png'],diff,1,0.42506390000198735,6,0,
XABE0501,train,pos,120,pos120_id14_im18.bmp_pos120_id5_im10.bmp,['Im_RobertDowneyJr.png', 'Im_RobertPattinson.png', 'Im_GeorgeClooney.png', 'Im_MattDamon.png', 'Im_PatrickDempsey.png', 'Im_LeonardoDiCaprio.png', 'Im_JustinTimberlake.png', 'Im_DanielCraig.png', 'Im_RyanGosling.png', 'Im_DanielRadcliffe.png'],diff,1,0.40833679999923334,7,0,
XABE0501,train,pos,60,pos60_id5_im1.bmp_pos60_id10_im1.bmp,['Im_RobertDowneyJr.png', 'Im_RobertPattinson.png', 'Im_GeorgeClooney.png', 'Im_MattDamon.png', 'Im_PatrickDempsey.png', 'Im_LeonardoDiCaprio.png', 'Im_JustinTimberlake.png', 'Im_DanielCraig.png', 'Im_RyanGosling.png', 'Im_DanielRadcliffe.png'],diff,1,0.5919155000010505,8,0,
XABE0501,train,pos,fs,posfs_id19_im8.bmp_posfs_id19_im4.bmp,['Im_RobertDowneyJr.png', 'Im_RobertPattinson.png', 'Im_GeorgeClooney.png', 'Im_MattDamon.png', 'Im_PatrickDempsey.png', 'Im_LeonardoDiCaprio.png', 'Im_JustinTimberlake.png', 'Im_DanielCraig.png', 'Im_RyanGosling.png', 'Im_DanielRadcliffe.png'],diff,0,0.6085812999990594,8,0,
XABE0501,train,pos,120,pos120_id20_im3.bmp_pos120_id10_im17.bmp,['Im_RobertDowneyJr.png', 'Im_RobertPattinson.png', 'Im_GeorgeClooney.png', 'Im_MattDamon.png', 'Im_PatrickDempsey.png', 'Im_LeonardoDiCaprio.png', 'Im_JustinTimberlake.png', 'Im_DanielCraig.png', 'Im_RyanGosling.png', 'Im_DanielRadcliffe.png'],diff,1,0.6082064999973227,9,0,
XABE0501,train,pos,fs,posfs_id17_im9.bmp_posfs_id20_im3.bmp,['Im_RobertDowneyJr.png', 'Im_RobertPattinson.png', 'Im_GeorgeClooney.png', 'Im_MattDamon.png', 'Im_PatrickDempsey.png', 'Im_LeonardoDiCaprio.png', 'Im_JustinTimberlake.png', 'Im_DanielCraig.png', 'Im_RyanGosling.png', 'Im_DanielRadcliffe.png'],diff,1,0.5167517000008957,10,0,
XABE0501,train,inv,30,pos30_id14_im16.bmp_pos30_id5_im20.bmp,['Im_RobertDowneyJr.png', 'Im_RobertPattinson.png', 'Im_GeorgeClooney.png', 'Im_MattDamon.png', 'Im_PatrickDempsey.png', 'Im_LeonardoDiCaprio.png', 'Im_JustinTimberlake.png', 'Im_DanielCraig.png', 'Im_RyanGosling.png', 'Im_DanielRadcliffe.png'],diff,1,0.491725600000791,11,0,
XABE0501,train,inv,0,pos0_id7_im15.bmp_pos0_id7_im26.bmp,['Im_RobertDowneyJr.png', 'Im_RobertPattinson.png', 'Im_GeorgeClooney.png', 'Im_MattDamon.png', 'Im_PatrickDempsey.png', 'Im_LeonardoDiCaprio.png', 'Im_JustinTimberlake.png', 'Im_DanielCraig.png', 'Im_RyanGosling.png', 'Im_DanielRadcliffe.png'],same,1,0.6915784000011627,12,0,
XABE0501,train,inv,60,pos60_id10_im1.bmp_pos60_id10_im18.bmp,['Im_RobertDowneyJr.png', 'Im_RobertPattinson.png', 'Im_GeorgeClooney.png', 'Im_MattDamon.png', 'Im_PatrickDempsey.png', 'Im_LeonardoDiCaprio.png', 'Im_JustinTimberlake.png', 'Im_DanielCraig.png', 'Im_RyanGosling.png', 'Im_DanielRadcliffe.png'],diff,0,0.4334009000012884,12,0,
XABE0501,train,inv,120,pos120_id14_im24.bmp_pos120_id14_im16.bmp,['Im_RobertDowneyJr.png', 'Im_RobertPattinson.png', 'Im_GeorgeClooney.png', 'Im_MattDamon.png', 'Im_PatrickDempsey.png', 'Im_LeonardoDiCaprio.png', 'Im_JustinTimberlake.png', 'Im_DanielCraig.png', 'Im_RyanGosling.png', 'Im_DanielRadcliffe.png'],diff,0,0.9835060000004887,12,0,
XABE0501,train,inv,60,pos60_id19_im4.bmp_pos60_id19_im8.bmp,['Im_RobertDowneyJr.png', 'Im_RobertPattinson.png', 'Im_GeorgeClooney.png', 'Im_MattDamon.png', 'Im_PatrickDempsey.png', 'Im_LeonardoDiCaprio.png', 'Im_JustinTimberlake.png', 'Im_DanielCraig.png', 'Im_RyanGosling.png', 'Im_DanielRadcliffe.png'],same,1,0.4248470999991696,13,0,
XABE0501,train,inv,30,pos30_id14_im18.bmp_pos30_id14_im16.bmp,['Im_RobertDowneyJr.png', 'Im_RobertPattinson.png', 'Im_GeorgeClooney.png', 'Im_MattDamon.png', 'Im_PatrickDempsey.png', 'Im_LeonardoDiCaprio.png', 'Im_JustinTimberlake.png', 'Im_DanielCraig.png', 'Im_RyanGosling.png', 'Im_DanielRadcliffe.png'],same,1,0.5919378999969922,14,0,
XABE0501,train,inv,fs,posfs_id18_im11.bmp_posfs_id18_im19.bmp,['Im_RobertDowneyJr.png', 'Im_RobertPattinson.png', 'Im_GeorgeClooney.png', 'Im_MattDamon.png', 'Im_PatrickDempsey.png', 'Im_LeonardoDiCaprio.png', 'Im_JustinTimberlake.png', 'Im_DanielCraig.png', 'Im_RyanGosling.png', 'Im_DanielRadcliffe.png'],same,1,0.7752097999982652,15,0,
XABE0501,train,inv,0,pos0_id13_im15.bmp_pos0_id18_im11.bmp,['Im_RobertDowneyJr.png', 'Im_RobertPattinson.png', 'Im_GeorgeClooney.png', 'Im_MattDamon.png', 'Im_PatrickDempsey.png', 'Im_LeonardoDiCaprio.png', 'Im_JustinTimberlake.png', 'Im_DanielCraig.png', 'Im_RyanGosling.png', 'Im_DanielRadcliffe.png'],same,0,0.49191390000123647,15,0,
XABE0501,train,inv,150,pos150_id13_im10.bmp_pos150_id18_im19.bmp,['Im_RobertDowneyJr.png', 'Im_RobertPattinson.png', 'Im_GeorgeClooney.png', 'Im_MattDamon.png', 'Im_PatrickDempsey.png', 'Im_LeonardoDiCaprio.png', 'Im_JustinTimberlake.png', 'Im_DanielCraig.png', 'Im_RyanGosling.png', 'Im_DanielRadcliffe.png'],diff,1,0.6917281999994884,16,0,
XABE0501,train,inv,150,pos150_id20_im30.bmp_pos150_id17_im14.bmp,['Im_RobertDowneyJr.png', 'Im_RobertPattinson.png', 'Im_GeorgeClooney.png', 'Im_MattDamon.png', 'Im_PatrickDempsey.png', 'Im_LeonardoDiCaprio.png', 'Im_JustinTimberlake.png', 'Im_DanielCraig.png', 'Im_RyanGosling.png', 'Im_DanielRadcliffe.png'],same,0,0.41671779999887804,16,0,
XABE0501,train,inv,fs,posfs_id17_im8.bmp_posfs_id10_im17.bmp,['Im_RobertDowneyJr.png', 'Im_RobertPattinson.png', 'Im_GeorgeClooney.png', 'Im_MattDamon.png', 'Im_PatrickDempsey.png', 'Im_LeonardoDiCaprio.png', 'Im_JustinTimberlake.png', 'Im_DanielCraig.png', 'Im_RyanGosling.png', 'Im_DanielRadcliffe.png'],diff,1,0.4083920999983093,17,0,
XABE0501,train,inv,90,pos90_id18_im11.bmp_pos90_id18_im18.bmp,['Im_RobertDowneyJr.png', 'Im_RobertPattinson.png', 'Im_GeorgeClooney.png', 'Im_MattDamon.png', 'Im_PatrickDempsey.png', 'Im_LeonardoDiCaprio.png', 'Im_JustinTimberlake.png', 'Im_DanielCraig.png', 'Im_RyanGosling.png', 'Im_DanielRadcliffe.png'],same,1,0.5835143999975116,18,0,
XABE0501,train,inv,90,pos90_id19_im8.bmp_pos90_id10_im18.bmp,['Im_RobertDowneyJr.png', 'Im_RobertPattinson.png', 'Im_GeorgeClooney.png', 'Im_MattDamon.png', 'Im_PatrickDempsey.png', 'Im_LeonardoDiCaprio.png', 'Im_JustinTimberlake.png', 'Im_DanielCraig.png', 'Im_RyanGosling.png', 'Im_DanielRadcliffe.png'],same,0,1.058650499999203,18,0,
XABE0501,train,inv,120,pos120_id13_im15.bmp_pos120_id17_im14.bmp,['Im_RobertDowneyJr.png', 'Im_RobertPattinson.png', 'Im_GeorgeClooney.png', 'Im_MattDamon.png', 'Im_PatrickDempsey.png', 'Im_LeonardoDiCaprio.png', 'Im_JustinTimberlake.png', 'Im_DanielCraig.png', 'Im_RyanGosling.png', 'Im_DanielRadcliffe.png'],diff,1,0.4167167999985395,19,0,
XABE0501,train,neg,0,neg0_id18_im18.bmp_neg0_id7_im26.bmp,['Im_RobertDowneyJr.png', 'Im_RobertPattinson.png', 'Im_GeorgeClooney.png', 'Im_MattDamon.png', 'Im_PatrickDempsey.png', 'Im_LeonardoDiCaprio.png', 'Im_JustinTimberlake.png', 'Im_DanielCraig.png', 'Im_RyanGosling.png', 'Im_DanielRadcliffe.png'],diff,1,0.4250592999997025,20,0,
XABE0501,train,neg,90,neg90_id20_im3.bmp_neg90_id10_im17.bmp,['Im_RobertDowneyJr.png', 'Im_RobertPattinson.png', 'Im_GeorgeClooney.png', 'Im_MattDamon.png', 'Im_PatrickDempsey.png', 'Im_LeonardoDiCaprio.png', 'Im_JustinTimberlake.png', 'Im_DanielCraig.png', 'Im_RyanGosling.png', 'Im_DanielRadcliffe.png'],diff,1,0.5916968000019551,21,0,
XABE0501,train,neg,30,neg30_id14_im18.bmp_neg30_id14_im16.bmp,['Im_RobertDowneyJr.png', 'Im_RobertPattinson.png', 'Im_GeorgeClooney.png', 'Im_MattDamon.png', 'Im_PatrickDempsey.png', 'Im_LeonardoDiCaprio.png', 'Im_JustinTimberlake.png', 'Im_DanielCraig.png', 'Im_RyanGosling.png', 'Im_DanielRadcliffe.png'],same,1,0.41665650000140886,22,0,
XABE0501,train,neg,120,neg120_id13_im29.bmp_neg120_id13_im10.bmp,['Im_RobertDowneyJr.png', 'Im_RobertPattinson.png', 'Im_GeorgeClooney.png', 'Im_MattDamon.png', 'Im_PatrickDempsey.png', 'Im_LeonardoDiCaprio.png', 'Im_JustinTimberlake.png', 'Im_DanielCraig.png', 'Im_RyanGosling.png', 'Im_DanielRadcliffe.png'],diff,0,0.48323189999791794,22,0,
XABE0501,train,neg,fs,negfs_id18_im18.bmp_negfs_id7_im26.bmp,['Im_RobertDowneyJr.png', 'Im_RobertPattinson.png', 'Im_GeorgeClooney.png', 'Im_MattDamon.png', 'Im_PatrickDempsey.png', 'Im_LeonardoDiCaprio.png', 'Im_JustinTimberlake.png', 'Im_DanielCraig.png', 'Im_RyanGosling.png', 'Im_DanielRadcliffe.png'],same,0,0.8334059000007983,22,0,
XABE0501,train,neg,150,neg150_id17_im9.bmp_neg150_id17_im8.bmp,['Im_RobertDowneyJr.png', 'Im_RobertPattinson.png', 'Im_GeorgeClooney.png', 'Im_MattDamon.png', 'Im_PatrickDempsey.png', 'Im_LeonardoDiCaprio.png', 'Im_JustinTimberlake.png', 'Im_DanielCraig.png', 'Im_RyanGosling.png', 'Im_DanielRadcliffe.png'],same,1,0.533579799997824,23,0,
XABE0501,train,neg,90,neg90_id7_im15.bmp_neg90_id19_im27.bmp,['Im_RobertDowneyJr.png', 'Im_RobertPattinson.png', 'Im_GeorgeClooney.png', 'Im_MattDamon.png', 'Im_PatrickDempsey.png', 'Im_LeonardoDiCaprio.png', 'Im_JustinTimberlake.png', 'Im_DanielCraig.png', 'Im_RyanGosling.png', 'Im_DanielRadcliffe.png'],diff,1,1.0087572000011278,24,0,
XABE0501,train,neg,60,neg60_id19_im27.bmp_neg60_id7_im15.bmp,['Im_RobertDowneyJr.png', 'Im_RobertPattinson.png', 'Im_GeorgeClooney.png', 'Im_MattDamon.png', 'Im_PatrickDempsey.png', 'Im_LeonardoDiCaprio.png', 'Im_JustinTimberlake.png', 'Im_DanielCraig.png', 'Im_RyanGosling.png', 'Im_DanielRadcliffe.png'],diff,1,0.5335408999999345,25,0,
XABE0501,train,neg,fs,negfs_id20_im12.bmp_negfs_id10_im1.bmp,['Im_RobertDowneyJr.png', 'Im_RobertPattinson.png', 'Im_GeorgeClooney.png', 'Im_MattDamon.png', 'Im_PatrickDempsey.png', 'Im_LeonardoDiCaprio.png', 'Im_JustinTimberlake.png', 'Im_DanielCraig.png', 'Im_RyanGosling.png', 'Im_DanielRadcliffe.png'],diff,1,0.5252325000001292,26,0,
XABE0501,train,neg,120,neg120_id19_im4.bmp_neg120_id19_im8.bmp,['Im_RobertDowneyJr.png', 'Im_RobertPattinson.png', 'Im_GeorgeClooney.png', 'Im_MattDamon.png', 'Im_PatrickDempsey.png', 'Im_LeonardoDiCaprio.png', 'Im_JustinTimberlake.png', 'Im_DanielCraig.png', 'Im_RyanGosling.png', 'Im_DanielRadcliffe.png'],diff,0,0.5753871000015351,26,0,
XABE0501,train,neg,0,neg0_id10_im17.bmp_neg0_id10_im1.bmp,['Im_RobertDowneyJr.png', 'Im_RobertPattinson.png', 'Im_GeorgeClooney.png', 'Im_MattDamon.png', 'Im_PatrickDempsey.png', 'Im_LeonardoDiCaprio.png', 'Im_JustinTimberlake.png', 'Im_DanielCraig.png', 'Im_RyanGosling.png', 'Im_DanielRadcliffe.png'],diff,0,0.7999800999969011,26,0,
XABE0501,train,neg,30,neg30_id13_im15.bmp_neg30_id13_im10.bmp,['Im_RobertDowneyJr.png', 'Im_RobertPattinson.png', 'Im_GeorgeClooney.png', 'Im_MattDamon.png', 'Im_PatrickDempsey.png', 'Im_LeonardoDiCaprio.png', 'Im_JustinTimberlake.png', 'Im_DanielCraig.png', 'Im_RyanGosling.png', 'Im_DanielRadcliffe.png'],same,1,0.6252827999996953,27,0,
XABE0501,train,neg,150,neg150_id7_im26.bmp_neg150_id18_im18.bmp,['Im_RobertDowneyJr.png', 'Im_RobertPattinson.png', 'Im_GeorgeClooney.png', 'Im_MattDamon.png', 'Im_PatrickDempsey.png', 'Im_LeonardoDiCaprio.png', 'Im_JustinTimberlake.png', 'Im_DanielCraig.png', 'Im_RyanGosling.png', 'Im_DanielRadcliffe.png'],same,0,0.4330480999997235,27,0,
XABE0501,train,neg,60,neg60_id5_im1.bmp_neg60_id5_im10.bmp,['Im_RobertDowneyJr.png', 'Im_RobertPattinson.png', 'Im_GeorgeClooney.png', 'Im_MattDamon.png', 'Im_PatrickDempsey.png', 'Im_LeonardoDiCaprio.png', 'Im_JustinTimberlake.png', 'Im_DanielCraig.png', 'Im_RyanGosling.png', 'Im_DanielRadcliffe.png'],diff,0,0.8418597000018053,27,0,
XABE0501,train,neg,90,neg90_id14_im18.bmp_neg90_id14_im24.bmp,['Im_RobertDowneyJr.png', 'Im_RobertPattinson.png', 'Im_GeorgeClooney.png', 'Im_MattDamon.png', 'Im_PatrickDempsey.png', 'Im_LeonardoDiCaprio.png', 'Im_JustinTimberlake.png', 'Im_DanielCraig.png', 'Im_RyanGosling.png', 'Im_DanielRadcliffe.png'],diff,0,2.091746099999,0,64.28571428571429,
XABE0501,train,neg,0,neg0_id10_im1.bmp_neg0_id5_im1.bmp,['Im_RobertDowneyJr.png', 'Im_RobertPattinson.png', 'Im_GeorgeClooney.png', 'Im_MattDamon.png', 'Im_PatrickDempsey.png', 'Im_LeonardoDiCaprio.png', 'Im_JustinTimberlake.png', 'Im_DanielCraig.png', 'Im_RyanGosling.png', 'Im_DanielRadcliffe.png'],same,0,0.7667708000008133,0,64.28571428571429,
XABE0501,train,neg,90,neg90_id18_im18.bmp_neg90_id7_im26.bmp,['Im_RobertDowneyJr.png', 'Im_RobertPattinson.png', 'Im_GeorgeClooney.png', 'Im_MattDamon.png', 'Im_PatrickDempsey.png', 'Im_LeonardoDiCaprio.png', 'Im_JustinTimberlake.png', 'Im_DanielCraig.png', 'Im_RyanGosling.png', 'Im_DanielRadcliffe.png'],diff,1,0.46662019999712356,1,64.28571428571429,
XABE0501,train,neg,fs,negfs_id7_im15.bmp_negfs_id7_im14.bmp,['Im_RobertDowneyJr.png', 'Im_RobertPattinson.png', 'Im_GeorgeClooney.png', 'Im_MattDamon.png', 'Im_PatrickDempsey.png', 'Im_LeonardoDiCaprio.png', 'Im_JustinTimberlake.png', 'Im_DanielCraig.png', 'Im_RyanGosling.png', 'Im_DanielRadcliffe.png'],same,1,0.42500619999918854,2,64.28571428571429,
XABE0501,train,neg,120,neg120_id18_im19.bmp_neg120_id13_im10.bmp,['Im_RobertDowneyJr.png', 'Im_RobertPattinson.png', 'Im_GeorgeClooney.png', 'Im_MattDamon.png', 'Im_PatrickDempsey.png', 'Im_LeonardoDiCaprio.png', 'Im_JustinTimberlake.png', 'Im_DanielCraig.png', 'Im_RyanGosling.png', 'Im_DanielRadcliffe.png'],same,0,0.42480069999874104,2,64.28571428571429,
XABE0501,train,neg,fs,negfs_id20_im30.bmp_negfs_id7_im26.bmp,['Im_RobertDowneyJr.png', 'Im_RobertPattinson.png', 'Im_GeorgeClooney.png', 'Im_MattDamon.png', 'Im_PatrickDempsey.png', 'Im_LeonardoDiCaprio.png', 'Im_JustinTimberlake.png', 'Im_DanielCraig.png', 'Im_RyanGosling.png', 'Im_DanielRadcliffe.png'],same,0,0.8502345000015339,2,64.28571428571429,
XABE0501,train,neg,60,neg60_id5_im20.bmp_neg60_id5_im1.bmp,['Im_RobertDowneyJr.png', 'Im_RobertPattinson.png', 'Im_GeorgeClooney.png', 'Im_MattDamon.png', 'Im_PatrickDempsey.png', 'Im_LeonardoDiCaprio.png', 'Im_JustinTimberlake.png', 'Im_DanielCraig.png', 'Im_RyanGosling.png', 'Im_DanielRadcliffe.png'],diff,0,0.4246683000019402,2,64.28571428571429,
XABE0501,train,neg,120,neg120_id20_im3.bmp_neg120_id10_im17.bmp,['Im_RobertDowneyJr.png', 'Im_RobertPattinson.png', 'Im_GeorgeClooney.png', 'Im_MattDamon.png', 'Im_PatrickDempsey.png', 'Im_LeonardoDiCaprio.png', 'Im_JustinTimberlake.png', 'Im_DanielCraig.png', 'Im_RyanGosling.png', 'Im_DanielRadcliffe.png'],same,0,0.41686980000304175,2,64.28571428571429,
XABE0501,train,neg,30,neg30_id17_im9.bmp_neg30_id20_im3.bmp,['Im_RobertDowneyJr.png', 'Im_RobertPattinson.png', 'Im_GeorgeClooney.png', 'Im_MattDamon.png', 'Im_PatrickDempsey.png', 'Im_LeonardoDiCaprio.png', 'Im_JustinTimberlake.png', 'Im_DanielCraig.png', 'Im_RyanGosling.png', 'Im_DanielRadcliffe.png'],diff,1,1.0753230999980588,3,64.28571428571429,
XABE0501,train,neg,30,neg30_id14_im16.bmp_neg30_id19_im27.bmp,['Im_RobertDowneyJr.png', 'Im_RobertPattinson.png', 'Im_GeorgeClooney.png', 'Im_MattDamon.png', 'Im_PatrickDempsey.png', 'Im_LeonardoDiCaprio.png', 'Im_JustinTimberlake.png', 'Im_DanielCraig.png', 'Im_RyanGosling.png', 'Im_DanielRadcliffe.png'],same,0,0.5836189000001468,3,64.28571428571429,
XABE0501,train,neg,60,neg60_id13_im15.bmp_neg60_id18_im11.bmp,['Im_RobertDowneyJr.png', 'Im_RobertPattinson.png', 'Im_GeorgeClooney.png', 'Im_MattDamon.png', 'Im_PatrickDempsey.png', 'Im_LeonardoDiCaprio.png', 'Im_JustinTimberlake.png', 'Im_DanielCraig.png', 'Im_RyanGosling.png', 'Im_DanielRadcliffe.png'],diff,1,0.7916679000009026,4,64.28571428571429,
XABE0501,train,neg,0,neg0_id4_im7.bmp_neg0_id17_im8.bmp,['Im_RobertDowneyJr.png', 'Im_RobertPattinson.png', 'Im_GeorgeClooney.png', 'Im_MattDamon.png', 'Im_PatrickDempsey.png', 'Im_LeonardoDiCaprio.png', 'Im_JustinTimberlake.png', 'Im_DanielCraig.png', 'Im_RyanGosling.png', 'Im_DanielRadcliffe.png'],same,0,0.4834030000019993,4,64.28571428571429,
XABE0501,train,neg,150,neg150_id20_im30.bmp_neg150_id7_im26.bmp,['Im_RobertDowneyJr.png', 'Im_RobertPattinson.png', 'Im_GeorgeClooney.png', 'Im_MattDamon.png', 'Im_PatrickDempsey.png', 'Im_LeonardoDiCaprio.png', 'Im_JustinTimberlake.png', 'Im_DanielCraig.png', 'Im_RyanGosling.png', 'Im_DanielRadcliffe.png'],diff,1,0.6916019000018423,5,64.28571428571429,
XABE0501,train,neg,150,neg150_id7_im15.bmp_neg150_id7_im14.bmp,['Im_RobertDowneyJr.png', 'Im_RobertPattinson.png', 'Im_GeorgeClooney.png', 'Im_MattDamon.png', 'Im_PatrickDempsey.png', 'Im_LeonardoDiCaprio.png', 'Im_JustinTimberlake.png', 'Im_DanielCraig.png', 'Im_RyanGosling.png', 'Im_DanielRadcliffe.png'],diff,0,0.4749131999997189,5,64.28571428571429,
XABE0501,train,pos,90,pos90_id13_im29.bmp_pos90_id20_im12.bmp,['Im_RobertDowneyJr.png', 'Im_RobertPattinson.png', 'Im_GeorgeClooney.png', 'Im_MattDamon.png', 'Im_PatrickDempsey.png', 'Im_LeonardoDiCaprio.png', 'Im_JustinTimberlake.png', 'Im_DanielCraig.png', 'Im_RyanGosling.png', 'Im_DanielRadcliffe.png'],diff,1,0.41656890000012936,6,64.28571428571429,
XABE0501,train,pos,120,pos120_id17_im8.bmp_pos120_id17_im14.bmp,['Im_RobertDowneyJr.png', 'Im_RobertPattinson.png', 'Im_GeorgeClooney.png', 'Im_MattDamon.png', 'Im_PatrickDempsey.png', 'Im_LeonardoDiCaprio.png', 'Im_JustinTimberlake.png', 'Im_DanielCraig.png', 'Im_RyanGosling.png', 'Im_DanielRadcliffe.png'],diff,0,0.4165517000001273,6,64.28571428571429,
XABE0501,train,pos,0,pos0_id18_im19.bmp_pos0_id14_im24.bmp,['Im_RobertDowneyJr.png', 'Im_RobertPattinson.png', 'Im_GeorgeClooney.png', 'Im_MattDamon.png', 'Im_PatrickDempsey.png', 'Im_LeonardoDiCaprio.png', 'Im_JustinTimberlake.png', 'Im_DanielCraig.png', 'Im_RyanGosling.png', 'Im_DanielRadcliffe.png'],same,0,0.41667470000174944,6,64.28571428571429,
XABE0501,train,pos,30,pos30_id10_im18.bmp_pos30_id13_im29.bmp,['Im_RobertDowneyJr.png', 'Im_RobertPattinson.png', 'Im_GeorgeClooney.png', 'Im_MattDamon.png', 'Im_PatrickDempsey.png', 'Im_LeonardoDiCaprio.png', 'Im_JustinTimberlake.png', 'Im_DanielCraig.png', 'Im_RyanGosling.png', 'Im_DanielRadcliffe.png'],diff,1,0.5588295000015933,7,64.28571428571429,
XABE0501,train,pos,90,pos90_id19_im4.bmp_pos90_id5_im20.bmp,['Im_RobertDowneyJr.png', 'Im_RobertPattinson.png', 'Im_GeorgeClooney.png', 'Im_MattDamon.png', 'Im_PatrickDempsey.png', 'Im_LeonardoDiCaprio.png', 'Im_JustinTimberlake.png', 'Im_DanielCraig.png', 'Im_RyanGosling.png', 'Im_DanielRadcliffe.png'],diff,1,0.41660159999810276,8,64.28571428571429,
XABE0501,train,pos,0,pos0_id19_im4.bmp_pos0_id19_im27.bmp,['Im_RobertDowneyJr.png', 'Im_RobertPattinson.png', 'Im_GeorgeClooney.png', 'Im_MattDamon.png', 'Im_PatrickDempsey.png', 'Im_LeonardoDiCaprio.png', 'Im_JustinTimberlake.png', 'Im_DanielCraig.png', 'Im_RyanGosling.png', 'Im_DanielRadcliffe.png'],same,1,0.5086153000011109,9,64.28571428571429,
XABE0501,train,pos,fs,posfs_id13_im15.bmp_posfs_id18_im11.bmp,['Im_RobertDowneyJr.png', 'Im_RobertPattinson.png', 'Im_GeorgeClooney.png', 'Im_MattDamon.png', 'Im_PatrickDempsey.png', 'Im_LeonardoDiCaprio.png', 'Im_JustinTimberlake.png', 'Im_DanielCraig.png', 'Im_RyanGosling.png', 'Im_DanielRadcliffe.png'],diff,1,0.7083511999990151,10,64.28571428571429,
XABE0501,train,pos,fs,posfs_id19_im27.bmp_posfs_id7_im15.bmp,['Im_RobertDowneyJr.png', 'Im_RobertPattinson.png', 'Im_GeorgeClooney.png', 'Im_MattDamon.png', 'Im_PatrickDempsey.png', 'Im_LeonardoDiCaprio.png', 'Im_JustinTimberlake.png', 'Im_DanielCraig.png', 'Im_RyanGosling.png', 'Im_DanielRadcliffe.png'],diff,1,0.4084679999978107,11,64.28571428571429,
XABE0501,train,pos,150,pos150_id7_im26.bmp_pos150_id18_im18.bmp,['Im_RobertDowneyJr.png', 'Im_RobertPattinson.png', 'Im_GeorgeClooney.png', 'Im_MattDamon.png', 'Im_PatrickDempsey.png', 'Im_LeonardoDiCaprio.png', 'Im_JustinTimberlake.png', 'Im_DanielCraig.png', 'Im_RyanGosling.png', 'Im_DanielRadcliffe.png'],diff,1,0.42506090000097174,12,64.28571428571429,
XABE0501,train,pos,60,pos60_id4_im15.bmp_pos60_id5_im1.bmp,['Im_RobertDowneyJr.png', 'Im_RobertPattinson.png', 'Im_GeorgeClooney.png', 'Im_MattDamon.png', 'Im_PatrickDempsey.png', 'Im_LeonardoDiCaprio.png', 'Im_JustinTimberlake.png', 'Im_DanielCraig.png', 'Im_RyanGosling.png', 'Im_DanielRadcliffe.png'],diff,1,0.42521620000115945,13,64.28571428571429,
XABE0501,train,pos,60,pos60_id13_im10.bmp_pos60_id18_im19.bmp,['Im_RobertDowneyJr.png', 'Im_RobertPattinson.png', 'Im_GeorgeClooney.png', 'Im_MattDamon.png', 'Im_PatrickDempsey.png', 'Im_LeonardoDiCaprio.png', 'Im_JustinTimberlake.png', 'Im_DanielCraig.png', 'Im_RyanGosling.png', 'Im_DanielRadcliffe.png'],diff,1,0.43311030000040773,14,64.28571428571429,
XABE0501,train,pos,30,pos30_id18_im19.bmp_pos30_id18_im11.bmp,['Im_RobertDowneyJr.png', 'Im_RobertPattinson.png', 'Im_GeorgeClooney.png', 'Im_MattDamon.png', 'Im_PatrickDempsey.png', 'Im_LeonardoDiCaprio.png', 'Im_JustinTimberlake.png', 'Im_DanielCraig.png', 'Im_RyanGosling.png', 'Im_DanielRadcliffe.png'],diff,0,0.7501899000017147,14,64.28571428571429,
XABE0501,train,pos,150,pos150_id4_im15.bmp_pos150_id4_im7.bmp,['Im_RobertDowneyJr.png', 'Im_RobertPattinson.png', 'Im_GeorgeClooney.png', 'Im_MattDamon.png', 'Im_PatrickDempsey.png', 'Im_LeonardoDiCaprio.png', 'Im_JustinTimberlake.png', 'Im_DanielCraig.png', 'Im_RyanGosling.png', 'Im_DanielRadcliffe.png'],same,1,1.1416103999981715,15,64.28571428571429,
XABE0501,train,pos,120,pos120_id18_im19.bmp_pos120_id14_im24.bmp,['Im_RobertDowneyJr.png', 'Im_RobertPattinson.png', 'Im_GeorgeClooney.png', 'Im_MattDamon.png', 'Im_PatrickDempsey.png', 'Im_LeonardoDiCaprio.png', 'Im_JustinTimberlake.png', 'Im_DanielCraig.png', 'Im_RyanGosling.png', 'Im_DanielRadcliffe.png'],diff,1,0.42511260000173934,16,64.28571428571429,
XABE0501,train,inv,60,pos60_id20_im30.bmp_pos60_id7_im26.bmp,['Im_RobertDowneyJr.png', 'Im_RobertPattinson.png', 'Im_GeorgeClooney.png', 'Im_MattDamon.png', 'Im_PatrickDempsey.png', 'Im_LeonardoDiCaprio.png', 'Im_JustinTimberlake.png', 'Im_DanielCraig.png', 'Im_RyanGosling.png', 'Im_DanielRadcliffe.png'],diff,1,0.5832942999986699,17,64.28571428571429,
XABE0501,train,inv,150,pos150_id7_im14.bmp_pos150_id7_im26.bmp,['Im_RobertDowneyJr.png', 'Im_RobertPattinson.png', 'Im_GeorgeClooney.png', 'Im_MattDamon.png', 'Im_PatrickDempsey.png', 'Im_LeonardoDiCaprio.png', 'Im_JustinTimberlake.png', 'Im_DanielCraig.png', 'Im_RyanGosling.png', 'Im_DanielRadcliffe.png'],same,1,0.4251513999988674,18,64.28571428571429,
XABE0501,train,inv,120,pos120_id10_im18.bmp_pos120_id13_im29.bmp,['Im_RobertDowneyJr.png', 'Im_RobertPattinson.png', 'Im_GeorgeClooney.png', 'Im_MattDamon.png', 'Im_PatrickDempsey.png', 'Im_LeonardoDiCaprio.png', 'Im_JustinTimberlake.png', 'Im_DanielCraig.png', 'Im_RyanGosling.png', 'Im_DanielRadcliffe.png'],same,0,0.45836419999977807,18,64.28571428571429,
XABE0501,train,inv,90,pos90_id14_im16.bmp_pos90_id14_im18.bmp,['Im_RobertDowneyJr.png', 'Im_RobertPattinson.png', 'Im_GeorgeClooney.png', 'Im_MattDamon.png', 'Im_PatrickDempsey.png', 'Im_LeonardoDiCaprio.png', 'Im_JustinTimberlake.png', 'Im_DanielCraig.png', 'Im_RyanGosling.png', 'Im_DanielRadcliffe.png'],diff,0,0.5748996999973315,18,64.28571428571429,
XABE0501,train,inv,150,pos150_id4_im20.bmp_pos150_id4_im7.bmp,['Im_RobertDowneyJr.png', 'Im_RobertPattinson.png', 'Im_GeorgeClooney.png', 'Im_MattDamon.png', 'Im_PatrickDempsey.png', 'Im_LeonardoDiCaprio.png', 'Im_JustinTimberlake.png', 'Im_DanielCraig.png', 'Im_RyanGosling.png', 'Im_DanielRadcliffe.png'],diff,0,1.0500247000018135,18,64.28571428571429,
XABE0501,train,inv,30,pos30_id4_im15.bmp_pos30_id4_im20.bmp,['Im_RobertDowneyJr.png', 'Im_RobertPattinson.png', 'Im_GeorgeClooney.png', 'Im_MattDamon.png', 'Im_PatrickDempsey.png', 'Im_LeonardoDiCaprio.png', 'Im_JustinTimberlake.png', 'Im_DanielCraig.png', 'Im_RyanGosling.png', 'Im_DanielRadcliffe.png'],diff,0,0.6582245999998122,18,64.28571428571429,
XABE0501,train,inv,fs,posfs_id18_im19.bmp_posfs_id18_im18.bmp,['Im_RobertDowneyJr.png', 'Im_RobertPattinson.png', 'Im_GeorgeClooney.png', 'Im_MattDamon.png', 'Im_PatrickDempsey.png', 'Im_LeonardoDiCaprio.png', 'Im_JustinTimberlake.png', 'Im_DanielCraig.png', 'Im_RyanGosling.png', 'Im_DanielRadcliffe.png'],diff,0,1.091615899997123,18,64.28571428571429,
XABE0501,train,inv,60,pos60_id19_im27.bmp_pos60_id7_im15.bmp,['Im_RobertDowneyJr.png', 'Im_RobertPattinson.png', 'Im_GeorgeClooney.png', 'Im_MattDamon.png', 'Im_PatrickDempsey.png', 'Im_LeonardoDiCaprio.png', 'Im_JustinTimberlake.png', 'Im_DanielCraig.png', 'Im_RyanGosling.png', 'Im_DanielRadcliffe.png'],same,0,0.8249327000012272,18,64.28571428571429,
XABE0501,train,inv,fs,posfs_id17_im9.bmp_posfs_id17_im8.bmp,['Im_RobertDowneyJr.png', 'Im_RobertPattinson.png', 'Im_GeorgeClooney.png', 'Im_MattDamon.png', 'Im_PatrickDempsey.png', 'Im_LeonardoDiCaprio.png', 'Im_JustinTimberlake.png', 'Im_DanielCraig.png', 'Im_RyanGosling.png', 'Im_DanielRadcliffe.png'],diff,0,0.5081255000004603,18,64.28571428571429,
XABE0501,train,inv,120,pos120_id10_im18.bmp_pos120_id19_im8.bmp,['Im_RobertDowneyJr.png', 'Im_RobertPattinson.png', 'Im_GeorgeClooney.png', 'Im_MattDamon.png', 'Im_PatrickDempsey.png', 'Im_LeonardoDiCaprio.png', 'Im_JustinTimberlake.png', 'Im_DanielCraig.png', 'Im_RyanGosling.png', 'Im_DanielRadcliffe.png'],same,0,0.4835090000015043,18,64.28571428571429,
XABE0501,train,inv,0,pos0_id13_im15.bmp_pos0_id13_im29.bmp,['Im_RobertDowneyJr.png', 'Im_RobertPattinson.png', 'Im_GeorgeClooney.png', 'Im_MattDamon.png', 'Im_PatrickDempsey.png', 'Im_LeonardoDiCaprio.png', 'Im_JustinTimberlake.png', 'Im_DanielCraig.png', 'Im_RyanGosling.png', 'Im_DanielRadcliffe.png'],same,1,0.892061399998056,19,64.28571428571429,
XABE0501,train,inv,0,pos0_id5_im1.bmp_pos0_id4_im15.bmp,['Im_RobertDowneyJr.png', 'Im_RobertPattinson.png', 'Im_GeorgeClooney.png', 'Im_MattDamon.png', 'Im_PatrickDempsey.png', 'Im_LeonardoDiCaprio.png', 'Im_JustinTimberlake.png', 'Im_DanielCraig.png', 'Im_RyanGosling.png', 'Im_DanielRadcliffe.png'],diff,1,0.408376400002453,20,64.28571428571429,
XABE0501,train,inv,30,pos30_id7_im15.bmp_pos30_id19_im27.bmp,['Im_RobertDowneyJr.png', 'Im_RobertPattinson.png', 'Im_GeorgeClooney.png', 'Im_MattDamon.png', 'Im_PatrickDempsey.png', 'Im_LeonardoDiCaprio.png', 'Im_JustinTimberlake.png', 'Im_DanielCraig.png', 'Im_RyanGosling.png', 'Im_DanielRadcliffe.png'],same,0,0.6250185999997484,20,64.28571428571429,
XABE0501,train,inv,90,pos90_id13_im10.bmp_pos90_id13_im29.bmp,['Im_RobertDowneyJr.png', 'Im_RobertPattinson.png', 'Im_GeorgeClooney.png', 'Im_MattDamon.png', 'Im_PatrickDempsey.png', 'Im_LeonardoDiCaprio.png', 'Im_JustinTimberlake.png', 'Im_DanielCraig.png', 'Im_RyanGosling.png', 'Im_DanielRadcliffe.png'],diff,0,0.4417037999992317,20,64.28571428571429,
XABE0501,train,pos,30,pos30_id14_im16.bmp_pos30_id14_im24.bmp,['Im_RobertDowneyJr.png', 'Im_RobertPattinson.png', 'Im_GeorgeClooney.png', 'Im_MattDamon.png', 'Im_PatrickDempsey.png', 'Im_LeonardoDiCaprio.png', 'Im_JustinTimberlake.png', 'Im_DanielCraig.png', 'Im_RyanGosling.png', 'Im_DanielRadcliffe.png'],diff,0,0.40824590000192984,0,47.61904761904762,
XABE0501,train,pos,30,pos30_id13_im15.bmp_pos30_id13_im10.bmp,['Im_RobertDowneyJr.png', 'Im_RobertPattinson.png', 'Im_GeorgeClooney.png', 'Im_MattDamon.png', 'Im_PatrickDempsey.png', 'Im_LeonardoDiCaprio.png', 'Im_JustinTimberlake.png', 'Im_DanielCraig.png', 'Im_RyanGosling.png', 'Im_DanielRadcliffe.png'],same,1,0.40837570000076084,1,47.61904761904762,
XABE0501,train,pos,60,pos60_id18_im19.bmp_pos60_id14_im24.bmp,['Im_RobertDowneyJr.png', 'Im_RobertPattinson.png', 'Im_GeorgeClooney.png', 'Im_MattDamon.png', 'Im_PatrickDempsey.png', 'Im_LeonardoDiCaprio.png', 'Im_JustinTimberlake.png', 'Im_DanielCraig.png', 'Im_RyanGosling.png', 'Im_DanielRadcliffe.png'],diff,1,0.5667320000029576,2,47.61904761904762,
XABE0501,train,pos,0,pos0_id4_im15.bmp_pos0_id4_im7.bmp,['Im_RobertDowneyJr.png', 'Im_RobertPattinson.png', 'Im_GeorgeClooney.png', 'Im_MattDamon.png', 'Im_PatrickDempsey.png', 'Im_LeonardoDiCaprio.png', 'Im_JustinTimberlake.png', 'Im_DanielCraig.png', 'Im_RyanGosling.png', 'Im_DanielRadcliffe.png'],same,1,0.42506779999894206,3,47.61904761904762,
XABE0501,train,pos,fs,posfs_id17_im9.bmp_posfs_id4_im7.bmp,['Im_RobertDowneyJr.png', 'Im_RobertPattinson.png', 'Im_GeorgeClooney.png', 'Im_MattDamon.png', 'Im_PatrickDempsey.png', 'Im_LeonardoDiCaprio.png', 'Im_JustinTimberlake.png', 'Im_DanielCraig.png', 'Im_RyanGosling.png', 'Im_DanielRadcliffe.png'],diff,1,0.40853140000035637,4,47.61904761904762,
XABE0501,train,pos,120,pos120_id4_im7.bmp_pos120_id17_im8.bmp,['Im_RobertDowneyJr.png', 'Im_RobertPattinson.png', 'Im_GeorgeClooney.png', 'Im_MattDamon.png', 'Im_PatrickDempsey.png', 'Im_LeonardoDiCaprio.png', 'Im_JustinTimberlake.png', 'Im_DanielCraig.png', 'Im_RyanGosling.png', 'Im_DanielRadcliffe.png'],diff,1,0.44194969999807654,5,47.61904761904762,
XABE0501,train,pos,0,pos0_id10_im18.bmp_pos0_id19_im8.bmp,['Im_RobertDowneyJr.png', 'Im_RobertPattinson.png', 'Im_GeorgeClooney.png', 'Im_MattDamon.png', 'Im_PatrickDempsey.png', 'Im_LeonardoDiCaprio.png', 'Im_JustinTimberlake.png', 'Im_DanielCraig.png', 'Im_RyanGosling.png', 'Im_DanielRadcliffe.png'],same,0,0.5917843999995966,5,47.61904761904762,
XABE0501,train,pos,90,pos90_id18_im11.bmp_pos90_id18_im18.bmp,['Im_RobertDowneyJr.png', 'Im_RobertPattinson.png', 'Im_GeorgeClooney.png', 'Im_MattDamon.png', 'Im_PatrickDempsey.png', 'Im_LeonardoDiCaprio.png', 'Im_JustinTimberlake.png', 'Im_DanielCraig.png', 'Im_RyanGosling.png', 'Im_DanielRadcliffe.png'],diff,0,0.4919480000025942,5,47.61904761904762,
XABE0501,train,pos,120,pos120_id14_im24.bmp_pos120_id7_im14.bmp,['Im_RobertDowneyJr.png', 'Im_RobertPattinson.png', 'Im_GeorgeClooney.png', 'Im_MattDamon.png', 'Im_PatrickDempsey.png', 'Im_LeonardoDiCaprio.png', 'Im_JustinTimberlake.png', 'Im_DanielCraig.png', 'Im_RyanGosling.png', 'Im_DanielRadcliffe.png'],diff,1,0.4166577000032703,6,47.61904761904762,
XABE0501,train,pos,60,pos60_id17_im14.bmp_pos60_id17_im9.bmp,['Im_RobertDowneyJr.png', 'Im_RobertPattinson.png', 'Im_GeorgeClooney.png', 'Im_MattDamon.png', 'Im_PatrickDempsey.png', 'Im_LeonardoDiCaprio.png', 'Im_JustinTimberlake.png', 'Im_DanielCraig.png', 'Im_RyanGosling.png', 'Im_DanielRadcliffe.png'],same,1,0.9752780999988317,7,47.61904761904762,
XABE0501,train,pos,90,pos90_id4_im7.bmp_pos90_id17_im8.bmp,['Im_RobertDowneyJr.png', 'Im_RobertPattinson.png', 'Im_GeorgeClooney.png', 'Im_MattDamon.png', 'Im_PatrickDempsey.png', 'Im_LeonardoDiCaprio.png', 'Im_JustinTimberlake.png', 'Im_DanielCraig.png', 'Im_RyanGosling.png', 'Im_DanielRadcliffe.png'],same,0,0.4586142000007385,7,47.61904761904762,
XABE0501,train,pos,150,pos150_id13_im10.bmp_pos150_id13_im15.bmp,['Im_RobertDowneyJr.png', 'Im_RobertPattinson.png', 'Im_GeorgeClooney.png', 'Im_MattDamon.png', 'Im_PatrickDempsey.png', 'Im_LeonardoDiCaprio.png', 'Im_JustinTimberlake.png', 'Im_DanielCraig.png', 'Im_RyanGosling.png', 'Im_DanielRadcliffe.png'],same,1,0.5251631999999518,8,47.61904761904762,
XABE0501,train,pos,fs,posfs_id10_im18.bmp_posfs_id19_im8.bmp,['Im_RobertDowneyJr.png', 'Im_RobertPattinson.png', 'Im_GeorgeClooney.png', 'Im_MattDamon.png', 'Im_PatrickDempsey.png', 'Im_LeonardoDiCaprio.png', 'Im_JustinTimberlake.png', 'Im_DanielCraig.png', 'Im_RyanGosling.png', 'Im_DanielRadcliffe.png'],same,0,0.6416754999991099,8,47.61904761904762,
XABE0501,train,pos,150,pos150_id4_im20.bmp_pos150_id4_im15.bmp,['Im_RobertDowneyJr.png', 'Im_RobertPattinson.png', 'Im_GeorgeClooney.png', 'Im_MattDamon.png', 'Im_PatrickDempsey.png', 'Im_LeonardoDiCaprio.png', 'Im_JustinTimberlake.png', 'Im_DanielCraig.png', 'Im_RyanGosling.png', 'Im_DanielRadcliffe.png'],same,1,0.5002423000005365,9,47.61904761904762,
XABE0501,train,inv,30,pos30_id4_im15.bmp_pos30_id18_im11.bmp,['Im_RobertDowneyJr.png', 'Im_RobertPattinson.png', 'Im_GeorgeClooney.png', 'Im_MattDamon.png', 'Im_PatrickDempsey.png', 'Im_LeonardoDiCaprio.png', 'Im_JustinTimberlake.png', 'Im_DanielCraig.png', 'Im_RyanGosling.png', 'Im_DanielRadcliffe.png'],diff,1,0.8501995000005991,10,47.61904761904762,
XABE0501,train,inv,150,pos150_id7_im26.bmp_pos150_id20_im30.bmp,['Im_RobertDowneyJr.png', 'Im_RobertPattinson.png', 'Im_GeorgeClooney.png', 'Im_MattDamon.png', 'Im_PatrickDempsey.png', 'Im_LeonardoDiCaprio.png', 'Im_JustinTimberlake.png', 'Im_DanielCraig.png', 'Im_RyanGosling.png', 'Im_DanielRadcliffe.png'],diff,1,0.9086596000015561,11,47.61904761904762,
XABE0501,train,inv,120,pos120_id20_im12.bmp_pos120_id13_im29.bmp,['Im_RobertDowneyJr.png', 'Im_RobertPattinson.png', 'Im_GeorgeClooney.png', 'Im_MattDamon.png', 'Im_PatrickDempsey.png', 'Im_LeonardoDiCaprio.png', 'Im_JustinTimberlake.png', 'Im_DanielCraig.png', 'Im_RyanGosling.png', 'Im_DanielRadcliffe.png'],same,0,0.9416201999993064,11,47.61904761904762,
XABE0501,train,inv,90,pos90_id4_im7.bmp_pos90_id4_im15.bmp,['Im_RobertDowneyJr.png', 'Im_RobertPattinson.png', 'Im_GeorgeClooney.png', 'Im_MattDamon.png', 'Im_PatrickDempsey.png', 'Im_LeonardoDiCaprio.png', 'Im_JustinTimberlake.png', 'Im_DanielCraig.png', 'Im_RyanGosling.png', 'Im_DanielRadcliffe.png'],diff,0,0.6334833999972034,11,47.61904761904762,
XABE0501,train,inv,30,pos30_id10_im18.bmp_pos30_id10_im17.bmp,['Im_RobertDowneyJr.png', 'Im_RobertPattinson.png', 'Im_GeorgeClooney.png', 'Im_MattDamon.png', 'Im_PatrickDempsey.png', 'Im_LeonardoDiCaprio.png', 'Im_JustinTimberlake.png', 'Im_DanielCraig.png', 'Im_RyanGosling.png', 'Im_DanielRadcliffe.png'],diff,0,0.9586407999995572,11,47.61904761904762,
XABE0501,train,inv,120,pos120_id7_im14.bmp_pos120_id7_im26.bmp,['Im_RobertDowneyJr.png', 'Im_RobertPattinson.png', 'Im_GeorgeClooney.png', 'Im_MattDamon.png', 'Im_PatrickDempsey.png', 'Im_LeonardoDiCaprio.png', 'Im_JustinTimberlake.png', 'Im_DanielCraig.png', 'Im_RyanGosling.png', 'Im_DanielRadcliffe.png'],same,1,0.42476890000034473,12,47.61904761904762,
XABE0501,train,inv,90,pos90_id4_im20.bmp_pos90_id7_im14.bmp,['Im_RobertDowneyJr.png', 'Im_RobertPattinson.png', 'Im_GeorgeClooney.png', 'Im_MattDamon.png', 'Im_PatrickDempsey.png', 'Im_LeonardoDiCaprio.png', 'Im_JustinTimberlake.png', 'Im_DanielCraig.png', 'Im_RyanGosling.png', 'Im_DanielRadcliffe.png'],diff,1,0.5586199999997916,13,47.61904761904762,
XABE0501,train,inv,fs,posfs_id14_im18.bmp_posfs_id13_im10.bmp,['Im_RobertDowneyJr.png', 'Im_RobertPattinson.png', 'Im_GeorgeClooney.png', 'Im_MattDamon.png', 'Im_PatrickDempsey.png', 'Im_LeonardoDiCaprio.png', 'Im_JustinTimberlake.png', 'Im_DanielCraig.png', 'Im_RyanGosling.png', 'Im_DanielRadcliffe.png'],diff,1,0.4250447999984317,14,47.61904761904762,
XABE0501,train,inv,60,pos60_id7_im26.bmp_pos60_id7_im14.bmp,['Im_RobertDowneyJr.png', 'Im_RobertPattinson.png', 'Im_GeorgeClooney.png', 'Im_MattDamon.png', 'Im_PatrickDempsey.png', 'Im_LeonardoDiCaprio.png', 'Im_JustinTimberlake.png', 'Im_DanielCraig.png', 'Im_RyanGosling.png', 'Im_DanielRadcliffe.png'],diff,0,0.6582775999995647,14,47.61904761904762,
XABE0501,train,inv,150,pos150_id19_im4.bmp_pos150_id19_im8.bmp,['Im_RobertDowneyJr.png', 'Im_RobertPattinson.png', 'Im_GeorgeClooney.png', 'Im_MattDamon.png', 'Im_PatrickDempsey.png', 'Im_LeonardoDiCaprio.png', 'Im_JustinTimberlake.png', 'Im_DanielCraig.png', 'Im_RyanGosling.png', 'Im_DanielRadcliffe.png'],same,1,0.5250536999992619,15,47.61904761904762,
XABE0501,train,inv,fs,posfs_id14_im18.bmp_posfs_id5_im10.bmp,['Im_RobertDowneyJr.png', 'Im_RobertPattinson.png', 'Im_GeorgeClooney.png', 'Im_MattDamon.png', 'Im_PatrickDempsey.png', 'Im_LeonardoDiCaprio.png', 'Im_JustinTimberlake.png', 'Im_DanielCraig.png', 'Im_RyanGosling.png', 'Im_DanielRadcliffe.png'],diff,1,0.4166933999986213,16,47.61904761904762,
XABE0501,train,inv,0,pos0_id7_im14.bmp_pos0_id7_im15.bmp,['Im_RobertDowneyJr.png', 'Im_RobertPattinson.png', 'Im_GeorgeClooney.png', 'Im_MattDamon.png', 'Im_PatrickDempsey.png', 'Im_LeonardoDiCaprio.png', 'Im_JustinTimberlake.png', 'Im_DanielCraig.png', 'Im_RyanGosling.png', 'Im_DanielRadcliffe.png'],same,1,0.408534399997734,17,47.61904761904762,
XABE0501,train,inv,60,pos60_id5_im10.bmp_pos60_id5_im1.bmp,['Im_RobertDowneyJr.png', 'Im_RobertPattinson.png', 'Im_GeorgeClooney.png', 'Im_MattDamon.png', 'Im_PatrickDempsey.png', 'Im_LeonardoDiCaprio.png', 'Im_JustinTimberlake.png', 'Im_DanielCraig.png', 'Im_RyanGosling.png', 'Im_DanielRadcliffe.png'],same,1,0.42496570000002976,18,47.61904761904762,
XABE0501,train,inv,0,pos0_id10_im1.bmp_pos0_id5_im1.bmp,['Im_RobertDowneyJr.png', 'Im_RobertPattinson.png', 'Im_GeorgeClooney.png', 'Im_MattDamon.png', 'Im_PatrickDempsey.png', 'Im_LeonardoDiCaprio.png', 'Im_JustinTimberlake.png', 'Im_DanielCraig.png', 'Im_RyanGosling.png', 'Im_DanielRadcliffe.png'],diff,1,0.43337310000060825,19,47.61904761904762,
XABE0501,train,neg,90,neg90_id7_im14.bmp_neg90_id7_im26.bmp,['Im_RobertDowneyJr.png', 'Im_RobertPattinson.png', 'Im_GeorgeClooney.png', 'Im_MattDamon.png', 'Im_PatrickDempsey.png', 'Im_LeonardoDiCaprio.png', 'Im_JustinTimberlake.png', 'Im_DanielCraig.png', 'Im_RyanGosling.png', 'Im_DanielRadcliffe.png'],diff,0,0.6420748999989883,19,47.61904761904762,
XABE0501,train,neg,fs,negfs_id4_im15.bmp_negfs_id4_im7.bmp,['Im_RobertDowneyJr.png', 'Im_RobertPattinson.png', 'Im_GeorgeClooney.png', 'Im_MattDamon.png', 'Im_PatrickDempsey.png', 'Im_LeonardoDiCaprio.png', 'Im_JustinTimberlake.png', 'Im_DanielCraig.png', 'Im_RyanGosling.png', 'Im_DanielRadcliffe.png'],same,1,0.433583499998349,20,47.61904761904762,
XABE0501,train,neg,90,neg90_id13_im10.bmp_neg90_id18_im19.bmp,['Im_RobertDowneyJr.png', 'Im_RobertPattinson.png', 'Im_GeorgeClooney.png', 'Im_MattDamon.png', 'Im_PatrickDempsey.png', 'Im_LeonardoDiCaprio.png', 'Im_JustinTimberlake.png', 'Im_DanielCraig.png', 'Im_RyanGosling.png', 'Im_DanielRadcliffe.png'],diff,1,0.41669719999845256,21,47.61904761904762,
XABE0501,train,neg,0,neg0_id13_im15.bmp_neg0_id13_im29.bmp,['Im_RobertDowneyJr.png', 'Im_RobertPattinson.png', 'Im_GeorgeClooney.png', 'Im_MattDamon.png', 'Im_PatrickDempsey.png', 'Im_LeonardoDiCaprio.png', 'Im_JustinTimberlake.png', 'Im_DanielCraig.png', 'Im_RyanGosling.png', 'Im_DanielRadcliffe.png'],diff,0,0.5248719000010169,21,47.61904761904762,
XABE0501,train,neg,150,neg150_id20_im12.bmp_neg150_id20_im30.bmp,['Im_RobertDowneyJr.png', 'Im_RobertPattinson.png', 'Im_GeorgeClooney.png', 'Im_MattDamon.png', 'Im_PatrickDempsey.png', 'Im_LeonardoDiCaprio.png', 'Im_JustinTimberlake.png', 'Im_DanielCraig.png', 'Im_RyanGosling.png', 'Im_DanielRadcliffe.png'],same,1,0.5419014999970386,22,47.61904761904762,
XABE0501,train,neg,30,neg30_id10_im17.bmp_neg30_id20_im3.bmp,['Im_RobertDowneyJr.png', 'Im_RobertPattinson.png', 'Im_GeorgeClooney.png', 'Im_MattDamon.png', 'Im_PatrickDempsey.png', 'Im_LeonardoDiCaprio.png', 'Im_JustinTimberlake.png', 'Im_DanielCraig.png', 'Im_RyanGosling.png', 'Im_DanielRadcliffe.png'],diff,1,0.4081387999976869,23,47.61904761904762,
XABE0501,train,neg,fs,negfs_id20_im3.bmp_negfs_id17_im9.bmp,['Im_RobertDowneyJr.png', 'Im_RobertPattinson.png', 'Im_GeorgeClooney.png', 'Im_MattDamon.png', 'Im_PatrickDempsey.png', 'Im_LeonardoDiCaprio.png', 'Im_JustinTimberlake.png', 'Im_DanielCraig.png', 'Im_RyanGosling.png', 'Im_DanielRadcliffe.png'],diff,1,0.5250240999994276,24,47.61904761904762,
XABE0501,train,neg,120,neg120_id13_im29.bmp_neg120_id10_im18.bmp,['Im_RobertDowneyJr.png', 'Im_RobertPattinson.png', 'Im_GeorgeClooney.png', 'Im_MattDamon.png', 'Im_PatrickDempsey.png', 'Im_LeonardoDiCaprio.png', 'Im_JustinTimberlake.png', 'Im_DanielCraig.png', 'Im_RyanGosling.png', 'Im_DanielRadcliffe.png'],diff,1,0.6418184000031033,25,47.61904761904762,
XABE0501,train,neg,60,neg60_id13_im15.bmp_neg60_id13_im29.bmp,['Im_RobertDowneyJr.png', 'Im_RobertPattinson.png', 'Im_GeorgeClooney.png', 'Im_MattDamon.png', 'Im_PatrickDempsey.png', 'Im_LeonardoDiCaprio.png', 'Im_JustinTimberlake.png', 'Im_DanielCraig.png', 'Im_RyanGosling.png', 'Im_DanielRadcliffe.png'],same,1,0.42506760000105714,26,47.61904761904762,
XABE0501,train,neg,0,neg0_id17_im9.bmp_neg0_id17_im14.bmp,['Im_RobertDowneyJr.png', 'Im_RobertPattinson.png', 'Im_GeorgeClooney.png', 'Im_MattDamon.png', 'Im_PatrickDempsey.png', 'Im_LeonardoDiCaprio.png', 'Im_JustinTimberlake.png', 'Im_DanielCraig.png', 'Im_RyanGosling.png', 'Im_DanielRadcliffe.png'],same,1,0.47514000000228407,27,47.61904761904762,
XABE0501,train,neg,30,neg30_id13_im10.bmp_neg30_id13_im29.bmp,['Im_RobertDowneyJr.png', 'Im_RobertPattinson.png', 'Im_GeorgeClooney.png', 'Im_MattDamon.png', 'Im_PatrickDempsey.png', 'Im_LeonardoDiCaprio.png', 'Im_JustinTimberlake.png', 'Im_DanielCraig.png', 'Im_RyanGosling.png', 'Im_DanielRadcliffe.png'],same,1,0.5415828999975929,28,47.61904761904762,
XABE0501,train,neg,150,neg150_id13_im10.bmp_neg150_id18_im19.bmp,['Im_RobertDowneyJr.png', 'Im_RobertPattinson.png', 'Im_GeorgeClooney.png', 'Im_MattDamon.png', 'Im_PatrickDempsey.png', 'Im_LeonardoDiCaprio.png', 'Im_JustinTimberlake.png', 'Im_DanielCraig.png', 'Im_RyanGosling.png', 'Im_DanielRadcliffe.png'],diff,1,0.44989369999893825,29,47.61904761904762,
XABE0501,train,neg,120,neg120_id19_im4.bmp_neg120_id5_im20.bmp,['Im_RobertDowneyJr.png', 'Im_RobertPattinson.png', 'Im_GeorgeClooney.png', 'Im_MattDamon.png', 'Im_PatrickDempsey.png', 'Im_LeonardoDiCaprio.png', 'Im_JustinTimberlake.png', 'Im_DanielCraig.png', 'Im_RyanGosling.png', 'Im_DanielRadcliffe.png'],diff,1,0.433618099999876,30,47.61904761904762,
XABE0501,train,neg,60,neg60_id18_im18.bmp_neg60_id7_im15.bmp,['Im_RobertDowneyJr.png', 'Im_RobertPattinson.png', 'Im_GeorgeClooney.png', 'Im_MattDamon.png', 'Im_PatrickDempsey.png', 'Im_LeonardoDiCaprio.png', 'Im_JustinTimberlake.png', 'Im_DanielCraig.png', 'Im_RyanGosling.png', 'Im_DanielRadcliffe.png'],diff,1,0.5167610999997123,31,47.61904761904762,
XABE0501,train,pos,30,pos30_id20_im3.bmp_pos30_id20_im30.bmp,['Im_RobertDowneyJr.png', 'Im_RobertPattinson.png', 'Im_GeorgeClooney.png', 'Im_MattDamon.png', 'Im_PatrickDempsey.png', 'Im_LeonardoDiCaprio.png', 'Im_JustinTimberlake.png', 'Im_DanielCraig.png', 'Im_RyanGosling.png', 'Im_DanielRadcliffe.png'],same,1,0.6252299999978277,1,73.80952380952381,
XABE0501,train,pos,90,pos90_id14_im24.bmp_pos90_id14_im16.bmp,['Im_RobertDowneyJr.png', 'Im_RobertPattinson.png', 'Im_GeorgeClooney.png', 'Im_MattDamon.png', 'Im_PatrickDempsey.png', 'Im_LeonardoDiCaprio.png', 'Im_JustinTimberlake.png', 'Im_DanielCraig.png', 'Im_RyanGosling.png', 'Im_DanielRadcliffe.png'],same,1,0.45010870000260184,2,73.80952380952381,
XABE0501,train,pos,30,pos30_id18_im19.bmp_pos30_id18_im18.bmp,['Im_RobertDowneyJr.png', 'Im_RobertPattinson.png', 'Im_GeorgeClooney.png', 'Im_MattDamon.png', 'Im_PatrickDempsey.png', 'Im_LeonardoDiCaprio.png', 'Im_JustinTimberlake.png', 'Im_DanielCraig.png', 'Im_RyanGosling.png', 'Im_DanielRadcliffe.png'],same,1,0.8417301000008592,3,73.80952380952381,
XABE0501,train,pos,60,pos60_id17_im8.bmp_pos60_id10_im17.bmp,['Im_RobertDowneyJr.png', 'Im_RobertPattinson.png', 'Im_GeorgeClooney.png', 'Im_MattDamon.png', 'Im_PatrickDempsey.png', 'Im_LeonardoDiCaprio.png', 'Im_JustinTimberlake.png', 'Im_DanielCraig.png', 'Im_RyanGosling.png', 'Im_DanielRadcliffe.png'],diff,1,0.4085020999991684,4,73.80952380952381,
XABE0501,train,pos,120,pos120_id20_im30.bmp_pos120_id17_im14.bmp,['Im_RobertDowneyJr.png', 'Im_RobertPattinson.png', 'Im_GeorgeClooney.png', 'Im_MattDamon.png', 'Im_PatrickDempsey.png', 'Im_LeonardoDiCaprio.png', 'Im_JustinTimberlake.png', 'Im_DanielCraig.png', 'Im_RyanGosling.png', 'Im_DanielRadcliffe.png'],diff,1,0.4169876000014483,5,73.80952380952381,
XABE0501,train,pos,fs,posfs_id20_im30.bmp_posfs_id20_im12.bmp,['Im_RobertDowneyJr.png', 'Im_RobertPattinson.png', 'Im_GeorgeClooney.png', 'Im_MattDamon.png', 'Im_PatrickDempsey.png', 'Im_LeonardoDiCaprio.png', 'Im_JustinTimberlake.png', 'Im_DanielCraig.png', 'Im_RyanGosling.png', 'Im_DanielRadcliffe.png'],same,1,0.5332441999998991,6,73.80952380952381,
XABE0501,train,pos,0,pos0_id13_im10.bmp_pos0_id13_im15.bmp,['Im_RobertDowneyJr.png', 'Im_RobertPattinson.png', 'Im_GeorgeClooney.png', 'Im_MattDamon.png', 'Im_PatrickDempsey.png', 'Im_LeonardoDiCaprio.png', 'Im_JustinTimberlake.png', 'Im_DanielCraig.png', 'Im_RyanGosling.png', 'Im_DanielRadcliffe.png'],same,1,0.4166936000001442,7,73.80952380952381,
XABE0501,train,pos,90,pos90_id5_im20.bmp_pos90_id14_im16.bmp,['Im_RobertDowneyJr.png', 'Im_RobertPattinson.png', 'Im_GeorgeClooney.png', 'Im_MattDamon.png', 'Im_PatrickDempsey.png', 'Im_LeonardoDiCaprio.png', 'Im_JustinTimberlake.png', 'Im_DanielCraig.png', 'Im_RyanGosling.png', 'Im_DanielRadcliffe.png'],diff,1,0.42478309999933117,8,73.80952380952381,
XABE0501,train,pos,150,pos150_id17_im14.bmp_pos150_id17_im8.bmp,['Im_RobertDowneyJr.png', 'Im_RobertPattinson.png', 'Im_GeorgeClooney.png', 'Im_MattDamon.png', 'Im_PatrickDempsey.png', 'Im_LeonardoDiCaprio.png', 'Im_JustinTimberlake.png', 'Im_DanielCraig.png', 'Im_RyanGosling.png', 'Im_DanielRadcliffe.png'],diff,0,0.5250266000002739,8,73.80952380952381,
XABE0501,train,pos,120,pos120_id18_im19.bmp_pos120_id13_im10.bmp,['Im_RobertDowneyJr.png', 'Im_RobertPattinson.png', 'Im_GeorgeClooney.png', 'Im_MattDamon.png', 'Im_PatrickDempsey.png', 'Im_LeonardoDiCaprio.png', 'Im_JustinTimberlake.png', 'Im_DanielCraig.png', 'Im_RyanGosling.png', 'Im_DanielRadcliffe.png'],diff,1,0.42480609999984154,9,73.80952380952381,
XABE0501,train,pos,0,pos0_id14_im18.bmp_pos0_id5_im10.bmp,['Im_RobertDowneyJr.png', 'Im_RobertPattinson.png', 'Im_GeorgeClooney.png', 'Im_MattDamon.png', 'Im_PatrickDempsey.png', 'Im_LeonardoDiCaprio.png', 'Im_JustinTimberlake.png', 'Im_DanielCraig.png', 'Im_RyanGosling.png', 'Im_DanielRadcliffe.png'],diff,1,0.42538819999754196,10,73.80952380952381,
XABE0501,train,pos,fs,posfs_id20_im30.bmp_posfs_id17_im14.bmp,['Im_RobertDowneyJr.png', 'Im_RobertPattinson.png', 'Im_GeorgeClooney.png', 'Im_MattDamon.png', 'Im_PatrickDempsey.png', 'Im_LeonardoDiCaprio.png', 'Im_JustinTimberlake.png', 'Im_DanielCraig.png', 'Im_RyanGosling.png', 'Im_DanielRadcliffe.png'],diff,1,0.41651850000198465,11,73.80952380952381,
XABE0501,train,pos,150,pos150_id18_im11.bmp_pos150_id18_im19.bmp,['Im_RobertDowneyJr.png', 'Im_RobertPattinson.png', 'Im_GeorgeClooney.png', 'Im_MattDamon.png', 'Im_PatrickDempsey.png', 'Im_LeonardoDiCaprio.png', 'Im_JustinTimberlake.png', 'Im_DanielCraig.png', 'Im_RyanGosling.png', 'Im_DanielRadcliffe.png'],same,1,0.6000358999990567,12,73.80952380952381,
XABE0501,train,pos,60,pos60_id18_im18.bmp_pos60_id7_im15.bmp,['Im_RobertDowneyJr.png', 'Im_RobertPattinson.png', 'Im_GeorgeClooney.png', 'Im_MattDamon.png', 'Im_PatrickDempsey.png', 'Im_LeonardoDiCaprio.png', 'Im_JustinTimberlake.png', 'Im_DanielCraig.png', 'Im_RyanGosling.png', 'Im_DanielRadcliffe.png'],diff,1,0.558388699999341,13,73.80952380952381,
XABE0501,train,neg,60,neg60_id14_im16.bmp_neg60_id14_im24.bmp,['Im_RobertDowneyJr.png', 'Im_RobertPattinson.png', 'Im_GeorgeClooney.png', 'Im_MattDamon.png', 'Im_PatrickDempsey.png', 'Im_LeonardoDiCaprio.png', 'Im_JustinTimberlake.png', 'Im_DanielCraig.png', 'Im_RyanGosling.png', 'Im_DanielRadcliffe.png'],same,1,0.42491439999867,14,73.80952380952381,
XABE0501,train,neg,60,neg60_id5_im1.bmp_neg60_id4_im15.bmp,['Im_RobertDowneyJr.png', 'Im_RobertPattinson.png', 'Im_GeorgeClooney.png', 'Im_MattDamon.png', 'Im_PatrickDempsey.png', 'Im_LeonardoDiCaprio.png', 'Im_JustinTimberlake.png', 'Im_DanielCraig.png', 'Im_RyanGosling.png', 'Im_DanielRadcliffe.png'],diff,1,0.41676970000116853,15,73.80952380952381,
XABE0501,train,neg,150,neg150_id7_im15.bmp_neg150_id19_im27.bmp,['Im_RobertDowneyJr.png', 'Im_RobertPattinson.png', 'Im_GeorgeClooney.png', 'Im_MattDamon.png', 'Im_PatrickDempsey.png', 'Im_LeonardoDiCaprio.png', 'Im_JustinTimberlake.png', 'Im_DanielCraig.png', 'Im_RyanGosling.png', 'Im_DanielRadcliffe.png'],same,0,0.44997259999945527,15,73.80952380952381,
XABE0501,train,neg,150,neg150_id4_im15.bmp_neg150_id4_im20.bmp,['Im_RobertDowneyJr.png', 'Im_RobertPattinson.png', 'Im_GeorgeClooney.png', 'Im_MattDamon.png', 'Im_PatrickDempsey.png', 'Im_LeonardoDiCaprio.png', 'Im_JustinTimberlake.png', 'Im_DanielCraig.png', 'Im_RyanGosling.png', 'Im_DanielRadcliffe.png'],same,1,0.8914977999993425,16,73.80952380952381,
XABE0501,train,neg,fs,negfs_id14_im24.bmp_negfs_id7_im14.bmp,['Im_RobertDowneyJr.png', 'Im_RobertPattinson.png', 'Im_GeorgeClooney.png', 'Im_MattDamon.png', 'Im_PatrickDempsey.png', 'Im_LeonardoDiCaprio.png', 'Im_JustinTimberlake.png', 'Im_DanielCraig.png', 'Im_RyanGosling.png', 'Im_DanielRadcliffe.png'],diff,1,0.4166936000001442,17,73.80952380952381,
XABE0501,train,neg,0,neg0_id20_im30.bmp_neg0_id17_im14.bmp,['Im_RobertDowneyJr.png', 'Im_RobertPattinson.png', 'Im_GeorgeClooney.png', 'Im_MattDamon.png', 'Im_PatrickDempsey.png', 'Im_LeonardoDiCaprio.png', 'Im_JustinTimberlake.png', 'Im_DanielCraig.png', 'Im_RyanGosling.png', 'Im_DanielRadcliffe.png'],same,0,0.4251074999992852,17,73.80952380952381,
XABE0501,train,neg,120,neg120_id14_im18.bmp_neg120_id13_im10.bmp,['Im_RobertDowneyJr.png', 'Im_RobertPattinson.png', 'Im_GeorgeClooney.png', 'Im_MattDamon.png', 'Im_PatrickDempsey.png', 'Im_LeonardoDiCaprio.png', 'Im_JustinTimberlake.png', 'Im_DanielCraig.png', 'Im_RyanGosling.png', 'Im_DanielRadcliffe.png'],same,0,0.6419524000011734,17,73.80952380952381,
XABE0501,train,neg,90,neg90_id5_im1.bmp_neg90_id5_im20.bmp,['Im_RobertDowneyJr.png', 'Im_RobertPattinson.png', 'Im_GeorgeClooney.png', 'Im_MattDamon.png', 'Im_PatrickDempsey.png', 'Im_LeonardoDiCaprio.png', 'Im_JustinTimberlake.png', 'Im_DanielCraig.png', 'Im_RyanGosling.png', 'Im_DanielRadcliffe.png'],same,1,0.4169179999989865,18,73.80952380952381,
XABE0501,train,neg,fs,negfs_id14_im16.bmp_negfs_id14_im18.bmp,['Im_RobertDowneyJr.png', 'Im_RobertPattinson.png', 'Im_GeorgeClooney.png', 'Im_MattDamon.png', 'Im_PatrickDempsey.png', 'Im_LeonardoDiCaprio.png', 'Im_JustinTimberlake.png', 'Im_DanielCraig.png', 'Im_RyanGosling.png', 'Im_DanielRadcliffe.png'],diff,0,0.866982999999891,18,73.80952380952381,
XABE0501,train,neg,30,neg30_id7_im15.bmp_neg30_id18_im18.bmp,['Im_RobertDowneyJr.png', 'Im_RobertPattinson.png', 'Im_GeorgeClooney.png', 'Im_MattDamon.png', 'Im_PatrickDempsey.png', 'Im_LeonardoDiCaprio.png', 'Im_JustinTimberlake.png', 'Im_DanielCraig.png', 'Im_RyanGosling.png', 'Im_DanielRadcliffe.png'],diff,1,0.42515399999683723,19,73.80952380952381,
XABE0501,train,neg,90,neg90_id10_im17.bmp_neg90_id10_im18.bmp,['Im_RobertDowneyJr.png', 'Im_RobertPattinson.png', 'Im_GeorgeClooney.png', 'Im_MattDamon.png', 'Im_PatrickDempsey.png', 'Im_LeonardoDiCaprio.png', 'Im_JustinTimberlake.png', 'Im_DanielCraig.png', 'Im_RyanGosling.png', 'Im_DanielRadcliffe.png'],same,1,1.7248843000015768,20,73.80952380952381,
XABE0501,train,neg,30,neg30_id14_im24.bmp_neg30_id7_im14.bmp,['Im_RobertDowneyJr.png', 'Im_RobertPattinson.png', 'Im_GeorgeClooney.png', 'Im_MattDamon.png', 'Im_PatrickDempsey.png', 'Im_LeonardoDiCaprio.png', 'Im_JustinTimberlake.png', 'Im_DanielCraig.png', 'Im_RyanGosling.png', 'Im_DanielRadcliffe.png'],diff,1,0.42518120000022464,21,73.80952380952381,
XABE0501,train,neg,0,neg0_id17_im8.bmp_neg0_id10_im17.bmp,['Im_RobertDowneyJr.png', 'Im_RobertPattinson.png', 'Im_GeorgeClooney.png', 'Im_MattDamon.png', 'Im_PatrickDempsey.png', 'Im_LeonardoDiCaprio.png', 'Im_JustinTimberlake.png', 'Im_DanielCraig.png', 'Im_RyanGosling.png', 'Im_DanielRadcliffe.png'],same,0,0.5670664999997825,21,73.80952380952381,
XABE0501,train,neg,120,neg120_id19_im8.bmp_neg120_id10_im18.bmp,['Im_RobertDowneyJr.png', 'Im_RobertPattinson.png', 'Im_GeorgeClooney.png', 'Im_MattDamon.png', 'Im_PatrickDempsey.png', 'Im_LeonardoDiCaprio.png', 'Im_JustinTimberlake.png', 'Im_DanielCraig.png', 'Im_RyanGosling.png', 'Im_DanielRadcliffe.png'],same,0,0.6750025000001187,21,73.80952380952381,
XABE0501,train,inv,120,pos120_id20_im12.bmp_pos120_id20_im30.bmp,['Im_RobertDowneyJr.png', 'Im_RobertPattinson.png', 'Im_GeorgeClooney.png', 'Im_MattDamon.png', 'Im_PatrickDempsey.png', 'Im_LeonardoDiCaprio.png', 'Im_JustinTimberlake.png', 'Im_DanielCraig.png', 'Im_RyanGosling.png', 'Im_DanielRadcliffe.png'],diff,0,0.4164595999973244,21,73.80952380952381,
XABE0501,train,inv,60,pos60_id17_im8.bmp_pos60_id10_im17.bmp,['Im_RobertDowneyJr.png', 'Im_RobertPattinson.png', 'Im_GeorgeClooney.png', 'Im_MattDamon.png', 'Im_PatrickDempsey.png', 'Im_LeonardoDiCaprio.png', 'Im_JustinTimberlake.png', 'Im_DanielCraig.png', 'Im_RyanGosling.png', 'Im_DanielRadcliffe.png'],same,0,1.24991030000092,21,73.80952380952381,
XABE0501,train,inv,0,pos0_id17_im14.bmp_pos0_id17_im8.bmp,['Im_RobertDowneyJr.png', 'Im_RobertPattinson.png', 'Im_GeorgeClooney.png', 'Im_MattDamon.png', 'Im_PatrickDempsey.png', 'Im_LeonardoDiCaprio.png', 'Im_JustinTimberlake.png', 'Im_DanielCraig.png', 'Im_RyanGosling.png', 'Im_DanielRadcliffe.png'],diff,0,0.5167797000030987,21,73.80952380952381,
XABE0501,train,inv,90,pos90_id13_im15.bmp_pos90_id18_im11.bmp,['Im_RobertDowneyJr.png', 'Im_RobertPattinson.png', 'Im_GeorgeClooney.png', 'Im_MattDamon.png', 'Im_PatrickDempsey.png', 'Im_LeonardoDiCaprio.png', 'Im_JustinTimberlake.png', 'Im_DanielCraig.png', 'Im_RyanGosling.png', 'Im_DanielRadcliffe.png'],same,0,1.1082241000003705,21,73.80952380952381,
XABE0501,train,inv,90,pos90_id13_im29.bmp_pos90_id10_im18.bmp,['Im_RobertDowneyJr.png', 'Im_RobertPattinson.png', 'Im_GeorgeClooney.png', 'Im_MattDamon.png', 'Im_PatrickDempsey.png', 'Im_LeonardoDiCaprio.png', 'Im_JustinTimberlake.png', 'Im_DanielCraig.png', 'Im_RyanGosling.png', 'Im_DanielRadcliffe.png'],same,0,2.0334287000005133,21,73.80952380952381,
XABE0501,train,inv,60,pos60_id18_im18.bmp_pos60_id7_im15.bmp,['Im_RobertDowneyJr.png', 'Im_RobertPattinson.png', 'Im_GeorgeClooney.png', 'Im_MattDamon.png', 'Im_PatrickDempsey.png', 'Im_LeonardoDiCaprio.png', 'Im_JustinTimberlake.png', 'Im_DanielCraig.png', 'Im_RyanGosling.png', 'Im_DanielRadcliffe.png'],diff,1,0.47523720000026515,22,73.80952380952381,
XABE0501,train,inv,fs,posfs_id4_im20.bmp_posfs_id4_im15.bmp,['Im_RobertDowneyJr.png', 'Im_RobertPattinson.png', 'Im_GeorgeClooney.png', 'Im_MattDamon.png', 'Im_PatrickDempsey.png', 'Im_LeonardoDiCaprio.png', 'Im_JustinTimberlake.png', 'Im_DanielCraig.png', 'Im_RyanGosling.png', 'Im_DanielRadcliffe.png'],same,1,0.9586276999980328,23,73.80952380952381,
XABE0501,train,inv,120,pos120_id20_im3.bmp_pos120_id20_im30.bmp,['Im_RobertDowneyJr.png', 'Im_RobertPattinson.png', 'Im_GeorgeClooney.png', 'Im_MattDamon.png', 'Im_PatrickDempsey.png', 'Im_LeonardoDiCaprio.png', 'Im_JustinTimberlake.png', 'Im_DanielCraig.png', 'Im_RyanGosling.png', 'Im_DanielRadcliffe.png'],diff,0,0.7834475000017846,23,73.80952380952381,
XABE0501,train,inv,30,pos30_id17_im14.bmp_pos30_id17_im9.bmp,['Im_RobertDowneyJr.png', 'Im_RobertPattinson.png', 'Im_GeorgeClooney.png', 'Im_MattDamon.png', 'Im_PatrickDempsey.png', 'Im_LeonardoDiCaprio.png', 'Im_JustinTimberlake.png', 'Im_DanielCraig.png', 'Im_RyanGosling.png', 'Im_DanielRadcliffe.png'],diff,0,0.6502145000013115,23,73.80952380952381,
XABE0501,train,inv,30,pos30_id17_im14.bmp_pos30_id20_im30.bmp,['Im_RobertDowneyJr.png', 'Im_RobertPattinson.png', 'Im_GeorgeClooney.png', 'Im_MattDamon.png', 'Im_PatrickDempsey.png', 'Im_LeonardoDiCaprio.png', 'Im_JustinTimberlake.png', 'Im_DanielCraig.png', 'Im_RyanGosling.png', 'Im_DanielRadcliffe.png'],diff,1,0.6583576000011817,24,73.80952380952381,
XABE0501,train,inv,150,pos150_id10_im18.bmp_pos150_id13_im29.bmp,['Im_RobertDowneyJr.png', 'Im_RobertPattinson.png', 'Im_GeorgeClooney.png', 'Im_MattDamon.png', 'Im_PatrickDempsey.png', 'Im_LeonardoDiCaprio.png', 'Im_JustinTimberlake.png', 'Im_DanielCraig.png', 'Im_RyanGosling.png', 'Im_DanielRadcliffe.png'],diff,1,1.050274499997613,25,73.80952380952381,
XABE0501,train,inv,fs,posfs_id20_im3.bmp_posfs_id20_im30.bmp,['Im_RobertDowneyJr.png', 'Im_RobertPattinson.png', 'Im_GeorgeClooney.png', 'Im_MattDamon.png', 'Im_PatrickDempsey.png', 'Im_LeonardoDiCaprio.png', 'Im_JustinTimberlake.png', 'Im_DanielCraig.png', 'Im_RyanGosling.png', 'Im_DanielRadcliffe.png'],diff,0,0.416710299999977,25,73.80952380952381,
XABE0501,train,inv,150,pos150_id14_im24.bmp_pos150_id18_im19.bmp,['Im_RobertDowneyJr.png', 'Im_RobertPattinson.png', 'Im_GeorgeClooney.png', 'Im_MattDamon.png', 'Im_PatrickDempsey.png', 'Im_LeonardoDiCaprio.png', 'Im_JustinTimberlake.png', 'Im_DanielCraig.png', 'Im_RyanGosling.png', 'Im_DanielRadcliffe.png'],same,0,1.1168323000019882,25,73.80952380952381,
XABE0501,train,inv,0,pos0_id17_im14.bmp_pos0_id17_im9.bmp,['Im_RobertDowneyJr.png', 'Im_RobertPattinson.png', 'Im_GeorgeClooney.png', 'Im_MattDamon.png', 'Im_PatrickDempsey.png', 'Im_LeonardoDiCaprio.png', 'Im_JustinTimberlake.png', 'Im_DanielCraig.png', 'Im_RyanGosling.png', 'Im_DanielRadcliffe.png'],diff,0,0.5668971000013698,25,73.80952380952381,
XABE0501,train,pos,90,pos90_id5_im1.bmp_pos90_id5_im10.bmp,['Im_RobertDowneyJr.png', 'Im_RobertPattinson.png', 'Im_GeorgeClooney.png', 'Im_MattDamon.png', 'Im_PatrickDempsey.png', 'Im_LeonardoDiCaprio.png', 'Im_JustinTimberlake.png', 'Im_DanielCraig.png', 'Im_RyanGosling.png', 'Im_DanielRadcliffe.png'],same,1,0.4251637000015762,1,59.523809523809526,
XABE0501,train,pos,60,pos60_id20_im3.bmp_pos60_id20_im12.bmp,['Im_RobertDowneyJr.png', 'Im_RobertPattinson.png', 'Im_GeorgeClooney.png', 'Im_MattDamon.png', 'Im_PatrickDempsey.png', 'Im_LeonardoDiCaprio.png', 'Im_JustinTimberlake.png', 'Im_DanielCraig.png', 'Im_RyanGosling.png', 'Im_DanielRadcliffe.png'],same,1,0.5004595999998855,2,59.523809523809526,
XABE0501,train,pos,150,pos150_id18_im11.bmp_pos150_id18_im18.bmp,['Im_RobertDowneyJr.png', 'Im_RobertPattinson.png', 'Im_GeorgeClooney.png', 'Im_MattDamon.png', 'Im_PatrickDempsey.png', 'Im_LeonardoDiCaprio.png', 'Im_JustinTimberlake.png', 'Im_DanielCraig.png', 'Im_RyanGosling.png', 'Im_DanielRadcliffe.png'],same,1,0.41677680000066175,3,59.523809523809526,
XABE0501,train,pos,fs,posfs_id19_im4.bmp_posfs_id19_im27.bmp,['Im_RobertDowneyJr.png', 'Im_RobertPattinson.png', 'Im_GeorgeClooney.png', 'Im_MattDamon.png', 'Im_PatrickDempsey.png', 'Im_LeonardoDiCaprio.png', 'Im_JustinTimberlake.png', 'Im_DanielCraig.png', 'Im_RyanGosling.png', 'Im_DanielRadcliffe.png'],same,1,0.6669975000004342,4,59.523809523809526,
XABE0501,train,pos,0,pos0_id17_im9.bmp_pos0_id17_im14.bmp,['Im_RobertDowneyJr.png', 'Im_RobertPattinson.png', 'Im_GeorgeClooney.png', 'Im_MattDamon.png', 'Im_PatrickDempsey.png', 'Im_LeonardoDiCaprio.png', 'Im_JustinTimberlake.png', 'Im_DanielCraig.png', 'Im_RyanGosling.png', 'Im_DanielRadcliffe.png'],same,1,3.858458200000314,5,59.523809523809526,
XABE0501,train,pos,30,pos30_id7_im26.bmp_pos30_id20_im30.bmp,['Im_RobertDowneyJr.png', 'Im_RobertPattinson.png', 'Im_GeorgeClooney.png', 'Im_MattDamon.png', 'Im_PatrickDempsey.png', 'Im_LeonardoDiCaprio.png', 'Im_JustinTimberlake.png', 'Im_DanielCraig.png', 'Im_RyanGosling.png', 'Im_DanielRadcliffe.png'],diff,1,0.4083859000020311,6,59.523809523809526,
XABE0501,train,pos,120,pos120_id13_im10.bmp_pos120_id14_im18.bmp,['Im_RobertDowneyJr.png', 'Im_RobertPattinson.png', 'Im_GeorgeClooney.png', 'Im_MattDamon.png', 'Im_PatrickDempsey.png', 'Im_LeonardoDiCaprio.png', 'Im_JustinTimberlake.png', 'Im_DanielCraig.png', 'Im_RyanGosling.png', 'Im_DanielRadcliffe.png'],diff,1,1.2832419000005757,7,59.523809523809526,
XABE0501,train,pos,90,pos90_id20_im3.bmp_pos90_id20_im12.bmp,['Im_RobertDowneyJr.png', 'Im_RobertPattinson.png', 'Im_GeorgeClooney.png', 'Im_MattDamon.png', 'Im_PatrickDempsey.png', 'Im_LeonardoDiCaprio.png', 'Im_JustinTimberlake.png', 'Im_DanielCraig.png', 'Im_RyanGosling.png', 'Im_DanielRadcliffe.png'],same,1,0.4250014999997802,8,59.523809523809526,
XABE0501,train,pos,0,pos0_id19_im8.bmp_pos0_id4_im20.bmp,['Im_RobertDowneyJr.png', 'Im_RobertPattinson.png', 'Im_GeorgeClooney.png', 'Im_MattDamon.png', 'Im_PatrickDempsey.png', 'Im_LeonardoDiCaprio.png', 'Im_JustinTimberlake.png', 'Im_DanielCraig.png', 'Im_RyanGosling.png', 'Im_DanielRadcliffe.png'],diff,1,0.7165965999993205,9,59.523809523809526,
XABE0501,train,pos,60,pos60_id4_im7.bmp_pos60_id17_im9.bmp,['Im_RobertDowneyJr.png', 'Im_RobertPattinson.png', 'Im_GeorgeClooney.png', 'Im_MattDamon.png', 'Im_PatrickDempsey.png', 'Im_LeonardoDiCaprio.png', 'Im_JustinTimberlake.png', 'Im_DanielCraig.png', 'Im_RyanGosling.png', 'Im_DanielRadcliffe.png'],diff,1,0.40838609999991604,10,59.523809523809526,
XABE0501,train,pos,150,pos150_id13_im10.bmp_pos150_id14_im18.bmp,['Im_RobertDowneyJr.png', 'Im_RobertPattinson.png', 'Im_GeorgeClooney.png', 'Im_MattDamon.png', 'Im_PatrickDempsey.png', 'Im_LeonardoDiCaprio.png', 'Im_JustinTimberlake.png', 'Im_DanielCraig.png', 'Im_RyanGosling.png', 'Im_DanielRadcliffe.png'],diff,1,0.9845926000016334,11,59.523809523809526,
XABE0501,train,pos,30,pos30_id19_im27.bmp_pos30_id7_im15.bmp,['Im_RobertDowneyJr.png', 'Im_RobertPattinson.png', 'Im_GeorgeClooney.png', 'Im_MattDamon.png', 'Im_PatrickDempsey.png', 'Im_LeonardoDiCaprio.png', 'Im_JustinTimberlake.png', 'Im_DanielCraig.png', 'Im_RyanGosling.png', 'Im_DanielRadcliffe.png'],diff,1,1.2250361000005796,12,59.523809523809526,
XABE0501,train,pos,fs,posfs_id14_im18.bmp_posfs_id14_im16.bmp,['Im_RobertDowneyJr.png', 'Im_RobertPattinson.png', 'Im_GeorgeClooney.png', 'Im_MattDamon.png', 'Im_PatrickDempsey.png', 'Im_LeonardoDiCaprio.png', 'Im_JustinTimberlake.png', 'Im_DanielCraig.png', 'Im_RyanGosling.png', 'Im_DanielRadcliffe.png'],same,1,0.40837269999974524,13,59.523809523809526,
XABE0501,train,pos,120,pos120_id5_im10.bmp_pos120_id5_im20.bmp,['Im_RobertDowneyJr.png', 'Im_RobertPattinson.png', 'Im_GeorgeClooney.png', 'Im_MattDamon.png', 'Im_PatrickDempsey.png', 'Im_LeonardoDiCaprio.png', 'Im_JustinTimberlake.png', 'Im_DanielCraig.png', 'Im_RyanGosling.png', 'Im_DanielRadcliffe.png'],diff,0,0.4249753000003693,13,59.523809523809526,
XABE0501,train,neg,fs,negfs_id13_im15.bmp_negfs_id13_im29.bmp,['Im_RobertDowneyJr.png', 'Im_RobertPattinson.png', 'Im_GeorgeClooney.png', 'Im_MattDamon.png', 'Im_PatrickDempsey.png', 'Im_LeonardoDiCaprio.png', 'Im_JustinTimberlake.png', 'Im_DanielCraig.png', 'Im_RyanGosling.png', 'Im_DanielRadcliffe.png'],diff,0,0.6667114999982005,13,59.523809523809526,
XABE0501,train,neg,120,neg120_id17_im8.bmp_neg120_id17_im9.bmp,['Im_RobertDowneyJr.png', 'Im_RobertPattinson.png', 'Im_GeorgeClooney.png', 'Im_MattDamon.png', 'Im_PatrickDempsey.png', 'Im_LeonardoDiCaprio.png', 'Im_JustinTimberlake.png', 'Im_DanielCraig.png', 'Im_RyanGosling.png', 'Im_DanielRadcliffe.png'],same,1,1.0750697000003129,14,59.523809523809526,
XABE0501,train,neg,fs,negfs_id19_im27.bmp_negfs_id19_im4.bmp,['Im_RobertDowneyJr.png', 'Im_RobertPattinson.png', 'Im_GeorgeClooney.png', 'Im_MattDamon.png', 'Im_PatrickDempsey.png', 'Im_LeonardoDiCaprio.png', 'Im_JustinTimberlake.png', 'Im_DanielCraig.png', 'Im_RyanGosling.png', 'Im_DanielRadcliffe.png'],same,1,0.4584604000010586,15,59.523809523809526,
XABE0501,train,neg,30,neg30_id14_im24.bmp_neg30_id18_im19.bmp,['Im_RobertDowneyJr.png', 'Im_RobertPattinson.png', 'Im_GeorgeClooney.png', 'Im_MattDamon.png', 'Im_PatrickDempsey.png', 'Im_LeonardoDiCaprio.png', 'Im_JustinTimberlake.png', 'Im_DanielCraig.png', 'Im_RyanGosling.png', 'Im_DanielRadcliffe.png'],diff,1,0.42526290000023437,16,59.523809523809526,
XABE0501,train,neg,150,neg150_id4_im20.bmp_neg150_id7_im14.bmp,['Im_RobertDowneyJr.png', 'Im_RobertPattinson.png', 'Im_GeorgeClooney.png', 'Im_MattDamon.png', 'Im_PatrickDempsey.png', 'Im_LeonardoDiCaprio.png', 'Im_JustinTimberlake.png', 'Im_DanielCraig.png', 'Im_RyanGosling.png', 'Im_DanielRadcliffe.png'],diff,1,0.49156349999975646,17,59.523809523809526,
XABE0501,train,neg,30,neg30_id4_im15.bmp_neg30_id5_im1.bmp,['Im_RobertDowneyJr.png', 'Im_RobertPattinson.png', 'Im_GeorgeClooney.png', 'Im_MattDamon.png', 'Im_PatrickDempsey.png', 'Im_LeonardoDiCaprio.png', 'Im_JustinTimberlake.png', 'Im_DanielCraig.png', 'Im_RyanGosling.png', 'Im_DanielRadcliffe.png'],diff,1,0.4084084999994957,18,59.523809523809526,
XABE0501,train,neg,90,neg90_id20_im3.bmp_neg90_id20_im12.bmp,['Im_RobertDowneyJr.png', 'Im_RobertPattinson.png', 'Im_GeorgeClooney.png', 'Im_MattDamon.png', 'Im_PatrickDempsey.png', 'Im_LeonardoDiCaprio.png', 'Im_JustinTimberlake.png', 'Im_DanielCraig.png', 'Im_RyanGosling.png', 'Im_DanielRadcliffe.png'],same,1,0.43371449999904144,19,59.523809523809526,
XABE0501,train,neg,0,neg0_id13_im15.bmp_neg0_id18_im11.bmp,['Im_RobertDowneyJr.png', 'Im_RobertPattinson.png', 'Im_GeorgeClooney.png', 'Im_MattDamon.png', 'Im_PatrickDempsey.png', 'Im_LeonardoDiCaprio.png', 'Im_JustinTimberlake.png', 'Im_DanielCraig.png', 'Im_RyanGosling.png', 'Im_DanielRadcliffe.png'],diff,1,0.42521059999853605,20,59.523809523809526,
XABE0501,train,neg,0,neg0_id5_im10.bmp_neg0_id5_im20.bmp,['Im_RobertDowneyJr.png', 'Im_RobertPattinson.png', 'Im_GeorgeClooney.png', 'Im_MattDamon.png', 'Im_PatrickDempsey.png', 'Im_LeonardoDiCaprio.png', 'Im_JustinTimberlake.png', 'Im_DanielCraig.png', 'Im_RyanGosling.png', 'Im_DanielRadcliffe.png'],same,1,0.48335990000123275,21,59.523809523809526,
XABE0501,train,neg,90,neg90_id18_im19.bmp_neg90_id18_im11.bmp,['Im_RobertDowneyJr.png', 'Im_RobertPattinson.png', 'Im_GeorgeClooney.png', 'Im_MattDamon.png', 'Im_PatrickDempsey.png', 'Im_LeonardoDiCaprio.png', 'Im_JustinTimberlake.png', 'Im_DanielCraig.png', 'Im_RyanGosling.png', 'Im_DanielRadcliffe.png'],same,1,0.42507539999860455,22,59.523809523809526,
XABE0501,train,neg,60,neg60_id13_im15.bmp_neg60_id13_im10.bmp,['Im_RobertDowneyJr.png', 'Im_RobertPattinson.png', 'Im_GeorgeClooney.png', 'Im_MattDamon.png', 'Im_PatrickDempsey.png', 'Im_LeonardoDiCaprio.png', 'Im_JustinTimberlake.png', 'Im_DanielCraig.png', 'Im_RyanGosling.png', 'Im_DanielRadcliffe.png'],same,1,0.4249487999986741,23,59.523809523809526,
XABE0501,train,neg,150,neg150_id17_im14.bmp_neg150_id13_im15.bmp,['Im_RobertDowneyJr.png', 'Im_RobertPattinson.png', 'Im_GeorgeClooney.png', 'Im_MattDamon.png', 'Im_PatrickDempsey.png', 'Im_LeonardoDiCaprio.png', 'Im_JustinTimberlake.png', 'Im_DanielCraig.png', 'Im_RyanGosling.png', 'Im_DanielRadcliffe.png'],diff,1,0.5583781999994244,24,59.523809523809526,
XABE0501,train,neg,120,neg120_id10_im1.bmp_neg120_id5_im1.bmp,['Im_RobertDowneyJr.png', 'Im_RobertPattinson.png', 'Im_GeorgeClooney.png', 'Im_MattDamon.png', 'Im_PatrickDempsey.png', 'Im_LeonardoDiCaprio.png', 'Im_JustinTimberlake.png', 'Im_DanielCraig.png', 'Im_RyanGosling.png', 'Im_DanielRadcliffe.png'],diff,1,0.5417541999995592,25,59.523809523809526,
