Sujet,Trial,Condition,Filter,Imname,Actor0,Actor1,Actor2,Actor3,Actor4,Actor5,Actor6,Actor7,Actor8,Actor9,Answer,Accu,RT,Score,Scoreperc, 
XABE0501,train,pos,30,pos30_id14_im24.bmp_pos30_id14_im18.bmp,['Im_PatrickDempsey.png', 'Im_DanielCraig.png', 'Im_JustinTimberlake.png', 'Im_RyanGosling.png', 'Im_GeorgeClooney.png', 'Im_RobertDowneyJr.png', 'Im_DanielRadcliffe.png', 'Im_RobertPattinson.png', 'Im_LeonardoDiCaprio.png', 'Im_MattDamon.png'],diff,0,0.6584083999999848,0,0,
XABE0501,train,pos,90,pos90_id4_im15.bmp_pos90_id18_im11.bmp,['Im_PatrickDempsey.png', 'Im_DanielCraig.png', 'Im_JustinTimberlake.png', 'Im_RyanGosling.png', 'Im_GeorgeClooney.png', 'Im_RobertDowneyJr.png', 'Im_DanielRadcliffe.png', 'Im_RobertPattinson.png', 'Im_LeonardoDiCaprio.png', 'Im_MattDamon.png'],diff,1,0.41667860000001156,1,0,
XABE0501,train,pos,0,pos0_id20_im30.bmp_pos0_id20_im3.bmp,['Im_PatrickDempsey.png', 'Im_DanielCraig.png', 'Im_JustinTimberlake.png', 'Im_RyanGosling.png', 'Im_GeorgeClooney.png', 'Im_RobertDowneyJr.png', 'Im_DanielRadcliffe.png', 'Im_RobertPattinson.png', 'Im_LeonardoDiCaprio.png', 'Im_MattDamon.png'],none,1,4.408425999999963,1,0,
XABE0501,train,pos,150,pos150_id18_im19.bmp_pos150_id13_im10.bmp,['Im_PatrickDempsey.png', 'Im_DanielCraig.png', 'Im_JustinTimberlake.png', 'Im_RyanGosling.png', 'Im_GeorgeClooney.png', 'Im_RobertDowneyJr.png', 'Im_DanielRadcliffe.png', 'Im_RobertPattinson.png', 'Im_LeonardoDiCaprio.png', 'Im_MattDamon.png'],diff,1,0.9168147000000317,2,0,
XABE0501,train,pos,60,pos60_id10_im1.bmp_pos60_id10_im17.bmp,['Im_PatrickDempsey.png', 'Im_DanielCraig.png', 'Im_JustinTimberlake.png', 'Im_RyanGosling.png', 'Im_GeorgeClooney.png', 'Im_RobertDowneyJr.png', 'Im_DanielRadcliffe.png', 'Im_RobertPattinson.png', 'Im_LeonardoDiCaprio.png', 'Im_MattDamon.png'],same,1,0.4163714000000027,3,0,
XABE0501,train,pos,150,pos150_id10_im18.bmp_pos150_id13_im29.bmp,['Im_PatrickDempsey.png', 'Im_DanielCraig.png', 'Im_JustinTimberlake.png', 'Im_RyanGosling.png', 'Im_GeorgeClooney.png', 'Im_RobertDowneyJr.png', 'Im_DanielRadcliffe.png', 'Im_RobertPattinson.png', 'Im_LeonardoDiCaprio.png', 'Im_MattDamon.png'],diff,1,0.43371120000000474,4,0,
XABE0501,train,pos,0,pos0_id19_im27.bmp_pos0_id14_im16.bmp,['Im_PatrickDempsey.png', 'Im_DanielCraig.png', 'Im_JustinTimberlake.png', 'Im_RyanGosling.png', 'Im_GeorgeClooney.png', 'Im_RobertDowneyJr.png', 'Im_DanielRadcliffe.png', 'Im_RobertPattinson.png', 'Im_LeonardoDiCaprio.png', 'Im_MattDamon.png'],same,0,0.4836894999999686,4,0,
XABE0501,train,pos,30,pos30_id5_im20.bmp_pos30_id14_im16.bmp,['Im_PatrickDempsey.png', 'Im_DanielCraig.png', 'Im_JustinTimberlake.png', 'Im_RyanGosling.png', 'Im_GeorgeClooney.png', 'Im_RobertDowneyJr.png', 'Im_DanielRadcliffe.png', 'Im_RobertPattinson.png', 'Im_LeonardoDiCaprio.png', 'Im_MattDamon.png'],diff,1,0.41679929999997967,5,0,
XABE0501,train,pos,90,pos90_id17_im8.bmp_pos90_id10_im17.bmp,['Im_PatrickDempsey.png', 'Im_DanielCraig.png', 'Im_JustinTimberlake.png', 'Im_RyanGosling.png', 'Im_GeorgeClooney.png', 'Im_RobertDowneyJr.png', 'Im_DanielRadcliffe.png', 'Im_RobertPattinson.png', 'Im_LeonardoDiCaprio.png', 'Im_MattDamon.png'],diff,1,0.9252759999999967,6,0,
XABE0501,train,pos,120,pos120_id14_im18.bmp_pos120_id5_im10.bmp,['Im_PatrickDempsey.png', 'Im_DanielCraig.png', 'Im_JustinTimberlake.png', 'Im_RyanGosling.png', 'Im_GeorgeClooney.png', 'Im_RobertDowneyJr.png', 'Im_DanielRadcliffe.png', 'Im_RobertPattinson.png', 'Im_LeonardoDiCaprio.png', 'Im_MattDamon.png'],diff,1,0.4084373000000028,7,0,
XABE0501,train,pos,60,pos60_id5_im1.bmp_pos60_id10_im1.bmp,['Im_PatrickDempsey.png', 'Im_DanielCraig.png', 'Im_JustinTimberlake.png', 'Im_RyanGosling.png', 'Im_GeorgeClooney.png', 'Im_RobertDowneyJr.png', 'Im_DanielRadcliffe.png', 'Im_RobertPattinson.png', 'Im_LeonardoDiCaprio.png', 'Im_MattDamon.png'],diff,1,0.40851909999997815,8,0,
XABE0501,train,pos,fs,posfs_id19_im8.bmp_posfs_id19_im4.bmp,['Im_PatrickDempsey.png', 'Im_DanielCraig.png', 'Im_JustinTimberlake.png', 'Im_RyanGosling.png', 'Im_GeorgeClooney.png', 'Im_RobertDowneyJr.png', 'Im_DanielRadcliffe.png', 'Im_RobertPattinson.png', 'Im_LeonardoDiCaprio.png', 'Im_MattDamon.png'],diff,0,0.4419492000000105,8,0,
XABE0501,train,pos,120,pos120_id10_im17.bmp_pos120_id20_im3.bmp,['Im_PatrickDempsey.png', 'Im_DanielCraig.png', 'Im_JustinTimberlake.png', 'Im_RyanGosling.png', 'Im_GeorgeClooney.png', 'Im_RobertDowneyJr.png', 'Im_DanielRadcliffe.png', 'Im_RobertPattinson.png', 'Im_LeonardoDiCaprio.png', 'Im_MattDamon.png'],diff,1,0.4164992000000325,9,0,
XABE0501,train,pos,fs,posfs_id20_im3.bmp_posfs_id17_im9.bmp,['Im_PatrickDempsey.png', 'Im_DanielCraig.png', 'Im_JustinTimberlake.png', 'Im_RyanGosling.png', 'Im_GeorgeClooney.png', 'Im_RobertDowneyJr.png', 'Im_DanielRadcliffe.png', 'Im_RobertPattinson.png', 'Im_LeonardoDiCaprio.png', 'Im_MattDamon.png'],diff,1,0.46674009999998134,10,0,
XABE0501,train,inv,30,pos30_id5_im20.bmp_pos30_id14_im16.bmp,['Im_PatrickDempsey.png', 'Im_DanielCraig.png', 'Im_JustinTimberlake.png', 'Im_RyanGosling.png', 'Im_GeorgeClooney.png', 'Im_RobertDowneyJr.png', 'Im_DanielRadcliffe.png', 'Im_RobertPattinson.png', 'Im_LeonardoDiCaprio.png', 'Im_MattDamon.png'],diff,1,0.42022850000000744,11,0,
XABE0501,train,inv,0,pos0_id7_im26.bmp_pos0_id7_im15.bmp,['Im_PatrickDempsey.png', 'Im_DanielCraig.png', 'Im_JustinTimberlake.png', 'Im_RyanGosling.png', 'Im_GeorgeClooney.png', 'Im_RobertDowneyJr.png', 'Im_DanielRadcliffe.png', 'Im_RobertPattinson.png', 'Im_LeonardoDiCaprio.png', 'Im_MattDamon.png'],same,1,0.45014130000004116,12,0,
XABE0501,train,inv,60,pos60_id10_im1.bmp_pos60_id10_im18.bmp,['Im_PatrickDempsey.png', 'Im_DanielCraig.png', 'Im_JustinTimberlake.png', 'Im_RyanGosling.png', 'Im_GeorgeClooney.png', 'Im_RobertDowneyJr.png', 'Im_DanielRadcliffe.png', 'Im_RobertPattinson.png', 'Im_LeonardoDiCaprio.png', 'Im_MattDamon.png'],diff,0,0.423873599999979,12,0,
XABE0501,train,inv,120,pos120_id14_im16.bmp_pos120_id14_im24.bmp,['Im_PatrickDempsey.png', 'Im_DanielCraig.png', 'Im_JustinTimberlake.png', 'Im_RyanGosling.png', 'Im_GeorgeClooney.png', 'Im_RobertDowneyJr.png', 'Im_DanielRadcliffe.png', 'Im_RobertPattinson.png', 'Im_LeonardoDiCaprio.png', 'Im_MattDamon.png'],same,1,0.41676690000002736,13,0,
XABE0501,train,inv,60,pos60_id19_im4.bmp_pos60_id19_im8.bmp,['Im_PatrickDempsey.png', 'Im_DanielCraig.png', 'Im_JustinTimberlake.png', 'Im_RyanGosling.png', 'Im_GeorgeClooney.png', 'Im_RobertDowneyJr.png', 'Im_DanielRadcliffe.png', 'Im_RobertPattinson.png', 'Im_LeonardoDiCaprio.png', 'Im_MattDamon.png'],diff,0,0.41695279999999,13,0,
XABE0501,train,inv,30,pos30_id14_im16.bmp_pos30_id14_im18.bmp,['Im_PatrickDempsey.png', 'Im_DanielCraig.png', 'Im_JustinTimberlake.png', 'Im_RyanGosling.png', 'Im_GeorgeClooney.png', 'Im_RobertDowneyJr.png', 'Im_DanielRadcliffe.png', 'Im_RobertPattinson.png', 'Im_LeonardoDiCaprio.png', 'Im_MattDamon.png'],same,1,0.6002541999999949,14,0,
XABE0501,train,inv,fs,posfs_id18_im11.bmp_posfs_id18_im19.bmp,['Im_PatrickDempsey.png', 'Im_DanielCraig.png', 'Im_JustinTimberlake.png', 'Im_RyanGosling.png', 'Im_GeorgeClooney.png', 'Im_RobertDowneyJr.png', 'Im_DanielRadcliffe.png', 'Im_RobertPattinson.png', 'Im_LeonardoDiCaprio.png', 'Im_MattDamon.png'],same,1,0.5998955000000024,15,0,
XABE0501,train,inv,0,pos0_id13_im15.bmp_pos0_id18_im11.bmp,['Im_PatrickDempsey.png', 'Im_DanielCraig.png', 'Im_JustinTimberlake.png', 'Im_RyanGosling.png', 'Im_GeorgeClooney.png', 'Im_RobertDowneyJr.png', 'Im_DanielRadcliffe.png', 'Im_RobertPattinson.png', 'Im_LeonardoDiCaprio.png', 'Im_MattDamon.png'],diff,1,0.46651650000001155,16,0,
XABE0501,train,inv,150,pos150_id13_im10.bmp_pos150_id18_im19.bmp,['Im_PatrickDempsey.png', 'Im_DanielCraig.png', 'Im_JustinTimberlake.png', 'Im_RyanGosling.png', 'Im_GeorgeClooney.png', 'Im_RobertDowneyJr.png', 'Im_DanielRadcliffe.png', 'Im_RobertPattinson.png', 'Im_LeonardoDiCaprio.png', 'Im_MattDamon.png'],diff,1,0.5670946999999842,17,0,
XABE0501,train,inv,150,pos150_id20_im30.bmp_pos150_id17_im14.bmp,['Im_PatrickDempsey.png', 'Im_DanielCraig.png', 'Im_JustinTimberlake.png', 'Im_RyanGosling.png', 'Im_GeorgeClooney.png', 'Im_RobertDowneyJr.png', 'Im_DanielRadcliffe.png', 'Im_RobertPattinson.png', 'Im_LeonardoDiCaprio.png', 'Im_MattDamon.png'],diff,1,0.6169452999999976,18,0,
XABE0501,train,inv,fs,posfs_id17_im8.bmp_posfs_id10_im17.bmp,['Im_PatrickDempsey.png', 'Im_DanielCraig.png', 'Im_JustinTimberlake.png', 'Im_RyanGosling.png', 'Im_GeorgeClooney.png', 'Im_RobertDowneyJr.png', 'Im_DanielRadcliffe.png', 'Im_RobertPattinson.png', 'Im_LeonardoDiCaprio.png', 'Im_MattDamon.png'],diff,1,0.4582696999999598,19,0,
XABE0501,train,inv,90,pos90_id18_im18.bmp_pos90_id18_im11.bmp,['Im_PatrickDempsey.png', 'Im_DanielCraig.png', 'Im_JustinTimberlake.png', 'Im_RyanGosling.png', 'Im_GeorgeClooney.png', 'Im_RobertDowneyJr.png', 'Im_DanielRadcliffe.png', 'Im_RobertPattinson.png', 'Im_LeonardoDiCaprio.png', 'Im_MattDamon.png'],same,1,0.45047329999999874,20,0,
XABE0501,train,inv,90,pos90_id10_im18.bmp_pos90_id19_im8.bmp,['Im_PatrickDempsey.png', 'Im_DanielCraig.png', 'Im_JustinTimberlake.png', 'Im_RyanGosling.png', 'Im_GeorgeClooney.png', 'Im_RobertDowneyJr.png', 'Im_DanielRadcliffe.png', 'Im_RobertPattinson.png', 'Im_LeonardoDiCaprio.png', 'Im_MattDamon.png'],same,0,0.5502093999999715,20,0,
XABE0501,train,inv,120,pos120_id17_im14.bmp_pos120_id13_im15.bmp,['Im_PatrickDempsey.png', 'Im_DanielCraig.png', 'Im_JustinTimberlake.png', 'Im_RyanGosling.png', 'Im_GeorgeClooney.png', 'Im_RobertDowneyJr.png', 'Im_DanielRadcliffe.png', 'Im_RobertPattinson.png', 'Im_LeonardoDiCaprio.png', 'Im_MattDamon.png'],diff,1,0.4083329999999705,21,0,
XABE0501,train,neg,0,neg0_id7_im26.bmp_neg0_id18_im18.bmp,['Im_PatrickDempsey.png', 'Im_DanielCraig.png', 'Im_JustinTimberlake.png', 'Im_RyanGosling.png', 'Im_GeorgeClooney.png', 'Im_RobertDowneyJr.png', 'Im_DanielRadcliffe.png', 'Im_RobertPattinson.png', 'Im_LeonardoDiCaprio.png', 'Im_MattDamon.png'],same,0,0.4333490999999867,21,0,
XABE0501,train,neg,90,neg90_id10_im17.bmp_neg90_id20_im3.bmp,['Im_PatrickDempsey.png', 'Im_DanielCraig.png', 'Im_JustinTimberlake.png', 'Im_RyanGosling.png', 'Im_GeorgeClooney.png', 'Im_RobertDowneyJr.png', 'Im_DanielRadcliffe.png', 'Im_RobertPattinson.png', 'Im_LeonardoDiCaprio.png', 'Im_MattDamon.png'],diff,1,0.6668337999999494,22,0,
XABE0501,train,neg,30,neg30_id14_im16.bmp_neg30_id14_im18.bmp,['Im_PatrickDempsey.png', 'Im_DanielCraig.png', 'Im_JustinTimberlake.png', 'Im_RyanGosling.png', 'Im_GeorgeClooney.png', 'Im_RobertDowneyJr.png', 'Im_DanielRadcliffe.png', 'Im_RobertPattinson.png', 'Im_LeonardoDiCaprio.png', 'Im_MattDamon.png'],same,1,0.41646910000008575,23,0,
XABE0501,train,neg,120,neg120_id13_im29.bmp_neg120_id13_im10.bmp,['Im_PatrickDempsey.png', 'Im_DanielCraig.png', 'Im_JustinTimberlake.png', 'Im_RyanGosling.png', 'Im_GeorgeClooney.png', 'Im_RobertDowneyJr.png', 'Im_DanielRadcliffe.png', 'Im_RobertPattinson.png', 'Im_LeonardoDiCaprio.png', 'Im_MattDamon.png'],same,1,0.6667793999999958,24,0,
XABE0501,train,neg,fs,negfs_id18_im18.bmp_negfs_id7_im26.bmp,['Im_PatrickDempsey.png', 'Im_DanielCraig.png', 'Im_JustinTimberlake.png', 'Im_RyanGosling.png', 'Im_GeorgeClooney.png', 'Im_RobertDowneyJr.png', 'Im_DanielRadcliffe.png', 'Im_RobertPattinson.png', 'Im_LeonardoDiCaprio.png', 'Im_MattDamon.png'],diff,1,0.4084057999999686,25,0,
XABE0501,train,neg,150,neg150_id17_im9.bmp_neg150_id17_im8.bmp,['Im_PatrickDempsey.png', 'Im_DanielCraig.png', 'Im_JustinTimberlake.png', 'Im_RyanGosling.png', 'Im_GeorgeClooney.png', 'Im_RobertDowneyJr.png', 'Im_DanielRadcliffe.png', 'Im_RobertPattinson.png', 'Im_LeonardoDiCaprio.png', 'Im_MattDamon.png'],same,1,0.40831920000005084,26,0,
XABE0501,train,neg,90,neg90_id7_im15.bmp_neg90_id19_im27.bmp,['Im_PatrickDempsey.png', 'Im_DanielCraig.png', 'Im_JustinTimberlake.png', 'Im_RyanGosling.png', 'Im_GeorgeClooney.png', 'Im_RobertDowneyJr.png', 'Im_DanielRadcliffe.png', 'Im_RobertPattinson.png', 'Im_LeonardoDiCaprio.png', 'Im_MattDamon.png'],diff,1,0.4167225999999573,27,0,
XABE0501,train,neg,60,neg60_id19_im27.bmp_neg60_id7_im15.bmp,['Im_PatrickDempsey.png', 'Im_DanielCraig.png', 'Im_JustinTimberlake.png', 'Im_RyanGosling.png', 'Im_GeorgeClooney.png', 'Im_RobertDowneyJr.png', 'Im_DanielRadcliffe.png', 'Im_RobertPattinson.png', 'Im_LeonardoDiCaprio.png', 'Im_MattDamon.png'],same,0,0.6583771999999044,27,0,
XABE0501,train,neg,fs,negfs_id20_im12.bmp_negfs_id10_im1.bmp,['Im_PatrickDempsey.png', 'Im_DanielCraig.png', 'Im_JustinTimberlake.png', 'Im_RyanGosling.png', 'Im_GeorgeClooney.png', 'Im_RobertDowneyJr.png', 'Im_DanielRadcliffe.png', 'Im_RobertPattinson.png', 'Im_LeonardoDiCaprio.png', 'Im_MattDamon.png'],diff,1,0.4168247000000065,28,0,
XABE0501,train,neg,120,neg120_id19_im8.bmp_neg120_id19_im4.bmp,['Im_PatrickDempsey.png', 'Im_DanielCraig.png', 'Im_JustinTimberlake.png', 'Im_RyanGosling.png', 'Im_GeorgeClooney.png', 'Im_RobertDowneyJr.png', 'Im_DanielRadcliffe.png', 'Im_RobertPattinson.png', 'Im_LeonardoDiCaprio.png', 'Im_MattDamon.png'],same,1,0.40838159999998425,29,0,
XABE0501,train,neg,0,neg0_id10_im1.bmp_neg0_id10_im17.bmp,['Im_PatrickDempsey.png', 'Im_DanielCraig.png', 'Im_JustinTimberlake.png', 'Im_RyanGosling.png', 'Im_GeorgeClooney.png', 'Im_RobertDowneyJr.png', 'Im_DanielRadcliffe.png', 'Im_RobertPattinson.png', 'Im_LeonardoDiCaprio.png', 'Im_MattDamon.png'],same,1,0.4167297999999846,30,0,
XABE0501,train,neg,30,neg30_id13_im15.bmp_neg30_id13_im10.bmp,['Im_PatrickDempsey.png', 'Im_DanielCraig.png', 'Im_JustinTimberlake.png', 'Im_RyanGosling.png', 'Im_GeorgeClooney.png', 'Im_RobertDowneyJr.png', 'Im_DanielRadcliffe.png', 'Im_RobertPattinson.png', 'Im_LeonardoDiCaprio.png', 'Im_MattDamon.png'],same,1,0.4168326999999863,31,0,
XABE0501,train,neg,150,neg150_id7_im26.bmp_neg150_id18_im18.bmp,['Im_PatrickDempsey.png', 'Im_DanielCraig.png', 'Im_JustinTimberlake.png', 'Im_RyanGosling.png', 'Im_GeorgeClooney.png', 'Im_RobertDowneyJr.png', 'Im_DanielRadcliffe.png', 'Im_RobertPattinson.png', 'Im_LeonardoDiCaprio.png', 'Im_MattDamon.png'],same,0,0.5002702000000454,31,0,
XABE0501,train,neg,60,neg60_id5_im1.bmp_neg60_id5_im10.bmp,['Im_PatrickDempsey.png', 'Im_DanielCraig.png', 'Im_JustinTimberlake.png', 'Im_RyanGosling.png', 'Im_GeorgeClooney.png', 'Im_RobertDowneyJr.png', 'Im_DanielRadcliffe.png', 'Im_RobertPattinson.png', 'Im_LeonardoDiCaprio.png', 'Im_MattDamon.png'],same,1,0.4166780000000472,32,0,
XABE0501,train,neg,90,neg90_id14_im18.bmp_neg90_id14_im24.bmp,['Im_PatrickDempsey.png', 'Im_DanielCraig.png', 'Im_JustinTimberlake.png', 'Im_RyanGosling.png', 'Im_GeorgeClooney.png', 'Im_RobertDowneyJr.png', 'Im_DanielRadcliffe.png', 'Im_RobertPattinson.png', 'Im_LeonardoDiCaprio.png', 'Im_MattDamon.png'],diff,0,0.4915447999999287,0,76.19047619047619,
XABE0501,train,neg,0,neg0_id10_im1.bmp_neg0_id5_im1.bmp,['Im_PatrickDempsey.png', 'Im_DanielCraig.png', 'Im_JustinTimberlake.png', 'Im_RyanGosling.png', 'Im_GeorgeClooney.png', 'Im_RobertDowneyJr.png', 'Im_DanielRadcliffe.png', 'Im_RobertPattinson.png', 'Im_LeonardoDiCaprio.png', 'Im_MattDamon.png'],diff,1,0.41678539999998065,1,76.19047619047619,
XABE0501,train,neg,90,neg90_id18_im18.bmp_neg90_id7_im26.bmp,['Im_PatrickDempsey.png', 'Im_DanielCraig.png', 'Im_JustinTimberlake.png', 'Im_RyanGosling.png', 'Im_GeorgeClooney.png', 'Im_RobertDowneyJr.png', 'Im_DanielRadcliffe.png', 'Im_RobertPattinson.png', 'Im_LeonardoDiCaprio.png', 'Im_MattDamon.png'],same,0,0.3998501999999462,1,76.19047619047619,
XABE0501,train,neg,fs,negfs_id7_im14.bmp_negfs_id7_im15.bmp,['Im_PatrickDempsey.png', 'Im_DanielCraig.png', 'Im_JustinTimberlake.png', 'Im_RyanGosling.png', 'Im_GeorgeClooney.png', 'Im_RobertDowneyJr.png', 'Im_DanielRadcliffe.png', 'Im_RobertPattinson.png', 'Im_LeonardoDiCaprio.png', 'Im_MattDamon.png'],same,1,0.4168861000000561,2,76.19047619047619,
XABE0501,train,neg,120,neg120_id13_im10.bmp_neg120_id18_im19.bmp,['Im_PatrickDempsey.png', 'Im_DanielCraig.png', 'Im_JustinTimberlake.png', 'Im_RyanGosling.png', 'Im_GeorgeClooney.png', 'Im_RobertDowneyJr.png', 'Im_DanielRadcliffe.png', 'Im_RobertPattinson.png', 'Im_LeonardoDiCaprio.png', 'Im_MattDamon.png'],diff,1,0.41667720000009467,3,76.19047619047619,
XABE0501,train,neg,fs,negfs_id20_im30.bmp_negfs_id7_im26.bmp,['Im_PatrickDempsey.png', 'Im_DanielCraig.png', 'Im_JustinTimberlake.png', 'Im_RyanGosling.png', 'Im_GeorgeClooney.png', 'Im_RobertDowneyJr.png', 'Im_DanielRadcliffe.png', 'Im_RobertPattinson.png', 'Im_LeonardoDiCaprio.png', 'Im_MattDamon.png'],same,0,0.40848090000008597,3,76.19047619047619,
XABE0501,train,neg,60,neg60_id5_im20.bmp_neg60_id5_im1.bmp,['Im_PatrickDempsey.png', 'Im_DanielCraig.png', 'Im_JustinTimberlake.png', 'Im_RyanGosling.png', 'Im_GeorgeClooney.png', 'Im_RobertDowneyJr.png', 'Im_DanielRadcliffe.png', 'Im_RobertPattinson.png', 'Im_LeonardoDiCaprio.png', 'Im_MattDamon.png'],same,1,0.40849020000007386,4,76.19047619047619,
XABE0501,train,neg,120,neg120_id20_im3.bmp_neg120_id10_im17.bmp,['Im_PatrickDempsey.png', 'Im_DanielCraig.png', 'Im_JustinTimberlake.png', 'Im_RyanGosling.png', 'Im_GeorgeClooney.png', 'Im_RobertDowneyJr.png', 'Im_DanielRadcliffe.png', 'Im_RobertPattinson.png', 'Im_LeonardoDiCaprio.png', 'Im_MattDamon.png'],diff,1,0.4336551999999756,5,76.19047619047619,
XABE0501,train,neg,30,neg30_id20_im3.bmp_neg30_id17_im9.bmp,['Im_PatrickDempsey.png', 'Im_DanielCraig.png', 'Im_JustinTimberlake.png', 'Im_RyanGosling.png', 'Im_GeorgeClooney.png', 'Im_RobertDowneyJr.png', 'Im_DanielRadcliffe.png', 'Im_RobertPattinson.png', 'Im_LeonardoDiCaprio.png', 'Im_MattDamon.png'],same,0,1.7837743000000046,5,76.19047619047619,
XABE0501,train,neg,30,neg30_id19_im27.bmp_neg30_id14_im16.bmp,['Im_PatrickDempsey.png', 'Im_DanielCraig.png', 'Im_JustinTimberlake.png', 'Im_RyanGosling.png', 'Im_GeorgeClooney.png', 'Im_RobertDowneyJr.png', 'Im_DanielRadcliffe.png', 'Im_RobertPattinson.png', 'Im_LeonardoDiCaprio.png', 'Im_MattDamon.png'],diff,1,0.41688269999997374,6,76.19047619047619,
XABE0501,train,neg,60,neg60_id18_im11.bmp_neg60_id13_im15.bmp,['Im_PatrickDempsey.png', 'Im_DanielCraig.png', 'Im_JustinTimberlake.png', 'Im_RyanGosling.png', 'Im_GeorgeClooney.png', 'Im_RobertDowneyJr.png', 'Im_DanielRadcliffe.png', 'Im_RobertPattinson.png', 'Im_LeonardoDiCaprio.png', 'Im_MattDamon.png'],diff,1,0.41698220000000674,7,76.19047619047619,
XABE0501,train,neg,0,neg0_id4_im7.bmp_neg0_id17_im8.bmp,['Im_PatrickDempsey.png', 'Im_DanielCraig.png', 'Im_JustinTimberlake.png', 'Im_RyanGosling.png', 'Im_GeorgeClooney.png', 'Im_RobertDowneyJr.png', 'Im_DanielRadcliffe.png', 'Im_RobertPattinson.png', 'Im_LeonardoDiCaprio.png', 'Im_MattDamon.png'],diff,1,1.3171388000000661,8,76.19047619047619,
XABE0501,train,neg,150,neg150_id20_im30.bmp_neg150_id7_im26.bmp,['Im_PatrickDempsey.png', 'Im_DanielCraig.png', 'Im_JustinTimberlake.png', 'Im_RyanGosling.png', 'Im_GeorgeClooney.png', 'Im_RobertDowneyJr.png', 'Im_DanielRadcliffe.png', 'Im_RobertPattinson.png', 'Im_LeonardoDiCaprio.png', 'Im_MattDamon.png'],same,0,0.4083834000000479,8,76.19047619047619,
XABE0501,train,neg,150,neg150_id7_im14.bmp_neg150_id7_im15.bmp,['Im_PatrickDempsey.png', 'Im_DanielCraig.png', 'Im_JustinTimberlake.png', 'Im_RyanGosling.png', 'Im_GeorgeClooney.png', 'Im_RobertDowneyJr.png', 'Im_DanielRadcliffe.png', 'Im_RobertPattinson.png', 'Im_LeonardoDiCaprio.png', 'Im_MattDamon.png'],same,1,0.41681720000008227,9,76.19047619047619,
XABE0501,train,pos,90,pos90_id20_im12.bmp_pos90_id13_im29.bmp,['Im_PatrickDempsey.png', 'Im_DanielCraig.png', 'Im_JustinTimberlake.png', 'Im_RyanGosling.png', 'Im_GeorgeClooney.png', 'Im_RobertDowneyJr.png', 'Im_DanielRadcliffe.png', 'Im_RobertPattinson.png', 'Im_LeonardoDiCaprio.png', 'Im_MattDamon.png'],diff,1,0.41784389999997984,10,76.19047619047619,
XABE0501,train,pos,120,pos120_id17_im8.bmp_pos120_id17_im14.bmp,['Im_PatrickDempsey.png', 'Im_DanielCraig.png', 'Im_JustinTimberlake.png', 'Im_RyanGosling.png', 'Im_GeorgeClooney.png', 'Im_RobertDowneyJr.png', 'Im_DanielRadcliffe.png', 'Im_RobertPattinson.png', 'Im_LeonardoDiCaprio.png', 'Im_MattDamon.png'],diff,0,0.41670959999999013,10,76.19047619047619,
XABE0501,train,pos,0,pos0_id14_im24.bmp_pos0_id18_im19.bmp,['Im_PatrickDempsey.png', 'Im_DanielCraig.png', 'Im_JustinTimberlake.png', 'Im_RyanGosling.png', 'Im_GeorgeClooney.png', 'Im_RobertDowneyJr.png', 'Im_DanielRadcliffe.png', 'Im_RobertPattinson.png', 'Im_LeonardoDiCaprio.png', 'Im_MattDamon.png'],diff,1,0.4164892000000009,11,76.19047619047619,
XABE0501,train,pos,30,pos30_id10_im18.bmp_pos30_id13_im29.bmp,['Im_PatrickDempsey.png', 'Im_DanielCraig.png', 'Im_JustinTimberlake.png', 'Im_RyanGosling.png', 'Im_GeorgeClooney.png', 'Im_RobertDowneyJr.png', 'Im_DanielRadcliffe.png', 'Im_RobertPattinson.png', 'Im_LeonardoDiCaprio.png', 'Im_MattDamon.png'],diff,1,0.4168465999999853,12,76.19047619047619,
XABE0501,train,pos,90,pos90_id19_im4.bmp_pos90_id5_im20.bmp,['Im_PatrickDempsey.png', 'Im_DanielCraig.png', 'Im_JustinTimberlake.png', 'Im_RyanGosling.png', 'Im_GeorgeClooney.png', 'Im_RobertDowneyJr.png', 'Im_DanielRadcliffe.png', 'Im_RobertPattinson.png', 'Im_LeonardoDiCaprio.png', 'Im_MattDamon.png'],diff,1,0.5503797999999733,13,76.19047619047619,
XABE0501,train,pos,0,pos0_id19_im4.bmp_pos0_id19_im27.bmp,['Im_PatrickDempsey.png', 'Im_DanielCraig.png', 'Im_JustinTimberlake.png', 'Im_RyanGosling.png', 'Im_GeorgeClooney.png', 'Im_RobertDowneyJr.png', 'Im_DanielRadcliffe.png', 'Im_RobertPattinson.png', 'Im_LeonardoDiCaprio.png', 'Im_MattDamon.png'],same,1,0.4250492999999551,14,76.19047619047619,
XABE0501,train,pos,fs,posfs_id13_im15.bmp_posfs_id18_im11.bmp,['Im_PatrickDempsey.png', 'Im_DanielCraig.png', 'Im_JustinTimberlake.png', 'Im_RyanGosling.png', 'Im_GeorgeClooney.png', 'Im_RobertDowneyJr.png', 'Im_DanielRadcliffe.png', 'Im_RobertPattinson.png', 'Im_LeonardoDiCaprio.png', 'Im_MattDamon.png'],diff,1,0.4082939999999553,15,76.19047619047619,
XABE0501,train,pos,fs,posfs_id19_im27.bmp_posfs_id7_im15.bmp,['Im_PatrickDempsey.png', 'Im_DanielCraig.png', 'Im_JustinTimberlake.png', 'Im_RyanGosling.png', 'Im_GeorgeClooney.png', 'Im_RobertDowneyJr.png', 'Im_DanielRadcliffe.png', 'Im_RobertPattinson.png', 'Im_LeonardoDiCaprio.png', 'Im_MattDamon.png'],diff,1,0.41673979999995936,16,76.19047619047619,
XABE0501,train,pos,150,pos150_id18_im18.bmp_pos150_id7_im26.bmp,['Im_PatrickDempsey.png', 'Im_DanielCraig.png', 'Im_JustinTimberlake.png', 'Im_RyanGosling.png', 'Im_GeorgeClooney.png', 'Im_RobertDowneyJr.png', 'Im_DanielRadcliffe.png', 'Im_RobertPattinson.png', 'Im_LeonardoDiCaprio.png', 'Im_MattDamon.png'],diff,1,0.40841950000003635,17,76.19047619047619,
XABE0501,train,pos,60,pos60_id5_im1.bmp_pos60_id4_im15.bmp,['Im_PatrickDempsey.png', 'Im_DanielCraig.png', 'Im_JustinTimberlake.png', 'Im_RyanGosling.png', 'Im_GeorgeClooney.png', 'Im_RobertDowneyJr.png', 'Im_DanielRadcliffe.png', 'Im_RobertPattinson.png', 'Im_LeonardoDiCaprio.png', 'Im_MattDamon.png'],diff,1,0.4167169999999487,18,76.19047619047619,
XABE0501,train,pos,60,pos60_id18_im19.bmp_pos60_id13_im10.bmp,['Im_PatrickDempsey.png', 'Im_DanielCraig.png', 'Im_JustinTimberlake.png', 'Im_RyanGosling.png', 'Im_GeorgeClooney.png', 'Im_RobertDowneyJr.png', 'Im_DanielRadcliffe.png', 'Im_RobertPattinson.png', 'Im_LeonardoDiCaprio.png', 'Im_MattDamon.png'],diff,1,0.41659579999998186,19,76.19047619047619,
XABE0501,train,pos,30,pos30_id18_im19.bmp_pos30_id18_im11.bmp,['Im_PatrickDempsey.png', 'Im_DanielCraig.png', 'Im_JustinTimberlake.png', 'Im_RyanGosling.png', 'Im_GeorgeClooney.png', 'Im_RobertDowneyJr.png', 'Im_DanielRadcliffe.png', 'Im_RobertPattinson.png', 'Im_LeonardoDiCaprio.png', 'Im_MattDamon.png'],same,1,0.41668750000008004,20,76.19047619047619,
XABE0501,train,pos,150,pos150_id4_im15.bmp_pos150_id4_im7.bmp,['Im_PatrickDempsey.png', 'Im_DanielCraig.png', 'Im_JustinTimberlake.png', 'Im_RyanGosling.png', 'Im_GeorgeClooney.png', 'Im_RobertDowneyJr.png', 'Im_DanielRadcliffe.png', 'Im_RobertPattinson.png', 'Im_LeonardoDiCaprio.png', 'Im_MattDamon.png'],same,1,0.4167324999999664,21,76.19047619047619,
XABE0501,train,pos,120,pos120_id18_im19.bmp_pos120_id14_im24.bmp,['Im_PatrickDempsey.png', 'Im_DanielCraig.png', 'Im_JustinTimberlake.png', 'Im_RyanGosling.png', 'Im_GeorgeClooney.png', 'Im_RobertDowneyJr.png', 'Im_DanielRadcliffe.png', 'Im_RobertPattinson.png', 'Im_LeonardoDiCaprio.png', 'Im_MattDamon.png'],diff,1,0.40817519999995966,22,76.19047619047619,
XABE0501,train,inv,60,pos60_id7_im26.bmp_pos60_id20_im30.bmp,['Im_PatrickDempsey.png', 'Im_DanielCraig.png', 'Im_JustinTimberlake.png', 'Im_RyanGosling.png', 'Im_GeorgeClooney.png', 'Im_RobertDowneyJr.png', 'Im_DanielRadcliffe.png', 'Im_RobertPattinson.png', 'Im_LeonardoDiCaprio.png', 'Im_MattDamon.png'],diff,1,0.40828319999991436,23,76.19047619047619,
XABE0501,train,inv,150,pos150_id7_im26.bmp_pos150_id7_im14.bmp,['Im_PatrickDempsey.png', 'Im_DanielCraig.png', 'Im_JustinTimberlake.png', 'Im_RyanGosling.png', 'Im_GeorgeClooney.png', 'Im_RobertDowneyJr.png', 'Im_DanielRadcliffe.png', 'Im_RobertPattinson.png', 'Im_LeonardoDiCaprio.png', 'Im_MattDamon.png'],same,1,0.4165537999999742,24,76.19047619047619,
XABE0501,train,inv,120,pos120_id13_im29.bmp_pos120_id10_im18.bmp,['Im_PatrickDempsey.png', 'Im_DanielCraig.png', 'Im_JustinTimberlake.png', 'Im_RyanGosling.png', 'Im_GeorgeClooney.png', 'Im_RobertDowneyJr.png', 'Im_DanielRadcliffe.png', 'Im_RobertPattinson.png', 'Im_LeonardoDiCaprio.png', 'Im_MattDamon.png'],diff,1,0.41672110000001794,25,76.19047619047619,
XABE0501,train,inv,90,pos90_id14_im18.bmp_pos90_id14_im16.bmp,['Im_PatrickDempsey.png', 'Im_DanielCraig.png', 'Im_JustinTimberlake.png', 'Im_RyanGosling.png', 'Im_GeorgeClooney.png', 'Im_RobertDowneyJr.png', 'Im_DanielRadcliffe.png', 'Im_RobertPattinson.png', 'Im_LeonardoDiCaprio.png', 'Im_MattDamon.png'],diff,0,0.39958869999998115,25,76.19047619047619,
XABE0501,train,inv,150,pos150_id4_im20.bmp_pos150_id4_im7.bmp,['Im_PatrickDempsey.png', 'Im_DanielCraig.png', 'Im_JustinTimberlake.png', 'Im_RyanGosling.png', 'Im_GeorgeClooney.png', 'Im_RobertDowneyJr.png', 'Im_DanielRadcliffe.png', 'Im_RobertPattinson.png', 'Im_LeonardoDiCaprio.png', 'Im_MattDamon.png'],same,1,0.4168528000000151,26,76.19047619047619,
XABE0501,train,inv,30,pos30_id4_im20.bmp_pos30_id4_im15.bmp,['Im_PatrickDempsey.png', 'Im_DanielCraig.png', 'Im_JustinTimberlake.png', 'Im_RyanGosling.png', 'Im_GeorgeClooney.png', 'Im_RobertDowneyJr.png', 'Im_DanielRadcliffe.png', 'Im_RobertPattinson.png', 'Im_LeonardoDiCaprio.png', 'Im_MattDamon.png'],same,1,0.6833562000000484,27,76.19047619047619,
XABE0501,train,inv,fs,posfs_id18_im18.bmp_posfs_id18_im19.bmp,['Im_PatrickDempsey.png', 'Im_DanielCraig.png', 'Im_JustinTimberlake.png', 'Im_RyanGosling.png', 'Im_GeorgeClooney.png', 'Im_RobertDowneyJr.png', 'Im_DanielRadcliffe.png', 'Im_RobertPattinson.png', 'Im_LeonardoDiCaprio.png', 'Im_MattDamon.png'],diff,0,0.3999241000000211,27,76.19047619047619,
XABE0501,train,inv,60,pos60_id7_im15.bmp_pos60_id19_im27.bmp,['Im_PatrickDempsey.png', 'Im_DanielCraig.png', 'Im_JustinTimberlake.png', 'Im_RyanGosling.png', 'Im_GeorgeClooney.png', 'Im_RobertDowneyJr.png', 'Im_DanielRadcliffe.png', 'Im_RobertPattinson.png', 'Im_LeonardoDiCaprio.png', 'Im_MattDamon.png'],diff,1,0.4248924999999417,28,76.19047619047619,
XABE0501,train,inv,fs,posfs_id17_im8.bmp_posfs_id17_im9.bmp,['Im_PatrickDempsey.png', 'Im_DanielCraig.png', 'Im_JustinTimberlake.png', 'Im_RyanGosling.png', 'Im_GeorgeClooney.png', 'Im_RobertDowneyJr.png', 'Im_DanielRadcliffe.png', 'Im_RobertPattinson.png', 'Im_LeonardoDiCaprio.png', 'Im_MattDamon.png'],diff,0,0.4668192999999974,28,76.19047619047619,
XABE0501,train,inv,120,pos120_id10_im18.bmp_pos120_id19_im8.bmp,['Im_PatrickDempsey.png', 'Im_DanielCraig.png', 'Im_JustinTimberlake.png', 'Im_RyanGosling.png', 'Im_GeorgeClooney.png', 'Im_RobertDowneyJr.png', 'Im_DanielRadcliffe.png', 'Im_RobertPattinson.png', 'Im_LeonardoDiCaprio.png', 'Im_MattDamon.png'],diff,1,1.5666111000000456,29,76.19047619047619,
XABE0501,train,inv,0,pos0_id13_im15.bmp_pos0_id13_im29.bmp,['Im_PatrickDempsey.png', 'Im_DanielCraig.png', 'Im_JustinTimberlake.png', 'Im_RyanGosling.png', 'Im_GeorgeClooney.png', 'Im_RobertDowneyJr.png', 'Im_DanielRadcliffe.png', 'Im_RobertPattinson.png', 'Im_LeonardoDiCaprio.png', 'Im_MattDamon.png'],diff,0,0.583590099999924,29,76.19047619047619,
XABE0501,train,inv,0,pos0_id5_im1.bmp_pos0_id4_im15.bmp,['Im_PatrickDempsey.png', 'Im_DanielCraig.png', 'Im_JustinTimberlake.png', 'Im_RyanGosling.png', 'Im_GeorgeClooney.png', 'Im_RobertDowneyJr.png', 'Im_DanielRadcliffe.png', 'Im_RobertPattinson.png', 'Im_LeonardoDiCaprio.png', 'Im_MattDamon.png'],diff,1,0.40006049999999505,30,76.19047619047619,
XABE0501,train,inv,30,pos30_id7_im15.bmp_pos30_id19_im27.bmp,['Im_PatrickDempsey.png', 'Im_DanielCraig.png', 'Im_JustinTimberlake.png', 'Im_RyanGosling.png', 'Im_GeorgeClooney.png', 'Im_RobertDowneyJr.png', 'Im_DanielRadcliffe.png', 'Im_RobertPattinson.png', 'Im_LeonardoDiCaprio.png', 'Im_MattDamon.png'],diff,1,0.8421098000000029,31,76.19047619047619,
XABE0501,train,inv,90,pos90_id13_im10.bmp_pos90_id13_im29.bmp,['Im_PatrickDempsey.png', 'Im_DanielCraig.png', 'Im_JustinTimberlake.png', 'Im_RyanGosling.png', 'Im_GeorgeClooney.png', 'Im_RobertDowneyJr.png', 'Im_DanielRadcliffe.png', 'Im_RobertPattinson.png', 'Im_LeonardoDiCaprio.png', 'Im_MattDamon.png'],diff,0,0.7502660000000105,31,76.19047619047619,
XABE0501,train,pos,30,pos30_id14_im16.bmp_pos30_id14_im24.bmp,['Im_PatrickDempsey.png', 'Im_DanielCraig.png', 'Im_JustinTimberlake.png', 'Im_RyanGosling.png', 'Im_GeorgeClooney.png', 'Im_RobertDowneyJr.png', 'Im_DanielRadcliffe.png', 'Im_RobertPattinson.png', 'Im_LeonardoDiCaprio.png', 'Im_MattDamon.png'],same,1,0.4169907000000421,1,73.80952380952381,
XABE0501,train,pos,30,pos30_id13_im10.bmp_pos30_id13_im15.bmp,['Im_PatrickDempsey.png', 'Im_DanielCraig.png', 'Im_JustinTimberlake.png', 'Im_RyanGosling.png', 'Im_GeorgeClooney.png', 'Im_RobertDowneyJr.png', 'Im_DanielRadcliffe.png', 'Im_RobertPattinson.png', 'Im_LeonardoDiCaprio.png', 'Im_MattDamon.png'],same,1,0.40825299999994513,2,73.80952380952381,
XABE0501,train,pos,60,pos60_id14_im24.bmp_pos60_id18_im19.bmp,['Im_PatrickDempsey.png', 'Im_DanielCraig.png', 'Im_JustinTimberlake.png', 'Im_RyanGosling.png', 'Im_GeorgeClooney.png', 'Im_RobertDowneyJr.png', 'Im_DanielRadcliffe.png', 'Im_RobertPattinson.png', 'Im_LeonardoDiCaprio.png', 'Im_MattDamon.png'],diff,1,0.41670540000006895,3,73.80952380952381,
XABE0501,train,pos,0,pos0_id4_im15.bmp_pos0_id4_im7.bmp,['Im_PatrickDempsey.png', 'Im_DanielCraig.png', 'Im_JustinTimberlake.png', 'Im_RyanGosling.png', 'Im_GeorgeClooney.png', 'Im_RobertDowneyJr.png', 'Im_DanielRadcliffe.png', 'Im_RobertPattinson.png', 'Im_LeonardoDiCaprio.png', 'Im_MattDamon.png'],same,1,0.39973650000001726,4,73.80952380952381,
XABE0501,train,pos,fs,posfs_id17_im9.bmp_posfs_id4_im7.bmp,['Im_PatrickDempsey.png', 'Im_DanielCraig.png', 'Im_JustinTimberlake.png', 'Im_RyanGosling.png', 'Im_GeorgeClooney.png', 'Im_RobertDowneyJr.png', 'Im_DanielRadcliffe.png', 'Im_RobertPattinson.png', 'Im_LeonardoDiCaprio.png', 'Im_MattDamon.png'],diff,1,0.4166956999999911,5,73.80952380952381,
XABE0501,train,pos,120,pos120_id17_im8.bmp_pos120_id4_im7.bmp,['Im_PatrickDempsey.png', 'Im_DanielCraig.png', 'Im_JustinTimberlake.png', 'Im_RyanGosling.png', 'Im_GeorgeClooney.png', 'Im_RobertDowneyJr.png', 'Im_DanielRadcliffe.png', 'Im_RobertPattinson.png', 'Im_LeonardoDiCaprio.png', 'Im_MattDamon.png'],diff,1,0.41684220000001915,6,73.80952380952381,
XABE0501,train,pos,0,pos0_id10_im18.bmp_pos0_id19_im8.bmp,['Im_PatrickDempsey.png', 'Im_DanielCraig.png', 'Im_JustinTimberlake.png', 'Im_RyanGosling.png', 'Im_GeorgeClooney.png', 'Im_RobertDowneyJr.png', 'Im_DanielRadcliffe.png', 'Im_RobertPattinson.png', 'Im_LeonardoDiCaprio.png', 'Im_MattDamon.png'],same,0,0.40839579999999387,6,73.80952380952381,
XABE0501,train,pos,90,pos90_id18_im18.bmp_pos90_id18_im11.bmp,['Im_PatrickDempsey.png', 'Im_DanielCraig.png', 'Im_JustinTimberlake.png', 'Im_RyanGosling.png', 'Im_GeorgeClooney.png', 'Im_RobertDowneyJr.png', 'Im_DanielRadcliffe.png', 'Im_RobertPattinson.png', 'Im_LeonardoDiCaprio.png', 'Im_MattDamon.png'],diff,0,0.4167075999999952,6,73.80952380952381,
XABE0501,train,pos,120,pos120_id14_im24.bmp_pos120_id7_im14.bmp,['Im_PatrickDempsey.png', 'Im_DanielCraig.png', 'Im_JustinTimberlake.png', 'Im_RyanGosling.png', 'Im_GeorgeClooney.png', 'Im_RobertDowneyJr.png', 'Im_DanielRadcliffe.png', 'Im_RobertPattinson.png', 'Im_LeonardoDiCaprio.png', 'Im_MattDamon.png'],diff,1,0.41668970000000627,7,73.80952380952381,
XABE0501,train,pos,60,pos60_id17_im14.bmp_pos60_id17_im9.bmp,['Im_PatrickDempsey.png', 'Im_DanielCraig.png', 'Im_JustinTimberlake.png', 'Im_RyanGosling.png', 'Im_GeorgeClooney.png', 'Im_RobertDowneyJr.png', 'Im_DanielRadcliffe.png', 'Im_RobertPattinson.png', 'Im_LeonardoDiCaprio.png', 'Im_MattDamon.png'],same,1,0.5835865999999896,8,73.80952380952381,
XABE0501,train,pos,90,pos90_id4_im7.bmp_pos90_id17_im8.bmp,['Im_PatrickDempsey.png', 'Im_DanielCraig.png', 'Im_JustinTimberlake.png', 'Im_RyanGosling.png', 'Im_GeorgeClooney.png', 'Im_RobertDowneyJr.png', 'Im_DanielRadcliffe.png', 'Im_RobertPattinson.png', 'Im_LeonardoDiCaprio.png', 'Im_MattDamon.png'],diff,1,0.39989619999994375,9,73.80952380952381,
XABE0501,train,pos,150,pos150_id13_im15.bmp_pos150_id13_im10.bmp,['Im_PatrickDempsey.png', 'Im_DanielCraig.png', 'Im_JustinTimberlake.png', 'Im_RyanGosling.png', 'Im_GeorgeClooney.png', 'Im_RobertDowneyJr.png', 'Im_DanielRadcliffe.png', 'Im_RobertPattinson.png', 'Im_LeonardoDiCaprio.png', 'Im_MattDamon.png'],same,1,0.4165113999999903,10,73.80952380952381,
XABE0501,train,pos,fs,posfs_id19_im8.bmp_posfs_id10_im18.bmp,['Im_PatrickDempsey.png', 'Im_DanielCraig.png', 'Im_JustinTimberlake.png', 'Im_RyanGosling.png', 'Im_GeorgeClooney.png', 'Im_RobertDowneyJr.png', 'Im_DanielRadcliffe.png', 'Im_RobertPattinson.png', 'Im_LeonardoDiCaprio.png', 'Im_MattDamon.png'],diff,1,0.6419219000000567,11,73.80952380952381,
XABE0501,train,pos,150,pos150_id4_im20.bmp_pos150_id4_im15.bmp,['Im_PatrickDempsey.png', 'Im_DanielCraig.png', 'Im_JustinTimberlake.png', 'Im_RyanGosling.png', 'Im_GeorgeClooney.png', 'Im_RobertDowneyJr.png', 'Im_DanielRadcliffe.png', 'Im_RobertPattinson.png', 'Im_LeonardoDiCaprio.png', 'Im_MattDamon.png'],same,1,0.4083931999999777,12,73.80952380952381,
XABE0501,train,inv,30,pos30_id4_im15.bmp_pos30_id18_im11.bmp,['Im_PatrickDempsey.png', 'Im_DanielCraig.png', 'Im_JustinTimberlake.png', 'Im_RyanGosling.png', 'Im_GeorgeClooney.png', 'Im_RobertDowneyJr.png', 'Im_DanielRadcliffe.png', 'Im_RobertPattinson.png', 'Im_LeonardoDiCaprio.png', 'Im_MattDamon.png'],same,0,0.3997374000000491,12,73.80952380952381,
XABE0501,train,inv,150,pos150_id7_im26.bmp_pos150_id20_im30.bmp,['Im_PatrickDempsey.png', 'Im_DanielCraig.png', 'Im_JustinTimberlake.png', 'Im_RyanGosling.png', 'Im_GeorgeClooney.png', 'Im_RobertDowneyJr.png', 'Im_DanielRadcliffe.png', 'Im_RobertPattinson.png', 'Im_LeonardoDiCaprio.png', 'Im_MattDamon.png'],diff,1,0.4168884999999136,13,73.80952380952381,
XABE0501,train,inv,120,pos120_id20_im12.bmp_pos120_id13_im29.bmp,['Im_PatrickDempsey.png', 'Im_DanielCraig.png', 'Im_JustinTimberlake.png', 'Im_RyanGosling.png', 'Im_GeorgeClooney.png', 'Im_RobertDowneyJr.png', 'Im_DanielRadcliffe.png', 'Im_RobertPattinson.png', 'Im_LeonardoDiCaprio.png', 'Im_MattDamon.png'],diff,1,0.4168432000000166,14,73.80952380952381,
XABE0501,train,inv,90,pos90_id4_im7.bmp_pos90_id4_im15.bmp,['Im_PatrickDempsey.png', 'Im_DanielCraig.png', 'Im_JustinTimberlake.png', 'Im_RyanGosling.png', 'Im_GeorgeClooney.png', 'Im_RobertDowneyJr.png', 'Im_DanielRadcliffe.png', 'Im_RobertPattinson.png', 'Im_LeonardoDiCaprio.png', 'Im_MattDamon.png'],same,1,0.4668116000000282,15,73.80952380952381,
XABE0501,train,inv,30,pos30_id10_im18.bmp_pos30_id10_im17.bmp,['Im_PatrickDempsey.png', 'Im_DanielCraig.png', 'Im_JustinTimberlake.png', 'Im_RyanGosling.png', 'Im_GeorgeClooney.png', 'Im_RobertDowneyJr.png', 'Im_DanielRadcliffe.png', 'Im_RobertPattinson.png', 'Im_LeonardoDiCaprio.png', 'Im_MattDamon.png'],diff,0,0.416675400000031,15,73.80952380952381,
XABE0501,train,inv,120,pos120_id7_im26.bmp_pos120_id7_im14.bmp,['Im_PatrickDempsey.png', 'Im_DanielCraig.png', 'Im_JustinTimberlake.png', 'Im_RyanGosling.png', 'Im_GeorgeClooney.png', 'Im_RobertDowneyJr.png', 'Im_DanielRadcliffe.png', 'Im_RobertPattinson.png', 'Im_LeonardoDiCaprio.png', 'Im_MattDamon.png'],same,1,0.42499449999991157,16,73.80952380952381,
XABE0501,train,inv,90,pos90_id4_im20.bmp_pos90_id7_im14.bmp,['Im_PatrickDempsey.png', 'Im_DanielCraig.png', 'Im_JustinTimberlake.png', 'Im_RyanGosling.png', 'Im_GeorgeClooney.png', 'Im_RobertDowneyJr.png', 'Im_DanielRadcliffe.png', 'Im_RobertPattinson.png', 'Im_LeonardoDiCaprio.png', 'Im_MattDamon.png'],diff,1,0.416823700000009,17,73.80952380952381,
XABE0501,train,inv,fs,posfs_id14_im18.bmp_posfs_id13_im10.bmp,['Im_PatrickDempsey.png', 'Im_DanielCraig.png', 'Im_JustinTimberlake.png', 'Im_RyanGosling.png', 'Im_GeorgeClooney.png', 'Im_RobertDowneyJr.png', 'Im_DanielRadcliffe.png', 'Im_RobertPattinson.png', 'Im_LeonardoDiCaprio.png', 'Im_MattDamon.png'],diff,1,0.408203100000037,18,73.80952380952381,
XABE0501,train,inv,60,pos60_id7_im26.bmp_pos60_id7_im14.bmp,['Im_PatrickDempsey.png', 'Im_DanielCraig.png', 'Im_JustinTimberlake.png', 'Im_RyanGosling.png', 'Im_GeorgeClooney.png', 'Im_RobertDowneyJr.png', 'Im_DanielRadcliffe.png', 'Im_RobertPattinson.png', 'Im_LeonardoDiCaprio.png', 'Im_MattDamon.png'],diff,0,0.5335269999999355,18,73.80952380952381,
XABE0501,train,inv,150,pos150_id19_im4.bmp_pos150_id19_im8.bmp,['Im_PatrickDempsey.png', 'Im_DanielCraig.png', 'Im_JustinTimberlake.png', 'Im_RyanGosling.png', 'Im_GeorgeClooney.png', 'Im_RobertDowneyJr.png', 'Im_DanielRadcliffe.png', 'Im_RobertPattinson.png', 'Im_LeonardoDiCaprio.png', 'Im_MattDamon.png'],diff,0,1.1415554000000157,18,73.80952380952381,
XABE0501,train,inv,fs,posfs_id14_im18.bmp_posfs_id5_im10.bmp,['Im_PatrickDempsey.png', 'Im_DanielCraig.png', 'Im_JustinTimberlake.png', 'Im_RyanGosling.png', 'Im_GeorgeClooney.png', 'Im_RobertDowneyJr.png', 'Im_DanielRadcliffe.png', 'Im_RobertPattinson.png', 'Im_LeonardoDiCaprio.png', 'Im_MattDamon.png'],diff,1,0.5001314999999522,19,73.80952380952381,
XABE0501,train,inv,0,pos0_id7_im15.bmp_pos0_id7_im14.bmp,['Im_PatrickDempsey.png', 'Im_DanielCraig.png', 'Im_JustinTimberlake.png', 'Im_RyanGosling.png', 'Im_GeorgeClooney.png', 'Im_RobertDowneyJr.png', 'Im_DanielRadcliffe.png', 'Im_RobertPattinson.png', 'Im_LeonardoDiCaprio.png', 'Im_MattDamon.png'],same,1,0.45015460000001895,20,73.80952380952381,
XABE0501,train,inv,60,pos60_id5_im1.bmp_pos60_id5_im10.bmp,['Im_PatrickDempsey.png', 'Im_DanielCraig.png', 'Im_JustinTimberlake.png', 'Im_RyanGosling.png', 'Im_GeorgeClooney.png', 'Im_RobertDowneyJr.png', 'Im_DanielRadcliffe.png', 'Im_RobertPattinson.png', 'Im_LeonardoDiCaprio.png', 'Im_MattDamon.png'],same,1,0.4083858000000191,21,73.80952380952381,
XABE0501,train,inv,0,pos0_id5_im1.bmp_pos0_id10_im1.bmp,['Im_PatrickDempsey.png', 'Im_DanielCraig.png', 'Im_JustinTimberlake.png', 'Im_RyanGosling.png', 'Im_GeorgeClooney.png', 'Im_RobertDowneyJr.png', 'Im_DanielRadcliffe.png', 'Im_RobertPattinson.png', 'Im_LeonardoDiCaprio.png', 'Im_MattDamon.png'],diff,1,0.4083153999999922,22,73.80952380952381,
XABE0501,train,neg,90,neg90_id7_im14.bmp_neg90_id7_im26.bmp,['Im_PatrickDempsey.png', 'Im_DanielCraig.png', 'Im_JustinTimberlake.png', 'Im_RyanGosling.png', 'Im_GeorgeClooney.png', 'Im_RobertDowneyJr.png', 'Im_DanielRadcliffe.png', 'Im_RobertPattinson.png', 'Im_LeonardoDiCaprio.png', 'Im_MattDamon.png'],same,1,0.6498920999999882,23,73.80952380952381,
XABE0501,train,neg,fs,negfs_id4_im15.bmp_negfs_id4_im7.bmp,['Im_PatrickDempsey.png', 'Im_DanielCraig.png', 'Im_JustinTimberlake.png', 'Im_RyanGosling.png', 'Im_GeorgeClooney.png', 'Im_RobertDowneyJr.png', 'Im_DanielRadcliffe.png', 'Im_RobertPattinson.png', 'Im_LeonardoDiCaprio.png', 'Im_MattDamon.png'],same,1,0.4499807999999348,24,73.80952380952381,
XABE0501,train,neg,90,neg90_id18_im19.bmp_neg90_id13_im10.bmp,['Im_PatrickDempsey.png', 'Im_DanielCraig.png', 'Im_JustinTimberlake.png', 'Im_RyanGosling.png', 'Im_GeorgeClooney.png', 'Im_RobertDowneyJr.png', 'Im_DanielRadcliffe.png', 'Im_RobertPattinson.png', 'Im_LeonardoDiCaprio.png', 'Im_MattDamon.png'],diff,1,0.4000174999999899,25,73.80952380952381,
XABE0501,train,neg,0,neg0_id13_im29.bmp_neg0_id13_im15.bmp,['Im_PatrickDempsey.png', 'Im_DanielCraig.png', 'Im_JustinTimberlake.png', 'Im_RyanGosling.png', 'Im_GeorgeClooney.png', 'Im_RobertDowneyJr.png', 'Im_DanielRadcliffe.png', 'Im_RobertPattinson.png', 'Im_LeonardoDiCaprio.png', 'Im_MattDamon.png'],diff,0,0.41688409999994747,25,73.80952380952381,
XABE0501,train,neg,150,neg150_id20_im30.bmp_neg150_id20_im12.bmp,['Im_PatrickDempsey.png', 'Im_DanielCraig.png', 'Im_JustinTimberlake.png', 'Im_RyanGosling.png', 'Im_GeorgeClooney.png', 'Im_RobertDowneyJr.png', 'Im_DanielRadcliffe.png', 'Im_RobertPattinson.png', 'Im_LeonardoDiCaprio.png', 'Im_MattDamon.png'],same,1,0.39977810000004865,26,73.80952380952381,
XABE0501,train,neg,30,neg30_id10_im17.bmp_neg30_id20_im3.bmp,['Im_PatrickDempsey.png', 'Im_DanielCraig.png', 'Im_JustinTimberlake.png', 'Im_RyanGosling.png', 'Im_GeorgeClooney.png', 'Im_RobertDowneyJr.png', 'Im_DanielRadcliffe.png', 'Im_RobertPattinson.png', 'Im_LeonardoDiCaprio.png', 'Im_MattDamon.png'],diff,1,0.733711499999913,27,73.80952380952381,
XABE0501,train,neg,fs,negfs_id20_im3.bmp_negfs_id17_im9.bmp,['Im_PatrickDempsey.png', 'Im_DanielCraig.png', 'Im_JustinTimberlake.png', 'Im_RyanGosling.png', 'Im_GeorgeClooney.png', 'Im_RobertDowneyJr.png', 'Im_DanielRadcliffe.png', 'Im_RobertPattinson.png', 'Im_LeonardoDiCaprio.png', 'Im_MattDamon.png'],same,0,0.4251862999999503,27,73.80952380952381,
XABE0501,train,neg,120,neg120_id10_im18.bmp_neg120_id13_im29.bmp,['Im_PatrickDempsey.png', 'Im_DanielCraig.png', 'Im_JustinTimberlake.png', 'Im_RyanGosling.png', 'Im_GeorgeClooney.png', 'Im_RobertDowneyJr.png', 'Im_DanielRadcliffe.png', 'Im_RobertPattinson.png', 'Im_LeonardoDiCaprio.png', 'Im_MattDamon.png'],diff,1,0.5669765000000098,28,73.80952380952381,
XABE0501,train,neg,60,neg60_id13_im15.bmp_neg60_id13_im29.bmp,['Im_PatrickDempsey.png', 'Im_DanielCraig.png', 'Im_JustinTimberlake.png', 'Im_RyanGosling.png', 'Im_GeorgeClooney.png', 'Im_RobertDowneyJr.png', 'Im_DanielRadcliffe.png', 'Im_RobertPattinson.png', 'Im_LeonardoDiCaprio.png', 'Im_MattDamon.png'],same,1,0.6001012000000401,29,73.80952380952381,
XABE0501,train,neg,0,neg0_id17_im9.bmp_neg0_id17_im14.bmp,['Im_PatrickDempsey.png', 'Im_DanielCraig.png', 'Im_JustinTimberlake.png', 'Im_RyanGosling.png', 'Im_GeorgeClooney.png', 'Im_RobertDowneyJr.png', 'Im_DanielRadcliffe.png', 'Im_RobertPattinson.png', 'Im_LeonardoDiCaprio.png', 'Im_MattDamon.png'],same,1,0.41673930000001747,30,73.80952380952381,
XABE0501,train,neg,30,neg30_id13_im10.bmp_neg30_id13_im29.bmp,['Im_PatrickDempsey.png', 'Im_DanielCraig.png', 'Im_JustinTimberlake.png', 'Im_RyanGosling.png', 'Im_GeorgeClooney.png', 'Im_RobertDowneyJr.png', 'Im_DanielRadcliffe.png', 'Im_RobertPattinson.png', 'Im_LeonardoDiCaprio.png', 'Im_MattDamon.png'],same,1,0.4501300000000583,31,73.80952380952381,
XABE0501,train,neg,150,neg150_id13_im10.bmp_neg150_id18_im19.bmp,['Im_PatrickDempsey.png', 'Im_DanielCraig.png', 'Im_JustinTimberlake.png', 'Im_RyanGosling.png', 'Im_GeorgeClooney.png', 'Im_RobertDowneyJr.png', 'Im_DanielRadcliffe.png', 'Im_RobertPattinson.png', 'Im_LeonardoDiCaprio.png', 'Im_MattDamon.png'],diff,1,0.4083260000001019,32,73.80952380952381,
XABE0501,train,neg,120,neg120_id5_im20.bmp_neg120_id19_im4.bmp,['Im_PatrickDempsey.png', 'Im_DanielCraig.png', 'Im_JustinTimberlake.png', 'Im_RyanGosling.png', 'Im_GeorgeClooney.png', 'Im_RobertDowneyJr.png', 'Im_DanielRadcliffe.png', 'Im_RobertPattinson.png', 'Im_LeonardoDiCaprio.png', 'Im_MattDamon.png'],diff,1,0.41686540000000605,33,73.80952380952381,
XABE0501,train,neg,60,neg60_id7_im15.bmp_neg60_id18_im18.bmp,['Im_PatrickDempsey.png', 'Im_DanielCraig.png', 'Im_JustinTimberlake.png', 'Im_RyanGosling.png', 'Im_GeorgeClooney.png', 'Im_RobertDowneyJr.png', 'Im_DanielRadcliffe.png', 'Im_RobertPattinson.png', 'Im_LeonardoDiCaprio.png', 'Im_MattDamon.png'],diff,1,0.41671519999999873,34,73.80952380952381,
XABE0501,train,pos,30,pos30_id20_im3.bmp_pos30_id20_im30.bmp,['Im_PatrickDempsey.png', 'Im_DanielCraig.png', 'Im_JustinTimberlake.png', 'Im_RyanGosling.png', 'Im_GeorgeClooney.png', 'Im_RobertDowneyJr.png', 'Im_DanielRadcliffe.png', 'Im_RobertPattinson.png', 'Im_LeonardoDiCaprio.png', 'Im_MattDamon.png'],same,1,0.41658670000003895,1,80.95238095238095,
XABE0501,train,pos,90,pos90_id14_im24.bmp_pos90_id14_im16.bmp,['Im_PatrickDempsey.png', 'Im_DanielCraig.png', 'Im_JustinTimberlake.png', 'Im_RyanGosling.png', 'Im_GeorgeClooney.png', 'Im_RobertDowneyJr.png', 'Im_DanielRadcliffe.png', 'Im_RobertPattinson.png', 'Im_LeonardoDiCaprio.png', 'Im_MattDamon.png'],same,1,0.41673950000006243,2,80.95238095238095,
XABE0501,train,pos,30,pos30_id18_im19.bmp_pos30_id18_im18.bmp,['Im_PatrickDempsey.png', 'Im_DanielCraig.png', 'Im_JustinTimberlake.png', 'Im_RyanGosling.png', 'Im_GeorgeClooney.png', 'Im_RobertDowneyJr.png', 'Im_DanielRadcliffe.png', 'Im_RobertPattinson.png', 'Im_LeonardoDiCaprio.png', 'Im_MattDamon.png'],diff,0,0.4166580999999496,2,80.95238095238095,
XABE0501,train,pos,60,pos60_id10_im17.bmp_pos60_id17_im8.bmp,['Im_PatrickDempsey.png', 'Im_DanielCraig.png', 'Im_JustinTimberlake.png', 'Im_RyanGosling.png', 'Im_GeorgeClooney.png', 'Im_RobertDowneyJr.png', 'Im_DanielRadcliffe.png', 'Im_RobertPattinson.png', 'Im_LeonardoDiCaprio.png', 'Im_MattDamon.png'],diff,1,0.41673830000002,3,80.95238095238095,
XABE0501,train,pos,120,pos120_id20_im30.bmp_pos120_id17_im14.bmp,['Im_PatrickDempsey.png', 'Im_DanielCraig.png', 'Im_JustinTimberlake.png', 'Im_RyanGosling.png', 'Im_GeorgeClooney.png', 'Im_RobertDowneyJr.png', 'Im_DanielRadcliffe.png', 'Im_RobertPattinson.png', 'Im_LeonardoDiCaprio.png', 'Im_MattDamon.png'],diff,1,0.4168710999999803,4,80.95238095238095,
XABE0501,train,pos,fs,posfs_id20_im30.bmp_posfs_id20_im12.bmp,['Im_PatrickDempsey.png', 'Im_DanielCraig.png', 'Im_JustinTimberlake.png', 'Im_RyanGosling.png', 'Im_GeorgeClooney.png', 'Im_RobertDowneyJr.png', 'Im_DanielRadcliffe.png', 'Im_RobertPattinson.png', 'Im_LeonardoDiCaprio.png', 'Im_MattDamon.png'],same,1,0.5500250000000051,5,80.95238095238095,
XABE0501,train,pos,0,pos0_id13_im15.bmp_pos0_id13_im10.bmp,['Im_PatrickDempsey.png', 'Im_DanielCraig.png', 'Im_JustinTimberlake.png', 'Im_RyanGosling.png', 'Im_GeorgeClooney.png', 'Im_RobertDowneyJr.png', 'Im_DanielRadcliffe.png', 'Im_RobertPattinson.png', 'Im_LeonardoDiCaprio.png', 'Im_MattDamon.png'],same,1,0.4084312999999611,6,80.95238095238095,
XABE0501,train,pos,90,pos90_id5_im20.bmp_pos90_id14_im16.bmp,['Im_PatrickDempsey.png', 'Im_DanielCraig.png', 'Im_JustinTimberlake.png', 'Im_RyanGosling.png', 'Im_GeorgeClooney.png', 'Im_RobertDowneyJr.png', 'Im_DanielRadcliffe.png', 'Im_RobertPattinson.png', 'Im_LeonardoDiCaprio.png', 'Im_MattDamon.png'],diff,1,0.4083345000000236,7,80.95238095238095,
XABE0501,train,pos,150,pos150_id17_im14.bmp_pos150_id17_im8.bmp,['Im_PatrickDempsey.png', 'Im_DanielCraig.png', 'Im_JustinTimberlake.png', 'Im_RyanGosling.png', 'Im_GeorgeClooney.png', 'Im_RobertDowneyJr.png', 'Im_DanielRadcliffe.png', 'Im_RobertPattinson.png', 'Im_LeonardoDiCaprio.png', 'Im_MattDamon.png'],same,1,0.5333958999999595,8,80.95238095238095,
XABE0501,train,pos,120,pos120_id13_im10.bmp_pos120_id18_im19.bmp,['Im_PatrickDempsey.png', 'Im_DanielCraig.png', 'Im_JustinTimberlake.png', 'Im_RyanGosling.png', 'Im_GeorgeClooney.png', 'Im_RobertDowneyJr.png', 'Im_DanielRadcliffe.png', 'Im_RobertPattinson.png', 'Im_LeonardoDiCaprio.png', 'Im_MattDamon.png'],diff,1,0.40837779999992563,9,80.95238095238095,
XABE0501,train,pos,0,pos0_id14_im18.bmp_pos0_id5_im10.bmp,['Im_PatrickDempsey.png', 'Im_DanielCraig.png', 'Im_JustinTimberlake.png', 'Im_RyanGosling.png', 'Im_GeorgeClooney.png', 'Im_RobertDowneyJr.png', 'Im_DanielRadcliffe.png', 'Im_RobertPattinson.png', 'Im_LeonardoDiCaprio.png', 'Im_MattDamon.png'],diff,1,0.4168907000000672,10,80.95238095238095,
XABE0501,train,pos,fs,posfs_id17_im14.bmp_posfs_id20_im30.bmp,['Im_PatrickDempsey.png', 'Im_DanielCraig.png', 'Im_JustinTimberlake.png', 'Im_RyanGosling.png', 'Im_GeorgeClooney.png', 'Im_RobertDowneyJr.png', 'Im_DanielRadcliffe.png', 'Im_RobertPattinson.png', 'Im_LeonardoDiCaprio.png', 'Im_MattDamon.png'],same,0,0.416722499999878,10,80.95238095238095,
XABE0501,train,pos,150,pos150_id18_im19.bmp_pos150_id18_im11.bmp,['Im_PatrickDempsey.png', 'Im_DanielCraig.png', 'Im_JustinTimberlake.png', 'Im_RyanGosling.png', 'Im_GeorgeClooney.png', 'Im_RobertDowneyJr.png', 'Im_DanielRadcliffe.png', 'Im_RobertPattinson.png', 'Im_LeonardoDiCaprio.png', 'Im_MattDamon.png'],diff,0,0.5170631999999387,10,80.95238095238095,
XABE0501,train,pos,60,pos60_id7_im15.bmp_pos60_id18_im18.bmp,['Im_PatrickDempsey.png', 'Im_DanielCraig.png', 'Im_JustinTimberlake.png', 'Im_RyanGosling.png', 'Im_GeorgeClooney.png', 'Im_RobertDowneyJr.png', 'Im_DanielRadcliffe.png', 'Im_RobertPattinson.png', 'Im_LeonardoDiCaprio.png', 'Im_MattDamon.png'],diff,1,0.40820309999980964,11,80.95238095238095,
XABE0501,train,neg,60,neg60_id14_im24.bmp_neg60_id14_im16.bmp,['Im_PatrickDempsey.png', 'Im_DanielCraig.png', 'Im_JustinTimberlake.png', 'Im_RyanGosling.png', 'Im_GeorgeClooney.png', 'Im_RobertDowneyJr.png', 'Im_DanielRadcliffe.png', 'Im_RobertPattinson.png', 'Im_LeonardoDiCaprio.png', 'Im_MattDamon.png'],same,1,0.516686400000026,12,80.95238095238095,
XABE0501,train,neg,60,neg60_id5_im1.bmp_neg60_id4_im15.bmp,['Im_PatrickDempsey.png', 'Im_DanielCraig.png', 'Im_JustinTimberlake.png', 'Im_RyanGosling.png', 'Im_GeorgeClooney.png', 'Im_RobertDowneyJr.png', 'Im_DanielRadcliffe.png', 'Im_RobertPattinson.png', 'Im_LeonardoDiCaprio.png', 'Im_MattDamon.png'],diff,1,0.41676030000007813,13,80.95238095238095,
XABE0501,train,neg,150,neg150_id19_im27.bmp_neg150_id7_im15.bmp,['Im_PatrickDempsey.png', 'Im_DanielCraig.png', 'Im_JustinTimberlake.png', 'Im_RyanGosling.png', 'Im_GeorgeClooney.png', 'Im_RobertDowneyJr.png', 'Im_DanielRadcliffe.png', 'Im_RobertPattinson.png', 'Im_LeonardoDiCaprio.png', 'Im_MattDamon.png'],same,0,0.39984419999996135,13,80.95238095238095,
XABE0501,train,neg,150,neg150_id4_im15.bmp_neg150_id4_im20.bmp,['Im_PatrickDempsey.png', 'Im_DanielCraig.png', 'Im_JustinTimberlake.png', 'Im_RyanGosling.png', 'Im_GeorgeClooney.png', 'Im_RobertDowneyJr.png', 'Im_DanielRadcliffe.png', 'Im_RobertPattinson.png', 'Im_LeonardoDiCaprio.png', 'Im_MattDamon.png'],same,1,0.43319399999995767,14,80.95238095238095,
XABE0501,train,neg,fs,negfs_id7_im14.bmp_negfs_id14_im24.bmp,['Im_PatrickDempsey.png', 'Im_DanielCraig.png', 'Im_JustinTimberlake.png', 'Im_RyanGosling.png', 'Im_GeorgeClooney.png', 'Im_RobertDowneyJr.png', 'Im_DanielRadcliffe.png', 'Im_RobertPattinson.png', 'Im_LeonardoDiCaprio.png', 'Im_MattDamon.png'],diff,1,0.41671339999993506,15,80.95238095238095,
XABE0501,train,neg,0,neg0_id20_im30.bmp_neg0_id17_im14.bmp,['Im_PatrickDempsey.png', 'Im_DanielCraig.png', 'Im_JustinTimberlake.png', 'Im_RyanGosling.png', 'Im_GeorgeClooney.png', 'Im_RobertDowneyJr.png', 'Im_DanielRadcliffe.png', 'Im_RobertPattinson.png', 'Im_LeonardoDiCaprio.png', 'Im_MattDamon.png'],same,0,0.508256000000074,15,80.95238095238095,
XABE0501,train,neg,120,neg120_id13_im10.bmp_neg120_id14_im18.bmp,['Im_PatrickDempsey.png', 'Im_DanielCraig.png', 'Im_JustinTimberlake.png', 'Im_RyanGosling.png', 'Im_GeorgeClooney.png', 'Im_RobertDowneyJr.png', 'Im_DanielRadcliffe.png', 'Im_RobertPattinson.png', 'Im_LeonardoDiCaprio.png', 'Im_MattDamon.png'],diff,1,0.44151709999982813,16,80.95238095238095,
XABE0501,train,neg,90,neg90_id5_im20.bmp_neg90_id5_im1.bmp,['Im_PatrickDempsey.png', 'Im_DanielCraig.png', 'Im_JustinTimberlake.png', 'Im_RyanGosling.png', 'Im_GeorgeClooney.png', 'Im_RobertDowneyJr.png', 'Im_DanielRadcliffe.png', 'Im_RobertPattinson.png', 'Im_LeonardoDiCaprio.png', 'Im_MattDamon.png'],same,1,0.416682499999979,17,80.95238095238095,
XABE0501,train,neg,fs,negfs_id14_im16.bmp_negfs_id14_im18.bmp,['Im_PatrickDempsey.png', 'Im_DanielCraig.png', 'Im_JustinTimberlake.png', 'Im_RyanGosling.png', 'Im_GeorgeClooney.png', 'Im_RobertDowneyJr.png', 'Im_DanielRadcliffe.png', 'Im_RobertPattinson.png', 'Im_LeonardoDiCaprio.png', 'Im_MattDamon.png'],diff,0,0.7999045999999908,17,80.95238095238095,
XABE0501,train,neg,30,neg30_id7_im15.bmp_neg30_id18_im18.bmp,['Im_PatrickDempsey.png', 'Im_DanielCraig.png', 'Im_JustinTimberlake.png', 'Im_RyanGosling.png', 'Im_GeorgeClooney.png', 'Im_RobertDowneyJr.png', 'Im_DanielRadcliffe.png', 'Im_RobertPattinson.png', 'Im_LeonardoDiCaprio.png', 'Im_MattDamon.png'],diff,1,0.4168632000000798,18,80.95238095238095,
XABE0501,train,neg,90,neg90_id10_im18.bmp_neg90_id10_im17.bmp,['Im_PatrickDempsey.png', 'Im_DanielCraig.png', 'Im_JustinTimberlake.png', 'Im_RyanGosling.png', 'Im_GeorgeClooney.png', 'Im_RobertDowneyJr.png', 'Im_DanielRadcliffe.png', 'Im_RobertPattinson.png', 'Im_LeonardoDiCaprio.png', 'Im_MattDamon.png'],diff,0,0.4085500000001048,18,80.95238095238095,
XABE0501,train,neg,30,neg30_id14_im24.bmp_neg30_id7_im14.bmp,['Im_PatrickDempsey.png', 'Im_DanielCraig.png', 'Im_JustinTimberlake.png', 'Im_RyanGosling.png', 'Im_GeorgeClooney.png', 'Im_RobertDowneyJr.png', 'Im_DanielRadcliffe.png', 'Im_RobertPattinson.png', 'Im_LeonardoDiCaprio.png', 'Im_MattDamon.png'],diff,1,0.4167554000000564,19,80.95238095238095,
XABE0501,train,neg,0,neg0_id17_im8.bmp_neg0_id10_im17.bmp,['Im_PatrickDempsey.png', 'Im_DanielCraig.png', 'Im_JustinTimberlake.png', 'Im_RyanGosling.png', 'Im_GeorgeClooney.png', 'Im_RobertDowneyJr.png', 'Im_DanielRadcliffe.png', 'Im_RobertPattinson.png', 'Im_LeonardoDiCaprio.png', 'Im_MattDamon.png'],same,0,0.40836130000002413,19,80.95238095238095,
XABE0501,train,neg,120,neg120_id19_im8.bmp_neg120_id10_im18.bmp,['Im_PatrickDempsey.png', 'Im_DanielCraig.png', 'Im_JustinTimberlake.png', 'Im_RyanGosling.png', 'Im_GeorgeClooney.png', 'Im_RobertDowneyJr.png', 'Im_DanielRadcliffe.png', 'Im_RobertPattinson.png', 'Im_LeonardoDiCaprio.png', 'Im_MattDamon.png'],diff,1,0.6252125000000888,20,80.95238095238095,
XABE0501,train,inv,120,pos120_id20_im12.bmp_pos120_id20_im30.bmp,['Im_PatrickDempsey.png', 'Im_DanielCraig.png', 'Im_JustinTimberlake.png', 'Im_RyanGosling.png', 'Im_GeorgeClooney.png', 'Im_RobertDowneyJr.png', 'Im_DanielRadcliffe.png', 'Im_RobertPattinson.png', 'Im_LeonardoDiCaprio.png', 'Im_MattDamon.png'],diff,0,0.416647500000181,20,80.95238095238095,
XABE0501,train,inv,60,pos60_id17_im8.bmp_pos60_id10_im17.bmp,['Im_PatrickDempsey.png', 'Im_DanielCraig.png', 'Im_JustinTimberlake.png', 'Im_RyanGosling.png', 'Im_GeorgeClooney.png', 'Im_RobertDowneyJr.png', 'Im_DanielRadcliffe.png', 'Im_RobertPattinson.png', 'Im_LeonardoDiCaprio.png', 'Im_MattDamon.png'],diff,1,0.41673789999981636,21,80.95238095238095,
XABE0501,train,inv,0,pos0_id17_im14.bmp_pos0_id17_im8.bmp,['Im_PatrickDempsey.png', 'Im_DanielCraig.png', 'Im_JustinTimberlake.png', 'Im_RyanGosling.png', 'Im_GeorgeClooney.png', 'Im_RobertDowneyJr.png', 'Im_DanielRadcliffe.png', 'Im_RobertPattinson.png', 'Im_LeonardoDiCaprio.png', 'Im_MattDamon.png'],same,1,0.4586940000001505,22,80.95238095238095,
XABE0501,train,inv,90,pos90_id18_im11.bmp_pos90_id13_im15.bmp,['Im_PatrickDempsey.png', 'Im_DanielCraig.png', 'Im_JustinTimberlake.png', 'Im_RyanGosling.png', 'Im_GeorgeClooney.png', 'Im_RobertDowneyJr.png', 'Im_DanielRadcliffe.png', 'Im_RobertPattinson.png', 'Im_LeonardoDiCaprio.png', 'Im_MattDamon.png'],same,0,0.5752563000000919,22,80.95238095238095,
XABE0501,train,inv,90,pos90_id13_im29.bmp_pos90_id10_im18.bmp,['Im_PatrickDempsey.png', 'Im_DanielCraig.png', 'Im_JustinTimberlake.png', 'Im_RyanGosling.png', 'Im_GeorgeClooney.png', 'Im_RobertDowneyJr.png', 'Im_DanielRadcliffe.png', 'Im_RobertPattinson.png', 'Im_LeonardoDiCaprio.png', 'Im_MattDamon.png'],diff,1,0.41672399999993104,23,80.95238095238095,
XABE0501,train,inv,60,pos60_id7_im15.bmp_pos60_id18_im18.bmp,['Im_PatrickDempsey.png', 'Im_DanielCraig.png', 'Im_JustinTimberlake.png', 'Im_RyanGosling.png', 'Im_GeorgeClooney.png', 'Im_RobertDowneyJr.png', 'Im_DanielRadcliffe.png', 'Im_RobertPattinson.png', 'Im_LeonardoDiCaprio.png', 'Im_MattDamon.png'],diff,1,0.416696500000171,24,80.95238095238095,
XABE0501,train,inv,fs,posfs_id4_im15.bmp_posfs_id4_im20.bmp,['Im_PatrickDempsey.png', 'Im_DanielCraig.png', 'Im_JustinTimberlake.png', 'Im_RyanGosling.png', 'Im_GeorgeClooney.png', 'Im_RobertDowneyJr.png', 'Im_DanielRadcliffe.png', 'Im_RobertPattinson.png', 'Im_LeonardoDiCaprio.png', 'Im_MattDamon.png'],same,1,0.708520099999987,25,80.95238095238095,
XABE0501,train,inv,120,pos120_id20_im30.bmp_pos120_id20_im3.bmp,['Im_PatrickDempsey.png', 'Im_DanielCraig.png', 'Im_JustinTimberlake.png', 'Im_RyanGosling.png', 'Im_GeorgeClooney.png', 'Im_RobertDowneyJr.png', 'Im_DanielRadcliffe.png', 'Im_RobertPattinson.png', 'Im_LeonardoDiCaprio.png', 'Im_MattDamon.png'],same,1,0.4330909000000247,26,80.95238095238095,
XABE0501,train,inv,30,pos30_id17_im14.bmp_pos30_id17_im9.bmp,['Im_PatrickDempsey.png', 'Im_DanielCraig.png', 'Im_JustinTimberlake.png', 'Im_RyanGosling.png', 'Im_GeorgeClooney.png', 'Im_RobertDowneyJr.png', 'Im_DanielRadcliffe.png', 'Im_RobertPattinson.png', 'Im_LeonardoDiCaprio.png', 'Im_MattDamon.png'],diff,0,0.40007089999994605,26,80.95238095238095,
XABE0501,train,inv,30,pos30_id20_im30.bmp_pos30_id17_im14.bmp,['Im_PatrickDempsey.png', 'Im_DanielCraig.png', 'Im_JustinTimberlake.png', 'Im_RyanGosling.png', 'Im_GeorgeClooney.png', 'Im_RobertDowneyJr.png', 'Im_DanielRadcliffe.png', 'Im_RobertPattinson.png', 'Im_LeonardoDiCaprio.png', 'Im_MattDamon.png'],diff,1,0.40825169999993705,27,80.95238095238095,
XABE0501,train,inv,150,pos150_id10_im18.bmp_pos150_id13_im29.bmp,['Im_PatrickDempsey.png', 'Im_DanielCraig.png', 'Im_JustinTimberlake.png', 'Im_RyanGosling.png', 'Im_GeorgeClooney.png', 'Im_RobertDowneyJr.png', 'Im_DanielRadcliffe.png', 'Im_RobertPattinson.png', 'Im_LeonardoDiCaprio.png', 'Im_MattDamon.png'],diff,1,0.5915616999998292,28,80.95238095238095,
XABE0501,train,inv,fs,posfs_id20_im30.bmp_posfs_id20_im3.bmp,['Im_PatrickDempsey.png', 'Im_DanielCraig.png', 'Im_JustinTimberlake.png', 'Im_RyanGosling.png', 'Im_GeorgeClooney.png', 'Im_RobertDowneyJr.png', 'Im_DanielRadcliffe.png', 'Im_RobertPattinson.png', 'Im_LeonardoDiCaprio.png', 'Im_MattDamon.png'],diff,0,0.7586793999998918,28,80.95238095238095,
XABE0501,train,inv,150,pos150_id18_im19.bmp_pos150_id14_im24.bmp,['Im_PatrickDempsey.png', 'Im_DanielCraig.png', 'Im_JustinTimberlake.png', 'Im_RyanGosling.png', 'Im_GeorgeClooney.png', 'Im_RobertDowneyJr.png', 'Im_DanielRadcliffe.png', 'Im_RobertPattinson.png', 'Im_LeonardoDiCaprio.png', 'Im_MattDamon.png'],diff,1,0.5665535999999065,29,80.95238095238095,
XABE0501,train,inv,0,pos0_id17_im9.bmp_pos0_id17_im14.bmp,['Im_PatrickDempsey.png', 'Im_DanielCraig.png', 'Im_JustinTimberlake.png', 'Im_RyanGosling.png', 'Im_GeorgeClooney.png', 'Im_RobertDowneyJr.png', 'Im_DanielRadcliffe.png', 'Im_RobertPattinson.png', 'Im_LeonardoDiCaprio.png', 'Im_MattDamon.png'],same,1,0.4081794000001082,30,80.95238095238095,
XABE0501,train,pos,90,pos90_id5_im10.bmp_pos90_id5_im1.bmp,['Im_PatrickDempsey.png', 'Im_DanielCraig.png', 'Im_JustinTimberlake.png', 'Im_RyanGosling.png', 'Im_GeorgeClooney.png', 'Im_RobertDowneyJr.png', 'Im_DanielRadcliffe.png', 'Im_RobertPattinson.png', 'Im_LeonardoDiCaprio.png', 'Im_MattDamon.png'],same,1,0.4167096000001038,1,71.42857142857143,
XABE0501,train,pos,60,pos60_id20_im3.bmp_pos60_id20_im12.bmp,['Im_PatrickDempsey.png', 'Im_DanielCraig.png', 'Im_JustinTimberlake.png', 'Im_RyanGosling.png', 'Im_GeorgeClooney.png', 'Im_RobertDowneyJr.png', 'Im_DanielRadcliffe.png', 'Im_RobertPattinson.png', 'Im_LeonardoDiCaprio.png', 'Im_MattDamon.png'],same,1,0.41672670000002654,2,71.42857142857143,
XABE0501,train,pos,150,pos150_id18_im18.bmp_pos150_id18_im11.bmp,['Im_PatrickDempsey.png', 'Im_DanielCraig.png', 'Im_JustinTimberlake.png', 'Im_RyanGosling.png', 'Im_GeorgeClooney.png', 'Im_RobertDowneyJr.png', 'Im_DanielRadcliffe.png', 'Im_RobertPattinson.png', 'Im_LeonardoDiCaprio.png', 'Im_MattDamon.png'],same,1,0.41647200000011253,3,71.42857142857143,
XABE0501,train,pos,fs,posfs_id19_im4.bmp_posfs_id19_im27.bmp,['Im_PatrickDempsey.png', 'Im_DanielCraig.png', 'Im_JustinTimberlake.png', 'Im_RyanGosling.png', 'Im_GeorgeClooney.png', 'Im_RobertDowneyJr.png', 'Im_DanielRadcliffe.png', 'Im_RobertPattinson.png', 'Im_LeonardoDiCaprio.png', 'Im_MattDamon.png'],same,1,0.41674190000003364,4,71.42857142857143,
XABE0501,train,pos,0,pos0_id17_im14.bmp_pos0_id17_im9.bmp,['Im_PatrickDempsey.png', 'Im_DanielCraig.png', 'Im_JustinTimberlake.png', 'Im_RyanGosling.png', 'Im_GeorgeClooney.png', 'Im_RobertDowneyJr.png', 'Im_DanielRadcliffe.png', 'Im_RobertPattinson.png', 'Im_LeonardoDiCaprio.png', 'Im_MattDamon.png'],same,1,0.41671469999982946,5,71.42857142857143,
XABE0501,train,pos,30,pos30_id7_im26.bmp_pos30_id20_im30.bmp,['Im_PatrickDempsey.png', 'Im_DanielCraig.png', 'Im_JustinTimberlake.png', 'Im_RyanGosling.png', 'Im_GeorgeClooney.png', 'Im_RobertDowneyJr.png', 'Im_DanielRadcliffe.png', 'Im_RobertPattinson.png', 'Im_LeonardoDiCaprio.png', 'Im_MattDamon.png'],diff,1,0.3997942000000876,6,71.42857142857143,
XABE0501,train,pos,120,pos120_id14_im18.bmp_pos120_id13_im10.bmp,['Im_PatrickDempsey.png', 'Im_DanielCraig.png', 'Im_JustinTimberlake.png', 'Im_RyanGosling.png', 'Im_GeorgeClooney.png', 'Im_RobertDowneyJr.png', 'Im_DanielRadcliffe.png', 'Im_RobertPattinson.png', 'Im_LeonardoDiCaprio.png', 'Im_MattDamon.png'],same,0,0.4167165000001205,6,71.42857142857143,
XABE0501,train,pos,90,pos90_id20_im3.bmp_pos90_id20_im12.bmp,['Im_PatrickDempsey.png', 'Im_DanielCraig.png', 'Im_JustinTimberlake.png', 'Im_RyanGosling.png', 'Im_GeorgeClooney.png', 'Im_RobertDowneyJr.png', 'Im_DanielRadcliffe.png', 'Im_RobertPattinson.png', 'Im_LeonardoDiCaprio.png', 'Im_MattDamon.png'],same,1,0.48334249999993517,7,71.42857142857143,
XABE0501,train,pos,0,pos0_id19_im8.bmp_pos0_id4_im20.bmp,['Im_PatrickDempsey.png', 'Im_DanielCraig.png', 'Im_JustinTimberlake.png', 'Im_RyanGosling.png', 'Im_GeorgeClooney.png', 'Im_RobertDowneyJr.png', 'Im_DanielRadcliffe.png', 'Im_RobertPattinson.png', 'Im_LeonardoDiCaprio.png', 'Im_MattDamon.png'],diff,1,0.4167245000001003,8,71.42857142857143,
XABE0501,train,pos,60,pos60_id17_im9.bmp_pos60_id4_im7.bmp,['Im_PatrickDempsey.png', 'Im_DanielCraig.png', 'Im_JustinTimberlake.png', 'Im_RyanGosling.png', 'Im_GeorgeClooney.png', 'Im_RobertDowneyJr.png', 'Im_DanielRadcliffe.png', 'Im_RobertPattinson.png', 'Im_LeonardoDiCaprio.png', 'Im_MattDamon.png'],diff,1,0.4002192999998897,9,71.42857142857143,
XABE0501,train,pos,150,pos150_id14_im18.bmp_pos150_id13_im10.bmp,['Im_PatrickDempsey.png', 'Im_DanielCraig.png', 'Im_JustinTimberlake.png', 'Im_RyanGosling.png', 'Im_GeorgeClooney.png', 'Im_RobertDowneyJr.png', 'Im_DanielRadcliffe.png', 'Im_RobertPattinson.png', 'Im_LeonardoDiCaprio.png', 'Im_MattDamon.png'],diff,1,0.4170358000001215,10,71.42857142857143,
XABE0501,train,pos,30,pos30_id19_im27.bmp_pos30_id7_im15.bmp,['Im_PatrickDempsey.png', 'Im_DanielCraig.png', 'Im_JustinTimberlake.png', 'Im_RyanGosling.png', 'Im_GeorgeClooney.png', 'Im_RobertDowneyJr.png', 'Im_DanielRadcliffe.png', 'Im_RobertPattinson.png', 'Im_LeonardoDiCaprio.png', 'Im_MattDamon.png'],diff,1,0.44171000000005733,11,71.42857142857143,
XABE0501,train,pos,fs,posfs_id14_im18.bmp_posfs_id14_im16.bmp,['Im_PatrickDempsey.png', 'Im_DanielCraig.png', 'Im_JustinTimberlake.png', 'Im_RyanGosling.png', 'Im_GeorgeClooney.png', 'Im_RobertDowneyJr.png', 'Im_DanielRadcliffe.png', 'Im_RobertPattinson.png', 'Im_LeonardoDiCaprio.png', 'Im_MattDamon.png'],same,1,0.4501290999999128,12,71.42857142857143,
XABE0501,train,pos,120,pos120_id5_im10.bmp_pos120_id5_im20.bmp,['Im_PatrickDempsey.png', 'Im_DanielCraig.png', 'Im_JustinTimberlake.png', 'Im_RyanGosling.png', 'Im_GeorgeClooney.png', 'Im_RobertDowneyJr.png', 'Im_DanielRadcliffe.png', 'Im_RobertPattinson.png', 'Im_LeonardoDiCaprio.png', 'Im_MattDamon.png'],same,1,0.4083402000001115,13,71.42857142857143,
XABE0501,train,neg,fs,negfs_id13_im29.bmp_negfs_id13_im15.bmp,['Im_PatrickDempsey.png', 'Im_DanielCraig.png', 'Im_JustinTimberlake.png', 'Im_RyanGosling.png', 'Im_GeorgeClooney.png', 'Im_RobertDowneyJr.png', 'Im_DanielRadcliffe.png', 'Im_RobertPattinson.png', 'Im_LeonardoDiCaprio.png', 'Im_MattDamon.png'],diff,0,0.4168387999998231,13,71.42857142857143,
XABE0501,train,neg,120,neg120_id17_im9.bmp_neg120_id17_im8.bmp,['Im_PatrickDempsey.png', 'Im_DanielCraig.png', 'Im_JustinTimberlake.png', 'Im_RyanGosling.png', 'Im_GeorgeClooney.png', 'Im_RobertDowneyJr.png', 'Im_DanielRadcliffe.png', 'Im_RobertPattinson.png', 'Im_LeonardoDiCaprio.png', 'Im_MattDamon.png'],same,1,0.43338760000006005,14,71.42857142857143,
XABE0501,train,neg,fs,negfs_id19_im27.bmp_negfs_id19_im4.bmp,['Im_PatrickDempsey.png', 'Im_DanielCraig.png', 'Im_JustinTimberlake.png', 'Im_RyanGosling.png', 'Im_GeorgeClooney.png', 'Im_RobertDowneyJr.png', 'Im_DanielRadcliffe.png', 'Im_RobertPattinson.png', 'Im_LeonardoDiCaprio.png', 'Im_MattDamon.png'],same,1,0.4500950000001467,15,71.42857142857143,
XABE0501,train,neg,30,neg30_id14_im24.bmp_neg30_id18_im19.bmp,['Im_PatrickDempsey.png', 'Im_DanielCraig.png', 'Im_JustinTimberlake.png', 'Im_RyanGosling.png', 'Im_GeorgeClooney.png', 'Im_RobertDowneyJr.png', 'Im_DanielRadcliffe.png', 'Im_RobertPattinson.png', 'Im_LeonardoDiCaprio.png', 'Im_MattDamon.png'],diff,1,0.5833780000000388,16,71.42857142857143,
XABE0501,train,neg,150,neg150_id7_im14.bmp_neg150_id4_im20.bmp,['Im_PatrickDempsey.png', 'Im_DanielCraig.png', 'Im_JustinTimberlake.png', 'Im_RyanGosling.png', 'Im_GeorgeClooney.png', 'Im_RobertDowneyJr.png', 'Im_DanielRadcliffe.png', 'Im_RobertPattinson.png', 'Im_LeonardoDiCaprio.png', 'Im_MattDamon.png'],diff,1,0.8416856999999709,17,71.42857142857143,
XABE0501,train,neg,30,neg30_id5_im1.bmp_neg30_id4_im15.bmp,['Im_PatrickDempsey.png', 'Im_DanielCraig.png', 'Im_JustinTimberlake.png', 'Im_RyanGosling.png', 'Im_GeorgeClooney.png', 'Im_RobertDowneyJr.png', 'Im_DanielRadcliffe.png', 'Im_RobertPattinson.png', 'Im_LeonardoDiCaprio.png', 'Im_MattDamon.png'],diff,1,0.4166730000001735,18,71.42857142857143,
XABE0501,train,neg,90,neg90_id20_im3.bmp_neg90_id20_im12.bmp,['Im_PatrickDempsey.png', 'Im_DanielCraig.png', 'Im_JustinTimberlake.png', 'Im_RyanGosling.png', 'Im_GeorgeClooney.png', 'Im_RobertDowneyJr.png', 'Im_DanielRadcliffe.png', 'Im_RobertPattinson.png', 'Im_LeonardoDiCaprio.png', 'Im_MattDamon.png'],same,1,0.4083052000000862,19,71.42857142857143,
XABE0501,train,neg,0,neg0_id18_im11.bmp_neg0_id13_im15.bmp,['Im_PatrickDempsey.png', 'Im_DanielCraig.png', 'Im_JustinTimberlake.png', 'Im_RyanGosling.png', 'Im_GeorgeClooney.png', 'Im_RobertDowneyJr.png', 'Im_DanielRadcliffe.png', 'Im_RobertPattinson.png', 'Im_LeonardoDiCaprio.png', 'Im_MattDamon.png'],diff,1,0.4499382000001333,20,71.42857142857143,
XABE0501,train,neg,0,neg0_id5_im20.bmp_neg0_id5_im10.bmp,['Im_PatrickDempsey.png', 'Im_DanielCraig.png', 'Im_JustinTimberlake.png', 'Im_RyanGosling.png', 'Im_GeorgeClooney.png', 'Im_RobertDowneyJr.png', 'Im_DanielRadcliffe.png', 'Im_RobertPattinson.png', 'Im_LeonardoDiCaprio.png', 'Im_MattDamon.png'],same,1,0.4165434000001369,21,71.42857142857143,
XABE0501,train,neg,90,neg90_id18_im19.bmp_neg90_id18_im11.bmp,['Im_PatrickDempsey.png', 'Im_DanielCraig.png', 'Im_JustinTimberlake.png', 'Im_RyanGosling.png', 'Im_GeorgeClooney.png', 'Im_RobertDowneyJr.png', 'Im_DanielRadcliffe.png', 'Im_RobertPattinson.png', 'Im_LeonardoDiCaprio.png', 'Im_MattDamon.png'],same,1,0.4167213000000629,22,71.42857142857143,
XABE0501,train,neg,60,neg60_id13_im15.bmp_neg60_id13_im10.bmp,['Im_PatrickDempsey.png', 'Im_DanielCraig.png', 'Im_JustinTimberlake.png', 'Im_RyanGosling.png', 'Im_GeorgeClooney.png', 'Im_RobertDowneyJr.png', 'Im_DanielRadcliffe.png', 'Im_RobertPattinson.png', 'Im_LeonardoDiCaprio.png', 'Im_MattDamon.png'],same,1,0.41665469999998095,23,71.42857142857143,
XABE0501,train,neg,150,neg150_id13_im15.bmp_neg150_id17_im14.bmp,['Im_PatrickDempsey.png', 'Im_DanielCraig.png', 'Im_JustinTimberlake.png', 'Im_RyanGosling.png', 'Im_GeorgeClooney.png', 'Im_RobertDowneyJr.png', 'Im_DanielRadcliffe.png', 'Im_RobertPattinson.png', 'Im_LeonardoDiCaprio.png', 'Im_MattDamon.png'],diff,1,0.7168919000000642,24,71.42857142857143,
XABE0501,train,neg,120,neg120_id5_im1.bmp_neg120_id10_im1.bmp,['Im_PatrickDempsey.png', 'Im_DanielCraig.png', 'Im_JustinTimberlake.png', 'Im_RyanGosling.png', 'Im_GeorgeClooney.png', 'Im_RobertDowneyJr.png', 'Im_DanielRadcliffe.png', 'Im_RobertPattinson.png', 'Im_LeonardoDiCaprio.png', 'Im_MattDamon.png'],diff,1,0.41684920000011516,25,71.42857142857143,
XABE0501,train,neg,60,neg60_id20_im30.bmp_neg60_id7_im26.bmp,['Im_PatrickDempsey.png', 'Im_DanielCraig.png', 'Im_JustinTimberlake.png', 'Im_RyanGosling.png', 'Im_GeorgeClooney.png', 'Im_RobertDowneyJr.png', 'Im_DanielRadcliffe.png', 'Im_RobertPattinson.png', 'Im_LeonardoDiCaprio.png', 'Im_MattDamon.png'],diff,1,0.5335781999999654,26,71.42857142857143,
XABE0501,train,inv,fs,posfs_id19_im8.bmp_posfs_id19_im4.bmp,['Im_PatrickDempsey.png', 'Im_DanielCraig.png', 'Im_JustinTimberlake.png', 'Im_RyanGosling.png', 'Im_GeorgeClooney.png', 'Im_RobertDowneyJr.png', 'Im_DanielRadcliffe.png', 'Im_RobertPattinson.png', 'Im_LeonardoDiCaprio.png', 'Im_MattDamon.png'],same,1,0.4081802000000607,27,71.42857142857143,
XABE0501,train,inv,60,pos60_id13_im29.bmp_pos60_id20_im12.bmp,['Im_PatrickDempsey.png', 'Im_DanielCraig.png', 'Im_JustinTimberlake.png', 'Im_RyanGosling.png', 'Im_GeorgeClooney.png', 'Im_RobertDowneyJr.png', 'Im_DanielRadcliffe.png', 'Im_RobertPattinson.png', 'Im_LeonardoDiCaprio.png', 'Im_MattDamon.png'],diff,1,0.44982160000017757,28,71.42857142857143,
XABE0501,train,inv,120,pos120_id17_im14.bmp_pos120_id20_im30.bmp,['Im_PatrickDempsey.png', 'Im_DanielCraig.png', 'Im_JustinTimberlake.png', 'Im_RyanGosling.png', 'Im_GeorgeClooney.png', 'Im_RobertDowneyJr.png', 'Im_DanielRadcliffe.png', 'Im_RobertPattinson.png', 'Im_LeonardoDiCaprio.png', 'Im_MattDamon.png'],diff,1,0.41681919999996353,29,71.42857142857143,
XABE0501,train,inv,fs,posfs_id4_im20.bmp_posfs_id7_im14.bmp,['Im_PatrickDempsey.png', 'Im_DanielCraig.png', 'Im_JustinTimberlake.png', 'Im_RyanGosling.png', 'Im_GeorgeClooney.png', 'Im_RobertDowneyJr.png', 'Im_DanielRadcliffe.png', 'Im_RobertPattinson.png', 'Im_LeonardoDiCaprio.png', 'Im_MattDamon.png'],diff,1,0.4085049000000254,30,71.42857142857143,
XABE0501,train,inv,90,pos90_id7_im15.bmp_pos90_id7_im26.bmp,['Im_PatrickDempsey.png', 'Im_DanielCraig.png', 'Im_JustinTimberlake.png', 'Im_RyanGosling.png', 'Im_GeorgeClooney.png', 'Im_RobertDowneyJr.png', 'Im_DanielRadcliffe.png', 'Im_RobertPattinson.png', 'Im_LeonardoDiCaprio.png', 'Im_MattDamon.png'],same,1,0.416663299999982,31,71.42857142857143,
XABE0501,train,inv,30,pos30_id18_im19.bmp_pos30_id18_im18.bmp,['Im_PatrickDempsey.png', 'Im_DanielCraig.png', 'Im_JustinTimberlake.png', 'Im_RyanGosling.png', 'Im_GeorgeClooney.png', 'Im_RobertDowneyJr.png', 'Im_DanielRadcliffe.png', 'Im_RobertPattinson.png', 'Im_LeonardoDiCaprio.png', 'Im_MattDamon.png'],diff,0,0.40852459999996427,31,71.42857142857143,
XABE0501,train,inv,150,pos150_id17_im8.bmp_pos150_id17_im9.bmp,['Im_PatrickDempsey.png', 'Im_DanielCraig.png', 'Im_JustinTimberlake.png', 'Im_RyanGosling.png', 'Im_GeorgeClooney.png', 'Im_RobertDowneyJr.png', 'Im_DanielRadcliffe.png', 'Im_RobertPattinson.png', 'Im_LeonardoDiCaprio.png', 'Im_MattDamon.png'],same,1,0.4084987999999612,32,71.42857142857143,
XABE0501,train,inv,0,pos0_id19_im8.bmp_pos0_id19_im27.bmp,['Im_PatrickDempsey.png', 'Im_DanielCraig.png', 'Im_JustinTimberlake.png', 'Im_RyanGosling.png', 'Im_GeorgeClooney.png', 'Im_RobertDowneyJr.png', 'Im_DanielRadcliffe.png', 'Im_RobertPattinson.png', 'Im_LeonardoDiCaprio.png', 'Im_MattDamon.png'],same,1,0.41674910000006093,33,71.42857142857143,
XABE0501,train,inv,120,pos120_id20_im3.bmp_pos120_id10_im17.bmp,['Im_PatrickDempsey.png', 'Im_DanielCraig.png', 'Im_JustinTimberlake.png', 'Im_RyanGosling.png', 'Im_GeorgeClooney.png', 'Im_RobertDowneyJr.png', 'Im_DanielRadcliffe.png', 'Im_RobertPattinson.png', 'Im_LeonardoDiCaprio.png', 'Im_MattDamon.png'],diff,1,0.41669359999991684,34,71.42857142857143,
XABE0501,train,inv,0,pos0_id20_im3.bmp_pos0_id17_im9.bmp,['Im_PatrickDempsey.png', 'Im_DanielCraig.png', 'Im_JustinTimberlake.png', 'Im_RyanGosling.png', 'Im_GeorgeClooney.png', 'Im_RobertDowneyJr.png', 'Im_DanielRadcliffe.png', 'Im_RobertPattinson.png', 'Im_LeonardoDiCaprio.png', 'Im_MattDamon.png'],diff,1,0.5165775999998914,35,71.42857142857143,
XABE0501,train,inv,30,pos30_id18_im11.bmp_pos30_id18_im19.bmp,['Im_PatrickDempsey.png', 'Im_DanielCraig.png', 'Im_JustinTimberlake.png', 'Im_RyanGosling.png', 'Im_GeorgeClooney.png', 'Im_RobertDowneyJr.png', 'Im_DanielRadcliffe.png', 'Im_RobertPattinson.png', 'Im_LeonardoDiCaprio.png', 'Im_MattDamon.png'],same,1,0.5085489000000507,36,71.42857142857143,
XABE0501,train,inv,60,pos60_id19_im27.bmp_pos60_id19_im4.bmp,['Im_PatrickDempsey.png', 'Im_DanielCraig.png', 'Im_JustinTimberlake.png', 'Im_RyanGosling.png', 'Im_GeorgeClooney.png', 'Im_RobertDowneyJr.png', 'Im_DanielRadcliffe.png', 'Im_RobertPattinson.png', 'Im_LeonardoDiCaprio.png', 'Im_MattDamon.png'],same,1,0.408360200000061,37,71.42857142857143,
XABE0501,train,inv,90,pos90_id18_im19.bmp_pos90_id14_im24.bmp,['Im_PatrickDempsey.png', 'Im_DanielCraig.png', 'Im_JustinTimberlake.png', 'Im_RyanGosling.png', 'Im_GeorgeClooney.png', 'Im_RobertDowneyJr.png', 'Im_DanielRadcliffe.png', 'Im_RobertPattinson.png', 'Im_LeonardoDiCaprio.png', 'Im_MattDamon.png'],diff,1,0.416741699999875,38,71.42857142857143,
XABE0501,train,inv,150,pos150_id20_im12.bmp_pos150_id13_im29.bmp,['Im_PatrickDempsey.png', 'Im_DanielCraig.png', 'Im_JustinTimberlake.png', 'Im_RyanGosling.png', 'Im_GeorgeClooney.png', 'Im_RobertDowneyJr.png', 'Im_DanielRadcliffe.png', 'Im_RobertPattinson.png', 'Im_LeonardoDiCaprio.png', 'Im_MattDamon.png'],diff,1,0.4667914000001474,39,71.42857142857143,
XABE0501,train,inv,60,pos60_id10_im17.bmp_pos60_id20_im3.bmp,['Im_PatrickDempsey.png', 'Im_DanielCraig.png', 'Im_JustinTimberlake.png', 'Im_RyanGosling.png', 'Im_GeorgeClooney.png', 'Im_RobertDowneyJr.png', 'Im_DanielRadcliffe.png', 'Im_RobertPattinson.png', 'Im_LeonardoDiCaprio.png', 'Im_MattDamon.png'],diff,1,0.42511359999980414,1,92.85714285714286,
XABE0501,train,inv,30,pos30_id10_im18.bmp_pos30_id10_im1.bmp,['Im_PatrickDempsey.png', 'Im_DanielCraig.png', 'Im_JustinTimberlake.png', 'Im_RyanGosling.png', 'Im_GeorgeClooney.png', 'Im_RobertDowneyJr.png', 'Im_DanielRadcliffe.png', 'Im_RobertPattinson.png', 'Im_LeonardoDiCaprio.png', 'Im_MattDamon.png'],same,1,0.4086764999999559,2,92.85714285714286,
XABE0501,train,inv,120,pos120_id14_im24.bmp_pos120_id14_im18.bmp,['Im_PatrickDempsey.png', 'Im_DanielCraig.png', 'Im_JustinTimberlake.png', 'Im_RyanGosling.png', 'Im_GeorgeClooney.png', 'Im_RobertDowneyJr.png', 'Im_DanielRadcliffe.png', 'Im_RobertPattinson.png', 'Im_LeonardoDiCaprio.png', 'Im_MattDamon.png'],same,1,0.4336369999998624,3,92.85714285714286,
XABE0501,train,inv,90,pos90_id13_im15.bmp_pos90_id13_im10.bmp,['Im_PatrickDempsey.png', 'Im_DanielCraig.png', 'Im_JustinTimberlake.png', 'Im_RyanGosling.png', 'Im_GeorgeClooney.png', 'Im_RobertDowneyJr.png', 'Im_DanielRadcliffe.png', 'Im_RobertPattinson.png', 'Im_LeonardoDiCaprio.png', 'Im_MattDamon.png'],same,1,0.4081979999998566,4,92.85714285714286,
XABE0501,train,inv,0,pos0_id19_im27.bmp_pos0_id14_im16.bmp,['Im_PatrickDempsey.png', 'Im_DanielCraig.png', 'Im_JustinTimberlake.png', 'Im_RyanGosling.png', 'Im_GeorgeClooney.png', 'Im_RobertDowneyJr.png', 'Im_DanielRadcliffe.png', 'Im_RobertPattinson.png', 'Im_LeonardoDiCaprio.png', 'Im_MattDamon.png'],same,0,0.4167924999999286,4,92.85714285714286,
XABE0501,train,inv,60,pos60_id14_im24.bmp_pos60_id7_im14.bmp,['Im_PatrickDempsey.png', 'Im_DanielCraig.png', 'Im_JustinTimberlake.png', 'Im_RyanGosling.png', 'Im_GeorgeClooney.png', 'Im_RobertDowneyJr.png', 'Im_DanielRadcliffe.png', 'Im_RobertPattinson.png', 'Im_LeonardoDiCaprio.png', 'Im_MattDamon.png'],diff,1,0.4082175000000916,5,92.85714285714286,
XABE0501,train,inv,150,pos150_id17_im14.bmp_pos150_id17_im8.bmp,['Im_PatrickDempsey.png', 'Im_DanielCraig.png', 'Im_JustinTimberlake.png', 'Im_RyanGosling.png', 'Im_GeorgeClooney.png', 'Im_RobertDowneyJr.png', 'Im_DanielRadcliffe.png', 'Im_RobertPattinson.png', 'Im_LeonardoDiCaprio.png', 'Im_MattDamon.png'],same,1,0.4251858000000084,6,92.85714285714286,
XABE0501,train,inv,150,pos150_id7_im14.bmp_pos150_id7_im15.bmp,['Im_PatrickDempsey.png', 'Im_DanielCraig.png', 'Im_JustinTimberlake.png', 'Im_RyanGosling.png', 'Im_GeorgeClooney.png', 'Im_RobertDowneyJr.png', 'Im_DanielRadcliffe.png', 'Im_RobertPattinson.png', 'Im_LeonardoDiCaprio.png', 'Im_MattDamon.png'],diff,0,0.40820450000001074,6,92.85714285714286,
XABE0501,train,inv,fs,posfs_id13_im29.bmp_posfs_id20_im12.bmp,['Im_PatrickDempsey.png', 'Im_DanielCraig.png', 'Im_JustinTimberlake.png', 'Im_RyanGosling.png', 'Im_GeorgeClooney.png', 'Im_RobertDowneyJr.png', 'Im_DanielRadcliffe.png', 'Im_RobertPattinson.png', 'Im_LeonardoDiCaprio.png', 'Im_MattDamon.png'],diff,1,0.466599700000188,7,92.85714285714286,
XABE0501,train,inv,fs,posfs_id18_im18.bmp_posfs_id18_im11.bmp,['Im_PatrickDempsey.png', 'Im_DanielCraig.png', 'Im_JustinTimberlake.png', 'Im_RyanGosling.png', 'Im_GeorgeClooney.png', 'Im_RobertDowneyJr.png', 'Im_DanielRadcliffe.png', 'Im_RobertPattinson.png', 'Im_LeonardoDiCaprio.png', 'Im_MattDamon.png'],same,1,0.7250048000000788,8,92.85714285714286,
XABE0501,train,inv,120,pos120_id5_im1.bmp_pos120_id4_im15.bmp,['Im_PatrickDempsey.png', 'Im_DanielCraig.png', 'Im_JustinTimberlake.png', 'Im_RyanGosling.png', 'Im_GeorgeClooney.png', 'Im_RobertDowneyJr.png', 'Im_DanielRadcliffe.png', 'Im_RobertPattinson.png', 'Im_LeonardoDiCaprio.png', 'Im_MattDamon.png'],diff,1,0.41670810000005076,9,92.85714285714286,
XABE0501,train,inv,0,pos0_id18_im18.bmp_pos0_id18_im11.bmp,['Im_PatrickDempsey.png', 'Im_DanielCraig.png', 'Im_JustinTimberlake.png', 'Im_RyanGosling.png', 'Im_GeorgeClooney.png', 'Im_RobertDowneyJr.png', 'Im_DanielRadcliffe.png', 'Im_RobertPattinson.png', 'Im_LeonardoDiCaprio.png', 'Im_MattDamon.png'],same,1,0.3998036000000411,10,92.85714285714286,
XABE0501,train,inv,90,pos90_id20_im30.bmp_pos90_id17_im14.bmp,['Im_PatrickDempsey.png', 'Im_DanielCraig.png', 'Im_JustinTimberlake.png', 'Im_RyanGosling.png', 'Im_GeorgeClooney.png', 'Im_RobertDowneyJr.png', 'Im_DanielRadcliffe.png', 'Im_RobertPattinson.png', 'Im_LeonardoDiCaprio.png', 'Im_MattDamon.png'],same,0,0.41671199999996134,10,92.85714285714286,
XABE0501,train,inv,30,pos30_id19_im4.bmp_pos30_id19_im8.bmp,['Im_PatrickDempsey.png', 'Im_DanielCraig.png', 'Im_JustinTimberlake.png', 'Im_RyanGosling.png', 'Im_GeorgeClooney.png', 'Im_RobertDowneyJr.png', 'Im_DanielRadcliffe.png', 'Im_RobertPattinson.png', 'Im_LeonardoDiCaprio.png', 'Im_MattDamon.png'],diff,0,0.4167065999999977,10,92.85714285714286,
XABE0501,train,neg,fs,negfs_id14_im18.bmp_negfs_id13_im10.bmp,['Im_PatrickDempsey.png', 'Im_DanielCraig.png', 'Im_JustinTimberlake.png', 'Im_RyanGosling.png', 'Im_GeorgeClooney.png', 'Im_RobertDowneyJr.png', 'Im_DanielRadcliffe.png', 'Im_RobertPattinson.png', 'Im_LeonardoDiCaprio.png', 'Im_MattDamon.png'],diff,1,0.4167141000000356,11,92.85714285714286,
XABE0501,train,neg,30,neg30_id18_im11.bmp_neg30_id18_im18.bmp,['Im_PatrickDempsey.png', 'Im_DanielCraig.png', 'Im_JustinTimberlake.png', 'Im_RyanGosling.png', 'Im_GeorgeClooney.png', 'Im_RobertDowneyJr.png', 'Im_DanielRadcliffe.png', 'Im_RobertPattinson.png', 'Im_LeonardoDiCaprio.png', 'Im_MattDamon.png'],same,1,0.46662609999998494,12,92.85714285714286,
XABE0501,train,neg,30,neg30_id7_im14.bmp_neg30_id7_im15.bmp,['Im_PatrickDempsey.png', 'Im_DanielCraig.png', 'Im_JustinTimberlake.png', 'Im_RyanGosling.png', 'Im_GeorgeClooney.png', 'Im_RobertDowneyJr.png', 'Im_DanielRadcliffe.png', 'Im_RobertPattinson.png', 'Im_LeonardoDiCaprio.png', 'Im_MattDamon.png'],same,1,0.4087872000000061,13,92.85714285714286,
XABE0501,train,neg,150,neg150_id10_im18.bmp_neg150_id10_im17.bmp,['Im_PatrickDempsey.png', 'Im_DanielCraig.png', 'Im_JustinTimberlake.png', 'Im_RyanGosling.png', 'Im_GeorgeClooney.png', 'Im_RobertDowneyJr.png', 'Im_DanielRadcliffe.png', 'Im_RobertPattinson.png', 'Im_LeonardoDiCaprio.png', 'Im_MattDamon.png'],same,1,0.4085371999999552,14,92.85714285714286,
XABE0501,train,neg,60,neg60_id10_im1.bmp_neg60_id10_im17.bmp,['Im_PatrickDempsey.png', 'Im_DanielCraig.png', 'Im_JustinTimberlake.png', 'Im_RyanGosling.png', 'Im_GeorgeClooney.png', 'Im_RobertDowneyJr.png', 'Im_DanielRadcliffe.png', 'Im_RobertPattinson.png', 'Im_LeonardoDiCaprio.png', 'Im_MattDamon.png'],same,1,0.4083365999999842,15,92.85714285714286,
XABE0501,train,neg,150,neg150_id14_im18.bmp_neg150_id14_im24.bmp,['Im_PatrickDempsey.png', 'Im_DanielCraig.png', 'Im_JustinTimberlake.png', 'Im_RyanGosling.png', 'Im_GeorgeClooney.png', 'Im_RobertDowneyJr.png', 'Im_DanielRadcliffe.png', 'Im_RobertPattinson.png', 'Im_LeonardoDiCaprio.png', 'Im_MattDamon.png'],same,1,0.41672810000000027,16,92.85714285714286,
XABE0501,train,neg,90,neg90_id4_im20.bmp_neg90_id4_im7.bmp,['Im_PatrickDempsey.png', 'Im_DanielCraig.png', 'Im_JustinTimberlake.png', 'Im_RyanGosling.png', 'Im_GeorgeClooney.png', 'Im_RobertDowneyJr.png', 'Im_DanielRadcliffe.png', 'Im_RobertPattinson.png', 'Im_LeonardoDiCaprio.png', 'Im_MattDamon.png'],same,1,0.40848719999985406,17,92.85714285714286,
XABE0501,train,neg,fs,negfs_id19_im27.bmp_negfs_id7_im15.bmp,['Im_PatrickDempsey.png', 'Im_DanielCraig.png', 'Im_JustinTimberlake.png', 'Im_RyanGosling.png', 'Im_GeorgeClooney.png', 'Im_RobertDowneyJr.png', 'Im_DanielRadcliffe.png', 'Im_RobertPattinson.png', 'Im_LeonardoDiCaprio.png', 'Im_MattDamon.png'],diff,1,0.49989770000001954,18,92.85714285714286,
XABE0501,train,neg,120,neg120_id13_im15.bmp_neg120_id13_im29.bmp,['Im_PatrickDempsey.png', 'Im_DanielCraig.png', 'Im_JustinTimberlake.png', 'Im_RyanGosling.png', 'Im_GeorgeClooney.png', 'Im_RobertDowneyJr.png', 'Im_DanielRadcliffe.png', 'Im_RobertPattinson.png', 'Im_LeonardoDiCaprio.png', 'Im_MattDamon.png'],same,1,0.4165613000000121,19,92.85714285714286,
XABE0501,train,neg,0,neg0_id14_im16.bmp_neg0_id5_im20.bmp,['Im_PatrickDempsey.png', 'Im_DanielCraig.png', 'Im_JustinTimberlake.png', 'Im_RyanGosling.png', 'Im_GeorgeClooney.png', 'Im_RobertDowneyJr.png', 'Im_DanielRadcliffe.png', 'Im_RobertPattinson.png', 'Im_LeonardoDiCaprio.png', 'Im_MattDamon.png'],same,0,0.4499564999998711,19,92.85714285714286,
XABE0501,train,neg,90,neg90_id13_im29.bmp_neg90_id20_im12.bmp,['Im_PatrickDempsey.png', 'Im_DanielCraig.png', 'Im_JustinTimberlake.png', 'Im_RyanGosling.png', 'Im_GeorgeClooney.png', 'Im_RobertDowneyJr.png', 'Im_DanielRadcliffe.png', 'Im_RobertPattinson.png', 'Im_LeonardoDiCaprio.png', 'Im_MattDamon.png'],diff,1,0.5668657999999596,20,92.85714285714286,
XABE0501,train,neg,120,neg120_id18_im19.bmp_neg120_id18_im18.bmp,['Im_PatrickDempsey.png', 'Im_DanielCraig.png', 'Im_JustinTimberlake.png', 'Im_RyanGosling.png', 'Im_GeorgeClooney.png', 'Im_RobertDowneyJr.png', 'Im_DanielRadcliffe.png', 'Im_RobertPattinson.png', 'Im_LeonardoDiCaprio.png', 'Im_MattDamon.png'],same,1,0.4166897999998582,21,92.85714285714286,
XABE0501,train,neg,0,neg0_id4_im15.bmp_neg0_id18_im11.bmp,['Im_PatrickDempsey.png', 'Im_DanielCraig.png', 'Im_JustinTimberlake.png', 'Im_RyanGosling.png', 'Im_GeorgeClooney.png', 'Im_RobertDowneyJr.png', 'Im_DanielRadcliffe.png', 'Im_RobertPattinson.png', 'Im_LeonardoDiCaprio.png', 'Im_MattDamon.png'],same,0,0.4748649000000569,21,92.85714285714286,
XABE0501,train,neg,60,neg60_id19_im27.bmp_neg60_id19_im8.bmp,['Im_PatrickDempsey.png', 'Im_DanielCraig.png', 'Im_JustinTimberlake.png', 'Im_RyanGosling.png', 'Im_GeorgeClooney.png', 'Im_RobertDowneyJr.png', 'Im_DanielRadcliffe.png', 'Im_RobertPattinson.png', 'Im_LeonardoDiCaprio.png', 'Im_MattDamon.png'],diff,0,0.6255257000000256,21,92.85714285714286,
XABE0501,train,pos,60,pos60_id17_im14.bmp_pos60_id13_im15.bmp,['Im_PatrickDempsey.png', 'Im_DanielCraig.png', 'Im_JustinTimberlake.png', 'Im_RyanGosling.png', 'Im_GeorgeClooney.png', 'Im_RobertDowneyJr.png', 'Im_DanielRadcliffe.png', 'Im_RobertPattinson.png', 'Im_LeonardoDiCaprio.png', 'Im_MattDamon.png'],diff,1,0.4085407000000032,22,92.85714285714286,
XABE0501,train,pos,0,pos0_id7_im14.bmp_pos0_id4_im20.bmp,['Im_PatrickDempsey.png', 'Im_DanielCraig.png', 'Im_JustinTimberlake.png', 'Im_RyanGosling.png', 'Im_GeorgeClooney.png', 'Im_RobertDowneyJr.png', 'Im_DanielRadcliffe.png', 'Im_RobertPattinson.png', 'Im_LeonardoDiCaprio.png', 'Im_MattDamon.png'],diff,1,0.4333713999999418,23,92.85714285714286,
XABE0501,train,pos,60,pos60_id10_im17.bmp_pos60_id20_im3.bmp,['Im_PatrickDempsey.png', 'Im_DanielCraig.png', 'Im_JustinTimberlake.png', 'Im_RyanGosling.png', 'Im_GeorgeClooney.png', 'Im_RobertDowneyJr.png', 'Im_DanielRadcliffe.png', 'Im_RobertPattinson.png', 'Im_LeonardoDiCaprio.png', 'Im_MattDamon.png'],diff,1,0.4168752000000495,24,92.85714285714286,
XABE0501,train,pos,fs,posfs_id4_im7.bmp_posfs_id4_im15.bmp,['Im_PatrickDempsey.png', 'Im_DanielCraig.png', 'Im_JustinTimberlake.png', 'Im_RyanGosling.png', 'Im_GeorgeClooney.png', 'Im_RobertDowneyJr.png', 'Im_DanielRadcliffe.png', 'Im_RobertPattinson.png', 'Im_LeonardoDiCaprio.png', 'Im_MattDamon.png'],same,1,0.4086044000000584,25,92.85714285714286,
XABE0501,train,pos,30,pos30_id5_im10.bmp_pos30_id14_im18.bmp,['Im_PatrickDempsey.png', 'Im_DanielCraig.png', 'Im_JustinTimberlake.png', 'Im_RyanGosling.png', 'Im_GeorgeClooney.png', 'Im_RobertDowneyJr.png', 'Im_DanielRadcliffe.png', 'Im_RobertPattinson.png', 'Im_LeonardoDiCaprio.png', 'Im_MattDamon.png'],diff,1,0.4001770999998371,26,92.85714285714286,
XABE0501,train,pos,fs,posfs_id5_im1.bmp_posfs_id10_im1.bmp,['Im_PatrickDempsey.png', 'Im_DanielCraig.png', 'Im_JustinTimberlake.png', 'Im_RyanGosling.png', 'Im_GeorgeClooney.png', 'Im_RobertDowneyJr.png', 'Im_DanielRadcliffe.png', 'Im_RobertPattinson.png', 'Im_LeonardoDiCaprio.png', 'Im_MattDamon.png'],diff,1,0.40851409999982025,27,92.85714285714286,
XABE0501,train,pos,0,pos0_id14_im16.bmp_pos0_id5_im20.bmp,['Im_PatrickDempsey.png', 'Im_DanielCraig.png', 'Im_JustinTimberlake.png', 'Im_RyanGosling.png', 'Im_GeorgeClooney.png', 'Im_RobertDowneyJr.png', 'Im_DanielRadcliffe.png', 'Im_RobertPattinson.png', 'Im_LeonardoDiCaprio.png', 'Im_MattDamon.png'],diff,1,0.6333910999999262,28,92.85714285714286,
XABE0501,train,pos,120,pos120_id19_im27.bmp_pos120_id19_im4.bmp,['Im_PatrickDempsey.png', 'Im_DanielCraig.png', 'Im_JustinTimberlake.png', 'Im_RyanGosling.png', 'Im_GeorgeClooney.png', 'Im_RobertDowneyJr.png', 'Im_DanielRadcliffe.png', 'Im_RobertPattinson.png', 'Im_LeonardoDiCaprio.png', 'Im_MattDamon.png'],same,1,0.4084732000001168,29,92.85714285714286,
XABE0501,train,pos,90,pos90_id13_im15.bmp_pos90_id13_im29.bmp,['Im_PatrickDempsey.png', 'Im_DanielCraig.png', 'Im_JustinTimberlake.png', 'Im_RyanGosling.png', 'Im_GeorgeClooney.png', 'Im_RobertDowneyJr.png', 'Im_DanielRadcliffe.png', 'Im_RobertPattinson.png', 'Im_LeonardoDiCaprio.png', 'Im_MattDamon.png'],same,1,0.41661610000005567,30,92.85714285714286,
XABE0501,train,pos,150,pos150_id17_im8.bmp_pos150_id10_im17.bmp,['Im_PatrickDempsey.png', 'Im_DanielCraig.png', 'Im_JustinTimberlake.png', 'Im_RyanGosling.png', 'Im_GeorgeClooney.png', 'Im_RobertDowneyJr.png', 'Im_DanielRadcliffe.png', 'Im_RobertPattinson.png', 'Im_LeonardoDiCaprio.png', 'Im_MattDamon.png'],diff,1,0.40839740000001257,31,92.85714285714286,
XABE0501,train,pos,90,pos90_id13_im15.bmp_pos90_id17_im14.bmp,['Im_PatrickDempsey.png', 'Im_DanielCraig.png', 'Im_JustinTimberlake.png', 'Im_RyanGosling.png', 'Im_GeorgeClooney.png', 'Im_RobertDowneyJr.png', 'Im_DanielRadcliffe.png', 'Im_RobertPattinson.png', 'Im_LeonardoDiCaprio.png', 'Im_MattDamon.png'],diff,1,0.4166912000000593,32,92.85714285714286,
XABE0501,train,pos,30,pos30_id10_im1.bmp_pos30_id10_im17.bmp,['Im_PatrickDempsey.png', 'Im_DanielCraig.png', 'Im_JustinTimberlake.png', 'Im_RyanGosling.png', 'Im_GeorgeClooney.png', 'Im_RobertDowneyJr.png', 'Im_DanielRadcliffe.png', 'Im_RobertPattinson.png', 'Im_LeonardoDiCaprio.png', 'Im_MattDamon.png'],same,1,0.46662240000000565,33,92.85714285714286,
XABE0501,train,pos,120,pos120_id5_im20.bmp_pos120_id14_im16.bmp,['Im_PatrickDempsey.png', 'Im_DanielCraig.png', 'Im_JustinTimberlake.png', 'Im_RyanGosling.png', 'Im_GeorgeClooney.png', 'Im_RobertDowneyJr.png', 'Im_DanielRadcliffe.png', 'Im_RobertPattinson.png', 'Im_LeonardoDiCaprio.png', 'Im_MattDamon.png'],diff,1,0.4085356000000502,34,92.85714285714286,
XABE0501,train,pos,150,pos150_id13_im10.bmp_pos150_id13_im29.bmp,['Im_PatrickDempsey.png', 'Im_DanielCraig.png', 'Im_JustinTimberlake.png', 'Im_RyanGosling.png', 'Im_GeorgeClooney.png', 'Im_RobertDowneyJr.png', 'Im_DanielRadcliffe.png', 'Im_RobertPattinson.png', 'Im_LeonardoDiCaprio.png', 'Im_MattDamon.png'],diff,0,0.41678030000002764,34,92.85714285714286,
XABE0501,0,inv,60,pos60_id18_im11.bmp_pos60_id18_im18.bmp,['Im_PatrickDempsey.png', 'Im_DanielCraig.png', 'Im_JustinTimberlake.png', 'Im_RyanGosling.png', 'Im_GeorgeClooney.png', 'Im_RobertDowneyJr.png', 'Im_DanielRadcliffe.png', 'Im_RobertPattinson.png', 'Im_LeonardoDiCaprio.png', 'Im_MattDamon.png'],diff,0,0.44178640000018277,0,0,
XABE0501,0,inv,90,pos90_id7_im26.bmp_pos90_id18_im18.bmp,['Im_PatrickDempsey.png', 'Im_DanielCraig.png', 'Im_JustinTimberlake.png', 'Im_RyanGosling.png', 'Im_GeorgeClooney.png', 'Im_RobertDowneyJr.png', 'Im_DanielRadcliffe.png', 'Im_RobertPattinson.png', 'Im_LeonardoDiCaprio.png', 'Im_MattDamon.png'],same,0,0.40855310000006284,0,0,
XABE0501,0,inv,fs,posfs_id19_im4.bmp_posfs_id5_im20.bmp,['Im_PatrickDempsey.png', 'Im_DanielCraig.png', 'Im_JustinTimberlake.png', 'Im_RyanGosling.png', 'Im_GeorgeClooney.png', 'Im_RobertDowneyJr.png', 'Im_DanielRadcliffe.png', 'Im_RobertPattinson.png', 'Im_LeonardoDiCaprio.png', 'Im_MattDamon.png'],diff,1,0.49177959999997256,1,0,
XABE0501,0,inv,60,pos60_id14_im18.bmp_pos60_id14_im24.bmp,['Im_PatrickDempsey.png', 'Im_DanielCraig.png', 'Im_JustinTimberlake.png', 'Im_RyanGosling.png', 'Im_GeorgeClooney.png', 'Im_RobertDowneyJr.png', 'Im_DanielRadcliffe.png', 'Im_RobertPattinson.png', 'Im_LeonardoDiCaprio.png', 'Im_MattDamon.png'],same,1,0.40846590000001015,2,0,
XABE0501,0,inv,120,pos120_id4_im7.bmp_pos120_id4_im15.bmp,['Im_PatrickDempsey.png', 'Im_DanielCraig.png', 'Im_JustinTimberlake.png', 'Im_RyanGosling.png', 'Im_GeorgeClooney.png', 'Im_RobertDowneyJr.png', 'Im_DanielRadcliffe.png', 'Im_RobertPattinson.png', 'Im_LeonardoDiCaprio.png', 'Im_MattDamon.png'],diff,0,0.4586645000001681,2,0,
XABE0501,0,inv,150,pos150_id19_im27.bmp_pos150_id14_im16.bmp,['Im_PatrickDempsey.png', 'Im_DanielCraig.png', 'Im_JustinTimberlake.png', 'Im_RyanGosling.png', 'Im_GeorgeClooney.png', 'Im_RobertDowneyJr.png', 'Im_DanielRadcliffe.png', 'Im_RobertPattinson.png', 'Im_LeonardoDiCaprio.png', 'Im_MattDamon.png'],same,0,0.5086856000000353,2,0,
XABE0501,0,inv,120,pos120_id18_im18.bmp_pos120_id18_im11.bmp,['Im_PatrickDempsey.png', 'Im_DanielCraig.png', 'Im_JustinTimberlake.png', 'Im_RyanGosling.png', 'Im_GeorgeClooney.png', 'Im_RobertDowneyJr.png', 'Im_DanielRadcliffe.png', 'Im_RobertPattinson.png', 'Im_LeonardoDiCaprio.png', 'Im_MattDamon.png'],diff,0,0.441978699999936,2,0,
XABE0501,0,inv,fs,posfs_id4_im20.bmp_posfs_id19_im8.bmp,['Im_PatrickDempsey.png', 'Im_DanielCraig.png', 'Im_JustinTimberlake.png', 'Im_RyanGosling.png', 'Im_GeorgeClooney.png', 'Im_RobertDowneyJr.png', 'Im_DanielRadcliffe.png', 'Im_RobertPattinson.png', 'Im_LeonardoDiCaprio.png', 'Im_MattDamon.png'],diff,1,0.4001358000000437,3,0,
XABE0501,0,inv,30,pos30_id7_im15.bmp_pos30_id7_im14.bmp,['Im_PatrickDempsey.png', 'Im_DanielCraig.png', 'Im_JustinTimberlake.png', 'Im_RyanGosling.png', 'Im_GeorgeClooney.png', 'Im_RobertDowneyJr.png', 'Im_DanielRadcliffe.png', 'Im_RobertPattinson.png', 'Im_LeonardoDiCaprio.png', 'Im_MattDamon.png'],diff,0,0.40822780000007697,3,0,
XABE0501,0,inv,0,pos0_id10_im18.bmp_pos0_id19_im8.bmp,['Im_PatrickDempsey.png', 'Im_DanielCraig.png', 'Im_JustinTimberlake.png', 'Im_RyanGosling.png', 'Im_GeorgeClooney.png', 'Im_RobertDowneyJr.png', 'Im_DanielRadcliffe.png', 'Im_RobertPattinson.png', 'Im_LeonardoDiCaprio.png', 'Im_MattDamon.png'],diff,1,0.40004869999984294,4,0,
XABE0501,0,inv,0,pos0_id18_im18.bmp_pos0_id18_im19.bmp,['Im_PatrickDempsey.png', 'Im_DanielCraig.png', 'Im_JustinTimberlake.png', 'Im_RyanGosling.png', 'Im_GeorgeClooney.png', 'Im_RobertDowneyJr.png', 'Im_DanielRadcliffe.png', 'Im_RobertPattinson.png', 'Im_LeonardoDiCaprio.png', 'Im_MattDamon.png'],diff,0,0.40009600000007595,4,0,
XABE0501,0,inv,150,pos150_id4_im15.bmp_pos150_id5_im1.bmp,['Im_PatrickDempsey.png', 'Im_DanielCraig.png', 'Im_JustinTimberlake.png', 'Im_RyanGosling.png', 'Im_GeorgeClooney.png', 'Im_RobertDowneyJr.png', 'Im_DanielRadcliffe.png', 'Im_RobertPattinson.png', 'Im_LeonardoDiCaprio.png', 'Im_MattDamon.png'],diff,1,0.4165798999999879,5,0,
XABE0501,0,inv,90,pos90_id5_im1.bmp_pos90_id4_im15.bmp,['Im_PatrickDempsey.png', 'Im_DanielCraig.png', 'Im_JustinTimberlake.png', 'Im_RyanGosling.png', 'Im_GeorgeClooney.png', 'Im_RobertDowneyJr.png', 'Im_DanielRadcliffe.png', 'Im_RobertPattinson.png', 'Im_LeonardoDiCaprio.png', 'Im_MattDamon.png'],diff,1,0.4002751000000444,6,0,
XABE0501,0,inv,30,pos30_id10_im17.bmp_pos30_id20_im3.bmp,['Im_PatrickDempsey.png', 'Im_DanielCraig.png', 'Im_JustinTimberlake.png', 'Im_RyanGosling.png', 'Im_GeorgeClooney.png', 'Im_RobertDowneyJr.png', 'Im_DanielRadcliffe.png', 'Im_RobertPattinson.png', 'Im_LeonardoDiCaprio.png', 'Im_MattDamon.png'],diff,1,0.5584553000001051,7,0,
XABE0501,1,pos,90,pos90_id4_im7.bmp_pos90_id4_im15.bmp,['Im_PatrickDempsey.png', 'Im_DanielCraig.png', 'Im_JustinTimberlake.png', 'Im_RyanGosling.png', 'Im_GeorgeClooney.png', 'Im_RobertDowneyJr.png', 'Im_DanielRadcliffe.png', 'Im_RobertPattinson.png', 'Im_LeonardoDiCaprio.png', 'Im_MattDamon.png'],same,1,0.4250687999999627,8,0,
XABE0501,1,pos,150,pos150_id18_im11.bmp_pos150_id4_im15.bmp,['Im_PatrickDempsey.png', 'Im_DanielCraig.png', 'Im_JustinTimberlake.png', 'Im_RyanGosling.png', 'Im_GeorgeClooney.png', 'Im_RobertDowneyJr.png', 'Im_DanielRadcliffe.png', 'Im_RobertPattinson.png', 'Im_LeonardoDiCaprio.png', 'Im_MattDamon.png'],same,0,0.4251151999999365,8,0,
XABE0501,1,pos,120,pos120_id14_im18.bmp_pos120_id14_im24.bmp,['Im_PatrickDempsey.png', 'Im_DanielCraig.png', 'Im_JustinTimberlake.png', 'Im_RyanGosling.png', 'Im_GeorgeClooney.png', 'Im_RobertDowneyJr.png', 'Im_DanielRadcliffe.png', 'Im_RobertPattinson.png', 'Im_LeonardoDiCaprio.png', 'Im_MattDamon.png'],same,1,0.42506269999989854,9,0,
XABE0501,1,pos,60,pos60_id7_im26.bmp_pos60_id7_im14.bmp,['Im_PatrickDempsey.png', 'Im_DanielCraig.png', 'Im_JustinTimberlake.png', 'Im_RyanGosling.png', 'Im_GeorgeClooney.png', 'Im_RobertDowneyJr.png', 'Im_DanielRadcliffe.png', 'Im_RobertPattinson.png', 'Im_LeonardoDiCaprio.png', 'Im_MattDamon.png'],diff,0,0.4167638999999781,9,0,
XABE0501,1,pos,150,pos150_id18_im18.bmp_pos150_id7_im15.bmp,['Im_PatrickDempsey.png', 'Im_DanielCraig.png', 'Im_JustinTimberlake.png', 'Im_RyanGosling.png', 'Im_GeorgeClooney.png', 'Im_RobertDowneyJr.png', 'Im_DanielRadcliffe.png', 'Im_RobertPattinson.png', 'Im_LeonardoDiCaprio.png', 'Im_MattDamon.png'],diff,1,0.4168256999998903,10,0,
XABE0501,1,pos,60,pos60_id17_im9.bmp_pos60_id17_im8.bmp,['Im_PatrickDempsey.png', 'Im_DanielCraig.png', 'Im_JustinTimberlake.png', 'Im_RyanGosling.png', 'Im_GeorgeClooney.png', 'Im_RobertDowneyJr.png', 'Im_DanielRadcliffe.png', 'Im_RobertPattinson.png', 'Im_LeonardoDiCaprio.png', 'Im_MattDamon.png'],diff,0,0.41665230000012343,10,0,
XABE0501,1,pos,fs,posfs_id5_im20.bmp_posfs_id5_im10.bmp,['Im_PatrickDempsey.png', 'Im_DanielCraig.png', 'Im_JustinTimberlake.png', 'Im_RyanGosling.png', 'Im_GeorgeClooney.png', 'Im_RobertDowneyJr.png', 'Im_DanielRadcliffe.png', 'Im_RobertPattinson.png', 'Im_LeonardoDiCaprio.png', 'Im_MattDamon.png'],same,1,0.41675400000008267,11,0,
XABE0501,1,pos,120,pos120_id19_im4.bmp_pos120_id19_im8.bmp,['Im_PatrickDempsey.png', 'Im_DanielCraig.png', 'Im_JustinTimberlake.png', 'Im_RyanGosling.png', 'Im_GeorgeClooney.png', 'Im_RobertDowneyJr.png', 'Im_DanielRadcliffe.png', 'Im_RobertPattinson.png', 'Im_LeonardoDiCaprio.png', 'Im_MattDamon.png'],diff,0,0.8502988000000187,11,0,
XABE0501,1,pos,fs,posfs_id20_im30.bmp_posfs_id20_im3.bmp,['Im_PatrickDempsey.png', 'Im_DanielCraig.png', 'Im_JustinTimberlake.png', 'Im_RyanGosling.png', 'Im_GeorgeClooney.png', 'Im_RobertDowneyJr.png', 'Im_DanielRadcliffe.png', 'Im_RobertPattinson.png', 'Im_LeonardoDiCaprio.png', 'Im_MattDamon.png'],diff,0,0.5499405999998999,11,0,
XABE0501,1,pos,90,pos90_id4_im20.bmp_pos90_id7_im14.bmp,['Im_PatrickDempsey.png', 'Im_DanielCraig.png', 'Im_JustinTimberlake.png', 'Im_RyanGosling.png', 'Im_GeorgeClooney.png', 'Im_RobertDowneyJr.png', 'Im_DanielRadcliffe.png', 'Im_RobertPattinson.png', 'Im_LeonardoDiCaprio.png', 'Im_MattDamon.png'],diff,1,0.42519930000003114,12,0,
XABE0501,1,pos,0,pos0_id20_im30.bmp_pos0_id7_im26.bmp,['Im_PatrickDempsey.png', 'Im_DanielCraig.png', 'Im_JustinTimberlake.png', 'Im_RyanGosling.png', 'Im_GeorgeClooney.png', 'Im_RobertDowneyJr.png', 'Im_DanielRadcliffe.png', 'Im_RobertPattinson.png', 'Im_LeonardoDiCaprio.png', 'Im_MattDamon.png'],diff,1,0.4919873000001189,13,0,
XABE0501,1,pos,30,pos30_id20_im12.bmp_pos30_id13_im29.bmp,['Im_PatrickDempsey.png', 'Im_DanielCraig.png', 'Im_JustinTimberlake.png', 'Im_RyanGosling.png', 'Im_GeorgeClooney.png', 'Im_RobertDowneyJr.png', 'Im_DanielRadcliffe.png', 'Im_RobertPattinson.png', 'Im_LeonardoDiCaprio.png', 'Im_MattDamon.png'],diff,1,0.41686520000007476,14,0,
XABE0501,1,pos,0,pos0_id13_im10.bmp_pos0_id14_im18.bmp,['Im_PatrickDempsey.png', 'Im_DanielCraig.png', 'Im_JustinTimberlake.png', 'Im_RyanGosling.png', 'Im_GeorgeClooney.png', 'Im_RobertDowneyJr.png', 'Im_DanielRadcliffe.png', 'Im_RobertPattinson.png', 'Im_LeonardoDiCaprio.png', 'Im_MattDamon.png'],diff,1,0.4165752000001248,15,0,
XABE0501,1,pos,30,pos30_id20_im12.bmp_pos30_id20_im30.bmp,['Im_PatrickDempsey.png', 'Im_DanielCraig.png', 'Im_JustinTimberlake.png', 'Im_RyanGosling.png', 'Im_GeorgeClooney.png', 'Im_RobertDowneyJr.png', 'Im_DanielRadcliffe.png', 'Im_RobertPattinson.png', 'Im_LeonardoDiCaprio.png', 'Im_MattDamon.png'],same,1,0.40841839999984586,16,0,
XABE0501,2,neg,90,neg90_id19_im27.bmp_neg90_id14_im16.bmp,['Im_PatrickDempsey.png', 'Im_DanielCraig.png', 'Im_JustinTimberlake.png', 'Im_RyanGosling.png', 'Im_GeorgeClooney.png', 'Im_RobertDowneyJr.png', 'Im_DanielRadcliffe.png', 'Im_RobertPattinson.png', 'Im_LeonardoDiCaprio.png', 'Im_MattDamon.png'],same,0,0.41679329999988113,16,0,
XABE0501,2,neg,0,neg0_id5_im1.bmp_neg0_id5_im10.bmp,['Im_PatrickDempsey.png', 'Im_DanielCraig.png', 'Im_JustinTimberlake.png', 'Im_RyanGosling.png', 'Im_GeorgeClooney.png', 'Im_RobertDowneyJr.png', 'Im_DanielRadcliffe.png', 'Im_RobertPattinson.png', 'Im_LeonardoDiCaprio.png', 'Im_MattDamon.png'],same,1,0.40835359999982757,17,0,
XABE0501,2,neg,120,neg120_id7_im26.bmp_neg120_id20_im30.bmp,['Im_PatrickDempsey.png', 'Im_DanielCraig.png', 'Im_JustinTimberlake.png', 'Im_RyanGosling.png', 'Im_GeorgeClooney.png', 'Im_RobertDowneyJr.png', 'Im_DanielRadcliffe.png', 'Im_RobertPattinson.png', 'Im_LeonardoDiCaprio.png', 'Im_MattDamon.png'],diff,1,0.5834073999999418,18,0,
XABE0501,2,neg,120,neg120_id5_im10.bmp_neg120_id14_im18.bmp,['Im_PatrickDempsey.png', 'Im_DanielCraig.png', 'Im_JustinTimberlake.png', 'Im_RyanGosling.png', 'Im_GeorgeClooney.png', 'Im_RobertDowneyJr.png', 'Im_DanielRadcliffe.png', 'Im_RobertPattinson.png', 'Im_LeonardoDiCaprio.png', 'Im_MattDamon.png'],diff,1,0.42502399999989393,19,0,
