Sujet,Trial,Condition,Filter,Imname,Actor0,Actor1,Actor2,Actor3,Actor4,Actor5,Actor6,Actor7,Actor8,Actor9,Answer,Accu,RT,Score,Scoreperc, 
XAFR1107,_,posfs_LeonardoDiCaprio_im15.bmp,LeonardoDiCaprio,RobertPattinson,RobertPattinson,DanielCraig,BradPitt,DanielRadcliffe,,,,,posfs_LeonardoDiCaprio_im15.bmp,2.742474200000288,
XAFR1107,_,posfs_RyanGosling_im3.bmp,RyanGosling,RobertPattinson,RobertPattinson,PatrickDempsey,DanielCraig,JustinTimberlake,,,,,posfs_RyanGosling_im3.bmp,4.069218799999362,
XAFR1107,_,posfs_MattDamon_im9.bmp,MattDamon,BradPitt,BradPitt,HughJackman,DanielCraig,LeonardoDiCaprio,,,,,4,3.7940387000016926,
XAFR1107,_,posfs_RobertDowneyJr_im4.bmp,RobertDowneyJr,RyanGosling,RyanGosling,BradPitt,HughJackman,ElijahWood,,,,,4,3.233364600000641,
XAFR1107,_,posfs_GeorgeClooney_im14.bmp,GeorgeClooney,KeanuReeves,KeanuReeves,LeonardoDiCaprio,PatrickDempsey,RobertPattinson,,,,,posfs_GeorgeClooney_im14.bmp,1.534433299999364,
XAFR1107,_,posfs_HughJackman_im13.bmp,HughJackman,BradPitt,BradPitt,PatrickDempsey,MattDamon,RobertPattinson,,,,,1,1.5914573000009113,
XAFR1107,_,posfs_BradPitt_im8.bmp,BradPitt,BenStiller,BenStiller,BenAffleck,OrlandoBloom,RobertPattinson,,,,,posfs_BradPitt_im8.bmp,1.3818284000008134,
XAFR1107,_,posfs_DanielRadcliffe_im10.bmp,DanielRadcliffe,LeonardoDiCaprio,LeonardoDiCaprio,KeanuReeves,ElijahWood,MattDamon,,,,,posfs_DanielRadcliffe_im10.bmp,2.301303899999766,
XAFR1107,_,posfs_RobertDowneyJr_im11.bmp,RobertDowneyJr,HughJackman,HughJackman,RyanGosling,JustinTimberlake,BenStiller,,,,,4,2.34325749999698,
XAFR1107,_,posfs_HughJackman_im20.bmp,HughJackman,JustinTimberlake,JustinTimberlake,RyanReynolds,DanielCraig,OrlandoBloom,,,,,4,0.32844219999969937,
XAFR1107,_,posfs_BenStiller_im2.bmp,BenStiller,RobertDowneyJr,RobertDowneyJr,GeorgeClooney,DanielCraig,RyanReynolds,,,,,4,1.712152200001583,
XAFR1107,_,posfs_LeonardoDiCaprio_im29.bmp,LeonardoDiCaprio,RobertDowneyJr,RobertDowneyJr,PatrickDempsey,OrlandoBloom,DanielCraig,,,,,posfs_LeonardoDiCaprio_im29.bmp,1.2432724999998754,
XAFR1107,_,posfs_HughJackman_im18.bmp,HughJackman,LeonardoDiCaprio,LeonardoDiCaprio,BradPitt,RyanGosling,DanielRadcliffe,,,,,4,6.072183099997346,
XAFR1107,_,posfs_RyanReynolds_im3.bmp,RyanReynolds,BenAffleck,BenAffleck,DanielCraig,MattDamon,OrlandoBloom,,,,,posfs_RyanReynolds_im3.bmp,1.809683600000426,
XAFR1107,_,posfs_PatrickDempsey_im14.bmp,PatrickDempsey,KeanuReeves,KeanuReeves,RobertDowneyJr,HughJackman,RyanReynolds,,,,,posfs_PatrickDempsey_im14.bmp,1.9756436000025133,
XAFR1107,_,posfs_JustinTimberlake_im17.bmp,JustinTimberlake,MattDamon,MattDamon,LeonardoDiCaprio,ElijahWood,GeorgeClooney,,,,,posfs_JustinTimberlake_im17.bmp,2.174460700000054,
XAFR1107,_,posfs_BenStiller_im3.bmp,BenStiller,ElijahWood,ElijahWood,JustinTimberlake,BradPitt,RobertDowneyJr,,,,,4,4.717742900000303,
XAFR1107,_,posfs_MattDamon_im24.bmp,MattDamon,RobertDowneyJr,RobertDowneyJr,BradPitt,HughJackman,RobertPattinson,,,,,4,1.2727841999985685,
XAFR1107,_,posfs_ElijahWood_im12.bmp,ElijahWood,DanielRadcliffe,DanielRadcliffe,RobertDowneyJr,GeorgeClooney,BenStiller,,,,,4,3.927362300000823,
XAFR1107,_,posfs_PatrickDempsey_im8.bmp,PatrickDempsey,BenStiller,BenStiller,MattDamon,BradPitt,RyanGosling,,,,,posfs_PatrickDempsey_im8.bmp,1.8772515999989992,
XAFR1107,_,posfs_GeorgeClooney_im26.bmp,GeorgeClooney,LeonardoDiCaprio,LeonardoDiCaprio,RobertPattinson,BenAffleck,ElijahWood,,,,,posfs_GeorgeClooney_im26.bmp,1.9763510000011593,
XAFR1107,_,posfs_BradPitt_im6.bmp,BradPitt,RyanGosling,RyanGosling,RobertDowneyJr,OrlandoBloom,HughJackman,,,,,posfs_BradPitt_im6.bmp,2.5833649999985937,
XAFR1107,_,posfs_OrlandoBloom_im30.bmp,OrlandoBloom,JustinTimberlake,JustinTimberlake,BradPitt,KeanuReeves,RyanGosling,,,,,posfs_OrlandoBloom_im30.bmp,3.2615093999993405,
XAFR1107,_,posfs_RyanGosling_im12.bmp,RyanGosling,PatrickDempsey,PatrickDempsey,RyanReynolds,BradPitt,DanielCraig,,,,,4,12.625294000001304,
XAFR1107,_,posfs_RyanGosling_im25.bmp,RyanGosling,DanielCraig,DanielCraig,KeanuReeves,BradPitt,MattDamon,,,,,posfs_RyanGosling_im25.bmp,2.6154358000021602,
XAFR1107,_,posfs_OrlandoBloom_im3.bmp,OrlandoBloom,RobertPattinson,RobertPattinson,RyanReynolds,RyanGosling,RobertDowneyJr,,,,,4,1.005314099998941,
XAFR1107,_,posfs_BenAffleck_im21.bmp,BenAffleck,RyanGosling,RyanGosling,GeorgeClooney,ElijahWood,BradPitt,,,,,posfs_BenAffleck_im21.bmp,2.0982373999977426,
XAFR1107,_,posfs_RobertDowneyJr_im18.bmp,RobertDowneyJr,MattDamon,MattDamon,BradPitt,GeorgeClooney,JustinTimberlake,,,,,4,2.974421999999322,
XAFR1107,_,posfs_DanielCraig_im20.bmp,DanielCraig,BenStiller,BenStiller,BradPitt,LeonardoDiCaprio,OrlandoBloom,,,,,posfs_DanielCraig_im20.bmp,2.1641511999987415,
XAFR1107,_,posfs_ElijahWood_im18.bmp,ElijahWood,PatrickDempsey,PatrickDempsey,JustinTimberlake,RobertPattinson,RobertDowneyJr,,,,,4,1.7552271999993536,
XAFR1107,_,posfs_MattDamon_im18.bmp,MattDamon,DanielCraig,DanielCraig,PatrickDempsey,DanielRadcliffe,ElijahWood,,,,,4,4.025722099999257,
XAFR1107,_,posfs_RyanGosling_im30.bmp,RyanGosling,RyanReynolds,RyanReynolds,DanielCraig,PatrickDempsey,RobertPattinson,,,,,posfs_RyanGosling_im30.bmp,4.6242246000001614,
XAFR1107,_,posfs_GeorgeClooney_im23.bmp,GeorgeClooney,BenAffleck,BenAffleck,MattDamon,OrlandoBloom,KeanuReeves,,,,,posfs_GeorgeClooney_im23.bmp,1.709304500000144,
XAFR1107,_,posfs_ElijahWood_im23.bmp,ElijahWood,BenAffleck,BenAffleck,RyanGosling,BenStiller,RobertDowneyJr,,,,,4,1.335415000001376,
XAFR1107,_,posfs_RobertPattinson_im30.bmp,RobertPattinson,DanielRadcliffe,DanielRadcliffe,DanielCraig,BenAffleck,JustinTimberlake,,,,,posfs_RobertPattinson_im30.bmp,1.5522911000007298,
XAFR1107,_,posfs_BradPitt_im17.bmp,BradPitt,PatrickDempsey,PatrickDempsey,LeonardoDiCaprio,JustinTimberlake,HughJackman,,,,,posfs_BradPitt_im17.bmp,2.673719999998866,
XAFR1107,_,posfs_RobertPattinson_im8.bmp,RobertPattinson,DanielRadcliffe,DanielRadcliffe,OrlandoBloom,MattDamon,RyanGosling,,,,,posfs_RobertPattinson_im8.bmp,4.170894599999883,
XAFR1107,_,posfs_BenAffleck_im24.bmp,BenAffleck,OrlandoBloom,OrlandoBloom,DanielRadcliffe,MattDamon,GeorgeClooney,,,,,posfs_BenAffleck_im24.bmp,2.1216138000017963,
XAFR1107,_,posfs_JustinTimberlake_im18.bmp,JustinTimberlake,ElijahWood,ElijahWood,RyanGosling,DanielRadcliffe,LeonardoDiCaprio,,,,,posfs_JustinTimberlake_im18.bmp,1.131086299999879,
XAFR1107,_,posfs_JustinTimberlake_im4.bmp,JustinTimberlake,BenStiller,BenStiller,RobertDowneyJr,OrlandoBloom,PatrickDempsey,,,,,posfs_JustinTimberlake_im4.bmp,1.2279030999998213,
XAFR1107,_,posfs_BradPitt_im14.bmp,BradPitt,MattDamon,MattDamon,DanielCraig,OrlandoBloom,LeonardoDiCaprio,,,,,posfs_BradPitt_im14.bmp,1.2328492000015103,
XAFR1107,_,posfs_RobertPattinson_im4.bmp,RobertPattinson,DanielRadcliffe,DanielRadcliffe,RyanGosling,MattDamon,ElijahWood,,,,,posfs_RobertPattinson_im4.bmp,1.856233099999372,
XAFR1107,_,posfs_OrlandoBloom_im2.bmp,OrlandoBloom,BenAffleck,BenAffleck,RyanGosling,MattDamon,RobertDowneyJr,,,,,4,1.4996615999989444,
XAFR1107,_,posfs_PatrickDempsey_im16.bmp,PatrickDempsey,BradPitt,BradPitt,DanielCraig,DanielRadcliffe,LeonardoDiCaprio,,,,,posfs_PatrickDempsey_im16.bmp,1.717304099998728,
XAFR1107,_,posfs_DanielRadcliffe_im8.bmp,DanielRadcliffe,MattDamon,MattDamon,PatrickDempsey,RyanReynolds,RobertDowneyJr,,,,,posfs_DanielRadcliffe_im8.bmp,1.7356385999992199,
XAFR1107,_,posfs_LeonardoDiCaprio_im24.bmp,LeonardoDiCaprio,DanielCraig,DanielCraig,BradPitt,PatrickDempsey,RyanGosling,,,,,posfs_LeonardoDiCaprio_im24.bmp,1.815116499998112,
XAFR1107,_,posfs_LeonardoDiCaprio_im10.bmp,LeonardoDiCaprio,BenStiller,BenStiller,RyanGosling,PatrickDempsey,RobertPattinson,,,,,posfs_LeonardoDiCaprio_im10.bmp,0.9895739999992657,
XAFR1107,_,posfs_DanielCraig_im7.bmp,DanielCraig,BenAffleck,BenAffleck,KeanuReeves,PatrickDempsey,DanielRadcliffe,,,,,posfs_DanielCraig_im7.bmp,2.132827299999917,
XAFR1107,_,posfs_RyanReynolds_im17.bmp,RyanReynolds,PatrickDempsey,PatrickDempsey,ElijahWood,BenStiller,BradPitt,,,,,posfs_RyanReynolds_im17.bmp,1.8788812999991933,
XAFR1107,_,posfs_OrlandoBloom_im19.bmp,OrlandoBloom,ElijahWood,ElijahWood,DanielCraig,PatrickDempsey,LeonardoDiCaprio,,,,,4,1.8416441999979725,
XAFR1107,_,posfs_KeanuReeves_im1.bmp,KeanuReeves,LeonardoDiCaprio,LeonardoDiCaprio,BradPitt,JustinTimberlake,RobertPattinson,,,,,posfs_KeanuReeves_im1.bmp,4.621789099997841,
XAFR1107,_,posfs_KeanuReeves_im10.bmp,KeanuReeves,MattDamon,MattDamon,OrlandoBloom,PatrickDempsey,LeonardoDiCaprio,,,,,4,3.7949800999995205,
XAFR1107,_,posfs_BenStiller_im7.bmp,BenStiller,LeonardoDiCaprio,LeonardoDiCaprio,RyanGosling,DanielCraig,PatrickDempsey,,,,,4,4.288142699999298,
XAFR1107,_,posfs_DanielCraig_im15.bmp,DanielCraig,BenAffleck,BenAffleck,MattDamon,BenStiller,HughJackman,,,,,posfs_DanielCraig_im15.bmp,1.619845000001078,
XAFR1107,_,posfs_BenStiller_im16.bmp,BenStiller,KeanuReeves,KeanuReeves,MattDamon,JustinTimberlake,BenAffleck,,,,,4,2.2411744999990333,
XAFR1107,_,posfs_BenAffleck_im4.bmp,BenAffleck,BenStiller,BenStiller,KeanuReeves,ElijahWood,PatrickDempsey,,,,,4,0.4378184000015608,
XAFR1107,_,posfs_DanielRadcliffe_im20.bmp,DanielRadcliffe,GeorgeClooney,GeorgeClooney,ElijahWood,RobertPattinson,KeanuReeves,,,,,posfs_DanielRadcliffe_im20.bmp,2.651178100000834,
XAFR1107,_,posfs_KeanuReeves_im2.bmp,KeanuReeves,HughJackman,HughJackman,GeorgeClooney,RobertPattinson,BenStiller,,,,,4,0.9028217999984918,
XAFR1107,_,posfs_MattDamon_im16.bmp,MattDamon,LeonardoDiCaprio,LeonardoDiCaprio,RyanGosling,KeanuReeves,BenStiller,,,,,4,1.5937546000022849,
XAFR1107,_,posfs_PatrickDempsey_im9.bmp,PatrickDempsey,HughJackman,HughJackman,RobertDowneyJr,KeanuReeves,BenAffleck,,,,,posfs_PatrickDempsey_im9.bmp,1.2336896000015258,
XAFR1107,_,posfs_GeorgeClooney_im15.bmp,GeorgeClooney,JustinTimberlake,JustinTimberlake,DanielRadcliffe,DanielCraig,BenAffleck,,,,,posfs_GeorgeClooney_im15.bmp,1.662089699999342,
XAFR1107,_,posfs_RobertPattinson_im27.bmp,RobertPattinson,RyanReynolds,RyanReynolds,OrlandoBloom,MattDamon,KeanuReeves,,,,,posfs_RobertPattinson_im27.bmp,2.2505673000014212,
XAFR1107,_,posfs_KeanuReeves_im8.bmp,KeanuReeves,BenAffleck,BenAffleck,LeonardoDiCaprio,RyanGosling,GeorgeClooney,,,,,posfs_KeanuReeves_im8.bmp,2.6631053000019165,
XAFR1107,_,posfs_DanielRadcliffe_im1.bmp,DanielRadcliffe,BradPitt,BradPitt,LeonardoDiCaprio,BenStiller,RobertPattinson,,,,,posfs_DanielRadcliffe_im1.bmp,0.819295699999202,
XAFR1107,_,posfs_JustinTimberlake_im1.bmp,JustinTimberlake,BenAffleck,BenAffleck,ElijahWood,PatrickDempsey,HughJackman,,,,,posfs_JustinTimberlake_im1.bmp,0.8090978999971412,
XAFR1107,_,posfs_RyanReynolds_im16.bmp,RyanReynolds,OrlandoBloom,OrlandoBloom,RobertPattinson,RyanGosling,LeonardoDiCaprio,,,,,posfs_RyanReynolds_im16.bmp,3.911096700001508,
XAFR1107,_,posfs_DanielCraig_im8.bmp,DanielCraig,RobertPattinson,RobertPattinson,BenAffleck,BenStiller,LeonardoDiCaprio,,,,,posfs_DanielCraig_im8.bmp,3.288078099998529,
XAFR1107,_,posfs_RobertDowneyJr_im19.bmp,RobertDowneyJr,DanielRadcliffe,DanielRadcliffe,DanielCraig,PatrickDempsey,BenStiller,,,,,4,2.090931399998226,
XAFR1107,_,posfs_HughJackman_im21.bmp,HughJackman,OrlandoBloom,OrlandoBloom,GeorgeClooney,RyanGosling,BradPitt,,,,,4,0.3007723000009719,
XAFR1107,_,posfs_ElijahWood_im19.bmp,ElijahWood,PatrickDempsey,PatrickDempsey,RyanReynolds,BenAffleck,OrlandoBloom,,,,,posfs_ElijahWood_im19.bmp,2.622877600002539,
XAFR1107,_,posfs_RyanReynolds_im22.bmp,RyanReynolds,JustinTimberlake,JustinTimberlake,BradPitt,KeanuReeves,LeonardoDiCaprio,,,,,posfs_RyanReynolds_im22.bmp,2.067871600000217,
XAFR1107,_,posfs_BenAffleck_im8.bmp,BenAffleck,OrlandoBloom,OrlandoBloom,RobertPattinson,RyanReynolds,MattDamon,,,,,4,1.9685452999983681,
XAFR1107,train,pos,fs,posfs_id20_im30.bmp_posfs_id20_im12.bmp,['Im_DanielRadcliffe.png', 'Im_GeorgeClooney.png', 'Im_PatrickDempsey.png', 'Im_RyanGosling.png', 'Im_RyanReynolds.png', 'Im_DanielCraig.png', 'Im_RobertPattinson.png', 'Im_LeonardoDiCaprio.png', 'Im_JustinTimberlake.png', 'Im_BradPitt.png'],diff,0,1.4167650999988837,0,0,
XAFR1107,train,pos,fs,posfs_id19_im4.bmp_posfs_id19_im8.bmp,['Im_DanielRadcliffe.png', 'Im_GeorgeClooney.png', 'Im_PatrickDempsey.png', 'Im_RyanGosling.png', 'Im_RyanReynolds.png', 'Im_DanielCraig.png', 'Im_RobertPattinson.png', 'Im_LeonardoDiCaprio.png', 'Im_JustinTimberlake.png', 'Im_BradPitt.png'],same,1,0.8582978999984334,1,0,
XAFR1107,train,pos,fs,posfs_id17_im9.bmp_posfs_id20_im30.bmp,['Im_DanielRadcliffe.png', 'Im_GeorgeClooney.png', 'Im_PatrickDempsey.png', 'Im_RyanGosling.png', 'Im_RyanReynolds.png', 'Im_DanielCraig.png', 'Im_RobertPattinson.png', 'Im_LeonardoDiCaprio.png', 'Im_JustinTimberlake.png', 'Im_BradPitt.png'],diff,1,1.1832681000014418,2,0,
XAFR1107,train,pos,fs,posfs_id21_im17.bmp_posfs_id5_im20.bmp,['Im_DanielRadcliffe.png', 'Im_GeorgeClooney.png', 'Im_PatrickDempsey.png', 'Im_RyanGosling.png', 'Im_RyanReynolds.png', 'Im_DanielCraig.png', 'Im_RobertPattinson.png', 'Im_LeonardoDiCaprio.png', 'Im_JustinTimberlake.png', 'Im_BradPitt.png'],diff,1,1.5418495999983861,3,0,
XAFR1107,train,pos,fs,posfs_id17_im9.bmp_posfs_id17_im14.bmp,['Im_DanielRadcliffe.png', 'Im_GeorgeClooney.png', 'Im_PatrickDempsey.png', 'Im_RyanGosling.png', 'Im_RyanReynolds.png', 'Im_DanielCraig.png', 'Im_RobertPattinson.png', 'Im_LeonardoDiCaprio.png', 'Im_JustinTimberlake.png', 'Im_BradPitt.png'],same,1,1.2416081000010308,4,0,
XAFR1107,train,pos,fs,posfs_id20_im3.bmp_posfs_id7_im26.bmp,['Im_DanielRadcliffe.png', 'Im_GeorgeClooney.png', 'Im_PatrickDempsey.png', 'Im_RyanGosling.png', 'Im_RyanReynolds.png', 'Im_DanielCraig.png', 'Im_RobertPattinson.png', 'Im_LeonardoDiCaprio.png', 'Im_JustinTimberlake.png', 'Im_BradPitt.png'],diff,1,0.9668001000027289,5,0,
XAFR1107,train,pos,fs,posfs_id4_im15.bmp_posfs_id5_im1.bmp,['Im_DanielRadcliffe.png', 'Im_GeorgeClooney.png', 'Im_PatrickDempsey.png', 'Im_RyanGosling.png', 'Im_RyanReynolds.png', 'Im_DanielCraig.png', 'Im_RobertPattinson.png', 'Im_LeonardoDiCaprio.png', 'Im_JustinTimberlake.png', 'Im_BradPitt.png'],diff,1,0.7999764000014693,6,0,
XAFR1107,train,pos,fs,posfs_id7_im14.bmp_posfs_id7_im26.bmp,['Im_DanielRadcliffe.png', 'Im_GeorgeClooney.png', 'Im_PatrickDempsey.png', 'Im_RyanGosling.png', 'Im_RyanReynolds.png', 'Im_DanielCraig.png', 'Im_RobertPattinson.png', 'Im_LeonardoDiCaprio.png', 'Im_JustinTimberlake.png', 'Im_BradPitt.png'],same,1,0.974981299998035,7,0,
XAFR1107,train,pos,fs,posfs_id3_im6.bmp_posfs_id19_im8.bmp,['Im_DanielRadcliffe.png', 'Im_GeorgeClooney.png', 'Im_PatrickDempsey.png', 'Im_RyanGosling.png', 'Im_RyanReynolds.png', 'Im_DanielCraig.png', 'Im_RobertPattinson.png', 'Im_LeonardoDiCaprio.png', 'Im_JustinTimberlake.png', 'Im_BradPitt.png'],diff,1,0.8168671000021277,8,0,
XAFR1107,train,pos,fs,posfs_id5_im10.bmp_posfs_id5_im20.bmp,['Im_DanielRadcliffe.png', 'Im_GeorgeClooney.png', 'Im_PatrickDempsey.png', 'Im_RyanGosling.png', 'Im_RyanReynolds.png', 'Im_DanielCraig.png', 'Im_RobertPattinson.png', 'Im_LeonardoDiCaprio.png', 'Im_JustinTimberlake.png', 'Im_BradPitt.png'],same,1,0.8085172999999486,9,0,
XAFR1107,train,pos,fs,posfs_id4_im20.bmp_posfs_id4_im15.bmp,['Im_DanielRadcliffe.png', 'Im_GeorgeClooney.png', 'Im_PatrickDempsey.png', 'Im_RyanGosling.png', 'Im_RyanReynolds.png', 'Im_DanielCraig.png', 'Im_RobertPattinson.png', 'Im_LeonardoDiCaprio.png', 'Im_JustinTimberlake.png', 'Im_BradPitt.png'],same,1,0.7918709999976272,10,0,
XAFR1107,train,pos,fs,posfs_id5_im10.bmp_posfs_id21_im17.bmp,['Im_DanielRadcliffe.png', 'Im_GeorgeClooney.png', 'Im_PatrickDempsey.png', 'Im_RyanGosling.png', 'Im_RyanReynolds.png', 'Im_DanielCraig.png', 'Im_RobertPattinson.png', 'Im_LeonardoDiCaprio.png', 'Im_JustinTimberlake.png', 'Im_BradPitt.png'],diff,1,0.5581586999978754,11,0,
XAFR1107,train,pos,fs,posfs_id10_im18.bmp_posfs_id10_im17.bmp,['Im_DanielRadcliffe.png', 'Im_GeorgeClooney.png', 'Im_PatrickDempsey.png', 'Im_RyanGosling.png', 'Im_RyanReynolds.png', 'Im_DanielCraig.png', 'Im_RobertPattinson.png', 'Im_LeonardoDiCaprio.png', 'Im_JustinTimberlake.png', 'Im_BradPitt.png'],same,1,0.9254146999992372,12,0,
XAFR1107,train,pos,fs,posfs_id7_im15.bmp_posfs_id21_im16.bmp,['Im_DanielRadcliffe.png', 'Im_GeorgeClooney.png', 'Im_PatrickDempsey.png', 'Im_RyanGosling.png', 'Im_RyanReynolds.png', 'Im_DanielCraig.png', 'Im_RobertPattinson.png', 'Im_LeonardoDiCaprio.png', 'Im_JustinTimberlake.png', 'Im_BradPitt.png'],diff,1,0.7418545999971684,13,0,
XAFR1107,train,pos,fs,posfs_id3_im17.bmp_posfs_id13_im29.bmp,['Im_DanielRadcliffe.png', 'Im_GeorgeClooney.png', 'Im_PatrickDempsey.png', 'Im_RyanGosling.png', 'Im_RyanReynolds.png', 'Im_DanielCraig.png', 'Im_RobertPattinson.png', 'Im_LeonardoDiCaprio.png', 'Im_JustinTimberlake.png', 'Im_BradPitt.png'],diff,1,0.7332863000010548,14,0,
XAFR1107,train,pos,fs,posfs_id21_im16.bmp_posfs_id21_im17.bmp,['Im_DanielRadcliffe.png', 'Im_GeorgeClooney.png', 'Im_PatrickDempsey.png', 'Im_RyanGosling.png', 'Im_RyanReynolds.png', 'Im_DanielCraig.png', 'Im_RobertPattinson.png', 'Im_LeonardoDiCaprio.png', 'Im_JustinTimberlake.png', 'Im_BradPitt.png'],same,1,1.2333207999981823,15,0,
XAFR1107,train,pos,fs,posfs_id21_im16.bmp_posfs_id21_im22.bmp,['Im_DanielRadcliffe.png', 'Im_GeorgeClooney.png', 'Im_PatrickDempsey.png', 'Im_RyanGosling.png', 'Im_RyanReynolds.png', 'Im_DanielCraig.png', 'Im_RobertPattinson.png', 'Im_LeonardoDiCaprio.png', 'Im_JustinTimberlake.png', 'Im_BradPitt.png'],diff,0,1.2665190000006987,15,0,
XAFR1107,train,pos,fs,posfs_id7_im14.bmp_posfs_id4_im20.bmp,['Im_DanielRadcliffe.png', 'Im_GeorgeClooney.png', 'Im_PatrickDempsey.png', 'Im_RyanGosling.png', 'Im_RyanReynolds.png', 'Im_DanielCraig.png', 'Im_RobertPattinson.png', 'Im_LeonardoDiCaprio.png', 'Im_JustinTimberlake.png', 'Im_BradPitt.png'],diff,1,0.5917971000017133,16,0,
XAFR1107,train,pos,fs,posfs_id7_im14.bmp_posfs_id7_im15.bmp,['Im_DanielRadcliffe.png', 'Im_GeorgeClooney.png', 'Im_PatrickDempsey.png', 'Im_RyanGosling.png', 'Im_RyanReynolds.png', 'Im_DanielCraig.png', 'Im_RobertPattinson.png', 'Im_LeonardoDiCaprio.png', 'Im_JustinTimberlake.png', 'Im_BradPitt.png'],same,1,1.09171570000035,17,0,
XAFR1107,train,pos,fs,posfs_id19_im27.bmp_posfs_id13_im15.bmp,['Im_DanielRadcliffe.png', 'Im_GeorgeClooney.png', 'Im_PatrickDempsey.png', 'Im_RyanGosling.png', 'Im_RyanReynolds.png', 'Im_DanielCraig.png', 'Im_RobertPattinson.png', 'Im_LeonardoDiCaprio.png', 'Im_JustinTimberlake.png', 'Im_BradPitt.png'],diff,1,1.116599099997984,18,0,
XAFR1107,train,inv,fs,posfs_id19_im27.bmp_posfs_id19_im8.bmp,['Im_DanielRadcliffe.png', 'Im_GeorgeClooney.png', 'Im_PatrickDempsey.png', 'Im_RyanGosling.png', 'Im_RyanReynolds.png', 'Im_DanielCraig.png', 'Im_RobertPattinson.png', 'Im_LeonardoDiCaprio.png', 'Im_JustinTimberlake.png', 'Im_BradPitt.png'],diff,0,1.1833901999998488,0,0,
XAFR1107,train,pos,fs,posfs_id21_im22.bmp_posfs_id21_im16.bmp,['Im_DanielRadcliffe.png', 'Im_GeorgeClooney.png', 'Im_PatrickDempsey.png', 'Im_RyanGosling.png', 'Im_RyanReynolds.png', 'Im_DanielCraig.png', 'Im_RobertPattinson.png', 'Im_LeonardoDiCaprio.png', 'Im_JustinTimberlake.png', 'Im_BradPitt.png'],same,1,0.817029800000455,1,0,
XAFR1107,train,pos,fs,posfs_id10_im17.bmp_posfs_id10_im1.bmp,['Im_DanielRadcliffe.png', 'Im_GeorgeClooney.png', 'Im_PatrickDempsey.png', 'Im_RyanGosling.png', 'Im_RyanReynolds.png', 'Im_DanielCraig.png', 'Im_RobertPattinson.png', 'Im_LeonardoDiCaprio.png', 'Im_JustinTimberlake.png', 'Im_BradPitt.png'],same,1,1.5420822000014596,2,0,
XAFR1107,train,inv,fs,posfs_id13_im15.bmp_posfs_id13_im29.bmp,['Im_DanielRadcliffe.png', 'Im_GeorgeClooney.png', 'Im_PatrickDempsey.png', 'Im_RyanGosling.png', 'Im_RyanReynolds.png', 'Im_DanielCraig.png', 'Im_RobertPattinson.png', 'Im_LeonardoDiCaprio.png', 'Im_JustinTimberlake.png', 'Im_BradPitt.png'],same,1,0.5002420000018901,3,0,
XAFR1107,train,pos,fs,posfs_id13_im29.bmp_posfs_id13_im10.bmp,['Im_DanielRadcliffe.png', 'Im_GeorgeClooney.png', 'Im_PatrickDempsey.png', 'Im_RyanGosling.png', 'Im_RyanReynolds.png', 'Im_DanielCraig.png', 'Im_RobertPattinson.png', 'Im_LeonardoDiCaprio.png', 'Im_JustinTimberlake.png', 'Im_BradPitt.png'],same,1,0.4586429999981192,4,0,
XAFR1107,train,neg,fs,negfs_id13_im29.bmp_negfs_id13_im10.bmp,['Im_DanielRadcliffe.png', 'Im_GeorgeClooney.png', 'Im_PatrickDempsey.png', 'Im_RyanGosling.png', 'Im_RyanReynolds.png', 'Im_DanielCraig.png', 'Im_RobertPattinson.png', 'Im_LeonardoDiCaprio.png', 'Im_JustinTimberlake.png', 'Im_BradPitt.png'],same,1,0.4167090000009921,5,0,
XAFR1107,train,pos,fs,posfs_id10_im17.bmp_posfs_id19_im4.bmp,['Im_DanielRadcliffe.png', 'Im_GeorgeClooney.png', 'Im_PatrickDempsey.png', 'Im_RyanGosling.png', 'Im_RyanReynolds.png', 'Im_DanielCraig.png', 'Im_RobertPattinson.png', 'Im_LeonardoDiCaprio.png', 'Im_JustinTimberlake.png', 'Im_BradPitt.png'],diff,1,0.43316439999762224,6,0,
XAFR1107,train,pos,fs,posfs_id10_im18.bmp_posfs_id13_im29.bmp,['Im_DanielRadcliffe.png', 'Im_GeorgeClooney.png', 'Im_PatrickDempsey.png', 'Im_RyanGosling.png', 'Im_RyanReynolds.png', 'Im_DanielCraig.png', 'Im_RobertPattinson.png', 'Im_LeonardoDiCaprio.png', 'Im_JustinTimberlake.png', 'Im_BradPitt.png'],same,0,0.42502430000240565,6,0,
XAFR1107,train,inv,fs,posfs_id19_im4.bmp_posfs_id10_im17.bmp,['Im_DanielRadcliffe.png', 'Im_GeorgeClooney.png', 'Im_PatrickDempsey.png', 'Im_RyanGosling.png', 'Im_RyanReynolds.png', 'Im_DanielCraig.png', 'Im_RobertPattinson.png', 'Im_LeonardoDiCaprio.png', 'Im_JustinTimberlake.png', 'Im_BradPitt.png'],diff,1,0.6003173000026436,7,0,
XAFR1107,train,neg,fs,negfs_id5_im10.bmp_negfs_id17_im8.bmp,['Im_DanielRadcliffe.png', 'Im_GeorgeClooney.png', 'Im_PatrickDempsey.png', 'Im_RyanGosling.png', 'Im_RyanReynolds.png', 'Im_DanielCraig.png', 'Im_RobertPattinson.png', 'Im_LeonardoDiCaprio.png', 'Im_JustinTimberlake.png', 'Im_BradPitt.png'],diff,1,0.8003194000011717,8,0,
XAFR1107,train,inv,fs,posfs_id5_im20.bmp_posfs_id17_im14.bmp,['Im_DanielRadcliffe.png', 'Im_GeorgeClooney.png', 'Im_PatrickDempsey.png', 'Im_RyanGosling.png', 'Im_RyanReynolds.png', 'Im_DanielCraig.png', 'Im_RobertPattinson.png', 'Im_LeonardoDiCaprio.png', 'Im_JustinTimberlake.png', 'Im_BradPitt.png'],same,0,0.4249978999978339,8,0,
XAFR1107,train,pos,fs,posfs_id13_im10.bmp_posfs_id17_im8.bmp,['Im_DanielRadcliffe.png', 'Im_GeorgeClooney.png', 'Im_PatrickDempsey.png', 'Im_RyanGosling.png', 'Im_RyanReynolds.png', 'Im_DanielCraig.png', 'Im_RobertPattinson.png', 'Im_LeonardoDiCaprio.png', 'Im_JustinTimberlake.png', 'Im_BradPitt.png'],diff,1,0.40825589999803924,9,0,
XAFR1107,train,inv,fs,posfs_id17_im8.bmp_posfs_id17_im14.bmp,['Im_DanielRadcliffe.png', 'Im_GeorgeClooney.png', 'Im_PatrickDempsey.png', 'Im_RyanGosling.png', 'Im_RyanReynolds.png', 'Im_DanielCraig.png', 'Im_RobertPattinson.png', 'Im_LeonardoDiCaprio.png', 'Im_JustinTimberlake.png', 'Im_BradPitt.png'],diff,0,0.41693300000042655,9,0,
XAFR1107,train,inv,fs,posfs_id4_im15.bmp_posfs_id5_im1.bmp,['Im_DanielRadcliffe.png', 'Im_GeorgeClooney.png', 'Im_PatrickDempsey.png', 'Im_RyanGosling.png', 'Im_RyanReynolds.png', 'Im_DanielCraig.png', 'Im_RobertPattinson.png', 'Im_LeonardoDiCaprio.png', 'Im_JustinTimberlake.png', 'Im_BradPitt.png'],diff,1,0.4165818000001309,10,0,
XAFR1107,train,pos,fs,posfs_id19_im4.bmp_posfs_id19_im27.bmp,['Im_DanielRadcliffe.png', 'Im_GeorgeClooney.png', 'Im_PatrickDempsey.png', 'Im_RyanGosling.png', 'Im_RyanReynolds.png', 'Im_DanielCraig.png', 'Im_RobertPattinson.png', 'Im_LeonardoDiCaprio.png', 'Im_JustinTimberlake.png', 'Im_BradPitt.png'],same,1,0.42522139999709907,11,0,
XAFR1107,train,neg,fs,negfs_id4_im20.bmp_negfs_id4_im7.bmp,['Im_DanielRadcliffe.png', 'Im_GeorgeClooney.png', 'Im_PatrickDempsey.png', 'Im_RyanGosling.png', 'Im_RyanReynolds.png', 'Im_DanielCraig.png', 'Im_RobertPattinson.png', 'Im_LeonardoDiCaprio.png', 'Im_JustinTimberlake.png', 'Im_BradPitt.png'],same,1,0.4333933000016259,12,0,
XAFR1107,train,neg,fs,negfs_id20_im30.bmp_negfs_id13_im10.bmp,['Im_DanielRadcliffe.png', 'Im_GeorgeClooney.png', 'Im_PatrickDempsey.png', 'Im_RyanGosling.png', 'Im_RyanReynolds.png', 'Im_DanielCraig.png', 'Im_RobertPattinson.png', 'Im_LeonardoDiCaprio.png', 'Im_JustinTimberlake.png', 'Im_BradPitt.png'],diff,1,0.4334458999983326,13,0,
XAFR1107,train,neg,fs,negfs_id17_im8.bmp_negfs_id17_im9.bmp,['Im_DanielRadcliffe.png', 'Im_GeorgeClooney.png', 'Im_PatrickDempsey.png', 'Im_RyanGosling.png', 'Im_RyanReynolds.png', 'Im_DanielCraig.png', 'Im_RobertPattinson.png', 'Im_LeonardoDiCaprio.png', 'Im_JustinTimberlake.png', 'Im_BradPitt.png'],same,1,0.45839820000037435,14,0,
XAFR1107,train,neg,fs,negfs_id21_im16.bmp_negfs_id21_im17.bmp,['Im_DanielRadcliffe.png', 'Im_GeorgeClooney.png', 'Im_PatrickDempsey.png', 'Im_RyanGosling.png', 'Im_RyanReynolds.png', 'Im_DanielCraig.png', 'Im_RobertPattinson.png', 'Im_LeonardoDiCaprio.png', 'Im_JustinTimberlake.png', 'Im_BradPitt.png'],same,1,0.42497739999816986,15,0,
XAFR1107,train,neg,fs,negfs_id7_im15.bmp_negfs_id21_im16.bmp,['Im_DanielRadcliffe.png', 'Im_GeorgeClooney.png', 'Im_PatrickDempsey.png', 'Im_RyanGosling.png', 'Im_RyanReynolds.png', 'Im_DanielCraig.png', 'Im_RobertPattinson.png', 'Im_LeonardoDiCaprio.png', 'Im_JustinTimberlake.png', 'Im_BradPitt.png'],diff,1,0.5169938999970327,16,0,
XAFR1107,train,neg,60,neg60_id10_im18.bmp_neg60_id13_im29.bmp,['Im_DanielRadcliffe.png', 'Im_GeorgeClooney.png', 'Im_PatrickDempsey.png', 'Im_RyanGosling.png', 'Im_RyanReynolds.png', 'Im_DanielCraig.png', 'Im_RobertPattinson.png', 'Im_LeonardoDiCaprio.png', 'Im_JustinTimberlake.png', 'Im_BradPitt.png'],diff,1,0.42504440000266186,1,0,
XAFR1107,train,neg,120,neg120_id13_im10.bmp_neg120_id20_im30.bmp,['Im_DanielRadcliffe.png', 'Im_GeorgeClooney.png', 'Im_PatrickDempsey.png', 'Im_RyanGosling.png', 'Im_RyanReynolds.png', 'Im_DanielCraig.png', 'Im_RobertPattinson.png', 'Im_LeonardoDiCaprio.png', 'Im_JustinTimberlake.png', 'Im_BradPitt.png'],diff,1,0.40832380000210833,2,0,
XAFR1107,train,neg,60,neg60_id7_im14.bmp_neg60_id7_im15.bmp,['Im_DanielRadcliffe.png', 'Im_GeorgeClooney.png', 'Im_PatrickDempsey.png', 'Im_RyanGosling.png', 'Im_RyanReynolds.png', 'Im_DanielCraig.png', 'Im_RobertPattinson.png', 'Im_LeonardoDiCaprio.png', 'Im_JustinTimberlake.png', 'Im_BradPitt.png'],same,1,0.4166005999977642,3,0,
XAFR1107,train,neg,fs,negfs_id21_im22.bmp_negfs_id4_im20.bmp,['Im_DanielRadcliffe.png', 'Im_GeorgeClooney.png', 'Im_PatrickDempsey.png', 'Im_RyanGosling.png', 'Im_RyanReynolds.png', 'Im_DanielCraig.png', 'Im_RobertPattinson.png', 'Im_LeonardoDiCaprio.png', 'Im_JustinTimberlake.png', 'Im_BradPitt.png'],same,0,0.4250818000000436,3,0,
XAFR1107,train,neg,150,neg150_id7_im26.bmp_neg150_id7_im15.bmp,['Im_DanielRadcliffe.png', 'Im_GeorgeClooney.png', 'Im_PatrickDempsey.png', 'Im_RyanGosling.png', 'Im_RyanReynolds.png', 'Im_DanielCraig.png', 'Im_RobertPattinson.png', 'Im_LeonardoDiCaprio.png', 'Im_JustinTimberlake.png', 'Im_BradPitt.png'],same,1,0.7334054000020842,4,0,
XAFR1107,train,neg,120,neg120_id5_im10.bmp_neg120_id5_im1.bmp,['Im_DanielRadcliffe.png', 'Im_GeorgeClooney.png', 'Im_PatrickDempsey.png', 'Im_RyanGosling.png', 'Im_RyanReynolds.png', 'Im_DanielCraig.png', 'Im_RobertPattinson.png', 'Im_LeonardoDiCaprio.png', 'Im_JustinTimberlake.png', 'Im_BradPitt.png'],same,1,0.4083485000010114,5,0,
XAFR1107,train,neg,fs,negfs_id3_im8.bmp_negfs_id7_im26.bmp,['Im_DanielRadcliffe.png', 'Im_GeorgeClooney.png', 'Im_PatrickDempsey.png', 'Im_RyanGosling.png', 'Im_RyanReynolds.png', 'Im_DanielCraig.png', 'Im_RobertPattinson.png', 'Im_LeonardoDiCaprio.png', 'Im_JustinTimberlake.png', 'Im_BradPitt.png'],diff,1,0.725061299999652,6,0,
XAFR1107,train,neg,30,neg30_id3_im8.bmp_neg30_id3_im17.bmp,['Im_DanielRadcliffe.png', 'Im_GeorgeClooney.png', 'Im_PatrickDempsey.png', 'Im_RyanGosling.png', 'Im_RyanReynolds.png', 'Im_DanielCraig.png', 'Im_RobertPattinson.png', 'Im_LeonardoDiCaprio.png', 'Im_JustinTimberlake.png', 'Im_BradPitt.png'],same,1,0.4501430000018445,7,0,
XAFR1107,train,neg,150,neg150_id20_im3.bmp_neg150_id20_im12.bmp,['Im_DanielRadcliffe.png', 'Im_GeorgeClooney.png', 'Im_PatrickDempsey.png', 'Im_RyanGosling.png', 'Im_RyanReynolds.png', 'Im_DanielCraig.png', 'Im_RobertPattinson.png', 'Im_LeonardoDiCaprio.png', 'Im_JustinTimberlake.png', 'Im_BradPitt.png'],same,1,0.42501419999825885,8,0,
XAFR1107,train,neg,90,neg90_id19_im8.bmp_neg90_id19_im27.bmp,['Im_DanielRadcliffe.png', 'Im_GeorgeClooney.png', 'Im_PatrickDempsey.png', 'Im_RyanGosling.png', 'Im_RyanReynolds.png', 'Im_DanielCraig.png', 'Im_RobertPattinson.png', 'Im_LeonardoDiCaprio.png', 'Im_JustinTimberlake.png', 'Im_BradPitt.png'],diff,0,0.758583599999838,8,0,
XAFR1107,train,neg,90,neg90_id13_im29.bmp_neg90_id13_im15.bmp,['Im_DanielRadcliffe.png', 'Im_GeorgeClooney.png', 'Im_PatrickDempsey.png', 'Im_RyanGosling.png', 'Im_RyanReynolds.png', 'Im_DanielCraig.png', 'Im_RobertPattinson.png', 'Im_LeonardoDiCaprio.png', 'Im_JustinTimberlake.png', 'Im_BradPitt.png'],diff,0,0.700361499999417,8,0,
XAFR1107,train,neg,0,neg0_id13_im29.bmp_neg0_id13_im10.bmp,['Im_DanielRadcliffe.png', 'Im_GeorgeClooney.png', 'Im_PatrickDempsey.png', 'Im_RyanGosling.png', 'Im_RyanReynolds.png', 'Im_DanielCraig.png', 'Im_RobertPattinson.png', 'Im_LeonardoDiCaprio.png', 'Im_JustinTimberlake.png', 'Im_BradPitt.png'],diff,0,0.4250395999988541,8,0,
XAFR1107,train,neg,30,neg30_id7_im14.bmp_neg30_id4_im20.bmp,['Im_DanielRadcliffe.png', 'Im_GeorgeClooney.png', 'Im_PatrickDempsey.png', 'Im_RyanGosling.png', 'Im_RyanReynolds.png', 'Im_DanielCraig.png', 'Im_RobertPattinson.png', 'Im_LeonardoDiCaprio.png', 'Im_JustinTimberlake.png', 'Im_BradPitt.png'],diff,1,0.4167124000014155,9,0,
XAFR1107,train,neg,0,neg0_id3_im17.bmp_neg0_id3_im8.bmp,['Im_DanielRadcliffe.png', 'Im_GeorgeClooney.png', 'Im_PatrickDempsey.png', 'Im_RyanGosling.png', 'Im_RyanReynolds.png', 'Im_DanielCraig.png', 'Im_RobertPattinson.png', 'Im_LeonardoDiCaprio.png', 'Im_JustinTimberlake.png', 'Im_BradPitt.png'],diff,0,0.5253790999995545,9,0,
XAFR1107,train,pos,90,pos90_id19_im27.bmp_pos90_id13_im15.bmp,['Im_DanielRadcliffe.png', 'Im_GeorgeClooney.png', 'Im_PatrickDempsey.png', 'Im_RyanGosling.png', 'Im_RyanReynolds.png', 'Im_DanielCraig.png', 'Im_RobertPattinson.png', 'Im_LeonardoDiCaprio.png', 'Im_JustinTimberlake.png', 'Im_BradPitt.png'],diff,1,0.416766500002268,10,0,
XAFR1107,train,pos,90,pos90_id21_im17.bmp_pos90_id21_im22.bmp,['Im_DanielRadcliffe.png', 'Im_GeorgeClooney.png', 'Im_PatrickDempsey.png', 'Im_RyanGosling.png', 'Im_RyanReynolds.png', 'Im_DanielCraig.png', 'Im_RobertPattinson.png', 'Im_LeonardoDiCaprio.png', 'Im_JustinTimberlake.png', 'Im_BradPitt.png'],diff,0,0.4250379000004614,10,0,
XAFR1107,train,pos,60,pos60_id10_im17.bmp_pos60_id10_im1.bmp,['Im_DanielRadcliffe.png', 'Im_GeorgeClooney.png', 'Im_PatrickDempsey.png', 'Im_RyanGosling.png', 'Im_RyanReynolds.png', 'Im_DanielCraig.png', 'Im_RobertPattinson.png', 'Im_LeonardoDiCaprio.png', 'Im_JustinTimberlake.png', 'Im_BradPitt.png'],same,1,0.41670370000065304,11,0,
XAFR1107,train,pos,120,pos120_id13_im15.bmp_pos120_id13_im10.bmp,['Im_DanielRadcliffe.png', 'Im_GeorgeClooney.png', 'Im_PatrickDempsey.png', 'Im_RyanGosling.png', 'Im_RyanReynolds.png', 'Im_DanielCraig.png', 'Im_RobertPattinson.png', 'Im_LeonardoDiCaprio.png', 'Im_JustinTimberlake.png', 'Im_BradPitt.png'],same,1,0.4250365999978385,12,0,
XAFR1107,train,pos,fs,posfs_id21_im22.bmp_posfs_id21_im16.bmp,['Im_DanielRadcliffe.png', 'Im_GeorgeClooney.png', 'Im_PatrickDempsey.png', 'Im_RyanGosling.png', 'Im_RyanReynolds.png', 'Im_DanielCraig.png', 'Im_RobertPattinson.png', 'Im_LeonardoDiCaprio.png', 'Im_JustinTimberlake.png', 'Im_BradPitt.png'],same,1,0.4332590000012715,13,0,
XAFR1107,train,pos,0,pos0_id4_im20.bmp_pos0_id4_im7.bmp,['Im_DanielRadcliffe.png', 'Im_GeorgeClooney.png', 'Im_PatrickDempsey.png', 'Im_RyanGosling.png', 'Im_RyanReynolds.png', 'Im_DanielCraig.png', 'Im_RobertPattinson.png', 'Im_LeonardoDiCaprio.png', 'Im_JustinTimberlake.png', 'Im_BradPitt.png'],same,1,0.425273400000151,14,0,
XAFR1107,train,pos,30,pos30_id10_im17.bmp_pos30_id10_im18.bmp,['Im_DanielRadcliffe.png', 'Im_GeorgeClooney.png', 'Im_PatrickDempsey.png', 'Im_RyanGosling.png', 'Im_RyanReynolds.png', 'Im_DanielCraig.png', 'Im_RobertPattinson.png', 'Im_LeonardoDiCaprio.png', 'Im_JustinTimberlake.png', 'Im_BradPitt.png'],same,1,0.416307899999083,15,0,
XAFR1107,train,pos,150,pos150_id5_im1.bmp_pos150_id5_im20.bmp,['Im_DanielRadcliffe.png', 'Im_GeorgeClooney.png', 'Im_PatrickDempsey.png', 'Im_RyanGosling.png', 'Im_RyanReynolds.png', 'Im_DanielCraig.png', 'Im_RobertPattinson.png', 'Im_LeonardoDiCaprio.png', 'Im_JustinTimberlake.png', 'Im_BradPitt.png'],same,1,1.0249416999977257,16,0,
XAFR1107,train,pos,fs,posfs_id7_im14.bmp_posfs_id4_im20.bmp,['Im_DanielRadcliffe.png', 'Im_GeorgeClooney.png', 'Im_PatrickDempsey.png', 'Im_RyanGosling.png', 'Im_RyanReynolds.png', 'Im_DanielCraig.png', 'Im_RobertPattinson.png', 'Im_LeonardoDiCaprio.png', 'Im_JustinTimberlake.png', 'Im_BradPitt.png'],diff,1,0.416741600001842,17,0,
XAFR1107,train,pos,30,pos30_id17_im8.bmp_pos30_id5_im10.bmp,['Im_DanielRadcliffe.png', 'Im_GeorgeClooney.png', 'Im_PatrickDempsey.png', 'Im_RyanGosling.png', 'Im_RyanReynolds.png', 'Im_DanielCraig.png', 'Im_RobertPattinson.png', 'Im_LeonardoDiCaprio.png', 'Im_JustinTimberlake.png', 'Im_BradPitt.png'],diff,1,0.5330886000010651,18,0,
XAFR1107,train,pos,0,pos0_id5_im1.bmp_pos0_id10_im1.bmp,['Im_DanielRadcliffe.png', 'Im_GeorgeClooney.png', 'Im_PatrickDempsey.png', 'Im_RyanGosling.png', 'Im_RyanReynolds.png', 'Im_DanielCraig.png', 'Im_RobertPattinson.png', 'Im_LeonardoDiCaprio.png', 'Im_JustinTimberlake.png', 'Im_BradPitt.png'],diff,1,0.507930399999168,19,0,
XAFR1107,train,pos,60,pos60_id5_im10.bmp_pos60_id17_im8.bmp,['Im_DanielRadcliffe.png', 'Im_GeorgeClooney.png', 'Im_PatrickDempsey.png', 'Im_RyanGosling.png', 'Im_RyanReynolds.png', 'Im_DanielCraig.png', 'Im_RobertPattinson.png', 'Im_LeonardoDiCaprio.png', 'Im_JustinTimberlake.png', 'Im_BradPitt.png'],diff,1,0.4250209999991057,20,0,
XAFR1107,train,pos,150,pos150_id19_im27.bmp_pos150_id19_im8.bmp,['Im_DanielRadcliffe.png', 'Im_GeorgeClooney.png', 'Im_PatrickDempsey.png', 'Im_RyanGosling.png', 'Im_RyanReynolds.png', 'Im_DanielCraig.png', 'Im_RobertPattinson.png', 'Im_LeonardoDiCaprio.png', 'Im_JustinTimberlake.png', 'Im_BradPitt.png'],same,1,0.41650550000122166,21,0,
XAFR1107,train,pos,120,pos120_id4_im7.bmp_pos120_id4_im15.bmp,['Im_DanielRadcliffe.png', 'Im_GeorgeClooney.png', 'Im_PatrickDempsey.png', 'Im_RyanGosling.png', 'Im_RyanReynolds.png', 'Im_DanielCraig.png', 'Im_RobertPattinson.png', 'Im_LeonardoDiCaprio.png', 'Im_JustinTimberlake.png', 'Im_BradPitt.png'],same,1,0.4334792000008747,22,0,
XAFR1107,train,inv,120,pos120_id5_im20.bmp_pos120_id5_im1.bmp,['Im_DanielRadcliffe.png', 'Im_GeorgeClooney.png', 'Im_PatrickDempsey.png', 'Im_RyanGosling.png', 'Im_RyanReynolds.png', 'Im_DanielCraig.png', 'Im_RobertPattinson.png', 'Im_LeonardoDiCaprio.png', 'Im_JustinTimberlake.png', 'Im_BradPitt.png'],same,1,0.8582747999971616,23,0,
XAFR1107,train,inv,fs,posfs_id3_im8.bmp_posfs_id3_im6.bmp,['Im_DanielRadcliffe.png', 'Im_GeorgeClooney.png', 'Im_PatrickDempsey.png', 'Im_RyanGosling.png', 'Im_RyanReynolds.png', 'Im_DanielCraig.png', 'Im_RobertPattinson.png', 'Im_LeonardoDiCaprio.png', 'Im_JustinTimberlake.png', 'Im_BradPitt.png'],same,1,0.4083294999982172,24,0,
XAFR1107,train,inv,120,pos120_id5_im1.bmp_pos120_id10_im1.bmp,['Im_DanielRadcliffe.png', 'Im_GeorgeClooney.png', 'Im_PatrickDempsey.png', 'Im_RyanGosling.png', 'Im_RyanReynolds.png', 'Im_DanielCraig.png', 'Im_RobertPattinson.png', 'Im_LeonardoDiCaprio.png', 'Im_JustinTimberlake.png', 'Im_BradPitt.png'],diff,1,0.4252591999975266,25,0,
XAFR1107,train,inv,30,pos30_id17_im9.bmp_pos30_id17_im14.bmp,['Im_DanielRadcliffe.png', 'Im_GeorgeClooney.png', 'Im_PatrickDempsey.png', 'Im_RyanGosling.png', 'Im_RyanReynolds.png', 'Im_DanielCraig.png', 'Im_RobertPattinson.png', 'Im_LeonardoDiCaprio.png', 'Im_JustinTimberlake.png', 'Im_BradPitt.png'],same,1,0.4250176999994437,26,0,
XAFR1107,train,inv,60,pos60_id10_im17.bmp_pos60_id10_im18.bmp,['Im_DanielRadcliffe.png', 'Im_GeorgeClooney.png', 'Im_PatrickDempsey.png', 'Im_RyanGosling.png', 'Im_RyanReynolds.png', 'Im_DanielCraig.png', 'Im_RobertPattinson.png', 'Im_LeonardoDiCaprio.png', 'Im_JustinTimberlake.png', 'Im_BradPitt.png'],same,1,0.4165723000005528,27,0,
XAFR1107,train,inv,90,pos90_id3_im8.bmp_pos90_id3_im6.bmp,['Im_DanielRadcliffe.png', 'Im_GeorgeClooney.png', 'Im_PatrickDempsey.png', 'Im_RyanGosling.png', 'Im_RyanReynolds.png', 'Im_DanielCraig.png', 'Im_RobertPattinson.png', 'Im_LeonardoDiCaprio.png', 'Im_JustinTimberlake.png', 'Im_BradPitt.png'],same,1,0.4333718999987468,28,0,
XAFR1107,train,inv,0,pos0_id10_im18.bmp_pos0_id13_im29.bmp,['Im_DanielRadcliffe.png', 'Im_GeorgeClooney.png', 'Im_PatrickDempsey.png', 'Im_RyanGosling.png', 'Im_RyanReynolds.png', 'Im_DanielCraig.png', 'Im_RobertPattinson.png', 'Im_LeonardoDiCaprio.png', 'Im_JustinTimberlake.png', 'Im_BradPitt.png'],same,0,0.425101500000892,28,0,
XAFR1107,train,inv,0,pos0_id17_im9.bmp_pos0_id20_im30.bmp,['Im_DanielRadcliffe.png', 'Im_GeorgeClooney.png', 'Im_PatrickDempsey.png', 'Im_RyanGosling.png', 'Im_RyanReynolds.png', 'Im_DanielCraig.png', 'Im_RobertPattinson.png', 'Im_LeonardoDiCaprio.png', 'Im_JustinTimberlake.png', 'Im_BradPitt.png'],diff,1,0.4083740999994916,29,0,
XAFR1107,train,inv,30,pos30_id20_im12.bmp_pos30_id20_im30.bmp,['Im_DanielRadcliffe.png', 'Im_GeorgeClooney.png', 'Im_PatrickDempsey.png', 'Im_RyanGosling.png', 'Im_RyanReynolds.png', 'Im_DanielCraig.png', 'Im_RobertPattinson.png', 'Im_LeonardoDiCaprio.png', 'Im_JustinTimberlake.png', 'Im_BradPitt.png'],diff,0,0.4167100999984541,29,0,
XAFR1107,train,inv,150,pos150_id21_im16.bmp_pos150_id17_im14.bmp,['Im_DanielRadcliffe.png', 'Im_GeorgeClooney.png', 'Im_PatrickDempsey.png', 'Im_RyanGosling.png', 'Im_RyanReynolds.png', 'Im_DanielCraig.png', 'Im_RobertPattinson.png', 'Im_LeonardoDiCaprio.png', 'Im_JustinTimberlake.png', 'Im_BradPitt.png'],diff,1,0.41654620000190334,30,0,
XAFR1107,train,inv,fs,posfs_id21_im16.bmp_posfs_id17_im14.bmp,['Im_DanielRadcliffe.png', 'Im_GeorgeClooney.png', 'Im_PatrickDempsey.png', 'Im_RyanGosling.png', 'Im_RyanReynolds.png', 'Im_DanielCraig.png', 'Im_RobertPattinson.png', 'Im_LeonardoDiCaprio.png', 'Im_JustinTimberlake.png', 'Im_BradPitt.png'],diff,1,0.4166986000018369,31,0,
XAFR1107,train,inv,150,pos150_id17_im14.bmp_pos150_id5_im20.bmp,['Im_DanielRadcliffe.png', 'Im_GeorgeClooney.png', 'Im_PatrickDempsey.png', 'Im_RyanGosling.png', 'Im_RyanReynolds.png', 'Im_DanielCraig.png', 'Im_RobertPattinson.png', 'Im_LeonardoDiCaprio.png', 'Im_JustinTimberlake.png', 'Im_BradPitt.png'],same,0,0.8667687999986811,31,0,
XAFR1107,train,inv,60,pos60_id5_im10.bmp_pos60_id5_im20.bmp,['Im_DanielRadcliffe.png', 'Im_GeorgeClooney.png', 'Im_PatrickDempsey.png', 'Im_RyanGosling.png', 'Im_RyanReynolds.png', 'Im_DanielCraig.png', 'Im_RobertPattinson.png', 'Im_LeonardoDiCaprio.png', 'Im_JustinTimberlake.png', 'Im_BradPitt.png'],diff,0,0.6336731000010332,31,0,
XAFR1107,train,inv,90,pos90_id21_im17.bmp_pos90_id5_im10.bmp,['Im_DanielRadcliffe.png', 'Im_GeorgeClooney.png', 'Im_PatrickDempsey.png', 'Im_RyanGosling.png', 'Im_RyanReynolds.png', 'Im_DanielCraig.png', 'Im_RobertPattinson.png', 'Im_LeonardoDiCaprio.png', 'Im_JustinTimberlake.png', 'Im_BradPitt.png'],diff,1,0.5918912999986787,32,0,
XAFR1107,train,pos,60,pos60_id20_im3.bmp_pos60_id20_im12.bmp,['Im_DanielRadcliffe.png', 'Im_GeorgeClooney.png', 'Im_PatrickDempsey.png', 'Im_RyanGosling.png', 'Im_RyanReynolds.png', 'Im_DanielCraig.png', 'Im_RobertPattinson.png', 'Im_LeonardoDiCaprio.png', 'Im_JustinTimberlake.png', 'Im_BradPitt.png'],same,1,0.7584009999991395,1,76.19047619047619,
XAFR1107,train,pos,150,pos150_id20_im30.bmp_pos150_id20_im12.bmp,['Im_DanielRadcliffe.png', 'Im_GeorgeClooney.png', 'Im_PatrickDempsey.png', 'Im_RyanGosling.png', 'Im_RyanReynolds.png', 'Im_DanielCraig.png', 'Im_RobertPattinson.png', 'Im_LeonardoDiCaprio.png', 'Im_JustinTimberlake.png', 'Im_BradPitt.png'],same,1,0.5083644000005734,2,76.19047619047619,
XAFR1107,train,pos,90,pos90_id20_im30.bmp_pos90_id20_im3.bmp,['Im_DanielRadcliffe.png', 'Im_GeorgeClooney.png', 'Im_PatrickDempsey.png', 'Im_RyanGosling.png', 'Im_RyanReynolds.png', 'Im_DanielCraig.png', 'Im_RobertPattinson.png', 'Im_LeonardoDiCaprio.png', 'Im_JustinTimberlake.png', 'Im_BradPitt.png'],same,1,0.41673269999955664,3,76.19047619047619,
XAFR1107,train,pos,30,pos30_id7_im15.bmp_pos30_id21_im16.bmp,['Im_DanielRadcliffe.png', 'Im_GeorgeClooney.png', 'Im_PatrickDempsey.png', 'Im_RyanGosling.png', 'Im_RyanReynolds.png', 'Im_DanielCraig.png', 'Im_RobertPattinson.png', 'Im_LeonardoDiCaprio.png', 'Im_JustinTimberlake.png', 'Im_BradPitt.png'],same,0,0.4168375000008382,3,76.19047619047619,
XAFR1107,train,pos,30,pos30_id19_im8.bmp_pos30_id4_im7.bmp,['Im_DanielRadcliffe.png', 'Im_GeorgeClooney.png', 'Im_PatrickDempsey.png', 'Im_RyanGosling.png', 'Im_RyanReynolds.png', 'Im_DanielCraig.png', 'Im_RobertPattinson.png', 'Im_LeonardoDiCaprio.png', 'Im_JustinTimberlake.png', 'Im_BradPitt.png'],none,0,4.416526900000463,3,76.19047619047619,
XAFR1107,train,pos,90,pos90_id13_im15.bmp_pos90_id13_im10.bmp,['Im_DanielRadcliffe.png', 'Im_GeorgeClooney.png', 'Im_PatrickDempsey.png', 'Im_RyanGosling.png', 'Im_RyanReynolds.png', 'Im_DanielCraig.png', 'Im_RobertPattinson.png', 'Im_LeonardoDiCaprio.png', 'Im_JustinTimberlake.png', 'Im_BradPitt.png'],same,1,0.4166724999995495,4,76.19047619047619,
XAFR1107,train,pos,120,pos120_id3_im6.bmp_pos120_id10_im17.bmp,['Im_DanielRadcliffe.png', 'Im_GeorgeClooney.png', 'Im_PatrickDempsey.png', 'Im_RyanGosling.png', 'Im_RyanReynolds.png', 'Im_DanielCraig.png', 'Im_RobertPattinson.png', 'Im_LeonardoDiCaprio.png', 'Im_JustinTimberlake.png', 'Im_BradPitt.png'],none,1,4.408248699997785,4,76.19047619047619,
XAFR1107,train,pos,0,pos0_id5_im1.bmp_pos0_id4_im15.bmp,['Im_DanielRadcliffe.png', 'Im_GeorgeClooney.png', 'Im_PatrickDempsey.png', 'Im_RyanGosling.png', 'Im_RyanReynolds.png', 'Im_DanielCraig.png', 'Im_RobertPattinson.png', 'Im_LeonardoDiCaprio.png', 'Im_JustinTimberlake.png', 'Im_BradPitt.png'],diff,1,2.1748164000018733,5,76.19047619047619,
XAFR1107,train,pos,120,pos120_id10_im17.bmp_pos120_id10_im18.bmp,['Im_DanielRadcliffe.png', 'Im_GeorgeClooney.png', 'Im_PatrickDempsey.png', 'Im_RyanGosling.png', 'Im_RyanReynolds.png', 'Im_DanielCraig.png', 'Im_RobertPattinson.png', 'Im_LeonardoDiCaprio.png', 'Im_JustinTimberlake.png', 'Im_BradPitt.png'],same,1,0.4165599000007205,6,76.19047619047619,
XAFR1107,train,pos,150,pos150_id4_im20.bmp_pos150_id7_im14.bmp,['Im_DanielRadcliffe.png', 'Im_GeorgeClooney.png', 'Im_PatrickDempsey.png', 'Im_RyanGosling.png', 'Im_RyanReynolds.png', 'Im_DanielCraig.png', 'Im_RobertPattinson.png', 'Im_LeonardoDiCaprio.png', 'Im_JustinTimberlake.png', 'Im_BradPitt.png'],diff,1,0.4248713000015414,7,76.19047619047619,
XAFR1107,train,pos,60,pos60_id3_im17.bmp_pos60_id10_im1.bmp,['Im_DanielRadcliffe.png', 'Im_GeorgeClooney.png', 'Im_PatrickDempsey.png', 'Im_RyanGosling.png', 'Im_RyanReynolds.png', 'Im_DanielCraig.png', 'Im_RobertPattinson.png', 'Im_LeonardoDiCaprio.png', 'Im_JustinTimberlake.png', 'Im_BradPitt.png'],diff,1,0.4168611000022793,8,76.19047619047619,
XAFR1107,train,pos,fs,posfs_id13_im15.bmp_posfs_id19_im27.bmp,['Im_DanielRadcliffe.png', 'Im_GeorgeClooney.png', 'Im_PatrickDempsey.png', 'Im_RyanGosling.png', 'Im_RyanReynolds.png', 'Im_DanielCraig.png', 'Im_RobertPattinson.png', 'Im_LeonardoDiCaprio.png', 'Im_JustinTimberlake.png', 'Im_BradPitt.png'],diff,1,0.42506409999987227,9,76.19047619047619,
XAFR1107,train,pos,fs,posfs_id7_im15.bmp_posfs_id7_im14.bmp,['Im_DanielRadcliffe.png', 'Im_GeorgeClooney.png', 'Im_PatrickDempsey.png', 'Im_RyanGosling.png', 'Im_RyanReynolds.png', 'Im_DanielCraig.png', 'Im_RobertPattinson.png', 'Im_LeonardoDiCaprio.png', 'Im_JustinTimberlake.png', 'Im_BradPitt.png'],same,1,0.8166672999977891,10,76.19047619047619,
XAFR1107,train,pos,0,pos0_id21_im16.bmp_pos0_id7_im15.bmp,['Im_DanielRadcliffe.png', 'Im_GeorgeClooney.png', 'Im_PatrickDempsey.png', 'Im_RyanGosling.png', 'Im_RyanReynolds.png', 'Im_DanielCraig.png', 'Im_RobertPattinson.png', 'Im_LeonardoDiCaprio.png', 'Im_JustinTimberlake.png', 'Im_BradPitt.png'],diff,1,0.6168032999994466,11,76.19047619047619,
XAFR1107,train,inv,0,pos0_id17_im9.bmp_pos0_id17_im8.bmp,['Im_DanielRadcliffe.png', 'Im_GeorgeClooney.png', 'Im_PatrickDempsey.png', 'Im_RyanGosling.png', 'Im_RyanReynolds.png', 'Im_DanielCraig.png', 'Im_RobertPattinson.png', 'Im_LeonardoDiCaprio.png', 'Im_JustinTimberlake.png', 'Im_BradPitt.png'],diff,0,0.7166350999978022,11,76.19047619047619,
XAFR1107,train,inv,30,pos30_id21_im16.bmp_pos30_id17_im14.bmp,['Im_DanielRadcliffe.png', 'Im_GeorgeClooney.png', 'Im_PatrickDempsey.png', 'Im_RyanGosling.png', 'Im_RyanReynolds.png', 'Im_DanielCraig.png', 'Im_RobertPattinson.png', 'Im_LeonardoDiCaprio.png', 'Im_JustinTimberlake.png', 'Im_BradPitt.png'],same,0,0.4168045999977039,11,76.19047619047619,
XAFR1107,train,inv,150,pos150_id4_im20.bmp_pos150_id21_im22.bmp,['Im_DanielRadcliffe.png', 'Im_GeorgeClooney.png', 'Im_PatrickDempsey.png', 'Im_RyanGosling.png', 'Im_RyanReynolds.png', 'Im_DanielCraig.png', 'Im_RobertPattinson.png', 'Im_LeonardoDiCaprio.png', 'Im_JustinTimberlake.png', 'Im_BradPitt.png'],same,0,0.41657669999767677,11,76.19047619047619,
XAFR1107,train,inv,0,pos0_id5_im10.bmp_pos0_id17_im8.bmp,['Im_DanielRadcliffe.png', 'Im_GeorgeClooney.png', 'Im_PatrickDempsey.png', 'Im_RyanGosling.png', 'Im_RyanReynolds.png', 'Im_DanielCraig.png', 'Im_RobertPattinson.png', 'Im_LeonardoDiCaprio.png', 'Im_JustinTimberlake.png', 'Im_BradPitt.png'],diff,1,0.47577179999643704,12,76.19047619047619,
XAFR1107,train,inv,fs,posfs_id7_im26.bmp_posfs_id7_im14.bmp,['Im_DanielRadcliffe.png', 'Im_GeorgeClooney.png', 'Im_PatrickDempsey.png', 'Im_RyanGosling.png', 'Im_RyanReynolds.png', 'Im_DanielCraig.png', 'Im_RobertPattinson.png', 'Im_LeonardoDiCaprio.png', 'Im_JustinTimberlake.png', 'Im_BradPitt.png'],diff,0,0.41645539999808534,12,76.19047619047619,
XAFR1107,train,inv,60,pos60_id13_im29.bmp_pos60_id3_im17.bmp,['Im_DanielRadcliffe.png', 'Im_GeorgeClooney.png', 'Im_PatrickDempsey.png', 'Im_RyanGosling.png', 'Im_RyanReynolds.png', 'Im_DanielCraig.png', 'Im_RobertPattinson.png', 'Im_LeonardoDiCaprio.png', 'Im_JustinTimberlake.png', 'Im_BradPitt.png'],same,0,0.4248695999995107,12,76.19047619047619,
XAFR1107,train,inv,150,pos150_id4_im15.bmp_pos150_id4_im7.bmp,['Im_DanielRadcliffe.png', 'Im_GeorgeClooney.png', 'Im_PatrickDempsey.png', 'Im_RyanGosling.png', 'Im_RyanReynolds.png', 'Im_DanielCraig.png', 'Im_RobertPattinson.png', 'Im_LeonardoDiCaprio.png', 'Im_JustinTimberlake.png', 'Im_BradPitt.png'],diff,0,0.9336538999996264,12,76.19047619047619,
XAFR1107,train,inv,120,pos120_id17_im8.bmp_pos120_id17_im9.bmp,['Im_DanielRadcliffe.png', 'Im_GeorgeClooney.png', 'Im_PatrickDempsey.png', 'Im_RyanGosling.png', 'Im_RyanReynolds.png', 'Im_DanielCraig.png', 'Im_RobertPattinson.png', 'Im_LeonardoDiCaprio.png', 'Im_JustinTimberlake.png', 'Im_BradPitt.png'],same,1,0.41644190000079107,13,76.19047619047619,
XAFR1107,train,inv,30,pos30_id3_im8.bmp_pos30_id19_im27.bmp,['Im_DanielRadcliffe.png', 'Im_GeorgeClooney.png', 'Im_PatrickDempsey.png', 'Im_RyanGosling.png', 'Im_RyanReynolds.png', 'Im_DanielCraig.png', 'Im_RobertPattinson.png', 'Im_LeonardoDiCaprio.png', 'Im_JustinTimberlake.png', 'Im_BradPitt.png'],same,0,0.4085032999973919,13,76.19047619047619,
XAFR1107,train,inv,90,pos90_id19_im8.bmp_pos90_id19_im27.bmp,['Im_DanielRadcliffe.png', 'Im_GeorgeClooney.png', 'Im_PatrickDempsey.png', 'Im_RyanGosling.png', 'Im_RyanReynolds.png', 'Im_DanielCraig.png', 'Im_RobertPattinson.png', 'Im_LeonardoDiCaprio.png', 'Im_JustinTimberlake.png', 'Im_BradPitt.png'],same,1,0.42506589999902644,14,76.19047619047619,
XAFR1107,train,inv,fs,posfs_id20_im3.bmp_posfs_id7_im26.bmp,['Im_DanielRadcliffe.png', 'Im_GeorgeClooney.png', 'Im_PatrickDempsey.png', 'Im_RyanGosling.png', 'Im_RyanReynolds.png', 'Im_DanielCraig.png', 'Im_RobertPattinson.png', 'Im_LeonardoDiCaprio.png', 'Im_JustinTimberlake.png', 'Im_BradPitt.png'],diff,1,0.4166675000014948,15,76.19047619047619,
XAFR1107,train,inv,90,pos90_id7_im26.bmp_pos90_id20_im3.bmp,['Im_DanielRadcliffe.png', 'Im_GeorgeClooney.png', 'Im_PatrickDempsey.png', 'Im_RyanGosling.png', 'Im_RyanReynolds.png', 'Im_DanielCraig.png', 'Im_RobertPattinson.png', 'Im_LeonardoDiCaprio.png', 'Im_JustinTimberlake.png', 'Im_BradPitt.png'],same,0,0.49233689999891794,15,76.19047619047619,
XAFR1107,train,inv,120,pos120_id7_im15.bmp_pos120_id21_im16.bmp,['Im_DanielRadcliffe.png', 'Im_GeorgeClooney.png', 'Im_PatrickDempsey.png', 'Im_RyanGosling.png', 'Im_RyanReynolds.png', 'Im_DanielCraig.png', 'Im_RobertPattinson.png', 'Im_LeonardoDiCaprio.png', 'Im_JustinTimberlake.png', 'Im_BradPitt.png'],same,0,0.7003162000000884,15,76.19047619047619,
XAFR1107,train,inv,60,pos60_id3_im6.bmp_pos60_id10_im17.bmp,['Im_DanielRadcliffe.png', 'Im_GeorgeClooney.png', 'Im_PatrickDempsey.png', 'Im_RyanGosling.png', 'Im_RyanReynolds.png', 'Im_DanielCraig.png', 'Im_RobertPattinson.png', 'Im_LeonardoDiCaprio.png', 'Im_JustinTimberlake.png', 'Im_BradPitt.png'],diff,1,0.4251326000012341,16,76.19047619047619,
XAFR1107,train,neg,fs,negfs_id10_im17.bmp_negfs_id10_im1.bmp,['Im_DanielRadcliffe.png', 'Im_GeorgeClooney.png', 'Im_PatrickDempsey.png', 'Im_RyanGosling.png', 'Im_RyanReynolds.png', 'Im_DanielCraig.png', 'Im_RobertPattinson.png', 'Im_LeonardoDiCaprio.png', 'Im_JustinTimberlake.png', 'Im_BradPitt.png'],same,1,0.4083960999996634,17,76.19047619047619,
XAFR1107,train,neg,0,neg0_id7_im26.bmp_neg0_id3_im8.bmp,['Im_DanielRadcliffe.png', 'Im_GeorgeClooney.png', 'Im_PatrickDempsey.png', 'Im_RyanGosling.png', 'Im_RyanReynolds.png', 'Im_DanielCraig.png', 'Im_RobertPattinson.png', 'Im_LeonardoDiCaprio.png', 'Im_JustinTimberlake.png', 'Im_BradPitt.png'],diff,1,0.5586446999986947,18,76.19047619047619,
XAFR1107,train,neg,0,neg0_id19_im4.bmp_neg0_id19_im27.bmp,['Im_DanielRadcliffe.png', 'Im_GeorgeClooney.png', 'Im_PatrickDempsey.png', 'Im_RyanGosling.png', 'Im_RyanReynolds.png', 'Im_DanielCraig.png', 'Im_RobertPattinson.png', 'Im_LeonardoDiCaprio.png', 'Im_JustinTimberlake.png', 'Im_BradPitt.png'],diff,0,1.1417717000003904,18,76.19047619047619,
XAFR1107,train,neg,30,neg30_id5_im10.bmp_neg30_id5_im20.bmp,['Im_DanielRadcliffe.png', 'Im_GeorgeClooney.png', 'Im_PatrickDempsey.png', 'Im_RyanGosling.png', 'Im_RyanReynolds.png', 'Im_DanielCraig.png', 'Im_RobertPattinson.png', 'Im_LeonardoDiCaprio.png', 'Im_JustinTimberlake.png', 'Im_BradPitt.png'],diff,0,0.40820200000234763,18,76.19047619047619,
XAFR1107,train,neg,120,neg120_id7_im26.bmp_neg120_id3_im8.bmp,['Im_DanielRadcliffe.png', 'Im_GeorgeClooney.png', 'Im_PatrickDempsey.png', 'Im_RyanGosling.png', 'Im_RyanReynolds.png', 'Im_DanielCraig.png', 'Im_RobertPattinson.png', 'Im_LeonardoDiCaprio.png', 'Im_JustinTimberlake.png', 'Im_BradPitt.png'],diff,1,0.40831900000193855,19,76.19047619047619,
XAFR1107,train,neg,150,neg150_id3_im17.bmp_neg150_id10_im1.bmp,['Im_DanielRadcliffe.png', 'Im_GeorgeClooney.png', 'Im_PatrickDempsey.png', 'Im_RyanGosling.png', 'Im_RyanReynolds.png', 'Im_DanielCraig.png', 'Im_RobertPattinson.png', 'Im_LeonardoDiCaprio.png', 'Im_JustinTimberlake.png', 'Im_BradPitt.png'],diff,1,0.42502129999775207,20,76.19047619047619,
XAFR1107,train,neg,fs,negfs_id13_im15.bmp_negfs_id13_im29.bmp,['Im_DanielRadcliffe.png', 'Im_GeorgeClooney.png', 'Im_PatrickDempsey.png', 'Im_RyanGosling.png', 'Im_RyanReynolds.png', 'Im_DanielCraig.png', 'Im_RobertPattinson.png', 'Im_LeonardoDiCaprio.png', 'Im_JustinTimberlake.png', 'Im_BradPitt.png'],same,1,0.45820549999916693,21,76.19047619047619,
XAFR1107,train,neg,90,neg90_id20_im12.bmp_neg90_id13_im15.bmp,['Im_DanielRadcliffe.png', 'Im_GeorgeClooney.png', 'Im_PatrickDempsey.png', 'Im_RyanGosling.png', 'Im_RyanReynolds.png', 'Im_DanielCraig.png', 'Im_RobertPattinson.png', 'Im_LeonardoDiCaprio.png', 'Im_JustinTimberlake.png', 'Im_BradPitt.png'],diff,1,0.5250551999997697,22,76.19047619047619,
XAFR1107,train,neg,30,neg30_id20_im12.bmp_neg30_id13_im15.bmp,['Im_DanielRadcliffe.png', 'Im_GeorgeClooney.png', 'Im_PatrickDempsey.png', 'Im_RyanGosling.png', 'Im_RyanReynolds.png', 'Im_DanielCraig.png', 'Im_RobertPattinson.png', 'Im_LeonardoDiCaprio.png', 'Im_JustinTimberlake.png', 'Im_BradPitt.png'],diff,1,0.4250389000007999,23,76.19047619047619,
XAFR1107,train,neg,90,neg90_id17_im14.bmp_neg90_id17_im8.bmp,['Im_DanielRadcliffe.png', 'Im_GeorgeClooney.png', 'Im_PatrickDempsey.png', 'Im_RyanGosling.png', 'Im_RyanReynolds.png', 'Im_DanielCraig.png', 'Im_RobertPattinson.png', 'Im_LeonardoDiCaprio.png', 'Im_JustinTimberlake.png', 'Im_BradPitt.png'],same,1,0.9668940999981714,24,76.19047619047619,
XAFR1107,train,neg,120,neg120_id21_im16.bmp_neg120_id21_im22.bmp,['Im_DanielRadcliffe.png', 'Im_GeorgeClooney.png', 'Im_PatrickDempsey.png', 'Im_RyanGosling.png', 'Im_RyanReynolds.png', 'Im_DanielCraig.png', 'Im_RobertPattinson.png', 'Im_LeonardoDiCaprio.png', 'Im_JustinTimberlake.png', 'Im_BradPitt.png'],same,1,0.42522749999989173,25,76.19047619047619,
XAFR1107,train,neg,60,neg60_id13_im10.bmp_neg60_id13_im29.bmp,['Im_DanielRadcliffe.png', 'Im_GeorgeClooney.png', 'Im_PatrickDempsey.png', 'Im_RyanGosling.png', 'Im_RyanReynolds.png', 'Im_DanielCraig.png', 'Im_RobertPattinson.png', 'Im_LeonardoDiCaprio.png', 'Im_JustinTimberlake.png', 'Im_BradPitt.png'],diff,0,0.4166733000020031,25,76.19047619047619,
XAFR1107,train,neg,150,neg150_id20_im12.bmp_neg150_id4_im15.bmp,['Im_DanielRadcliffe.png', 'Im_GeorgeClooney.png', 'Im_PatrickDempsey.png', 'Im_RyanGosling.png', 'Im_RyanReynolds.png', 'Im_DanielCraig.png', 'Im_RobertPattinson.png', 'Im_LeonardoDiCaprio.png', 'Im_JustinTimberlake.png', 'Im_BradPitt.png'],diff,1,0.4333632999987458,26,76.19047619047619,
XAFR1107,train,neg,60,neg60_id10_im18.bmp_neg60_id10_im1.bmp,['Im_DanielRadcliffe.png', 'Im_GeorgeClooney.png', 'Im_PatrickDempsey.png', 'Im_RyanGosling.png', 'Im_RyanReynolds.png', 'Im_DanielCraig.png', 'Im_RobertPattinson.png', 'Im_LeonardoDiCaprio.png', 'Im_JustinTimberlake.png', 'Im_BradPitt.png'],same,1,0.4334050999968895,27,76.19047619047619,
XAFR1107,train,neg,60,neg60_id5_im10.bmp_neg60_id17_im8.bmp,['Im_DanielRadcliffe.png', 'Im_GeorgeClooney.png', 'Im_PatrickDempsey.png', 'Im_RyanGosling.png', 'Im_RyanReynolds.png', 'Im_DanielCraig.png', 'Im_RobertPattinson.png', 'Im_LeonardoDiCaprio.png', 'Im_JustinTimberlake.png', 'Im_BradPitt.png'],diff,1,0.41683760000159964,1,64.28571428571429,
XAFR1107,train,neg,fs,negfs_id10_im18.bmp_negfs_id10_im17.bmp,['Im_DanielRadcliffe.png', 'Im_GeorgeClooney.png', 'Im_PatrickDempsey.png', 'Im_RyanGosling.png', 'Im_RyanReynolds.png', 'Im_DanielCraig.png', 'Im_RobertPattinson.png', 'Im_LeonardoDiCaprio.png', 'Im_JustinTimberlake.png', 'Im_BradPitt.png'],same,1,0.42520650000005844,2,64.28571428571429,
XAFR1107,train,neg,90,neg90_id3_im17.bmp_neg90_id3_im8.bmp,['Im_DanielRadcliffe.png', 'Im_GeorgeClooney.png', 'Im_PatrickDempsey.png', 'Im_RyanGosling.png', 'Im_RyanReynolds.png', 'Im_DanielCraig.png', 'Im_RobertPattinson.png', 'Im_LeonardoDiCaprio.png', 'Im_JustinTimberlake.png', 'Im_BradPitt.png'],same,1,0.5336888000019826,3,64.28571428571429,
XAFR1107,train,neg,30,neg30_id10_im18.bmp_neg30_id21_im22.bmp,['Im_DanielRadcliffe.png', 'Im_GeorgeClooney.png', 'Im_PatrickDempsey.png', 'Im_RyanGosling.png', 'Im_RyanReynolds.png', 'Im_DanielCraig.png', 'Im_RobertPattinson.png', 'Im_LeonardoDiCaprio.png', 'Im_JustinTimberlake.png', 'Im_BradPitt.png'],same,0,0.41666990000157966,3,64.28571428571429,
XAFR1107,train,neg,90,neg90_id3_im8.bmp_neg90_id19_im27.bmp,['Im_DanielRadcliffe.png', 'Im_GeorgeClooney.png', 'Im_PatrickDempsey.png', 'Im_RyanGosling.png', 'Im_RyanReynolds.png', 'Im_DanielCraig.png', 'Im_RobertPattinson.png', 'Im_LeonardoDiCaprio.png', 'Im_JustinTimberlake.png', 'Im_BradPitt.png'],same,0,0.6831981999966956,3,64.28571428571429,
XAFR1107,train,neg,60,neg60_id13_im29.bmp_neg60_id3_im17.bmp,['Im_DanielRadcliffe.png', 'Im_GeorgeClooney.png', 'Im_PatrickDempsey.png', 'Im_RyanGosling.png', 'Im_RyanReynolds.png', 'Im_DanielCraig.png', 'Im_RobertPattinson.png', 'Im_LeonardoDiCaprio.png', 'Im_JustinTimberlake.png', 'Im_BradPitt.png'],diff,1,1.0000027999994927,4,64.28571428571429,
XAFR1107,train,neg,150,neg150_id20_im3.bmp_neg150_id7_im15.bmp,['Im_DanielRadcliffe.png', 'Im_GeorgeClooney.png', 'Im_PatrickDempsey.png', 'Im_RyanGosling.png', 'Im_RyanReynolds.png', 'Im_DanielCraig.png', 'Im_RobertPattinson.png', 'Im_LeonardoDiCaprio.png', 'Im_JustinTimberlake.png', 'Im_BradPitt.png'],same,0,0.5002626999994391,4,64.28571428571429,
XAFR1107,train,neg,0,neg0_id19_im8.bmp_neg0_id4_im7.bmp,['Im_DanielRadcliffe.png', 'Im_GeorgeClooney.png', 'Im_PatrickDempsey.png', 'Im_RyanGosling.png', 'Im_RyanReynolds.png', 'Im_DanielCraig.png', 'Im_RobertPattinson.png', 'Im_LeonardoDiCaprio.png', 'Im_JustinTimberlake.png', 'Im_BradPitt.png'],diff,1,0.8419433000017307,5,64.28571428571429,
XAFR1107,train,neg,fs,negfs_id5_im10.bmp_negfs_id17_im8.bmp,['Im_DanielRadcliffe.png', 'Im_GeorgeClooney.png', 'Im_PatrickDempsey.png', 'Im_RyanGosling.png', 'Im_RyanReynolds.png', 'Im_DanielCraig.png', 'Im_RobertPattinson.png', 'Im_LeonardoDiCaprio.png', 'Im_JustinTimberlake.png', 'Im_BradPitt.png'],diff,1,0.4083479000000807,6,64.28571428571429,
XAFR1107,train,neg,150,neg150_id17_im8.bmp_neg150_id13_im10.bmp,['Im_DanielRadcliffe.png', 'Im_GeorgeClooney.png', 'Im_PatrickDempsey.png', 'Im_RyanGosling.png', 'Im_RyanReynolds.png', 'Im_DanielCraig.png', 'Im_RobertPattinson.png', 'Im_LeonardoDiCaprio.png', 'Im_JustinTimberlake.png', 'Im_BradPitt.png'],same,0,0.4166547000022547,6,64.28571428571429,
XAFR1107,train,neg,0,neg0_id20_im30.bmp_neg0_id20_im3.bmp,['Im_DanielRadcliffe.png', 'Im_GeorgeClooney.png', 'Im_PatrickDempsey.png', 'Im_RyanGosling.png', 'Im_RyanReynolds.png', 'Im_DanielCraig.png', 'Im_RobertPattinson.png', 'Im_LeonardoDiCaprio.png', 'Im_JustinTimberlake.png', 'Im_BradPitt.png'],same,1,0.4084669000003487,7,64.28571428571429,
XAFR1107,train,neg,120,neg120_id17_im8.bmp_neg120_id17_im9.bmp,['Im_DanielRadcliffe.png', 'Im_GeorgeClooney.png', 'Im_PatrickDempsey.png', 'Im_RyanGosling.png', 'Im_RyanReynolds.png', 'Im_DanielCraig.png', 'Im_RobertPattinson.png', 'Im_LeonardoDiCaprio.png', 'Im_JustinTimberlake.png', 'Im_BradPitt.png'],same,1,1.0918958999973256,8,64.28571428571429,
XAFR1107,train,neg,120,neg120_id3_im17.bmp_neg120_id3_im6.bmp,['Im_DanielRadcliffe.png', 'Im_GeorgeClooney.png', 'Im_PatrickDempsey.png', 'Im_RyanGosling.png', 'Im_RyanReynolds.png', 'Im_DanielCraig.png', 'Im_RobertPattinson.png', 'Im_LeonardoDiCaprio.png', 'Im_JustinTimberlake.png', 'Im_BradPitt.png'],same,1,0.41681410000092,9,64.28571428571429,
XAFR1107,train,neg,30,neg30_id21_im17.bmp_neg30_id5_im10.bmp,['Im_DanielRadcliffe.png', 'Im_GeorgeClooney.png', 'Im_PatrickDempsey.png', 'Im_RyanGosling.png', 'Im_RyanReynolds.png', 'Im_DanielCraig.png', 'Im_RobertPattinson.png', 'Im_LeonardoDiCaprio.png', 'Im_JustinTimberlake.png', 'Im_BradPitt.png'],diff,1,0.41672469999684836,10,64.28571428571429,
XAFR1107,train,inv,30,pos30_id21_im17.bmp_pos30_id21_im22.bmp,['Im_DanielRadcliffe.png', 'Im_GeorgeClooney.png', 'Im_PatrickDempsey.png', 'Im_RyanGosling.png', 'Im_RyanReynolds.png', 'Im_DanielCraig.png', 'Im_RobertPattinson.png', 'Im_LeonardoDiCaprio.png', 'Im_JustinTimberlake.png', 'Im_BradPitt.png'],same,1,1.1253680000008899,11,64.28571428571429,
XAFR1107,train,inv,150,pos150_id10_im18.bmp_pos150_id13_im29.bmp,['Im_DanielRadcliffe.png', 'Im_GeorgeClooney.png', 'Im_PatrickDempsey.png', 'Im_RyanGosling.png', 'Im_RyanReynolds.png', 'Im_DanielCraig.png', 'Im_RobertPattinson.png', 'Im_LeonardoDiCaprio.png', 'Im_JustinTimberlake.png', 'Im_BradPitt.png'],diff,1,0.4248693000008643,12,64.28571428571429,
XAFR1107,train,inv,60,pos60_id20_im12.bmp_pos60_id20_im3.bmp,['Im_DanielRadcliffe.png', 'Im_GeorgeClooney.png', 'Im_PatrickDempsey.png', 'Im_RyanGosling.png', 'Im_RyanReynolds.png', 'Im_DanielCraig.png', 'Im_RobertPattinson.png', 'Im_LeonardoDiCaprio.png', 'Im_JustinTimberlake.png', 'Im_BradPitt.png'],same,1,0.4083589000001666,13,64.28571428571429,
XAFR1107,train,inv,fs,posfs_id19_im27.bmp_posfs_id19_im8.bmp,['Im_DanielRadcliffe.png', 'Im_GeorgeClooney.png', 'Im_PatrickDempsey.png', 'Im_RyanGosling.png', 'Im_RyanReynolds.png', 'Im_DanielCraig.png', 'Im_RobertPattinson.png', 'Im_LeonardoDiCaprio.png', 'Im_JustinTimberlake.png', 'Im_BradPitt.png'],same,1,0.7250934000003326,14,64.28571428571429,
XAFR1107,train,inv,90,pos90_id3_im6.bmp_pos90_id10_im17.bmp,['Im_DanielRadcliffe.png', 'Im_GeorgeClooney.png', 'Im_PatrickDempsey.png', 'Im_RyanGosling.png', 'Im_RyanReynolds.png', 'Im_DanielCraig.png', 'Im_RobertPattinson.png', 'Im_LeonardoDiCaprio.png', 'Im_JustinTimberlake.png', 'Im_BradPitt.png'],diff,1,0.7502553000012995,15,64.28571428571429,
XAFR1107,train,inv,120,pos120_id13_im29.bmp_pos120_id13_im15.bmp,['Im_DanielRadcliffe.png', 'Im_GeorgeClooney.png', 'Im_PatrickDempsey.png', 'Im_RyanGosling.png', 'Im_RyanReynolds.png', 'Im_DanielCraig.png', 'Im_RobertPattinson.png', 'Im_LeonardoDiCaprio.png', 'Im_JustinTimberlake.png', 'Im_BradPitt.png'],diff,0,0.4164901000003738,15,64.28571428571429,
XAFR1107,train,inv,30,pos30_id10_im17.bmp_pos30_id3_im6.bmp,['Im_DanielRadcliffe.png', 'Im_GeorgeClooney.png', 'Im_PatrickDempsey.png', 'Im_RyanGosling.png', 'Im_RyanReynolds.png', 'Im_DanielCraig.png', 'Im_RobertPattinson.png', 'Im_LeonardoDiCaprio.png', 'Im_JustinTimberlake.png', 'Im_BradPitt.png'],same,0,0.41692179999881773,15,64.28571428571429,
XAFR1107,train,inv,0,pos0_id3_im17.bmp_pos0_id3_im6.bmp,['Im_DanielRadcliffe.png', 'Im_GeorgeClooney.png', 'Im_PatrickDempsey.png', 'Im_RyanGosling.png', 'Im_RyanReynolds.png', 'Im_DanielCraig.png', 'Im_RobertPattinson.png', 'Im_LeonardoDiCaprio.png', 'Im_JustinTimberlake.png', 'Im_BradPitt.png'],same,1,0.7250554000020202,16,64.28571428571429,
XAFR1107,train,inv,120,pos120_id17_im14.bmp_pos120_id17_im9.bmp,['Im_DanielRadcliffe.png', 'Im_GeorgeClooney.png', 'Im_PatrickDempsey.png', 'Im_RyanGosling.png', 'Im_RyanReynolds.png', 'Im_DanielCraig.png', 'Im_RobertPattinson.png', 'Im_LeonardoDiCaprio.png', 'Im_JustinTimberlake.png', 'Im_BradPitt.png'],diff,0,0.6336891999999352,16,64.28571428571429,
XAFR1107,train,inv,150,pos150_id17_im9.bmp_pos150_id17_im14.bmp,['Im_DanielRadcliffe.png', 'Im_GeorgeClooney.png', 'Im_PatrickDempsey.png', 'Im_RyanGosling.png', 'Im_RyanReynolds.png', 'Im_DanielCraig.png', 'Im_RobertPattinson.png', 'Im_LeonardoDiCaprio.png', 'Im_JustinTimberlake.png', 'Im_BradPitt.png'],same,1,0.8914261999998416,17,64.28571428571429,
XAFR1107,train,inv,90,pos90_id5_im10.bmp_pos90_id5_im1.bmp,['Im_DanielRadcliffe.png', 'Im_GeorgeClooney.png', 'Im_PatrickDempsey.png', 'Im_RyanGosling.png', 'Im_RyanReynolds.png', 'Im_DanielCraig.png', 'Im_RobertPattinson.png', 'Im_LeonardoDiCaprio.png', 'Im_JustinTimberlake.png', 'Im_BradPitt.png'],same,1,0.41676469999947585,18,64.28571428571429,
XAFR1107,train,inv,fs,posfs_id19_im8.bmp_posfs_id19_im4.bmp,['Im_DanielRadcliffe.png', 'Im_GeorgeClooney.png', 'Im_PatrickDempsey.png', 'Im_RyanGosling.png', 'Im_RyanReynolds.png', 'Im_DanielCraig.png', 'Im_RobertPattinson.png', 'Im_LeonardoDiCaprio.png', 'Im_JustinTimberlake.png', 'Im_BradPitt.png'],same,1,0.4083847000001697,19,64.28571428571429,
XAFR1107,train,inv,0,pos0_id7_im26.bmp_pos0_id3_im8.bmp,['Im_DanielRadcliffe.png', 'Im_GeorgeClooney.png', 'Im_PatrickDempsey.png', 'Im_RyanGosling.png', 'Im_RyanReynolds.png', 'Im_DanielCraig.png', 'Im_RobertPattinson.png', 'Im_LeonardoDiCaprio.png', 'Im_JustinTimberlake.png', 'Im_BradPitt.png'],diff,1,0.42508429999725195,20,64.28571428571429,
XAFR1107,train,inv,60,pos60_id7_im26.bmp_pos60_id3_im8.bmp,['Im_DanielRadcliffe.png', 'Im_GeorgeClooney.png', 'Im_PatrickDempsey.png', 'Im_RyanGosling.png', 'Im_RyanReynolds.png', 'Im_DanielCraig.png', 'Im_RobertPattinson.png', 'Im_LeonardoDiCaprio.png', 'Im_JustinTimberlake.png', 'Im_BradPitt.png'],diff,1,0.4083284000007552,21,64.28571428571429,
XAFR1107,train,pos,60,pos60_id3_im17.bmp_pos60_id3_im6.bmp,['Im_DanielRadcliffe.png', 'Im_GeorgeClooney.png', 'Im_PatrickDempsey.png', 'Im_RyanGosling.png', 'Im_RyanReynolds.png', 'Im_DanielCraig.png', 'Im_RobertPattinson.png', 'Im_LeonardoDiCaprio.png', 'Im_JustinTimberlake.png', 'Im_BradPitt.png'],same,1,0.750384999999369,22,64.28571428571429,
XAFR1107,train,pos,120,pos120_id20_im3.bmp_pos120_id20_im30.bmp,['Im_DanielRadcliffe.png', 'Im_GeorgeClooney.png', 'Im_PatrickDempsey.png', 'Im_RyanGosling.png', 'Im_RyanReynolds.png', 'Im_DanielCraig.png', 'Im_RobertPattinson.png', 'Im_LeonardoDiCaprio.png', 'Im_JustinTimberlake.png', 'Im_BradPitt.png'],same,1,0.41663120000157505,23,64.28571428571429,
XAFR1107,train,pos,30,pos30_id20_im3.bmp_pos30_id20_im12.bmp,['Im_DanielRadcliffe.png', 'Im_GeorgeClooney.png', 'Im_PatrickDempsey.png', 'Im_RyanGosling.png', 'Im_RyanReynolds.png', 'Im_DanielCraig.png', 'Im_RobertPattinson.png', 'Im_LeonardoDiCaprio.png', 'Im_JustinTimberlake.png', 'Im_BradPitt.png'],same,1,0.4000665999992634,24,64.28571428571429,
XAFR1107,train,pos,90,pos90_id3_im6.bmp_pos90_id10_im17.bmp,['Im_DanielRadcliffe.png', 'Im_GeorgeClooney.png', 'Im_PatrickDempsey.png', 'Im_RyanGosling.png', 'Im_RyanReynolds.png', 'Im_DanielCraig.png', 'Im_RobertPattinson.png', 'Im_LeonardoDiCaprio.png', 'Im_JustinTimberlake.png', 'Im_BradPitt.png'],diff,1,0.42503260000012233,25,64.28571428571429,
XAFR1107,train,pos,fs,posfs_id17_im9.bmp_posfs_id17_im8.bmp,['Im_DanielRadcliffe.png', 'Im_GeorgeClooney.png', 'Im_PatrickDempsey.png', 'Im_RyanGosling.png', 'Im_RyanReynolds.png', 'Im_DanielCraig.png', 'Im_RobertPattinson.png', 'Im_LeonardoDiCaprio.png', 'Im_JustinTimberlake.png', 'Im_BradPitt.png'],same,1,0.42504120000012335,26,64.28571428571429,
XAFR1107,train,pos,0,pos0_id5_im20.bmp_pos0_id5_im10.bmp,['Im_DanielRadcliffe.png', 'Im_GeorgeClooney.png', 'Im_PatrickDempsey.png', 'Im_RyanGosling.png', 'Im_RyanReynolds.png', 'Im_DanielCraig.png', 'Im_RobertPattinson.png', 'Im_LeonardoDiCaprio.png', 'Im_JustinTimberlake.png', 'Im_BradPitt.png'],same,1,0.4167331999997259,27,64.28571428571429,
XAFR1107,train,pos,90,pos90_id10_im17.bmp_pos90_id19_im4.bmp,['Im_DanielRadcliffe.png', 'Im_GeorgeClooney.png', 'Im_PatrickDempsey.png', 'Im_RyanGosling.png', 'Im_RyanReynolds.png', 'Im_DanielCraig.png', 'Im_RobertPattinson.png', 'Im_LeonardoDiCaprio.png', 'Im_JustinTimberlake.png', 'Im_BradPitt.png'],diff,1,0.42474120000042603,28,64.28571428571429,
XAFR1107,train,pos,0,pos0_id4_im15.bmp_pos0_id4_im7.bmp,['Im_DanielRadcliffe.png', 'Im_GeorgeClooney.png', 'Im_PatrickDempsey.png', 'Im_RyanGosling.png', 'Im_RyanReynolds.png', 'Im_DanielCraig.png', 'Im_RobertPattinson.png', 'Im_LeonardoDiCaprio.png', 'Im_JustinTimberlake.png', 'Im_BradPitt.png'],same,1,0.6917627999973774,29,64.28571428571429,
XAFR1107,train,pos,fs,posfs_id13_im15.bmp_posfs_id13_im10.bmp,['Im_DanielRadcliffe.png', 'Im_GeorgeClooney.png', 'Im_PatrickDempsey.png', 'Im_RyanGosling.png', 'Im_RyanReynolds.png', 'Im_DanielCraig.png', 'Im_RobertPattinson.png', 'Im_LeonardoDiCaprio.png', 'Im_JustinTimberlake.png', 'Im_BradPitt.png'],same,1,0.43338980000044103,30,64.28571428571429,
XAFR1107,train,pos,60,pos60_id13_im10.bmp_pos60_id17_im8.bmp,['Im_DanielRadcliffe.png', 'Im_GeorgeClooney.png', 'Im_PatrickDempsey.png', 'Im_RyanGosling.png', 'Im_RyanReynolds.png', 'Im_DanielCraig.png', 'Im_RobertPattinson.png', 'Im_LeonardoDiCaprio.png', 'Im_JustinTimberlake.png', 'Im_BradPitt.png'],diff,1,0.4247137999991537,31,64.28571428571429,
XAFR1107,train,pos,150,pos150_id17_im9.bmp_pos150_id17_im14.bmp,['Im_DanielRadcliffe.png', 'Im_GeorgeClooney.png', 'Im_PatrickDempsey.png', 'Im_RyanGosling.png', 'Im_RyanReynolds.png', 'Im_DanielCraig.png', 'Im_RobertPattinson.png', 'Im_LeonardoDiCaprio.png', 'Im_JustinTimberlake.png', 'Im_BradPitt.png'],diff,0,1.1835212000005413,31,64.28571428571429,
XAFR1107,train,pos,150,pos150_id20_im12.bmp_pos150_id4_im15.bmp,['Im_DanielRadcliffe.png', 'Im_GeorgeClooney.png', 'Im_PatrickDempsey.png', 'Im_RyanGosling.png', 'Im_RyanReynolds.png', 'Im_DanielCraig.png', 'Im_RobertPattinson.png', 'Im_LeonardoDiCaprio.png', 'Im_JustinTimberlake.png', 'Im_BradPitt.png'],diff,1,0.4167517999994743,32,64.28571428571429,
XAFR1107,train,pos,30,pos30_id7_im14.bmp_pos30_id17_im9.bmp,['Im_DanielRadcliffe.png', 'Im_GeorgeClooney.png', 'Im_PatrickDempsey.png', 'Im_RyanGosling.png', 'Im_RyanReynolds.png', 'Im_DanielCraig.png', 'Im_RobertPattinson.png', 'Im_LeonardoDiCaprio.png', 'Im_JustinTimberlake.png', 'Im_BradPitt.png'],diff,1,0.40838910000093165,33,64.28571428571429,
XAFR1107,train,pos,120,pos120_id19_im4.bmp_pos120_id4_im7.bmp,['Im_DanielRadcliffe.png', 'Im_GeorgeClooney.png', 'Im_PatrickDempsey.png', 'Im_RyanGosling.png', 'Im_RyanReynolds.png', 'Im_DanielCraig.png', 'Im_RobertPattinson.png', 'Im_LeonardoDiCaprio.png', 'Im_JustinTimberlake.png', 'Im_BradPitt.png'],diff,1,0.40845009999975446,34,64.28571428571429,
XAFR1107,train,neg,90,neg90_id19_im4.bmp_neg90_id10_im17.bmp,['Im_DanielRadcliffe.png', 'Im_GeorgeClooney.png', 'Im_PatrickDempsey.png', 'Im_RyanGosling.png', 'Im_RyanReynolds.png', 'Im_DanielCraig.png', 'Im_RobertPattinson.png', 'Im_LeonardoDiCaprio.png', 'Im_JustinTimberlake.png', 'Im_BradPitt.png'],same,0,0.4250810999983514,0,80.95238095238095,
XAFR1107,train,neg,60,neg60_id4_im20.bmp_neg60_id4_im15.bmp,['Im_DanielRadcliffe.png', 'Im_GeorgeClooney.png', 'Im_PatrickDempsey.png', 'Im_RyanGosling.png', 'Im_RyanReynolds.png', 'Im_DanielCraig.png', 'Im_RobertPattinson.png', 'Im_LeonardoDiCaprio.png', 'Im_JustinTimberlake.png', 'Im_BradPitt.png'],same,1,0.4333900999990874,1,80.95238095238095,
XAFR1107,train,neg,90,neg90_id21_im16.bmp_neg90_id21_im17.bmp,['Im_DanielRadcliffe.png', 'Im_GeorgeClooney.png', 'Im_PatrickDempsey.png', 'Im_RyanGosling.png', 'Im_RyanReynolds.png', 'Im_DanielCraig.png', 'Im_RobertPattinson.png', 'Im_LeonardoDiCaprio.png', 'Im_JustinTimberlake.png', 'Im_BradPitt.png'],diff,0,0.7833805000009306,1,80.95238095238095,
XAFR1107,train,neg,fs,negfs_id7_im15.bmp_negfs_id7_im26.bmp,['Im_DanielRadcliffe.png', 'Im_GeorgeClooney.png', 'Im_PatrickDempsey.png', 'Im_RyanGosling.png', 'Im_RyanReynolds.png', 'Im_DanielCraig.png', 'Im_RobertPattinson.png', 'Im_LeonardoDiCaprio.png', 'Im_JustinTimberlake.png', 'Im_BradPitt.png'],same,1,0.4082893000013428,2,80.95238095238095,
XAFR1107,train,neg,fs,negfs_id3_im6.bmp_negfs_id3_im8.bmp,['Im_DanielRadcliffe.png', 'Im_GeorgeClooney.png', 'Im_PatrickDempsey.png', 'Im_RyanGosling.png', 'Im_RyanReynolds.png', 'Im_DanielCraig.png', 'Im_RobertPattinson.png', 'Im_LeonardoDiCaprio.png', 'Im_JustinTimberlake.png', 'Im_BradPitt.png'],same,1,0.42521430000124383,3,80.95238095238095,
XAFR1107,train,neg,150,neg150_id5_im1.bmp_neg150_id10_im1.bmp,['Im_DanielRadcliffe.png', 'Im_GeorgeClooney.png', 'Im_PatrickDempsey.png', 'Im_RyanGosling.png', 'Im_RyanReynolds.png', 'Im_DanielCraig.png', 'Im_RobertPattinson.png', 'Im_LeonardoDiCaprio.png', 'Im_JustinTimberlake.png', 'Im_BradPitt.png'],diff,1,0.42511039999953937,4,80.95238095238095,
XAFR1107,train,neg,120,neg120_id20_im12.bmp_neg120_id20_im30.bmp,['Im_DanielRadcliffe.png', 'Im_GeorgeClooney.png', 'Im_PatrickDempsey.png', 'Im_RyanGosling.png', 'Im_RyanReynolds.png', 'Im_DanielCraig.png', 'Im_RobertPattinson.png', 'Im_LeonardoDiCaprio.png', 'Im_JustinTimberlake.png', 'Im_BradPitt.png'],same,1,0.41672550000293995,5,80.95238095238095,
XAFR1107,train,neg,60,neg60_id10_im18.bmp_neg60_id21_im22.bmp,['Im_DanielRadcliffe.png', 'Im_GeorgeClooney.png', 'Im_PatrickDempsey.png', 'Im_RyanGosling.png', 'Im_RyanReynolds.png', 'Im_DanielCraig.png', 'Im_RobertPattinson.png', 'Im_LeonardoDiCaprio.png', 'Im_JustinTimberlake.png', 'Im_BradPitt.png'],same,0,0.4253614999979618,5,80.95238095238095,
XAFR1107,train,neg,0,neg0_id21_im22.bmp_neg0_id4_im20.bmp,['Im_DanielRadcliffe.png', 'Im_GeorgeClooney.png', 'Im_PatrickDempsey.png', 'Im_RyanGosling.png', 'Im_RyanReynolds.png', 'Im_DanielCraig.png', 'Im_RobertPattinson.png', 'Im_LeonardoDiCaprio.png', 'Im_JustinTimberlake.png', 'Im_BradPitt.png'],diff,1,0.41654600000038045,6,80.95238095238095,
XAFR1107,train,neg,30,neg30_id20_im3.bmp_neg30_id7_im15.bmp,['Im_DanielRadcliffe.png', 'Im_GeorgeClooney.png', 'Im_PatrickDempsey.png', 'Im_RyanGosling.png', 'Im_RyanReynolds.png', 'Im_DanielCraig.png', 'Im_RobertPattinson.png', 'Im_LeonardoDiCaprio.png', 'Im_JustinTimberlake.png', 'Im_BradPitt.png'],diff,1,0.4250121000004583,7,80.95238095238095,
XAFR1107,train,neg,120,neg120_id3_im8.bmp_neg120_id3_im6.bmp,['Im_DanielRadcliffe.png', 'Im_GeorgeClooney.png', 'Im_PatrickDempsey.png', 'Im_RyanGosling.png', 'Im_RyanReynolds.png', 'Im_DanielCraig.png', 'Im_RobertPattinson.png', 'Im_LeonardoDiCaprio.png', 'Im_JustinTimberlake.png', 'Im_BradPitt.png'],diff,0,0.475234300000011,7,80.95238095238095,
XAFR1107,train,neg,0,neg0_id7_im15.bmp_neg0_id20_im3.bmp,['Im_DanielRadcliffe.png', 'Im_GeorgeClooney.png', 'Im_PatrickDempsey.png', 'Im_RyanGosling.png', 'Im_RyanReynolds.png', 'Im_DanielCraig.png', 'Im_RobertPattinson.png', 'Im_LeonardoDiCaprio.png', 'Im_JustinTimberlake.png', 'Im_BradPitt.png'],diff,1,0.5416138999971736,8,80.95238095238095,
XAFR1107,train,neg,150,neg150_id17_im8.bmp_neg150_id5_im10.bmp,['Im_DanielRadcliffe.png', 'Im_GeorgeClooney.png', 'Im_PatrickDempsey.png', 'Im_RyanGosling.png', 'Im_RyanReynolds.png', 'Im_DanielCraig.png', 'Im_RobertPattinson.png', 'Im_LeonardoDiCaprio.png', 'Im_JustinTimberlake.png', 'Im_BradPitt.png'],diff,1,0.4164110999990953,9,80.95238095238095,
XAFR1107,train,neg,30,neg30_id19_im8.bmp_neg30_id19_im27.bmp,['Im_DanielRadcliffe.png', 'Im_GeorgeClooney.png', 'Im_PatrickDempsey.png', 'Im_RyanGosling.png', 'Im_RyanReynolds.png', 'Im_DanielCraig.png', 'Im_RobertPattinson.png', 'Im_LeonardoDiCaprio.png', 'Im_JustinTimberlake.png', 'Im_BradPitt.png'],same,1,0.5918368999991799,10,80.95238095238095,
XAFR1107,train,pos,120,pos120_id17_im8.bmp_pos120_id17_im9.bmp,['Im_DanielRadcliffe.png', 'Im_GeorgeClooney.png', 'Im_PatrickDempsey.png', 'Im_RyanGosling.png', 'Im_RyanReynolds.png', 'Im_DanielCraig.png', 'Im_RobertPattinson.png', 'Im_LeonardoDiCaprio.png', 'Im_JustinTimberlake.png', 'Im_BradPitt.png'],same,1,0.41688589999830583,11,80.95238095238095,
XAFR1107,train,pos,30,pos30_id7_im14.bmp_pos30_id7_im15.bmp,['Im_DanielRadcliffe.png', 'Im_GeorgeClooney.png', 'Im_PatrickDempsey.png', 'Im_RyanGosling.png', 'Im_RyanReynolds.png', 'Im_DanielCraig.png', 'Im_RobertPattinson.png', 'Im_LeonardoDiCaprio.png', 'Im_JustinTimberlake.png', 'Im_BradPitt.png'],same,1,0.4251800000020012,12,80.95238095238095,
XAFR1107,train,pos,60,pos60_id20_im30.bmp_pos60_id17_im9.bmp,['Im_DanielRadcliffe.png', 'Im_GeorgeClooney.png', 'Im_PatrickDempsey.png', 'Im_RyanGosling.png', 'Im_RyanReynolds.png', 'Im_DanielCraig.png', 'Im_RobertPattinson.png', 'Im_LeonardoDiCaprio.png', 'Im_JustinTimberlake.png', 'Im_BradPitt.png'],diff,1,0.9250671000008879,13,80.95238095238095,
XAFR1107,train,pos,0,pos0_id17_im8.bmp_pos0_id17_im9.bmp,['Im_DanielRadcliffe.png', 'Im_GeorgeClooney.png', 'Im_PatrickDempsey.png', 'Im_RyanGosling.png', 'Im_RyanReynolds.png', 'Im_DanielCraig.png', 'Im_RobertPattinson.png', 'Im_LeonardoDiCaprio.png', 'Im_JustinTimberlake.png', 'Im_BradPitt.png'],same,1,0.48372050000034506,14,80.95238095238095,
XAFR1107,train,pos,60,pos60_id4_im7.bmp_pos60_id4_im15.bmp,['Im_DanielRadcliffe.png', 'Im_GeorgeClooney.png', 'Im_PatrickDempsey.png', 'Im_RyanGosling.png', 'Im_RyanReynolds.png', 'Im_DanielCraig.png', 'Im_RobertPattinson.png', 'Im_LeonardoDiCaprio.png', 'Im_JustinTimberlake.png', 'Im_BradPitt.png'],same,1,2.2668704999996407,15,80.95238095238095,
XAFR1107,train,pos,150,pos150_id3_im8.bmp_pos150_id3_im6.bmp,['Im_DanielRadcliffe.png', 'Im_GeorgeClooney.png', 'Im_PatrickDempsey.png', 'Im_RyanGosling.png', 'Im_RyanReynolds.png', 'Im_DanielCraig.png', 'Im_RobertPattinson.png', 'Im_LeonardoDiCaprio.png', 'Im_JustinTimberlake.png', 'Im_BradPitt.png'],same,1,0.40840729999763425,16,80.95238095238095,
XAFR1107,train,pos,120,pos120_id13_im10.bmp_pos120_id20_im30.bmp,['Im_DanielRadcliffe.png', 'Im_GeorgeClooney.png', 'Im_PatrickDempsey.png', 'Im_RyanGosling.png', 'Im_RyanReynolds.png', 'Im_DanielCraig.png', 'Im_RobertPattinson.png', 'Im_LeonardoDiCaprio.png', 'Im_JustinTimberlake.png', 'Im_BradPitt.png'],diff,1,0.408368899999914,17,80.95238095238095,
XAFR1107,train,pos,fs,posfs_id21_im22.bmp_posfs_id4_im20.bmp,['Im_DanielRadcliffe.png', 'Im_GeorgeClooney.png', 'Im_PatrickDempsey.png', 'Im_RyanGosling.png', 'Im_RyanReynolds.png', 'Im_DanielCraig.png', 'Im_RobertPattinson.png', 'Im_LeonardoDiCaprio.png', 'Im_JustinTimberlake.png', 'Im_BradPitt.png'],diff,1,0.4253117999978713,18,80.95238095238095,
XAFR1107,train,pos,30,pos30_id13_im10.bmp_pos30_id13_im29.bmp,['Im_DanielRadcliffe.png', 'Im_GeorgeClooney.png', 'Im_PatrickDempsey.png', 'Im_RyanGosling.png', 'Im_RyanReynolds.png', 'Im_DanielCraig.png', 'Im_RobertPattinson.png', 'Im_LeonardoDiCaprio.png', 'Im_JustinTimberlake.png', 'Im_BradPitt.png'],same,1,0.41639430000213906,19,80.95238095238095,
XAFR1107,train,pos,fs,posfs_id17_im9.bmp_posfs_id7_im14.bmp,['Im_DanielRadcliffe.png', 'Im_GeorgeClooney.png', 'Im_PatrickDempsey.png', 'Im_RyanGosling.png', 'Im_RyanReynolds.png', 'Im_DanielCraig.png', 'Im_RobertPattinson.png', 'Im_LeonardoDiCaprio.png', 'Im_JustinTimberlake.png', 'Im_BradPitt.png'],diff,1,0.4166603000012401,20,80.95238095238095,
XAFR1107,train,pos,150,pos150_id19_im27.bmp_pos150_id13_im15.bmp,['Im_DanielRadcliffe.png', 'Im_GeorgeClooney.png', 'Im_PatrickDempsey.png', 'Im_RyanGosling.png', 'Im_RyanReynolds.png', 'Im_DanielCraig.png', 'Im_RobertPattinson.png', 'Im_LeonardoDiCaprio.png', 'Im_JustinTimberlake.png', 'Im_BradPitt.png'],same,0,1.049906899999769,20,80.95238095238095,
XAFR1107,train,pos,90,pos90_id10_im18.bmp_pos90_id10_im1.bmp,['Im_DanielRadcliffe.png', 'Im_GeorgeClooney.png', 'Im_PatrickDempsey.png', 'Im_RyanGosling.png', 'Im_RyanReynolds.png', 'Im_DanielCraig.png', 'Im_RobertPattinson.png', 'Im_LeonardoDiCaprio.png', 'Im_JustinTimberlake.png', 'Im_BradPitt.png'],same,1,0.4248931000001903,21,80.95238095238095,
XAFR1107,train,pos,90,pos90_id5_im10.bmp_pos90_id5_im1.bmp,['Im_DanielRadcliffe.png', 'Im_GeorgeClooney.png', 'Im_PatrickDempsey.png', 'Im_RyanGosling.png', 'Im_RyanReynolds.png', 'Im_DanielCraig.png', 'Im_RobertPattinson.png', 'Im_LeonardoDiCaprio.png', 'Im_JustinTimberlake.png', 'Im_BradPitt.png'],same,1,0.4166798000005656,22,80.95238095238095,
XAFR1107,train,pos,0,pos0_id5_im10.bmp_pos0_id21_im17.bmp,['Im_DanielRadcliffe.png', 'Im_GeorgeClooney.png', 'Im_PatrickDempsey.png', 'Im_RyanGosling.png', 'Im_RyanReynolds.png', 'Im_DanielCraig.png', 'Im_RobertPattinson.png', 'Im_LeonardoDiCaprio.png', 'Im_JustinTimberlake.png', 'Im_BradPitt.png'],diff,1,0.40835299999889685,23,80.95238095238095,
XAFR1107,train,inv,60,pos60_id7_im15.bmp_pos60_id7_im26.bmp,['Im_DanielRadcliffe.png', 'Im_GeorgeClooney.png', 'Im_PatrickDempsey.png', 'Im_RyanGosling.png', 'Im_RyanReynolds.png', 'Im_DanielCraig.png', 'Im_RobertPattinson.png', 'Im_LeonardoDiCaprio.png', 'Im_JustinTimberlake.png', 'Im_BradPitt.png'],same,1,0.4083270999981323,24,80.95238095238095,
XAFR1107,train,inv,150,pos150_id19_im8.bmp_pos150_id3_im6.bmp,['Im_DanielRadcliffe.png', 'Im_GeorgeClooney.png', 'Im_PatrickDempsey.png', 'Im_RyanGosling.png', 'Im_RyanReynolds.png', 'Im_DanielCraig.png', 'Im_RobertPattinson.png', 'Im_LeonardoDiCaprio.png', 'Im_JustinTimberlake.png', 'Im_BradPitt.png'],diff,1,0.4168004999992263,25,80.95238095238095,
XAFR1107,train,inv,30,pos30_id5_im20.bmp_pos30_id5_im1.bmp,['Im_DanielRadcliffe.png', 'Im_GeorgeClooney.png', 'Im_PatrickDempsey.png', 'Im_RyanGosling.png', 'Im_RyanReynolds.png', 'Im_DanielCraig.png', 'Im_RobertPattinson.png', 'Im_LeonardoDiCaprio.png', 'Im_JustinTimberlake.png', 'Im_BradPitt.png'],same,1,0.4502363999999943,26,80.95238095238095,
XAFR1107,train,inv,120,pos120_id3_im17.bmp_pos120_id3_im8.bmp,['Im_DanielRadcliffe.png', 'Im_GeorgeClooney.png', 'Im_PatrickDempsey.png', 'Im_RyanGosling.png', 'Im_RyanReynolds.png', 'Im_DanielCraig.png', 'Im_RobertPattinson.png', 'Im_LeonardoDiCaprio.png', 'Im_JustinTimberlake.png', 'Im_BradPitt.png'],same,1,0.5086824999998498,27,80.95238095238095,
XAFR1107,train,inv,fs,posfs_id17_im14.bmp_posfs_id17_im8.bmp,['Im_DanielRadcliffe.png', 'Im_GeorgeClooney.png', 'Im_PatrickDempsey.png', 'Im_RyanGosling.png', 'Im_RyanReynolds.png', 'Im_DanielCraig.png', 'Im_RobertPattinson.png', 'Im_LeonardoDiCaprio.png', 'Im_JustinTimberlake.png', 'Im_BradPitt.png'],diff,0,0.4166646999983641,27,80.95238095238095,
XAFR1107,train,inv,fs,posfs_id10_im17.bmp_posfs_id19_im4.bmp,['Im_DanielRadcliffe.png', 'Im_GeorgeClooney.png', 'Im_PatrickDempsey.png', 'Im_RyanGosling.png', 'Im_RyanReynolds.png', 'Im_DanielCraig.png', 'Im_RobertPattinson.png', 'Im_LeonardoDiCaprio.png', 'Im_JustinTimberlake.png', 'Im_BradPitt.png'],diff,1,0.416824899999483,28,80.95238095238095,
XAFR1107,train,inv,30,pos30_id5_im10.bmp_pos30_id5_im20.bmp,['Im_DanielRadcliffe.png', 'Im_GeorgeClooney.png', 'Im_PatrickDempsey.png', 'Im_RyanGosling.png', 'Im_RyanReynolds.png', 'Im_DanielCraig.png', 'Im_RobertPattinson.png', 'Im_LeonardoDiCaprio.png', 'Im_JustinTimberlake.png', 'Im_BradPitt.png'],diff,0,0.41660269999920274,28,80.95238095238095,
XAFR1107,train,inv,90,pos90_id4_im7.bmp_pos90_id4_im20.bmp,['Im_DanielRadcliffe.png', 'Im_GeorgeClooney.png', 'Im_PatrickDempsey.png', 'Im_RyanGosling.png', 'Im_RyanReynolds.png', 'Im_DanielCraig.png', 'Im_RobertPattinson.png', 'Im_LeonardoDiCaprio.png', 'Im_JustinTimberlake.png', 'Im_BradPitt.png'],same,1,0.424829999999929,29,80.95238095238095,
XAFR1107,train,inv,60,pos60_id7_im26.bmp_pos60_id20_im3.bmp,['Im_DanielRadcliffe.png', 'Im_GeorgeClooney.png', 'Im_PatrickDempsey.png', 'Im_RyanGosling.png', 'Im_RyanReynolds.png', 'Im_DanielCraig.png', 'Im_RobertPattinson.png', 'Im_LeonardoDiCaprio.png', 'Im_JustinTimberlake.png', 'Im_BradPitt.png'],same,0,0.408357000000251,29,80.95238095238095,
XAFR1107,train,inv,0,pos0_id13_im15.bmp_pos0_id13_im29.bmp,['Im_DanielRadcliffe.png', 'Im_GeorgeClooney.png', 'Im_PatrickDempsey.png', 'Im_RyanGosling.png', 'Im_RyanReynolds.png', 'Im_DanielCraig.png', 'Im_RobertPattinson.png', 'Im_LeonardoDiCaprio.png', 'Im_JustinTimberlake.png', 'Im_BradPitt.png'],diff,0,0.49183819999962,29,80.95238095238095,
XAFR1107,train,inv,90,pos90_id3_im6.bmp_pos90_id19_im8.bmp,['Im_DanielRadcliffe.png', 'Im_GeorgeClooney.png', 'Im_PatrickDempsey.png', 'Im_RyanGosling.png', 'Im_RyanReynolds.png', 'Im_DanielCraig.png', 'Im_RobertPattinson.png', 'Im_LeonardoDiCaprio.png', 'Im_JustinTimberlake.png', 'Im_BradPitt.png'],same,0,0.45852709999962826,29,80.95238095238095,
XAFR1107,train,inv,0,pos0_id4_im7.bmp_pos0_id4_im15.bmp,['Im_DanielRadcliffe.png', 'Im_GeorgeClooney.png', 'Im_PatrickDempsey.png', 'Im_RyanGosling.png', 'Im_RyanReynolds.png', 'Im_DanielCraig.png', 'Im_RobertPattinson.png', 'Im_LeonardoDiCaprio.png', 'Im_JustinTimberlake.png', 'Im_BradPitt.png'],diff,0,0.41676409999854513,29,80.95238095238095,
XAFR1107,train,inv,150,pos150_id5_im10.bmp_pos150_id5_im1.bmp,['Im_DanielRadcliffe.png', 'Im_GeorgeClooney.png', 'Im_PatrickDempsey.png', 'Im_RyanGosling.png', 'Im_RyanReynolds.png', 'Im_DanielCraig.png', 'Im_RobertPattinson.png', 'Im_LeonardoDiCaprio.png', 'Im_JustinTimberlake.png', 'Im_BradPitt.png'],same,1,0.39998130000094534,30,80.95238095238095,
XAFR1107,train,inv,120,pos120_id17_im9.bmp_pos120_id20_im30.bmp,['Im_DanielRadcliffe.png', 'Im_GeorgeClooney.png', 'Im_PatrickDempsey.png', 'Im_RyanGosling.png', 'Im_RyanReynolds.png', 'Im_DanielCraig.png', 'Im_RobertPattinson.png', 'Im_LeonardoDiCaprio.png', 'Im_JustinTimberlake.png', 'Im_BradPitt.png'],same,0,0.41669349999938277,30,80.95238095238095,
XAFR1107,train,inv,120,pos120_id19_im27.bmp_pos120_id13_im15.bmp,['Im_DanielRadcliffe.png', 'Im_GeorgeClooney.png', 'Im_PatrickDempsey.png', 'Im_RyanGosling.png', 'Im_RyanReynolds.png', 'Im_DanielCraig.png', 'Im_RobertPattinson.png', 'Im_LeonardoDiCaprio.png', 'Im_JustinTimberlake.png', 'Im_BradPitt.png'],same,0,0.425038699999277,0,71.42857142857143,
XAFR1107,train,inv,30,pos30_id13_im29.bmp_pos30_id13_im10.bmp,['Im_DanielRadcliffe.png', 'Im_GeorgeClooney.png', 'Im_PatrickDempsey.png', 'Im_RyanGosling.png', 'Im_RyanReynolds.png', 'Im_DanielCraig.png', 'Im_RobertPattinson.png', 'Im_LeonardoDiCaprio.png', 'Im_JustinTimberlake.png', 'Im_BradPitt.png'],diff,0,0.40830800000185263,0,71.42857142857143,
XAFR1107,train,inv,90,pos90_id13_im10.bmp_pos90_id13_im29.bmp,['Im_DanielRadcliffe.png', 'Im_GeorgeClooney.png', 'Im_PatrickDempsey.png', 'Im_RyanGosling.png', 'Im_RyanReynolds.png', 'Im_DanielCraig.png', 'Im_RobertPattinson.png', 'Im_LeonardoDiCaprio.png', 'Im_JustinTimberlake.png', 'Im_BradPitt.png'],same,1,0.42503209999995306,1,71.42857142857143,
XAFR1107,train,inv,60,pos60_id21_im16.bmp_pos60_id21_im17.bmp,['Im_DanielRadcliffe.png', 'Im_GeorgeClooney.png', 'Im_PatrickDempsey.png', 'Im_RyanGosling.png', 'Im_RyanReynolds.png', 'Im_DanielCraig.png', 'Im_RobertPattinson.png', 'Im_LeonardoDiCaprio.png', 'Im_JustinTimberlake.png', 'Im_BradPitt.png'],diff,0,0.41667790000064997,1,71.42857142857143,
XAFR1107,train,inv,120,pos120_id19_im8.bmp_pos120_id3_im6.bmp,['Im_DanielRadcliffe.png', 'Im_GeorgeClooney.png', 'Im_PatrickDempsey.png', 'Im_RyanGosling.png', 'Im_RyanReynolds.png', 'Im_DanielCraig.png', 'Im_RobertPattinson.png', 'Im_LeonardoDiCaprio.png', 'Im_JustinTimberlake.png', 'Im_BradPitt.png'],same,0,0.4167148000015004,1,71.42857142857143,
XAFR1107,train,inv,60,pos60_id17_im8.bmp_pos60_id17_im9.bmp,['Im_DanielRadcliffe.png', 'Im_GeorgeClooney.png', 'Im_PatrickDempsey.png', 'Im_RyanGosling.png', 'Im_RyanReynolds.png', 'Im_DanielCraig.png', 'Im_RobertPattinson.png', 'Im_LeonardoDiCaprio.png', 'Im_JustinTimberlake.png', 'Im_BradPitt.png'],same,1,0.42507470000055037,2,71.42857142857143,
XAFR1107,train,inv,0,pos0_id10_im18.bmp_pos0_id21_im22.bmp,['Im_DanielRadcliffe.png', 'Im_GeorgeClooney.png', 'Im_PatrickDempsey.png', 'Im_RyanGosling.png', 'Im_RyanReynolds.png', 'Im_DanielCraig.png', 'Im_RobertPattinson.png', 'Im_LeonardoDiCaprio.png', 'Im_JustinTimberlake.png', 'Im_BradPitt.png'],same,0,0.4419472000008682,2,71.42857142857143,
XAFR1107,train,inv,fs,posfs_id20_im12.bmp_posfs_id4_im15.bmp,['Im_DanielRadcliffe.png', 'Im_GeorgeClooney.png', 'Im_PatrickDempsey.png', 'Im_RyanGosling.png', 'Im_RyanReynolds.png', 'Im_DanielCraig.png', 'Im_RobertPattinson.png', 'Im_LeonardoDiCaprio.png', 'Im_JustinTimberlake.png', 'Im_BradPitt.png'],diff,1,0.4255918999988353,3,71.42857142857143,
XAFR1107,train,inv,90,pos90_id3_im8.bmp_pos90_id7_im26.bmp,['Im_DanielRadcliffe.png', 'Im_GeorgeClooney.png', 'Im_PatrickDempsey.png', 'Im_RyanGosling.png', 'Im_RyanReynolds.png', 'Im_DanielCraig.png', 'Im_RobertPattinson.png', 'Im_LeonardoDiCaprio.png', 'Im_JustinTimberlake.png', 'Im_BradPitt.png'],same,0,0.42508149999775924,3,71.42857142857143,
XAFR1107,train,inv,30,pos30_id3_im6.bmp_pos30_id3_im8.bmp,['Im_DanielRadcliffe.png', 'Im_GeorgeClooney.png', 'Im_PatrickDempsey.png', 'Im_RyanGosling.png', 'Im_RyanReynolds.png', 'Im_DanielCraig.png', 'Im_RobertPattinson.png', 'Im_LeonardoDiCaprio.png', 'Im_JustinTimberlake.png', 'Im_BradPitt.png'],diff,0,0.5001358000008622,3,71.42857142857143,
XAFR1107,train,inv,150,pos150_id21_im16.bmp_pos150_id7_im15.bmp,['Im_DanielRadcliffe.png', 'Im_GeorgeClooney.png', 'Im_PatrickDempsey.png', 'Im_RyanGosling.png', 'Im_RyanReynolds.png', 'Im_DanielCraig.png', 'Im_RobertPattinson.png', 'Im_LeonardoDiCaprio.png', 'Im_JustinTimberlake.png', 'Im_BradPitt.png'],same,0,0.41638569999850006,3,71.42857142857143,
XAFR1107,train,inv,fs,posfs_id5_im10.bmp_posfs_id5_im1.bmp,['Im_DanielRadcliffe.png', 'Im_GeorgeClooney.png', 'Im_PatrickDempsey.png', 'Im_RyanGosling.png', 'Im_RyanReynolds.png', 'Im_DanielCraig.png', 'Im_RobertPattinson.png', 'Im_LeonardoDiCaprio.png', 'Im_JustinTimberlake.png', 'Im_BradPitt.png'],same,1,0.5332875999993121,4,71.42857142857143,
XAFR1107,train,inv,0,pos0_id20_im30.bmp_pos0_id13_im10.bmp,['Im_DanielRadcliffe.png', 'Im_GeorgeClooney.png', 'Im_PatrickDempsey.png', 'Im_RyanGosling.png', 'Im_RyanReynolds.png', 'Im_DanielCraig.png', 'Im_RobertPattinson.png', 'Im_LeonardoDiCaprio.png', 'Im_JustinTimberlake.png', 'Im_BradPitt.png'],diff,1,0.41655460000038147,5,71.42857142857143,
XAFR1107,train,inv,150,pos150_id13_im10.bmp_pos150_id13_im29.bmp,['Im_DanielRadcliffe.png', 'Im_GeorgeClooney.png', 'Im_PatrickDempsey.png', 'Im_RyanGosling.png', 'Im_RyanReynolds.png', 'Im_DanielCraig.png', 'Im_RobertPattinson.png', 'Im_LeonardoDiCaprio.png', 'Im_JustinTimberlake.png', 'Im_BradPitt.png'],same,1,0.8502599000021291,6,71.42857142857143,
XAFR1107,train,neg,60,neg60_id21_im16.bmp_neg60_id17_im14.bmp,['Im_DanielRadcliffe.png', 'Im_GeorgeClooney.png', 'Im_PatrickDempsey.png', 'Im_RyanGosling.png', 'Im_RyanReynolds.png', 'Im_DanielCraig.png', 'Im_RobertPattinson.png', 'Im_LeonardoDiCaprio.png', 'Im_JustinTimberlake.png', 'Im_BradPitt.png'],diff,1,0.4164440000022296,7,71.42857142857143,
XAFR1107,train,neg,150,neg150_id21_im16.bmp_neg150_id21_im17.bmp,['Im_DanielRadcliffe.png', 'Im_GeorgeClooney.png', 'Im_PatrickDempsey.png', 'Im_RyanGosling.png', 'Im_RyanReynolds.png', 'Im_DanielCraig.png', 'Im_RobertPattinson.png', 'Im_LeonardoDiCaprio.png', 'Im_JustinTimberlake.png', 'Im_BradPitt.png'],same,1,0.4083566000008432,8,71.42857142857143,
XAFR1107,train,neg,90,neg90_id5_im20.bmp_neg90_id17_im14.bmp,['Im_DanielRadcliffe.png', 'Im_GeorgeClooney.png', 'Im_PatrickDempsey.png', 'Im_RyanGosling.png', 'Im_RyanReynolds.png', 'Im_DanielCraig.png', 'Im_RobertPattinson.png', 'Im_LeonardoDiCaprio.png', 'Im_JustinTimberlake.png', 'Im_BradPitt.png'],diff,1,0.4165246999982628,9,71.42857142857143,
XAFR1107,train,neg,90,neg90_id4_im20.bmp_neg90_id4_im15.bmp,['Im_DanielRadcliffe.png', 'Im_GeorgeClooney.png', 'Im_PatrickDempsey.png', 'Im_RyanGosling.png', 'Im_RyanReynolds.png', 'Im_DanielCraig.png', 'Im_RobertPattinson.png', 'Im_LeonardoDiCaprio.png', 'Im_JustinTimberlake.png', 'Im_BradPitt.png'],same,1,0.4082693999989715,10,71.42857142857143,
XAFR1107,train,neg,30,neg30_id17_im9.bmp_neg30_id7_im14.bmp,['Im_DanielRadcliffe.png', 'Im_GeorgeClooney.png', 'Im_PatrickDempsey.png', 'Im_RyanGosling.png', 'Im_RyanReynolds.png', 'Im_DanielCraig.png', 'Im_RobertPattinson.png', 'Im_LeonardoDiCaprio.png', 'Im_JustinTimberlake.png', 'Im_BradPitt.png'],diff,1,0.4334402999993472,11,71.42857142857143,
XAFR1107,train,neg,120,neg120_id13_im10.bmp_neg120_id13_im15.bmp,['Im_DanielRadcliffe.png', 'Im_GeorgeClooney.png', 'Im_PatrickDempsey.png', 'Im_RyanGosling.png', 'Im_RyanReynolds.png', 'Im_DanielCraig.png', 'Im_RobertPattinson.png', 'Im_LeonardoDiCaprio.png', 'Im_JustinTimberlake.png', 'Im_BradPitt.png'],same,1,0.424848300001031,12,71.42857142857143,
XAFR1107,train,neg,0,neg0_id10_im1.bmp_neg0_id3_im17.bmp,['Im_DanielRadcliffe.png', 'Im_GeorgeClooney.png', 'Im_PatrickDempsey.png', 'Im_RyanGosling.png', 'Im_RyanReynolds.png', 'Im_DanielCraig.png', 'Im_RobertPattinson.png', 'Im_LeonardoDiCaprio.png', 'Im_JustinTimberlake.png', 'Im_BradPitt.png'],diff,1,0.4250261000015598,13,71.42857142857143,
XAFR1107,train,neg,fs,negfs_id19_im8.bmp_negfs_id19_im4.bmp,['Im_DanielRadcliffe.png', 'Im_GeorgeClooney.png', 'Im_PatrickDempsey.png', 'Im_RyanGosling.png', 'Im_RyanReynolds.png', 'Im_DanielCraig.png', 'Im_RobertPattinson.png', 'Im_LeonardoDiCaprio.png', 'Im_JustinTimberlake.png', 'Im_BradPitt.png'],diff,0,0.4083712999999989,13,71.42857142857143,
XAFR1107,train,neg,60,neg60_id10_im17.bmp_neg60_id19_im4.bmp,['Im_DanielRadcliffe.png', 'Im_GeorgeClooney.png', 'Im_PatrickDempsey.png', 'Im_RyanGosling.png', 'Im_RyanReynolds.png', 'Im_DanielCraig.png', 'Im_RobertPattinson.png', 'Im_LeonardoDiCaprio.png', 'Im_JustinTimberlake.png', 'Im_BradPitt.png'],same,0,1.2000504999996338,13,71.42857142857143,
XAFR1107,train,neg,fs,negfs_id19_im8.bmp_negfs_id4_im7.bmp,['Im_DanielRadcliffe.png', 'Im_GeorgeClooney.png', 'Im_PatrickDempsey.png', 'Im_RyanGosling.png', 'Im_RyanReynolds.png', 'Im_DanielCraig.png', 'Im_RobertPattinson.png', 'Im_LeonardoDiCaprio.png', 'Im_JustinTimberlake.png', 'Im_BradPitt.png'],diff,1,0.416568600001483,14,71.42857142857143,
XAFR1107,train,neg,150,neg150_id10_im18.bmp_neg150_id10_im1.bmp,['Im_DanielRadcliffe.png', 'Im_GeorgeClooney.png', 'Im_PatrickDempsey.png', 'Im_RyanGosling.png', 'Im_RyanReynolds.png', 'Im_DanielCraig.png', 'Im_RobertPattinson.png', 'Im_LeonardoDiCaprio.png', 'Im_JustinTimberlake.png', 'Im_BradPitt.png'],same,1,0.424761899997975,15,71.42857142857143,
XAFR1107,train,neg,30,neg30_id3_im6.bmp_neg30_id3_im17.bmp,['Im_DanielRadcliffe.png', 'Im_GeorgeClooney.png', 'Im_PatrickDempsey.png', 'Im_RyanGosling.png', 'Im_RyanReynolds.png', 'Im_DanielCraig.png', 'Im_RobertPattinson.png', 'Im_LeonardoDiCaprio.png', 'Im_JustinTimberlake.png', 'Im_BradPitt.png'],same,1,0.4085330999987491,16,71.42857142857143,
XAFR1107,train,neg,120,neg120_id7_im15.bmp_neg120_id20_im3.bmp,['Im_DanielRadcliffe.png', 'Im_GeorgeClooney.png', 'Im_PatrickDempsey.png', 'Im_RyanGosling.png', 'Im_RyanReynolds.png', 'Im_DanielCraig.png', 'Im_RobertPattinson.png', 'Im_LeonardoDiCaprio.png', 'Im_JustinTimberlake.png', 'Im_BradPitt.png'],diff,1,0.4166801999999734,17,71.42857142857143,
XAFR1107,train,neg,0,neg0_id5_im10.bmp_neg0_id21_im17.bmp,['Im_DanielRadcliffe.png', 'Im_GeorgeClooney.png', 'Im_PatrickDempsey.png', 'Im_RyanGosling.png', 'Im_RyanReynolds.png', 'Im_DanielCraig.png', 'Im_RobertPattinson.png', 'Im_LeonardoDiCaprio.png', 'Im_JustinTimberlake.png', 'Im_BradPitt.png'],diff,1,0.5419290000027104,18,71.42857142857143,
XAFR1107,train,pos,60,pos60_id13_im15.bmp_pos60_id20_im12.bmp,['Im_DanielRadcliffe.png', 'Im_GeorgeClooney.png', 'Im_PatrickDempsey.png', 'Im_RyanGosling.png', 'Im_RyanReynolds.png', 'Im_DanielCraig.png', 'Im_RobertPattinson.png', 'Im_LeonardoDiCaprio.png', 'Im_JustinTimberlake.png', 'Im_BradPitt.png'],diff,1,0.4416504000000714,19,71.42857142857143,
XAFR1107,train,pos,150,pos150_id13_im29.bmp_pos150_id3_im17.bmp,['Im_DanielRadcliffe.png', 'Im_GeorgeClooney.png', 'Im_PatrickDempsey.png', 'Im_RyanGosling.png', 'Im_RyanReynolds.png', 'Im_DanielCraig.png', 'Im_RobertPattinson.png', 'Im_LeonardoDiCaprio.png', 'Im_JustinTimberlake.png', 'Im_BradPitt.png'],diff,1,0.4167064000030223,20,71.42857142857143,
XAFR1107,train,pos,120,pos120_id17_im8.bmp_pos120_id5_im10.bmp,['Im_DanielRadcliffe.png', 'Im_GeorgeClooney.png', 'Im_PatrickDempsey.png', 'Im_RyanGosling.png', 'Im_RyanReynolds.png', 'Im_DanielCraig.png', 'Im_RobertPattinson.png', 'Im_LeonardoDiCaprio.png', 'Im_JustinTimberlake.png', 'Im_BradPitt.png'],same,0,0.8916155000006256,20,71.42857142857143,
XAFR1107,train,pos,30,pos30_id10_im1.bmp_pos30_id10_im18.bmp,['Im_DanielRadcliffe.png', 'Im_GeorgeClooney.png', 'Im_PatrickDempsey.png', 'Im_RyanGosling.png', 'Im_RyanReynolds.png', 'Im_DanielCraig.png', 'Im_RobertPattinson.png', 'Im_LeonardoDiCaprio.png', 'Im_JustinTimberlake.png', 'Im_BradPitt.png'],same,1,0.4166624000026786,21,71.42857142857143,
XAFR1107,train,pos,120,pos120_id4_im15.bmp_pos120_id5_im1.bmp,['Im_DanielRadcliffe.png', 'Im_GeorgeClooney.png', 'Im_PatrickDempsey.png', 'Im_RyanGosling.png', 'Im_RyanReynolds.png', 'Im_DanielCraig.png', 'Im_RobertPattinson.png', 'Im_LeonardoDiCaprio.png', 'Im_JustinTimberlake.png', 'Im_BradPitt.png'],diff,1,0.4167159000026004,22,71.42857142857143,
XAFR1107,train,pos,0,pos0_id5_im1.bmp_pos0_id5_im10.bmp,['Im_DanielRadcliffe.png', 'Im_GeorgeClooney.png', 'Im_PatrickDempsey.png', 'Im_RyanGosling.png', 'Im_RyanReynolds.png', 'Im_DanielCraig.png', 'Im_RobertPattinson.png', 'Im_LeonardoDiCaprio.png', 'Im_JustinTimberlake.png', 'Im_BradPitt.png'],same,1,1.2834743999992497,23,71.42857142857143,
XAFR1107,train,pos,30,pos30_id3_im8.bmp_pos30_id7_im26.bmp,['Im_DanielRadcliffe.png', 'Im_GeorgeClooney.png', 'Im_PatrickDempsey.png', 'Im_RyanGosling.png', 'Im_RyanReynolds.png', 'Im_DanielCraig.png', 'Im_RobertPattinson.png', 'Im_LeonardoDiCaprio.png', 'Im_JustinTimberlake.png', 'Im_BradPitt.png'],diff,1,0.42512120000174036,24,71.42857142857143,
XAFR1107,train,pos,90,pos90_id13_im29.bmp_pos90_id10_im18.bmp,['Im_DanielRadcliffe.png', 'Im_GeorgeClooney.png', 'Im_PatrickDempsey.png', 'Im_RyanGosling.png', 'Im_RyanReynolds.png', 'Im_DanielCraig.png', 'Im_RobertPattinson.png', 'Im_LeonardoDiCaprio.png', 'Im_JustinTimberlake.png', 'Im_BradPitt.png'],diff,1,0.4083745000025374,25,71.42857142857143,
XAFR1107,train,pos,60,pos60_id7_im14.bmp_pos60_id7_im26.bmp,['Im_DanielRadcliffe.png', 'Im_GeorgeClooney.png', 'Im_PatrickDempsey.png', 'Im_RyanGosling.png', 'Im_RyanReynolds.png', 'Im_DanielCraig.png', 'Im_RobertPattinson.png', 'Im_LeonardoDiCaprio.png', 'Im_JustinTimberlake.png', 'Im_BradPitt.png'],same,1,0.6333219000007375,26,71.42857142857143,
XAFR1107,train,pos,fs,posfs_id21_im22.bmp_posfs_id10_im18.bmp,['Im_DanielRadcliffe.png', 'Im_GeorgeClooney.png', 'Im_PatrickDempsey.png', 'Im_RyanGosling.png', 'Im_RyanReynolds.png', 'Im_DanielCraig.png', 'Im_RobertPattinson.png', 'Im_LeonardoDiCaprio.png', 'Im_JustinTimberlake.png', 'Im_BradPitt.png'],diff,1,0.42504470000130823,27,71.42857142857143,
XAFR1107,train,pos,90,pos90_id19_im8.bmp_pos90_id4_im7.bmp,['Im_DanielRadcliffe.png', 'Im_GeorgeClooney.png', 'Im_PatrickDempsey.png', 'Im_RyanGosling.png', 'Im_RyanReynolds.png', 'Im_DanielCraig.png', 'Im_RobertPattinson.png', 'Im_LeonardoDiCaprio.png', 'Im_JustinTimberlake.png', 'Im_BradPitt.png'],diff,1,0.45831709999765735,28,71.42857142857143,
XAFR1107,train,pos,0,pos0_id3_im17.bmp_pos0_id3_im6.bmp,['Im_DanielRadcliffe.png', 'Im_GeorgeClooney.png', 'Im_PatrickDempsey.png', 'Im_RyanGosling.png', 'Im_RyanReynolds.png', 'Im_DanielCraig.png', 'Im_RobertPattinson.png', 'Im_LeonardoDiCaprio.png', 'Im_JustinTimberlake.png', 'Im_BradPitt.png'],same,1,0.4250205000025744,29,71.42857142857143,
XAFR1107,train,pos,fs,posfs_id10_im1.bmp_posfs_id5_im1.bmp,['Im_DanielRadcliffe.png', 'Im_GeorgeClooney.png', 'Im_PatrickDempsey.png', 'Im_RyanGosling.png', 'Im_RyanReynolds.png', 'Im_DanielCraig.png', 'Im_RobertPattinson.png', 'Im_LeonardoDiCaprio.png', 'Im_JustinTimberlake.png', 'Im_BradPitt.png'],diff,1,1.567101399999956,30,71.42857142857143,
XAFR1107,train,pos,150,pos150_id20_im12.bmp_pos150_id20_im3.bmp,['Im_DanielRadcliffe.png', 'Im_GeorgeClooney.png', 'Im_PatrickDempsey.png', 'Im_RyanGosling.png', 'Im_RyanReynolds.png', 'Im_DanielCraig.png', 'Im_RobertPattinson.png', 'Im_LeonardoDiCaprio.png', 'Im_JustinTimberlake.png', 'Im_BradPitt.png'],same,1,0.43339579999883426,31,71.42857142857143,
XAFR1107,train,pos,30,pos30_id7_im26.bmp_pos30_id20_im3.bmp,['Im_DanielRadcliffe.png', 'Im_GeorgeClooney.png', 'Im_PatrickDempsey.png', 'Im_RyanGosling.png', 'Im_RyanReynolds.png', 'Im_DanielCraig.png', 'Im_RobertPattinson.png', 'Im_LeonardoDiCaprio.png', 'Im_JustinTimberlake.png', 'Im_BradPitt.png'],diff,1,0.4166722999980266,1,73.80952380952381,
XAFR1107,train,pos,60,pos60_id5_im1.bmp_pos60_id5_im10.bmp,['Im_DanielRadcliffe.png', 'Im_GeorgeClooney.png', 'Im_PatrickDempsey.png', 'Im_RyanGosling.png', 'Im_RyanReynolds.png', 'Im_DanielCraig.png', 'Im_RobertPattinson.png', 'Im_LeonardoDiCaprio.png', 'Im_JustinTimberlake.png', 'Im_BradPitt.png'],same,1,0.40840509999907226,2,73.80952380952381,
XAFR1107,train,pos,150,pos150_id20_im30.bmp_pos150_id13_im10.bmp,['Im_DanielRadcliffe.png', 'Im_GeorgeClooney.png', 'Im_PatrickDempsey.png', 'Im_RyanGosling.png', 'Im_RyanReynolds.png', 'Im_DanielCraig.png', 'Im_RobertPattinson.png', 'Im_LeonardoDiCaprio.png', 'Im_JustinTimberlake.png', 'Im_BradPitt.png'],diff,1,0.4084069999989879,3,73.80952380952381,
XAFR1107,train,pos,fs,posfs_id13_im10.bmp_posfs_id13_im29.bmp,['Im_DanielRadcliffe.png', 'Im_GeorgeClooney.png', 'Im_PatrickDempsey.png', 'Im_RyanGosling.png', 'Im_RyanReynolds.png', 'Im_DanielCraig.png', 'Im_RobertPattinson.png', 'Im_LeonardoDiCaprio.png', 'Im_JustinTimberlake.png', 'Im_BradPitt.png'],none,1,4.416706299998623,3,73.80952380952381,
