Sujet,Trial,Condition,Filter,Imname,Actor0,Actor1,Actor2,Actor3,Actor4,Actor5,Actor6,Actor7,Actor8,Actor9,Answer,Accu,RT,Score,Scoreperc, 
XAFR1107,train,neg,60,neg60_id13_im29.bmp_neg60_id10_im18.bmp,['Im_LeonardoDiCaprio.png', 'Im_DanielRadcliffe.png', 'Im_BradPitt.png', 'Im_RobertPattinson.png', 'Im_DanielCraig.png', 'Im_RyanGosling.png', 'Im_JustinTimberlake.png', 'Im_GeorgeClooney.png', 'Im_RyanReynolds.png', 'Im_PatrickDempsey.png'],diff,1,0.8501308000000165,1,0,
XAFR1107,train,neg,120,neg120_id20_im30.bmp_neg120_id13_im10.bmp,['Im_LeonardoDiCaprio.png', 'Im_DanielRadcliffe.png', 'Im_BradPitt.png', 'Im_RobertPattinson.png', 'Im_DanielCraig.png', 'Im_RyanGosling.png', 'Im_JustinTimberlake.png', 'Im_GeorgeClooney.png', 'Im_RyanReynolds.png', 'Im_PatrickDempsey.png'],diff,1,0.5332432000000153,2,0,
XAFR1107,train,neg,60,neg60_id7_im15.bmp_neg60_id7_im14.bmp,['Im_LeonardoDiCaprio.png', 'Im_DanielRadcliffe.png', 'Im_BradPitt.png', 'Im_RobertPattinson.png', 'Im_DanielCraig.png', 'Im_RyanGosling.png', 'Im_JustinTimberlake.png', 'Im_GeorgeClooney.png', 'Im_RyanReynolds.png', 'Im_PatrickDempsey.png'],same,1,0.6665945999999963,3,0,
XAFR1107,train,neg,fs,negfs_id21_im22.bmp_negfs_id4_im20.bmp,['Im_LeonardoDiCaprio.png', 'Im_DanielRadcliffe.png', 'Im_BradPitt.png', 'Im_RobertPattinson.png', 'Im_DanielCraig.png', 'Im_RyanGosling.png', 'Im_JustinTimberlake.png', 'Im_GeorgeClooney.png', 'Im_RyanReynolds.png', 'Im_PatrickDempsey.png'],diff,1,0.4168314000000066,4,0,
XAFR1107,train,neg,150,neg150_id7_im26.bmp_neg150_id7_im15.bmp,['Im_LeonardoDiCaprio.png', 'Im_DanielRadcliffe.png', 'Im_BradPitt.png', 'Im_RobertPattinson.png', 'Im_DanielCraig.png', 'Im_RyanGosling.png', 'Im_JustinTimberlake.png', 'Im_GeorgeClooney.png', 'Im_RyanReynolds.png', 'Im_PatrickDempsey.png'],same,1,0.5333114999999964,5,0,
XAFR1107,train,neg,120,neg120_id5_im10.bmp_neg120_id5_im1.bmp,['Im_LeonardoDiCaprio.png', 'Im_DanielRadcliffe.png', 'Im_BradPitt.png', 'Im_RobertPattinson.png', 'Im_DanielCraig.png', 'Im_RyanGosling.png', 'Im_JustinTimberlake.png', 'Im_GeorgeClooney.png', 'Im_RyanReynolds.png', 'Im_PatrickDempsey.png'],diff,0,1.0834629000000007,5,0,
XAFR1107,train,neg,fs,negfs_id3_im8.bmp_negfs_id7_im26.bmp,['Im_LeonardoDiCaprio.png', 'Im_DanielRadcliffe.png', 'Im_BradPitt.png', 'Im_RobertPattinson.png', 'Im_DanielCraig.png', 'Im_RyanGosling.png', 'Im_JustinTimberlake.png', 'Im_GeorgeClooney.png', 'Im_RyanReynolds.png', 'Im_PatrickDempsey.png'],diff,1,0.40845909999998753,6,0,
XAFR1107,train,neg,30,neg30_id3_im8.bmp_neg30_id3_im17.bmp,['Im_LeonardoDiCaprio.png', 'Im_DanielRadcliffe.png', 'Im_BradPitt.png', 'Im_RobertPattinson.png', 'Im_DanielCraig.png', 'Im_RyanGosling.png', 'Im_JustinTimberlake.png', 'Im_GeorgeClooney.png', 'Im_RyanReynolds.png', 'Im_PatrickDempsey.png'],same,1,0.4085439000000122,7,0,
XAFR1107,train,neg,150,neg150_id20_im3.bmp_neg150_id20_im12.bmp,['Im_LeonardoDiCaprio.png', 'Im_DanielRadcliffe.png', 'Im_BradPitt.png', 'Im_RobertPattinson.png', 'Im_DanielCraig.png', 'Im_RyanGosling.png', 'Im_JustinTimberlake.png', 'Im_GeorgeClooney.png', 'Im_RyanReynolds.png', 'Im_PatrickDempsey.png'],same,1,0.5502271000000007,8,0,
XAFR1107,train,neg,90,neg90_id19_im8.bmp_neg90_id19_im27.bmp,['Im_LeonardoDiCaprio.png', 'Im_DanielRadcliffe.png', 'Im_BradPitt.png', 'Im_RobertPattinson.png', 'Im_DanielCraig.png', 'Im_RyanGosling.png', 'Im_JustinTimberlake.png', 'Im_GeorgeClooney.png', 'Im_RyanReynolds.png', 'Im_PatrickDempsey.png'],same,1,0.40840879999998947,9,0,
XAFR1107,train,neg,90,neg90_id13_im15.bmp_neg90_id13_im29.bmp,['Im_LeonardoDiCaprio.png', 'Im_DanielRadcliffe.png', 'Im_BradPitt.png', 'Im_RobertPattinson.png', 'Im_DanielCraig.png', 'Im_RyanGosling.png', 'Im_JustinTimberlake.png', 'Im_GeorgeClooney.png', 'Im_RyanReynolds.png', 'Im_PatrickDempsey.png'],same,1,1.5668959999999856,10,0,
XAFR1107,train,neg,0,neg0_id13_im10.bmp_neg0_id13_im29.bmp,['Im_LeonardoDiCaprio.png', 'Im_DanielRadcliffe.png', 'Im_BradPitt.png', 'Im_RobertPattinson.png', 'Im_DanielCraig.png', 'Im_RyanGosling.png', 'Im_JustinTimberlake.png', 'Im_GeorgeClooney.png', 'Im_RyanReynolds.png', 'Im_PatrickDempsey.png'],same,1,0.6500843999999972,11,0,
XAFR1107,train,neg,30,neg30_id7_im14.bmp_neg30_id4_im20.bmp,['Im_LeonardoDiCaprio.png', 'Im_DanielRadcliffe.png', 'Im_BradPitt.png', 'Im_RobertPattinson.png', 'Im_DanielCraig.png', 'Im_RyanGosling.png', 'Im_JustinTimberlake.png', 'Im_GeorgeClooney.png', 'Im_RyanReynolds.png', 'Im_PatrickDempsey.png'],diff,1,0.4167509000000109,12,0,
XAFR1107,train,neg,0,neg0_id3_im8.bmp_neg0_id3_im17.bmp,['Im_LeonardoDiCaprio.png', 'Im_DanielRadcliffe.png', 'Im_BradPitt.png', 'Im_RobertPattinson.png', 'Im_DanielCraig.png', 'Im_RyanGosling.png', 'Im_JustinTimberlake.png', 'Im_GeorgeClooney.png', 'Im_RyanReynolds.png', 'Im_PatrickDempsey.png'],same,1,0.7669410999999968,13,0,
XAFR1107,train,pos,90,pos90_id19_im27.bmp_pos90_id13_im15.bmp,['Im_LeonardoDiCaprio.png', 'Im_DanielRadcliffe.png', 'Im_BradPitt.png', 'Im_RobertPattinson.png', 'Im_DanielCraig.png', 'Im_RyanGosling.png', 'Im_JustinTimberlake.png', 'Im_GeorgeClooney.png', 'Im_RyanReynolds.png', 'Im_PatrickDempsey.png'],diff,1,0.4168679999999938,14,0,
XAFR1107,train,pos,90,pos90_id21_im22.bmp_pos90_id21_im17.bmp,['Im_LeonardoDiCaprio.png', 'Im_DanielRadcliffe.png', 'Im_BradPitt.png', 'Im_RobertPattinson.png', 'Im_DanielCraig.png', 'Im_RyanGosling.png', 'Im_JustinTimberlake.png', 'Im_GeorgeClooney.png', 'Im_RyanReynolds.png', 'Im_PatrickDempsey.png'],same,1,1.0001998000000185,15,0,
XAFR1107,train,pos,60,pos60_id10_im17.bmp_pos60_id10_im1.bmp,['Im_LeonardoDiCaprio.png', 'Im_DanielRadcliffe.png', 'Im_BradPitt.png', 'Im_RobertPattinson.png', 'Im_DanielCraig.png', 'Im_RyanGosling.png', 'Im_JustinTimberlake.png', 'Im_GeorgeClooney.png', 'Im_RyanReynolds.png', 'Im_PatrickDempsey.png'],same,1,0.4082386000000042,16,0,
XAFR1107,train,pos,120,pos120_id13_im10.bmp_pos120_id13_im15.bmp,['Im_LeonardoDiCaprio.png', 'Im_DanielRadcliffe.png', 'Im_BradPitt.png', 'Im_RobertPattinson.png', 'Im_DanielCraig.png', 'Im_RyanGosling.png', 'Im_JustinTimberlake.png', 'Im_GeorgeClooney.png', 'Im_RyanReynolds.png', 'Im_PatrickDempsey.png'],same,1,0.40020020000002887,17,0,
XAFR1107,train,pos,fs,posfs_id21_im16.bmp_posfs_id21_im22.bmp,['Im_LeonardoDiCaprio.png', 'Im_DanielRadcliffe.png', 'Im_BradPitt.png', 'Im_RobertPattinson.png', 'Im_DanielCraig.png', 'Im_RyanGosling.png', 'Im_JustinTimberlake.png', 'Im_GeorgeClooney.png', 'Im_RyanReynolds.png', 'Im_PatrickDempsey.png'],same,1,0.4165863999999715,18,0,
XAFR1107,train,pos,0,pos0_id4_im7.bmp_pos0_id4_im20.bmp,['Im_LeonardoDiCaprio.png', 'Im_DanielRadcliffe.png', 'Im_BradPitt.png', 'Im_RobertPattinson.png', 'Im_DanielCraig.png', 'Im_RyanGosling.png', 'Im_JustinTimberlake.png', 'Im_GeorgeClooney.png', 'Im_RyanReynolds.png', 'Im_PatrickDempsey.png'],same,1,0.41673339999999826,19,0,
XAFR1107,train,pos,30,pos30_id10_im17.bmp_pos30_id10_im18.bmp,['Im_LeonardoDiCaprio.png', 'Im_DanielRadcliffe.png', 'Im_BradPitt.png', 'Im_RobertPattinson.png', 'Im_DanielCraig.png', 'Im_RyanGosling.png', 'Im_JustinTimberlake.png', 'Im_GeorgeClooney.png', 'Im_RyanReynolds.png', 'Im_PatrickDempsey.png'],same,1,0.4083228999999733,20,0,
XAFR1107,train,pos,150,pos150_id5_im20.bmp_pos150_id5_im1.bmp,['Im_LeonardoDiCaprio.png', 'Im_DanielRadcliffe.png', 'Im_BradPitt.png', 'Im_RobertPattinson.png', 'Im_DanielCraig.png', 'Im_RyanGosling.png', 'Im_JustinTimberlake.png', 'Im_GeorgeClooney.png', 'Im_RyanReynolds.png', 'Im_PatrickDempsey.png'],same,1,0.4083900999999628,21,0,
XAFR1107,train,pos,fs,posfs_id4_im20.bmp_posfs_id7_im14.bmp,['Im_LeonardoDiCaprio.png', 'Im_DanielRadcliffe.png', 'Im_BradPitt.png', 'Im_RobertPattinson.png', 'Im_DanielCraig.png', 'Im_RyanGosling.png', 'Im_JustinTimberlake.png', 'Im_GeorgeClooney.png', 'Im_RyanReynolds.png', 'Im_PatrickDempsey.png'],diff,1,0.4084028999999987,22,0,
XAFR1107,train,pos,30,pos30_id17_im8.bmp_pos30_id5_im10.bmp,['Im_LeonardoDiCaprio.png', 'Im_DanielRadcliffe.png', 'Im_BradPitt.png', 'Im_RobertPattinson.png', 'Im_DanielCraig.png', 'Im_RyanGosling.png', 'Im_JustinTimberlake.png', 'Im_GeorgeClooney.png', 'Im_RyanReynolds.png', 'Im_PatrickDempsey.png'],diff,1,0.4168935999999803,23,0,
XAFR1107,train,pos,0,pos0_id5_im1.bmp_pos0_id10_im1.bmp,['Im_LeonardoDiCaprio.png', 'Im_DanielRadcliffe.png', 'Im_BradPitt.png', 'Im_RobertPattinson.png', 'Im_DanielCraig.png', 'Im_RyanGosling.png', 'Im_JustinTimberlake.png', 'Im_GeorgeClooney.png', 'Im_RyanReynolds.png', 'Im_PatrickDempsey.png'],diff,1,0.4085361999999577,24,0,
XAFR1107,train,pos,60,pos60_id5_im10.bmp_pos60_id17_im8.bmp,['Im_LeonardoDiCaprio.png', 'Im_DanielRadcliffe.png', 'Im_BradPitt.png', 'Im_RobertPattinson.png', 'Im_DanielCraig.png', 'Im_RyanGosling.png', 'Im_JustinTimberlake.png', 'Im_GeorgeClooney.png', 'Im_RyanReynolds.png', 'Im_PatrickDempsey.png'],diff,1,0.6166314999999827,25,0,
XAFR1107,train,pos,150,pos150_id19_im27.bmp_pos150_id19_im8.bmp,['Im_LeonardoDiCaprio.png', 'Im_DanielRadcliffe.png', 'Im_BradPitt.png', 'Im_RobertPattinson.png', 'Im_DanielCraig.png', 'Im_RyanGosling.png', 'Im_JustinTimberlake.png', 'Im_GeorgeClooney.png', 'Im_RyanReynolds.png', 'Im_PatrickDempsey.png'],same,1,0.4085656999999969,26,0,
XAFR1107,train,pos,120,pos120_id4_im7.bmp_pos120_id4_im15.bmp,['Im_LeonardoDiCaprio.png', 'Im_DanielRadcliffe.png', 'Im_BradPitt.png', 'Im_RobertPattinson.png', 'Im_DanielCraig.png', 'Im_RyanGosling.png', 'Im_JustinTimberlake.png', 'Im_GeorgeClooney.png', 'Im_RyanReynolds.png', 'Im_PatrickDempsey.png'],same,1,0.4500176999999894,27,0,
XAFR1107,train,inv,120,pos120_id5_im20.bmp_pos120_id5_im1.bmp,['Im_LeonardoDiCaprio.png', 'Im_DanielRadcliffe.png', 'Im_BradPitt.png', 'Im_RobertPattinson.png', 'Im_DanielCraig.png', 'Im_RyanGosling.png', 'Im_JustinTimberlake.png', 'Im_GeorgeClooney.png', 'Im_RyanReynolds.png', 'Im_PatrickDempsey.png'],diff,0,2.000156199999992,27,0,
XAFR1107,train,inv,fs,posfs_id3_im8.bmp_posfs_id3_im6.bmp,['Im_LeonardoDiCaprio.png', 'Im_DanielRadcliffe.png', 'Im_BradPitt.png', 'Im_RobertPattinson.png', 'Im_DanielCraig.png', 'Im_RyanGosling.png', 'Im_JustinTimberlake.png', 'Im_GeorgeClooney.png', 'Im_RyanReynolds.png', 'Im_PatrickDempsey.png'],same,1,0.40821160000001555,28,0,
XAFR1107,train,inv,120,pos120_id10_im1.bmp_pos120_id5_im1.bmp,['Im_LeonardoDiCaprio.png', 'Im_DanielRadcliffe.png', 'Im_BradPitt.png', 'Im_RobertPattinson.png', 'Im_DanielCraig.png', 'Im_RyanGosling.png', 'Im_JustinTimberlake.png', 'Im_GeorgeClooney.png', 'Im_RyanReynolds.png', 'Im_PatrickDempsey.png'],diff,1,0.4169636999999966,29,0,
XAFR1107,train,inv,30,pos30_id17_im14.bmp_pos30_id17_im9.bmp,['Im_LeonardoDiCaprio.png', 'Im_DanielRadcliffe.png', 'Im_BradPitt.png', 'Im_RobertPattinson.png', 'Im_DanielCraig.png', 'Im_RyanGosling.png', 'Im_JustinTimberlake.png', 'Im_GeorgeClooney.png', 'Im_RyanReynolds.png', 'Im_PatrickDempsey.png'],same,1,0.8499889999999937,30,0,
XAFR1107,train,inv,60,pos60_id10_im17.bmp_pos60_id10_im18.bmp,['Im_LeonardoDiCaprio.png', 'Im_DanielRadcliffe.png', 'Im_BradPitt.png', 'Im_RobertPattinson.png', 'Im_DanielCraig.png', 'Im_RyanGosling.png', 'Im_JustinTimberlake.png', 'Im_GeorgeClooney.png', 'Im_RyanReynolds.png', 'Im_PatrickDempsey.png'],same,1,0.7502914000000374,31,0,
XAFR1107,train,inv,90,pos90_id3_im6.bmp_pos90_id3_im8.bmp,['Im_LeonardoDiCaprio.png', 'Im_DanielRadcliffe.png', 'Im_BradPitt.png', 'Im_RobertPattinson.png', 'Im_DanielCraig.png', 'Im_RyanGosling.png', 'Im_JustinTimberlake.png', 'Im_GeorgeClooney.png', 'Im_RyanReynolds.png', 'Im_PatrickDempsey.png'],same,1,0.40828269999997246,32,0,
XAFR1107,train,inv,0,pos0_id10_im18.bmp_pos0_id13_im29.bmp,['Im_LeonardoDiCaprio.png', 'Im_DanielRadcliffe.png', 'Im_BradPitt.png', 'Im_RobertPattinson.png', 'Im_DanielCraig.png', 'Im_RyanGosling.png', 'Im_JustinTimberlake.png', 'Im_GeorgeClooney.png', 'Im_RyanReynolds.png', 'Im_PatrickDempsey.png'],same,0,0.4084235999999919,32,0,
XAFR1107,train,inv,0,pos0_id20_im30.bmp_pos0_id17_im9.bmp,['Im_LeonardoDiCaprio.png', 'Im_DanielRadcliffe.png', 'Im_BradPitt.png', 'Im_RobertPattinson.png', 'Im_DanielCraig.png', 'Im_RyanGosling.png', 'Im_JustinTimberlake.png', 'Im_GeorgeClooney.png', 'Im_RyanReynolds.png', 'Im_PatrickDempsey.png'],diff,1,0.6501531000000114,33,0,
XAFR1107,train,inv,30,pos30_id20_im30.bmp_pos30_id20_im12.bmp,['Im_LeonardoDiCaprio.png', 'Im_DanielRadcliffe.png', 'Im_BradPitt.png', 'Im_RobertPattinson.png', 'Im_DanielCraig.png', 'Im_RyanGosling.png', 'Im_JustinTimberlake.png', 'Im_GeorgeClooney.png', 'Im_RyanReynolds.png', 'Im_PatrickDempsey.png'],same,1,0.5251655000000142,34,0,
XAFR1107,train,inv,150,pos150_id17_im14.bmp_pos150_id21_im16.bmp,['Im_LeonardoDiCaprio.png', 'Im_DanielRadcliffe.png', 'Im_BradPitt.png', 'Im_RobertPattinson.png', 'Im_DanielCraig.png', 'Im_RyanGosling.png', 'Im_JustinTimberlake.png', 'Im_GeorgeClooney.png', 'Im_RyanReynolds.png', 'Im_PatrickDempsey.png'],same,0,0.9163151000000198,34,0,
XAFR1107,train,inv,fs,posfs_id17_im14.bmp_posfs_id21_im16.bmp,['Im_LeonardoDiCaprio.png', 'Im_DanielRadcliffe.png', 'Im_BradPitt.png', 'Im_RobertPattinson.png', 'Im_DanielCraig.png', 'Im_RyanGosling.png', 'Im_JustinTimberlake.png', 'Im_GeorgeClooney.png', 'Im_RyanReynolds.png', 'Im_PatrickDempsey.png'],diff,1,0.47520179999997936,35,0,
XAFR1107,train,inv,150,pos150_id17_im14.bmp_pos150_id5_im20.bmp,['Im_LeonardoDiCaprio.png', 'Im_DanielRadcliffe.png', 'Im_BradPitt.png', 'Im_RobertPattinson.png', 'Im_DanielCraig.png', 'Im_RyanGosling.png', 'Im_JustinTimberlake.png', 'Im_GeorgeClooney.png', 'Im_RyanReynolds.png', 'Im_PatrickDempsey.png'],same,0,0.4164527000000362,35,0,
XAFR1107,train,inv,60,pos60_id5_im20.bmp_pos60_id5_im10.bmp,['Im_LeonardoDiCaprio.png', 'Im_DanielRadcliffe.png', 'Im_BradPitt.png', 'Im_RobertPattinson.png', 'Im_DanielCraig.png', 'Im_RyanGosling.png', 'Im_JustinTimberlake.png', 'Im_GeorgeClooney.png', 'Im_RyanReynolds.png', 'Im_PatrickDempsey.png'],diff,0,0.4082801999999788,35,0,
XAFR1107,train,inv,90,pos90_id5_im10.bmp_pos90_id21_im17.bmp,['Im_LeonardoDiCaprio.png', 'Im_DanielRadcliffe.png', 'Im_BradPitt.png', 'Im_RobertPattinson.png', 'Im_DanielCraig.png', 'Im_RyanGosling.png', 'Im_JustinTimberlake.png', 'Im_GeorgeClooney.png', 'Im_RyanReynolds.png', 'Im_PatrickDempsey.png'],diff,1,0.4336043999999788,36,0,
XAFR1107,train,pos,60,pos60_id20_im12.bmp_pos60_id20_im3.bmp,['Im_LeonardoDiCaprio.png', 'Im_DanielRadcliffe.png', 'Im_BradPitt.png', 'Im_RobertPattinson.png', 'Im_DanielCraig.png', 'Im_RyanGosling.png', 'Im_JustinTimberlake.png', 'Im_GeorgeClooney.png', 'Im_RyanReynolds.png', 'Im_PatrickDempsey.png'],same,1,0.41678619999999,1,85.71428571428571,
XAFR1107,train,pos,150,pos150_id20_im30.bmp_pos150_id20_im12.bmp,['Im_LeonardoDiCaprio.png', 'Im_DanielRadcliffe.png', 'Im_BradPitt.png', 'Im_RobertPattinson.png', 'Im_DanielCraig.png', 'Im_RyanGosling.png', 'Im_JustinTimberlake.png', 'Im_GeorgeClooney.png', 'Im_RyanReynolds.png', 'Im_PatrickDempsey.png'],same,1,0.3998151000000121,2,85.71428571428571,
XAFR1107,train,pos,90,pos90_id20_im3.bmp_pos90_id20_im30.bmp,['Im_LeonardoDiCaprio.png', 'Im_DanielRadcliffe.png', 'Im_BradPitt.png', 'Im_RobertPattinson.png', 'Im_DanielCraig.png', 'Im_RyanGosling.png', 'Im_JustinTimberlake.png', 'Im_GeorgeClooney.png', 'Im_RyanReynolds.png', 'Im_PatrickDempsey.png'],same,1,0.4081826000000319,3,85.71428571428571,
XAFR1107,train,pos,30,pos30_id7_im15.bmp_pos30_id21_im16.bmp,['Im_LeonardoDiCaprio.png', 'Im_DanielRadcliffe.png', 'Im_BradPitt.png', 'Im_RobertPattinson.png', 'Im_DanielCraig.png', 'Im_RyanGosling.png', 'Im_JustinTimberlake.png', 'Im_GeorgeClooney.png', 'Im_RyanReynolds.png', 'Im_PatrickDempsey.png'],diff,1,0.6000372000000311,4,85.71428571428571,
XAFR1107,train,pos,30,pos30_id19_im8.bmp_pos30_id4_im7.bmp,['Im_LeonardoDiCaprio.png', 'Im_DanielRadcliffe.png', 'Im_BradPitt.png', 'Im_RobertPattinson.png', 'Im_DanielCraig.png', 'Im_RyanGosling.png', 'Im_JustinTimberlake.png', 'Im_GeorgeClooney.png', 'Im_RyanReynolds.png', 'Im_PatrickDempsey.png'],diff,1,0.4165744000000018,5,85.71428571428571,
XAFR1107,train,pos,90,pos90_id13_im10.bmp_pos90_id13_im15.bmp,['Im_LeonardoDiCaprio.png', 'Im_DanielRadcliffe.png', 'Im_BradPitt.png', 'Im_RobertPattinson.png', 'Im_DanielCraig.png', 'Im_RyanGosling.png', 'Im_JustinTimberlake.png', 'Im_GeorgeClooney.png', 'Im_RyanReynolds.png', 'Im_PatrickDempsey.png'],same,1,0.40834499999999707,6,85.71428571428571,
XAFR1107,train,pos,120,pos120_id10_im17.bmp_pos120_id3_im6.bmp,['Im_LeonardoDiCaprio.png', 'Im_DanielRadcliffe.png', 'Im_BradPitt.png', 'Im_RobertPattinson.png', 'Im_DanielCraig.png', 'Im_RyanGosling.png', 'Im_JustinTimberlake.png', 'Im_GeorgeClooney.png', 'Im_RyanReynolds.png', 'Im_PatrickDempsey.png'],diff,1,0.39962189999999964,7,85.71428571428571,
XAFR1107,train,pos,0,pos0_id5_im1.bmp_pos0_id4_im15.bmp,['Im_LeonardoDiCaprio.png', 'Im_DanielRadcliffe.png', 'Im_BradPitt.png', 'Im_RobertPattinson.png', 'Im_DanielCraig.png', 'Im_RyanGosling.png', 'Im_JustinTimberlake.png', 'Im_GeorgeClooney.png', 'Im_RyanReynolds.png', 'Im_PatrickDempsey.png'],diff,1,0.41656679999999824,8,85.71428571428571,
XAFR1107,train,pos,120,pos120_id10_im18.bmp_pos120_id10_im17.bmp,['Im_LeonardoDiCaprio.png', 'Im_DanielRadcliffe.png', 'Im_BradPitt.png', 'Im_RobertPattinson.png', 'Im_DanielCraig.png', 'Im_RyanGosling.png', 'Im_JustinTimberlake.png', 'Im_GeorgeClooney.png', 'Im_RyanReynolds.png', 'Im_PatrickDempsey.png'],same,1,0.41683100000000195,9,85.71428571428571,
XAFR1107,train,pos,150,pos150_id4_im20.bmp_pos150_id7_im14.bmp,['Im_LeonardoDiCaprio.png', 'Im_DanielRadcliffe.png', 'Im_BradPitt.png', 'Im_RobertPattinson.png', 'Im_DanielCraig.png', 'Im_RyanGosling.png', 'Im_JustinTimberlake.png', 'Im_GeorgeClooney.png', 'Im_RyanReynolds.png', 'Im_PatrickDempsey.png'],diff,1,0.4168215999999916,10,85.71428571428571,
XAFR1107,train,pos,60,pos60_id3_im17.bmp_pos60_id10_im1.bmp,['Im_LeonardoDiCaprio.png', 'Im_DanielRadcliffe.png', 'Im_BradPitt.png', 'Im_RobertPattinson.png', 'Im_DanielCraig.png', 'Im_RyanGosling.png', 'Im_JustinTimberlake.png', 'Im_GeorgeClooney.png', 'Im_RyanReynolds.png', 'Im_PatrickDempsey.png'],diff,1,0.6086198000000422,11,85.71428571428571,
XAFR1107,train,pos,fs,posfs_id13_im15.bmp_posfs_id19_im27.bmp,['Im_LeonardoDiCaprio.png', 'Im_DanielRadcliffe.png', 'Im_BradPitt.png', 'Im_RobertPattinson.png', 'Im_DanielCraig.png', 'Im_RyanGosling.png', 'Im_JustinTimberlake.png', 'Im_GeorgeClooney.png', 'Im_RyanReynolds.png', 'Im_PatrickDempsey.png'],diff,1,0.4083966000000032,12,85.71428571428571,
XAFR1107,train,pos,fs,posfs_id7_im15.bmp_posfs_id7_im14.bmp,['Im_LeonardoDiCaprio.png', 'Im_DanielRadcliffe.png', 'Im_BradPitt.png', 'Im_RobertPattinson.png', 'Im_DanielCraig.png', 'Im_RyanGosling.png', 'Im_JustinTimberlake.png', 'Im_GeorgeClooney.png', 'Im_RyanReynolds.png', 'Im_PatrickDempsey.png'],same,1,0.4169136000000435,13,85.71428571428571,
XAFR1107,train,pos,0,pos0_id21_im16.bmp_pos0_id7_im15.bmp,['Im_LeonardoDiCaprio.png', 'Im_DanielRadcliffe.png', 'Im_BradPitt.png', 'Im_RobertPattinson.png', 'Im_DanielCraig.png', 'Im_RyanGosling.png', 'Im_JustinTimberlake.png', 'Im_GeorgeClooney.png', 'Im_RyanReynolds.png', 'Im_PatrickDempsey.png'],same,0,0.4166640999999913,13,85.71428571428571,
XAFR1107,train,inv,0,pos0_id17_im8.bmp_pos0_id17_im9.bmp,['Im_LeonardoDiCaprio.png', 'Im_DanielRadcliffe.png', 'Im_BradPitt.png', 'Im_RobertPattinson.png', 'Im_DanielCraig.png', 'Im_RyanGosling.png', 'Im_JustinTimberlake.png', 'Im_GeorgeClooney.png', 'Im_RyanReynolds.png', 'Im_PatrickDempsey.png'],same,1,0.4167638999999781,14,85.71428571428571,
XAFR1107,train,inv,30,pos30_id17_im14.bmp_pos30_id21_im16.bmp,['Im_LeonardoDiCaprio.png', 'Im_DanielRadcliffe.png', 'Im_BradPitt.png', 'Im_RobertPattinson.png', 'Im_DanielCraig.png', 'Im_RyanGosling.png', 'Im_JustinTimberlake.png', 'Im_GeorgeClooney.png', 'Im_RyanReynolds.png', 'Im_PatrickDempsey.png'],diff,1,0.6919129000000339,15,85.71428571428571,
XAFR1107,train,inv,150,pos150_id21_im22.bmp_pos150_id4_im20.bmp,['Im_LeonardoDiCaprio.png', 'Im_DanielRadcliffe.png', 'Im_BradPitt.png', 'Im_RobertPattinson.png', 'Im_DanielCraig.png', 'Im_RyanGosling.png', 'Im_JustinTimberlake.png', 'Im_GeorgeClooney.png', 'Im_RyanReynolds.png', 'Im_PatrickDempsey.png'],diff,1,0.4583623999999986,16,85.71428571428571,
XAFR1107,train,inv,0,pos0_id5_im10.bmp_pos0_id17_im8.bmp,['Im_LeonardoDiCaprio.png', 'Im_DanielRadcliffe.png', 'Im_BradPitt.png', 'Im_RobertPattinson.png', 'Im_DanielCraig.png', 'Im_RyanGosling.png', 'Im_JustinTimberlake.png', 'Im_GeorgeClooney.png', 'Im_RyanReynolds.png', 'Im_PatrickDempsey.png'],diff,1,0.41678969999998117,17,85.71428571428571,
XAFR1107,train,inv,fs,posfs_id7_im26.bmp_posfs_id7_im14.bmp,['Im_LeonardoDiCaprio.png', 'Im_DanielRadcliffe.png', 'Im_BradPitt.png', 'Im_RobertPattinson.png', 'Im_DanielCraig.png', 'Im_RyanGosling.png', 'Im_JustinTimberlake.png', 'Im_GeorgeClooney.png', 'Im_RyanReynolds.png', 'Im_PatrickDempsey.png'],same,1,0.42732129999996005,18,85.71428571428571,
XAFR1107,train,inv,60,pos60_id3_im17.bmp_pos60_id13_im29.bmp,['Im_LeonardoDiCaprio.png', 'Im_DanielRadcliffe.png', 'Im_BradPitt.png', 'Im_RobertPattinson.png', 'Im_DanielCraig.png', 'Im_RyanGosling.png', 'Im_JustinTimberlake.png', 'Im_GeorgeClooney.png', 'Im_RyanReynolds.png', 'Im_PatrickDempsey.png'],same,0,0.4168372999999974,18,85.71428571428571,
XAFR1107,train,inv,150,pos150_id4_im15.bmp_pos150_id4_im7.bmp,['Im_LeonardoDiCaprio.png', 'Im_DanielRadcliffe.png', 'Im_BradPitt.png', 'Im_RobertPattinson.png', 'Im_DanielCraig.png', 'Im_RyanGosling.png', 'Im_JustinTimberlake.png', 'Im_GeorgeClooney.png', 'Im_RyanReynolds.png', 'Im_PatrickDempsey.png'],same,1,0.4166048999999816,19,85.71428571428571,
XAFR1107,train,inv,120,pos120_id17_im9.bmp_pos120_id17_im8.bmp,['Im_LeonardoDiCaprio.png', 'Im_DanielRadcliffe.png', 'Im_BradPitt.png', 'Im_RobertPattinson.png', 'Im_DanielCraig.png', 'Im_RyanGosling.png', 'Im_JustinTimberlake.png', 'Im_GeorgeClooney.png', 'Im_RyanReynolds.png', 'Im_PatrickDempsey.png'],same,1,0.40013629999998557,20,85.71428571428571,
XAFR1107,train,inv,30,pos30_id19_im27.bmp_pos30_id3_im8.bmp,['Im_LeonardoDiCaprio.png', 'Im_DanielRadcliffe.png', 'Im_BradPitt.png', 'Im_RobertPattinson.png', 'Im_DanielCraig.png', 'Im_RyanGosling.png', 'Im_JustinTimberlake.png', 'Im_GeorgeClooney.png', 'Im_RyanReynolds.png', 'Im_PatrickDempsey.png'],diff,1,0.6833659000000125,21,85.71428571428571,
XAFR1107,train,inv,90,pos90_id19_im8.bmp_pos90_id19_im27.bmp,['Im_LeonardoDiCaprio.png', 'Im_DanielRadcliffe.png', 'Im_BradPitt.png', 'Im_RobertPattinson.png', 'Im_DanielCraig.png', 'Im_RyanGosling.png', 'Im_JustinTimberlake.png', 'Im_GeorgeClooney.png', 'Im_RyanReynolds.png', 'Im_PatrickDempsey.png'],same,1,0.4166329000000246,22,85.71428571428571,
XAFR1107,train,inv,fs,posfs_id7_im26.bmp_posfs_id20_im3.bmp,['Im_LeonardoDiCaprio.png', 'Im_DanielRadcliffe.png', 'Im_BradPitt.png', 'Im_RobertPattinson.png', 'Im_DanielCraig.png', 'Im_RyanGosling.png', 'Im_JustinTimberlake.png', 'Im_GeorgeClooney.png', 'Im_RyanReynolds.png', 'Im_PatrickDempsey.png'],diff,1,0.41665790000001834,23,85.71428571428571,
XAFR1107,train,inv,90,pos90_id20_im3.bmp_pos90_id7_im26.bmp,['Im_LeonardoDiCaprio.png', 'Im_DanielRadcliffe.png', 'Im_BradPitt.png', 'Im_RobertPattinson.png', 'Im_DanielCraig.png', 'Im_RyanGosling.png', 'Im_JustinTimberlake.png', 'Im_GeorgeClooney.png', 'Im_RyanReynolds.png', 'Im_PatrickDempsey.png'],diff,1,0.4002967000000126,24,85.71428571428571,
XAFR1107,train,inv,120,pos120_id7_im15.bmp_pos120_id21_im16.bmp,['Im_LeonardoDiCaprio.png', 'Im_DanielRadcliffe.png', 'Im_BradPitt.png', 'Im_RobertPattinson.png', 'Im_DanielCraig.png', 'Im_RyanGosling.png', 'Im_JustinTimberlake.png', 'Im_GeorgeClooney.png', 'Im_RyanReynolds.png', 'Im_PatrickDempsey.png'],same,0,0.40837110000001076,24,85.71428571428571,
XAFR1107,train,inv,60,pos60_id3_im6.bmp_pos60_id10_im17.bmp,['Im_LeonardoDiCaprio.png', 'Im_DanielRadcliffe.png', 'Im_BradPitt.png', 'Im_RobertPattinson.png', 'Im_DanielCraig.png', 'Im_RyanGosling.png', 'Im_JustinTimberlake.png', 'Im_GeorgeClooney.png', 'Im_RyanReynolds.png', 'Im_PatrickDempsey.png'],diff,1,0.4083996999999613,25,85.71428571428571,
XAFR1107,train,neg,fs,negfs_id10_im17.bmp_negfs_id10_im1.bmp,['Im_LeonardoDiCaprio.png', 'Im_DanielRadcliffe.png', 'Im_BradPitt.png', 'Im_RobertPattinson.png', 'Im_DanielCraig.png', 'Im_RyanGosling.png', 'Im_JustinTimberlake.png', 'Im_GeorgeClooney.png', 'Im_RyanReynolds.png', 'Im_PatrickDempsey.png'],same,1,0.40843889999996463,26,85.71428571428571,
XAFR1107,train,neg,0,neg0_id3_im8.bmp_neg0_id7_im26.bmp,['Im_LeonardoDiCaprio.png', 'Im_DanielRadcliffe.png', 'Im_BradPitt.png', 'Im_RobertPattinson.png', 'Im_DanielCraig.png', 'Im_RyanGosling.png', 'Im_JustinTimberlake.png', 'Im_GeorgeClooney.png', 'Im_RyanReynolds.png', 'Im_PatrickDempsey.png'],diff,1,0.4166354000000183,27,85.71428571428571,
XAFR1107,train,neg,0,neg0_id19_im27.bmp_neg0_id19_im4.bmp,['Im_LeonardoDiCaprio.png', 'Im_DanielRadcliffe.png', 'Im_BradPitt.png', 'Im_RobertPattinson.png', 'Im_DanielCraig.png', 'Im_RyanGosling.png', 'Im_JustinTimberlake.png', 'Im_GeorgeClooney.png', 'Im_RyanReynolds.png', 'Im_PatrickDempsey.png'],same,1,0.4084541999999942,28,85.71428571428571,
XAFR1107,train,neg,30,neg30_id5_im20.bmp_neg30_id5_im10.bmp,['Im_LeonardoDiCaprio.png', 'Im_DanielRadcliffe.png', 'Im_BradPitt.png', 'Im_RobertPattinson.png', 'Im_DanielCraig.png', 'Im_RyanGosling.png', 'Im_JustinTimberlake.png', 'Im_GeorgeClooney.png', 'Im_RyanReynolds.png', 'Im_PatrickDempsey.png'],same,1,0.40848520000002964,29,85.71428571428571,
XAFR1107,train,neg,120,neg120_id7_im26.bmp_neg120_id3_im8.bmp,['Im_LeonardoDiCaprio.png', 'Im_DanielRadcliffe.png', 'Im_BradPitt.png', 'Im_RobertPattinson.png', 'Im_DanielCraig.png', 'Im_RyanGosling.png', 'Im_JustinTimberlake.png', 'Im_GeorgeClooney.png', 'Im_RyanReynolds.png', 'Im_PatrickDempsey.png'],diff,1,0.416671000000008,30,85.71428571428571,
XAFR1107,train,neg,150,neg150_id3_im17.bmp_neg150_id10_im1.bmp,['Im_LeonardoDiCaprio.png', 'Im_DanielRadcliffe.png', 'Im_BradPitt.png', 'Im_RobertPattinson.png', 'Im_DanielCraig.png', 'Im_RyanGosling.png', 'Im_JustinTimberlake.png', 'Im_GeorgeClooney.png', 'Im_RyanReynolds.png', 'Im_PatrickDempsey.png'],diff,1,0.40842900000001237,31,85.71428571428571,
XAFR1107,train,neg,fs,negfs_id13_im15.bmp_negfs_id13_im29.bmp,['Im_LeonardoDiCaprio.png', 'Im_DanielRadcliffe.png', 'Im_BradPitt.png', 'Im_RobertPattinson.png', 'Im_DanielCraig.png', 'Im_RyanGosling.png', 'Im_JustinTimberlake.png', 'Im_GeorgeClooney.png', 'Im_RyanReynolds.png', 'Im_PatrickDempsey.png'],same,1,0.41688740000000735,32,85.71428571428571,
XAFR1107,train,neg,90,neg90_id20_im12.bmp_neg90_id13_im15.bmp,['Im_LeonardoDiCaprio.png', 'Im_DanielRadcliffe.png', 'Im_BradPitt.png', 'Im_RobertPattinson.png', 'Im_DanielCraig.png', 'Im_RyanGosling.png', 'Im_JustinTimberlake.png', 'Im_GeorgeClooney.png', 'Im_RyanReynolds.png', 'Im_PatrickDempsey.png'],diff,1,0.4168174999999792,33,85.71428571428571,
XAFR1107,train,neg,30,neg30_id13_im15.bmp_neg30_id20_im12.bmp,['Im_LeonardoDiCaprio.png', 'Im_DanielRadcliffe.png', 'Im_BradPitt.png', 'Im_RobertPattinson.png', 'Im_DanielCraig.png', 'Im_RyanGosling.png', 'Im_JustinTimberlake.png', 'Im_GeorgeClooney.png', 'Im_RyanReynolds.png', 'Im_PatrickDempsey.png'],diff,1,0.5499512999999752,34,85.71428571428571,
XAFR1107,train,neg,90,neg90_id17_im8.bmp_neg90_id17_im14.bmp,['Im_LeonardoDiCaprio.png', 'Im_DanielRadcliffe.png', 'Im_BradPitt.png', 'Im_RobertPattinson.png', 'Im_DanielCraig.png', 'Im_RyanGosling.png', 'Im_JustinTimberlake.png', 'Im_GeorgeClooney.png', 'Im_RyanReynolds.png', 'Im_PatrickDempsey.png'],same,1,0.41687499999989086,35,85.71428571428571,
XAFR1107,train,neg,120,neg120_id21_im22.bmp_neg120_id21_im16.bmp,['Im_LeonardoDiCaprio.png', 'Im_DanielRadcliffe.png', 'Im_BradPitt.png', 'Im_RobertPattinson.png', 'Im_DanielCraig.png', 'Im_RyanGosling.png', 'Im_JustinTimberlake.png', 'Im_GeorgeClooney.png', 'Im_RyanReynolds.png', 'Im_PatrickDempsey.png'],same,1,0.41677279999998973,36,85.71428571428571,
XAFR1107,train,neg,60,neg60_id13_im29.bmp_neg60_id13_im10.bmp,['Im_LeonardoDiCaprio.png', 'Im_DanielRadcliffe.png', 'Im_BradPitt.png', 'Im_RobertPattinson.png', 'Im_DanielCraig.png', 'Im_RyanGosling.png', 'Im_JustinTimberlake.png', 'Im_GeorgeClooney.png', 'Im_RyanReynolds.png', 'Im_PatrickDempsey.png'],same,1,0.40841169999998783,37,85.71428571428571,
XAFR1107,train,neg,150,neg150_id4_im15.bmp_neg150_id20_im12.bmp,['Im_LeonardoDiCaprio.png', 'Im_DanielRadcliffe.png', 'Im_BradPitt.png', 'Im_RobertPattinson.png', 'Im_DanielCraig.png', 'Im_RyanGosling.png', 'Im_JustinTimberlake.png', 'Im_GeorgeClooney.png', 'Im_RyanReynolds.png', 'Im_PatrickDempsey.png'],diff,1,0.41671710000002804,38,85.71428571428571,
XAFR1107,train,neg,60,neg60_id10_im1.bmp_neg60_id10_im18.bmp,['Im_LeonardoDiCaprio.png', 'Im_DanielRadcliffe.png', 'Im_BradPitt.png', 'Im_RobertPattinson.png', 'Im_DanielCraig.png', 'Im_RyanGosling.png', 'Im_JustinTimberlake.png', 'Im_GeorgeClooney.png', 'Im_RyanReynolds.png', 'Im_PatrickDempsey.png'],same,1,0.4084179999999833,39,85.71428571428571,
XAFR1107,0,neg,0,neg0_id13_im15.bmp_neg0_id19_im27.bmp,['Im_LeonardoDiCaprio.png', 'Im_DanielRadcliffe.png', 'Im_BradPitt.png', 'Im_RobertPattinson.png', 'Im_DanielCraig.png', 'Im_RyanGosling.png', 'Im_JustinTimberlake.png', 'Im_GeorgeClooney.png', 'Im_RyanReynolds.png', 'Im_PatrickDempsey.png'],diff,1,0.7584337999999207,1,0,
XAFR1107,0,neg,0,neg0_id4_im15.bmp_neg0_id4_im20.bmp,['Im_LeonardoDiCaprio.png', 'Im_DanielRadcliffe.png', 'Im_BradPitt.png', 'Im_RobertPattinson.png', 'Im_DanielCraig.png', 'Im_RyanGosling.png', 'Im_JustinTimberlake.png', 'Im_GeorgeClooney.png', 'Im_RyanReynolds.png', 'Im_PatrickDempsey.png'],same,1,0.40838189999999486,2,0,
XAFR1107,0,neg,fs,negfs_id5_im20.bmp_negfs_id17_im14.bmp,['Im_LeonardoDiCaprio.png', 'Im_DanielRadcliffe.png', 'Im_BradPitt.png', 'Im_RobertPattinson.png', 'Im_DanielCraig.png', 'Im_RyanGosling.png', 'Im_JustinTimberlake.png', 'Im_GeorgeClooney.png', 'Im_RyanReynolds.png', 'Im_PatrickDempsey.png'],diff,1,0.4084401000000071,3,0,
XAFR1107,0,neg,30,neg30_id21_im22.bmp_neg30_id21_im16.bmp,['Im_LeonardoDiCaprio.png', 'Im_DanielRadcliffe.png', 'Im_BradPitt.png', 'Im_RobertPattinson.png', 'Im_DanielCraig.png', 'Im_RyanGosling.png', 'Im_JustinTimberlake.png', 'Im_GeorgeClooney.png', 'Im_RyanReynolds.png', 'Im_PatrickDempsey.png'],same,1,0.4083419999999478,4,0,
XAFR1107,0,neg,fs,negfs_id20_im12.bmp_negfs_id20_im3.bmp,['Im_LeonardoDiCaprio.png', 'Im_DanielRadcliffe.png', 'Im_BradPitt.png', 'Im_RobertPattinson.png', 'Im_DanielCraig.png', 'Im_RyanGosling.png', 'Im_JustinTimberlake.png', 'Im_GeorgeClooney.png', 'Im_RyanReynolds.png', 'Im_PatrickDempsey.png'],same,1,0.3999985000000379,5,0,
XAFR1107,0,neg,60,neg60_id7_im14.bmp_neg60_id4_im20.bmp,['Im_LeonardoDiCaprio.png', 'Im_DanielRadcliffe.png', 'Im_BradPitt.png', 'Im_RobertPattinson.png', 'Im_DanielCraig.png', 'Im_RyanGosling.png', 'Im_JustinTimberlake.png', 'Im_GeorgeClooney.png', 'Im_RyanReynolds.png', 'Im_PatrickDempsey.png'],diff,1,0.4001643999999942,6,0,
XAFR1107,0,neg,120,neg120_id17_im14.bmp_neg120_id17_im9.bmp,['Im_LeonardoDiCaprio.png', 'Im_DanielRadcliffe.png', 'Im_BradPitt.png', 'Im_RobertPattinson.png', 'Im_DanielCraig.png', 'Im_RyanGosling.png', 'Im_JustinTimberlake.png', 'Im_GeorgeClooney.png', 'Im_RyanReynolds.png', 'Im_PatrickDempsey.png'],same,1,0.4000755999999228,7,0,
XAFR1107,0,neg,120,neg120_id10_im1.bmp_neg120_id10_im18.bmp,['Im_LeonardoDiCaprio.png', 'Im_DanielRadcliffe.png', 'Im_BradPitt.png', 'Im_RobertPattinson.png', 'Im_DanielCraig.png', 'Im_RyanGosling.png', 'Im_JustinTimberlake.png', 'Im_GeorgeClooney.png', 'Im_RyanReynolds.png', 'Im_PatrickDempsey.png'],same,1,0.40836240000010093,8,0,
XAFR1107,0,neg,90,neg90_id4_im7.bmp_neg90_id19_im8.bmp,['Im_LeonardoDiCaprio.png', 'Im_DanielRadcliffe.png', 'Im_BradPitt.png', 'Im_RobertPattinson.png', 'Im_DanielCraig.png', 'Im_RyanGosling.png', 'Im_JustinTimberlake.png', 'Im_GeorgeClooney.png', 'Im_RyanReynolds.png', 'Im_PatrickDempsey.png'],diff,1,0.5086277000000337,9,0,
XAFR1107,0,neg,150,neg150_id3_im8.bmp_neg150_id19_im27.bmp,['Im_LeonardoDiCaprio.png', 'Im_DanielRadcliffe.png', 'Im_BradPitt.png', 'Im_RobertPattinson.png', 'Im_DanielCraig.png', 'Im_RyanGosling.png', 'Im_JustinTimberlake.png', 'Im_GeorgeClooney.png', 'Im_RyanReynolds.png', 'Im_PatrickDempsey.png'],diff,1,0.4418030000000499,10,0,
XAFR1107,0,neg,90,neg90_id3_im6.bmp_neg90_id3_im17.bmp,['Im_LeonardoDiCaprio.png', 'Im_DanielRadcliffe.png', 'Im_BradPitt.png', 'Im_RobertPattinson.png', 'Im_DanielCraig.png', 'Im_RyanGosling.png', 'Im_JustinTimberlake.png', 'Im_GeorgeClooney.png', 'Im_RyanReynolds.png', 'Im_PatrickDempsey.png'],same,1,0.43366100000002916,11,0,
XAFR1107,0,neg,150,neg150_id3_im8.bmp_neg150_id7_im26.bmp,['Im_LeonardoDiCaprio.png', 'Im_DanielRadcliffe.png', 'Im_BradPitt.png', 'Im_RobertPattinson.png', 'Im_DanielCraig.png', 'Im_RyanGosling.png', 'Im_JustinTimberlake.png', 'Im_GeorgeClooney.png', 'Im_RyanReynolds.png', 'Im_PatrickDempsey.png'],diff,1,0.6251845000000458,12,0,
XAFR1107,0,neg,30,neg30_id5_im20.bmp_neg30_id5_im1.bmp,['Im_LeonardoDiCaprio.png', 'Im_DanielRadcliffe.png', 'Im_BradPitt.png', 'Im_RobertPattinson.png', 'Im_DanielCraig.png', 'Im_RyanGosling.png', 'Im_JustinTimberlake.png', 'Im_GeorgeClooney.png', 'Im_RyanReynolds.png', 'Im_PatrickDempsey.png'],same,1,0.40857070000004114,13,0,
XAFR1107,0,neg,60,neg60_id4_im7.bmp_neg60_id4_im15.bmp,['Im_LeonardoDiCaprio.png', 'Im_DanielRadcliffe.png', 'Im_BradPitt.png', 'Im_RobertPattinson.png', 'Im_DanielCraig.png', 'Im_RyanGosling.png', 'Im_JustinTimberlake.png', 'Im_GeorgeClooney.png', 'Im_RyanReynolds.png', 'Im_PatrickDempsey.png'],same,1,0.40000689999999395,14,0,
XAFR1107,1,pos,120,pos120_id7_im14.bmp_pos120_id4_im20.bmp,['Im_LeonardoDiCaprio.png', 'Im_DanielRadcliffe.png', 'Im_BradPitt.png', 'Im_RobertPattinson.png', 'Im_DanielCraig.png', 'Im_RyanGosling.png', 'Im_JustinTimberlake.png', 'Im_GeorgeClooney.png', 'Im_RyanReynolds.png', 'Im_PatrickDempsey.png'],diff,1,0.41681849999997667,15,0,
XAFR1107,1,pos,120,pos120_id7_im14.bmp_pos120_id7_im26.bmp,['Im_LeonardoDiCaprio.png', 'Im_DanielRadcliffe.png', 'Im_BradPitt.png', 'Im_RobertPattinson.png', 'Im_DanielCraig.png', 'Im_RyanGosling.png', 'Im_JustinTimberlake.png', 'Im_GeorgeClooney.png', 'Im_RyanReynolds.png', 'Im_PatrickDempsey.png'],same,1,0.4166697999999087,16,0,
XAFR1107,1,pos,60,pos60_id19_im4.bmp_pos60_id10_im17.bmp,['Im_LeonardoDiCaprio.png', 'Im_DanielRadcliffe.png', 'Im_BradPitt.png', 'Im_RobertPattinson.png', 'Im_DanielCraig.png', 'Im_RyanGosling.png', 'Im_JustinTimberlake.png', 'Im_GeorgeClooney.png', 'Im_RyanReynolds.png', 'Im_PatrickDempsey.png'],diff,1,0.4167092999999795,17,0,
XAFR1107,1,pos,30,pos30_id10_im17.bmp_pos30_id3_im6.bmp,['Im_LeonardoDiCaprio.png', 'Im_DanielRadcliffe.png', 'Im_BradPitt.png', 'Im_RobertPattinson.png', 'Im_DanielCraig.png', 'Im_RyanGosling.png', 'Im_JustinTimberlake.png', 'Im_GeorgeClooney.png', 'Im_RyanReynolds.png', 'Im_PatrickDempsey.png'],diff,1,0.4250423999999384,18,0,
XAFR1107,1,pos,fs,posfs_id19_im4.bmp_posfs_id19_im8.bmp,['Im_LeonardoDiCaprio.png', 'Im_DanielRadcliffe.png', 'Im_BradPitt.png', 'Im_RobertPattinson.png', 'Im_DanielCraig.png', 'Im_RyanGosling.png', 'Im_JustinTimberlake.png', 'Im_GeorgeClooney.png', 'Im_RyanReynolds.png', 'Im_PatrickDempsey.png'],same,1,0.5081698999999844,19,0,
XAFR1107,1,pos,60,pos60_id19_im8.bmp_pos60_id4_im7.bmp,['Im_LeonardoDiCaprio.png', 'Im_DanielRadcliffe.png', 'Im_BradPitt.png', 'Im_RobertPattinson.png', 'Im_DanielCraig.png', 'Im_RyanGosling.png', 'Im_JustinTimberlake.png', 'Im_GeorgeClooney.png', 'Im_RyanReynolds.png', 'Im_PatrickDempsey.png'],diff,1,0.42500519999998687,20,0,
XAFR1107,1,pos,150,pos150_id20_im3.bmp_pos150_id20_im30.bmp,['Im_LeonardoDiCaprio.png', 'Im_DanielRadcliffe.png', 'Im_BradPitt.png', 'Im_RobertPattinson.png', 'Im_DanielCraig.png', 'Im_RyanGosling.png', 'Im_JustinTimberlake.png', 'Im_GeorgeClooney.png', 'Im_RyanReynolds.png', 'Im_PatrickDempsey.png'],same,1,0.41678429999990385,21,0,
XAFR1107,1,pos,0,pos0_id3_im17.bmp_pos0_id3_im8.bmp,['Im_LeonardoDiCaprio.png', 'Im_DanielRadcliffe.png', 'Im_BradPitt.png', 'Im_RobertPattinson.png', 'Im_DanielCraig.png', 'Im_RyanGosling.png', 'Im_JustinTimberlake.png', 'Im_GeorgeClooney.png', 'Im_RyanReynolds.png', 'Im_PatrickDempsey.png'],same,1,0.416994700000032,22,0,
XAFR1107,1,pos,90,pos90_id20_im12.bmp_pos90_id13_im15.bmp,['Im_LeonardoDiCaprio.png', 'Im_DanielRadcliffe.png', 'Im_BradPitt.png', 'Im_RobertPattinson.png', 'Im_DanielCraig.png', 'Im_RyanGosling.png', 'Im_JustinTimberlake.png', 'Im_GeorgeClooney.png', 'Im_RyanReynolds.png', 'Im_PatrickDempsey.png'],diff,1,0.4167164000000412,23,0,
XAFR1107,1,pos,150,pos150_id19_im8.bmp_pos150_id19_im4.bmp,['Im_LeonardoDiCaprio.png', 'Im_DanielRadcliffe.png', 'Im_BradPitt.png', 'Im_RobertPattinson.png', 'Im_DanielCraig.png', 'Im_RyanGosling.png', 'Im_JustinTimberlake.png', 'Im_GeorgeClooney.png', 'Im_RyanReynolds.png', 'Im_PatrickDempsey.png'],same,1,0.4250504000000319,24,0,
XAFR1107,1,pos,fs,posfs_id20_im30.bmp_posfs_id20_im12.bmp,['Im_LeonardoDiCaprio.png', 'Im_DanielRadcliffe.png', 'Im_BradPitt.png', 'Im_RobertPattinson.png', 'Im_DanielCraig.png', 'Im_RyanGosling.png', 'Im_JustinTimberlake.png', 'Im_GeorgeClooney.png', 'Im_RyanReynolds.png', 'Im_PatrickDempsey.png'],same,1,0.5258724000000257,25,0,
XAFR1107,1,pos,0,pos0_id5_im20.bmp_pos0_id17_im14.bmp,['Im_LeonardoDiCaprio.png', 'Im_DanielRadcliffe.png', 'Im_BradPitt.png', 'Im_RobertPattinson.png', 'Im_DanielCraig.png', 'Im_RyanGosling.png', 'Im_JustinTimberlake.png', 'Im_GeorgeClooney.png', 'Im_RyanReynolds.png', 'Im_PatrickDempsey.png'],diff,1,0.4167202000000998,26,0,
XAFR1107,1,pos,30,pos30_id21_im16.bmp_pos30_id21_im17.bmp,['Im_LeonardoDiCaprio.png', 'Im_DanielRadcliffe.png', 'Im_BradPitt.png', 'Im_RobertPattinson.png', 'Im_DanielCraig.png', 'Im_RyanGosling.png', 'Im_JustinTimberlake.png', 'Im_GeorgeClooney.png', 'Im_RyanReynolds.png', 'Im_PatrickDempsey.png'],same,1,0.41671470000005684,27,0,
XAFR1107,1,pos,90,pos90_id3_im8.bmp_pos90_id7_im26.bmp,['Im_LeonardoDiCaprio.png', 'Im_DanielRadcliffe.png', 'Im_BradPitt.png', 'Im_RobertPattinson.png', 'Im_DanielCraig.png', 'Im_RyanGosling.png', 'Im_JustinTimberlake.png', 'Im_GeorgeClooney.png', 'Im_RyanReynolds.png', 'Im_PatrickDempsey.png'],diff,1,0.4249783000000207,28,0,
XAFR1107,2,inv,90,pos90_id21_im16.bmp_pos90_id21_im17.bmp,['Im_LeonardoDiCaprio.png', 'Im_DanielRadcliffe.png', 'Im_BradPitt.png', 'Im_RobertPattinson.png', 'Im_DanielCraig.png', 'Im_RyanGosling.png', 'Im_JustinTimberlake.png', 'Im_GeorgeClooney.png', 'Im_RyanReynolds.png', 'Im_PatrickDempsey.png'],same,1,0.4252171000000544,29,0,
XAFR1107,2,inv,fs,posfs_id13_im15.bmp_posfs_id13_im29.bmp,['Im_LeonardoDiCaprio.png', 'Im_DanielRadcliffe.png', 'Im_BradPitt.png', 'Im_RobertPattinson.png', 'Im_DanielCraig.png', 'Im_RyanGosling.png', 'Im_JustinTimberlake.png', 'Im_GeorgeClooney.png', 'Im_RyanReynolds.png', 'Im_PatrickDempsey.png'],same,1,0.40839310000001205,30,0,
XAFR1107,2,inv,60,pos60_id3_im17.bmp_pos60_id10_im1.bmp,['Im_LeonardoDiCaprio.png', 'Im_DanielRadcliffe.png', 'Im_BradPitt.png', 'Im_RobertPattinson.png', 'Im_DanielCraig.png', 'Im_RyanGosling.png', 'Im_JustinTimberlake.png', 'Im_GeorgeClooney.png', 'Im_RyanReynolds.png', 'Im_PatrickDempsey.png'],diff,1,0.416815100000008,31,0,
XAFR1107,2,inv,0,pos0_id13_im15.bmp_pos0_id13_im10.bmp,['Im_LeonardoDiCaprio.png', 'Im_DanielRadcliffe.png', 'Im_BradPitt.png', 'Im_RobertPattinson.png', 'Im_DanielCraig.png', 'Im_RyanGosling.png', 'Im_JustinTimberlake.png', 'Im_GeorgeClooney.png', 'Im_RyanReynolds.png', 'Im_PatrickDempsey.png'],same,1,0.40849149999996825,32,0,
XAFR1107,2,inv,150,pos150_id3_im17.bmp_pos150_id13_im29.bmp,['Im_LeonardoDiCaprio.png', 'Im_DanielRadcliffe.png', 'Im_BradPitt.png', 'Im_RobertPattinson.png', 'Im_DanielCraig.png', 'Im_RyanGosling.png', 'Im_JustinTimberlake.png', 'Im_GeorgeClooney.png', 'Im_RyanReynolds.png', 'Im_PatrickDempsey.png'],same,0,0.4167386000000306,32,0,
XAFR1107,2,inv,150,pos150_id20_im3.bmp_pos150_id20_im12.bmp,['Im_LeonardoDiCaprio.png', 'Im_DanielRadcliffe.png', 'Im_BradPitt.png', 'Im_RobertPattinson.png', 'Im_DanielCraig.png', 'Im_RyanGosling.png', 'Im_JustinTimberlake.png', 'Im_GeorgeClooney.png', 'Im_RyanReynolds.png', 'Im_PatrickDempsey.png'],same,1,0.4250842000000148,33,0,
XAFR1107,2,inv,30,pos30_id10_im17.bmp_pos30_id10_im1.bmp,['Im_LeonardoDiCaprio.png', 'Im_DanielRadcliffe.png', 'Im_BradPitt.png', 'Im_RobertPattinson.png', 'Im_DanielCraig.png', 'Im_RyanGosling.png', 'Im_JustinTimberlake.png', 'Im_GeorgeClooney.png', 'Im_RyanReynolds.png', 'Im_PatrickDempsey.png'],same,1,0.43975769999997283,34,0,
XAFR1107,2,inv,60,pos60_id17_im9.bmp_pos60_id20_im30.bmp,['Im_LeonardoDiCaprio.png', 'Im_DanielRadcliffe.png', 'Im_BradPitt.png', 'Im_RobertPattinson.png', 'Im_DanielCraig.png', 'Im_RyanGosling.png', 'Im_JustinTimberlake.png', 'Im_GeorgeClooney.png', 'Im_RyanReynolds.png', 'Im_PatrickDempsey.png'],diff,1,0.418181499999946,35,0,
XAFR1107,2,inv,120,pos120_id13_im29.bmp_pos120_id13_im10.bmp,['Im_LeonardoDiCaprio.png', 'Im_DanielRadcliffe.png', 'Im_BradPitt.png', 'Im_RobertPattinson.png', 'Im_DanielCraig.png', 'Im_RyanGosling.png', 'Im_JustinTimberlake.png', 'Im_GeorgeClooney.png', 'Im_RyanReynolds.png', 'Im_PatrickDempsey.png'],same,1,0.5251307999999426,36,0,
XAFR1107,2,inv,30,pos30_id4_im20.bmp_pos30_id4_im15.bmp,['Im_LeonardoDiCaprio.png', 'Im_DanielRadcliffe.png', 'Im_BradPitt.png', 'Im_RobertPattinson.png', 'Im_DanielCraig.png', 'Im_RyanGosling.png', 'Im_JustinTimberlake.png', 'Im_GeorgeClooney.png', 'Im_RyanReynolds.png', 'Im_PatrickDempsey.png'],same,1,0.41673309999998764,37,0,
XAFR1107,2,inv,fs,posfs_id5_im20.bmp_posfs_id17_im14.bmp,['Im_LeonardoDiCaprio.png', 'Im_DanielRadcliffe.png', 'Im_BradPitt.png', 'Im_RobertPattinson.png', 'Im_DanielCraig.png', 'Im_RyanGosling.png', 'Im_JustinTimberlake.png', 'Im_GeorgeClooney.png', 'Im_RyanReynolds.png', 'Im_PatrickDempsey.png'],same,0,1.1503005000000712,37,0,
XAFR1107,2,inv,90,pos90_id20_im30.bmp_pos90_id20_im3.bmp,['Im_LeonardoDiCaprio.png', 'Im_DanielRadcliffe.png', 'Im_BradPitt.png', 'Im_RobertPattinson.png', 'Im_DanielCraig.png', 'Im_RyanGosling.png', 'Im_JustinTimberlake.png', 'Im_GeorgeClooney.png', 'Im_RyanReynolds.png', 'Im_PatrickDempsey.png'],same,1,0.42526229999998577,38,0,
XAFR1107,2,inv,120,pos120_id7_im14.bmp_pos120_id4_im20.bmp,['Im_LeonardoDiCaprio.png', 'Im_DanielRadcliffe.png', 'Im_BradPitt.png', 'Im_RobertPattinson.png', 'Im_DanielCraig.png', 'Im_RyanGosling.png', 'Im_JustinTimberlake.png', 'Im_GeorgeClooney.png', 'Im_RyanReynolds.png', 'Im_PatrickDempsey.png'],same,0,0.42523239999991347,38,0,
XAFR1107,2,inv,0,pos0_id21_im16.bmp_pos0_id17_im14.bmp,['Im_LeonardoDiCaprio.png', 'Im_DanielRadcliffe.png', 'Im_BradPitt.png', 'Im_RobertPattinson.png', 'Im_DanielCraig.png', 'Im_RyanGosling.png', 'Im_JustinTimberlake.png', 'Im_GeorgeClooney.png', 'Im_RyanReynolds.png', 'Im_PatrickDempsey.png'],diff,1,0.42505310000001373,39,0,
XAFR1107,3,inv,60,pos60_id3_im8.bmp_pos60_id3_im17.bmp,['Im_LeonardoDiCaprio.png', 'Im_DanielRadcliffe.png', 'Im_BradPitt.png', 'Im_RobertPattinson.png', 'Im_DanielCraig.png', 'Im_RyanGosling.png', 'Im_JustinTimberlake.png', 'Im_GeorgeClooney.png', 'Im_RyanReynolds.png', 'Im_PatrickDempsey.png'],none,1,4.408631300000025,0,92.85714285714286,
XAFR1107,3,inv,150,pos150_id17_im9.bmp_pos150_id20_im30.bmp,['Im_LeonardoDiCaprio.png', 'Im_DanielRadcliffe.png', 'Im_BradPitt.png', 'Im_RobertPattinson.png', 'Im_DanielCraig.png', 'Im_RyanGosling.png', 'Im_JustinTimberlake.png', 'Im_GeorgeClooney.png', 'Im_RyanReynolds.png', 'Im_PatrickDempsey.png'],diff,1,0.45845919999999296,1,92.85714285714286,
XAFR1107,3,inv,90,pos90_id17_im9.bmp_pos90_id20_im30.bmp,['Im_LeonardoDiCaprio.png', 'Im_DanielRadcliffe.png', 'Im_BradPitt.png', 'Im_RobertPattinson.png', 'Im_DanielCraig.png', 'Im_RyanGosling.png', 'Im_JustinTimberlake.png', 'Im_GeorgeClooney.png', 'Im_RyanReynolds.png', 'Im_PatrickDempsey.png'],diff,1,0.5502648000000363,2,92.85714285714286,
XAFR1107,3,inv,120,pos120_id7_im15.bmp_pos120_id7_im26.bmp,['Im_LeonardoDiCaprio.png', 'Im_DanielRadcliffe.png', 'Im_BradPitt.png', 'Im_RobertPattinson.png', 'Im_DanielCraig.png', 'Im_RyanGosling.png', 'Im_JustinTimberlake.png', 'Im_GeorgeClooney.png', 'Im_RyanReynolds.png', 'Im_PatrickDempsey.png'],same,1,0.4083804000000555,3,92.85714285714286,
XAFR1107,3,inv,60,pos60_id5_im20.bmp_pos60_id17_im14.bmp,['Im_LeonardoDiCaprio.png', 'Im_DanielRadcliffe.png', 'Im_BradPitt.png', 'Im_RobertPattinson.png', 'Im_DanielCraig.png', 'Im_RyanGosling.png', 'Im_JustinTimberlake.png', 'Im_GeorgeClooney.png', 'Im_RyanReynolds.png', 'Im_PatrickDempsey.png'],diff,1,0.4166285000000016,4,92.85714285714286,
XAFR1107,3,inv,0,pos0_id5_im20.bmp_pos0_id5_im10.bmp,['Im_LeonardoDiCaprio.png', 'Im_DanielRadcliffe.png', 'Im_BradPitt.png', 'Im_RobertPattinson.png', 'Im_DanielCraig.png', 'Im_RyanGosling.png', 'Im_JustinTimberlake.png', 'Im_GeorgeClooney.png', 'Im_RyanReynolds.png', 'Im_PatrickDempsey.png'],diff,0,0.4084159000000227,4,92.85714285714286,
XAFR1107,3,inv,fs,posfs_id10_im1.bmp_posfs_id10_im17.bmp,['Im_LeonardoDiCaprio.png', 'Im_DanielRadcliffe.png', 'Im_BradPitt.png', 'Im_RobertPattinson.png', 'Im_DanielCraig.png', 'Im_RyanGosling.png', 'Im_JustinTimberlake.png', 'Im_GeorgeClooney.png', 'Im_RyanReynolds.png', 'Im_PatrickDempsey.png'],same,1,0.4083007000000407,5,92.85714285714286,
XAFR1107,3,inv,90,pos90_id13_im15.bmp_pos90_id13_im10.bmp,['Im_LeonardoDiCaprio.png', 'Im_DanielRadcliffe.png', 'Im_BradPitt.png', 'Im_RobertPattinson.png', 'Im_DanielCraig.png', 'Im_RyanGosling.png', 'Im_JustinTimberlake.png', 'Im_GeorgeClooney.png', 'Im_RyanReynolds.png', 'Im_PatrickDempsey.png'],same,1,0.4587007000000085,6,92.85714285714286,
XAFR1107,3,inv,fs,posfs_id21_im22.bmp_posfs_id4_im20.bmp,['Im_LeonardoDiCaprio.png', 'Im_DanielRadcliffe.png', 'Im_BradPitt.png', 'Im_RobertPattinson.png', 'Im_DanielCraig.png', 'Im_RyanGosling.png', 'Im_JustinTimberlake.png', 'Im_GeorgeClooney.png', 'Im_RyanReynolds.png', 'Im_PatrickDempsey.png'],diff,1,0.40830770000002303,7,92.85714285714286,
XAFR1107,3,inv,0,pos0_id19_im27.bmp_pos0_id3_im8.bmp,['Im_LeonardoDiCaprio.png', 'Im_DanielRadcliffe.png', 'Im_BradPitt.png', 'Im_RobertPattinson.png', 'Im_DanielCraig.png', 'Im_RyanGosling.png', 'Im_JustinTimberlake.png', 'Im_GeorgeClooney.png', 'Im_RyanReynolds.png', 'Im_PatrickDempsey.png'],same,0,0.8583671000000095,7,92.85714285714286,
XAFR1107,3,inv,120,pos120_id4_im15.bmp_pos120_id4_im20.bmp,['Im_LeonardoDiCaprio.png', 'Im_DanielRadcliffe.png', 'Im_BradPitt.png', 'Im_RobertPattinson.png', 'Im_DanielCraig.png', 'Im_RyanGosling.png', 'Im_JustinTimberlake.png', 'Im_GeorgeClooney.png', 'Im_RyanReynolds.png', 'Im_PatrickDempsey.png'],same,1,0.4249823000000106,8,92.85714285714286,
XAFR1107,3,inv,30,pos30_id20_im3.bmp_pos30_id7_im26.bmp,['Im_LeonardoDiCaprio.png', 'Im_DanielRadcliffe.png', 'Im_BradPitt.png', 'Im_RobertPattinson.png', 'Im_DanielCraig.png', 'Im_RyanGosling.png', 'Im_JustinTimberlake.png', 'Im_GeorgeClooney.png', 'Im_RyanReynolds.png', 'Im_PatrickDempsey.png'],diff,1,0.41696600000000217,9,92.85714285714286,
XAFR1107,3,inv,30,pos30_id19_im8.bmp_pos30_id19_im27.bmp,['Im_LeonardoDiCaprio.png', 'Im_DanielRadcliffe.png', 'Im_BradPitt.png', 'Im_RobertPattinson.png', 'Im_DanielCraig.png', 'Im_RyanGosling.png', 'Im_JustinTimberlake.png', 'Im_GeorgeClooney.png', 'Im_RyanReynolds.png', 'Im_PatrickDempsey.png'],same,1,0.4083518999999569,10,92.85714285714286,
XAFR1107,3,inv,150,pos150_id5_im20.bmp_pos150_id5_im1.bmp,['Im_LeonardoDiCaprio.png', 'Im_DanielRadcliffe.png', 'Im_BradPitt.png', 'Im_RobertPattinson.png', 'Im_DanielCraig.png', 'Im_RyanGosling.png', 'Im_JustinTimberlake.png', 'Im_GeorgeClooney.png', 'Im_RyanReynolds.png', 'Im_PatrickDempsey.png'],same,1,0.4166533000000072,11,92.85714285714286,
XAFR1107,4,pos,fs,posfs_id17_im9.bmp_posfs_id20_im30.bmp,['Im_LeonardoDiCaprio.png', 'Im_DanielRadcliffe.png', 'Im_BradPitt.png', 'Im_RobertPattinson.png', 'Im_DanielCraig.png', 'Im_RyanGosling.png', 'Im_JustinTimberlake.png', 'Im_GeorgeClooney.png', 'Im_RyanReynolds.png', 'Im_PatrickDempsey.png'],diff,1,0.4085072999999966,12,92.85714285714286,
XAFR1107,4,pos,120,pos120_id7_im15.bmp_pos120_id7_im26.bmp,['Im_LeonardoDiCaprio.png', 'Im_DanielRadcliffe.png', 'Im_BradPitt.png', 'Im_RobertPattinson.png', 'Im_DanielCraig.png', 'Im_RyanGosling.png', 'Im_JustinTimberlake.png', 'Im_GeorgeClooney.png', 'Im_RyanReynolds.png', 'Im_PatrickDempsey.png'],same,1,0.42499370000007275,13,92.85714285714286,
XAFR1107,4,pos,60,pos60_id4_im20.bmp_pos60_id4_im7.bmp,['Im_LeonardoDiCaprio.png', 'Im_DanielRadcliffe.png', 'Im_BradPitt.png', 'Im_RobertPattinson.png', 'Im_DanielCraig.png', 'Im_RyanGosling.png', 'Im_JustinTimberlake.png', 'Im_GeorgeClooney.png', 'Im_RyanReynolds.png', 'Im_PatrickDempsey.png'],none,1,4.416678499999989,13,92.85714285714286,
XAFR1107,4,pos,fs,posfs_id21_im17.bmp_posfs_id5_im20.bmp,['Im_LeonardoDiCaprio.png', 'Im_DanielRadcliffe.png', 'Im_BradPitt.png', 'Im_RobertPattinson.png', 'Im_DanielCraig.png', 'Im_RyanGosling.png', 'Im_JustinTimberlake.png', 'Im_GeorgeClooney.png', 'Im_RyanReynolds.png', 'Im_PatrickDempsey.png'],diff,1,0.4251995000000761,14,92.85714285714286,
XAFR1107,4,pos,90,pos90_id17_im14.bmp_pos90_id21_im16.bmp,['Im_LeonardoDiCaprio.png', 'Im_DanielRadcliffe.png', 'Im_BradPitt.png', 'Im_RobertPattinson.png', 'Im_DanielCraig.png', 'Im_RyanGosling.png', 'Im_JustinTimberlake.png', 'Im_GeorgeClooney.png', 'Im_RyanReynolds.png', 'Im_PatrickDempsey.png'],diff,1,0.4167181000000255,15,92.85714285714286,
XAFR1107,4,pos,30,pos30_id21_im22.bmp_pos30_id4_im20.bmp,['Im_LeonardoDiCaprio.png', 'Im_DanielRadcliffe.png', 'Im_BradPitt.png', 'Im_RobertPattinson.png', 'Im_DanielCraig.png', 'Im_RyanGosling.png', 'Im_JustinTimberlake.png', 'Im_GeorgeClooney.png', 'Im_RyanReynolds.png', 'Im_PatrickDempsey.png'],diff,1,0.4249753999999939,16,92.85714285714286,
XAFR1107,4,pos,150,pos150_id5_im20.bmp_pos150_id17_im14.bmp,['Im_LeonardoDiCaprio.png', 'Im_DanielRadcliffe.png', 'Im_BradPitt.png', 'Im_RobertPattinson.png', 'Im_DanielCraig.png', 'Im_RyanGosling.png', 'Im_JustinTimberlake.png', 'Im_GeorgeClooney.png', 'Im_RyanReynolds.png', 'Im_PatrickDempsey.png'],diff,1,0.8834530000000314,17,92.85714285714286,
XAFR1107,4,pos,30,pos30_id10_im1.bmp_pos30_id3_im17.bmp,['Im_LeonardoDiCaprio.png', 'Im_DanielRadcliffe.png', 'Im_BradPitt.png', 'Im_RobertPattinson.png', 'Im_DanielCraig.png', 'Im_RyanGosling.png', 'Im_JustinTimberlake.png', 'Im_GeorgeClooney.png', 'Im_RyanReynolds.png', 'Im_PatrickDempsey.png'],diff,1,0.8168365999999878,18,92.85714285714286,
XAFR1107,4,pos,60,pos60_id7_im14.bmp_pos60_id4_im20.bmp,['Im_LeonardoDiCaprio.png', 'Im_DanielRadcliffe.png', 'Im_BradPitt.png', 'Im_RobertPattinson.png', 'Im_DanielCraig.png', 'Im_RyanGosling.png', 'Im_JustinTimberlake.png', 'Im_GeorgeClooney.png', 'Im_RyanReynolds.png', 'Im_PatrickDempsey.png'],diff,1,0.4168040000000701,19,92.85714285714286,
XAFR1107,4,pos,150,pos150_id10_im18.bmp_pos150_id10_im1.bmp,['Im_LeonardoDiCaprio.png', 'Im_DanielRadcliffe.png', 'Im_BradPitt.png', 'Im_RobertPattinson.png', 'Im_DanielCraig.png', 'Im_RyanGosling.png', 'Im_JustinTimberlake.png', 'Im_GeorgeClooney.png', 'Im_RyanReynolds.png', 'Im_PatrickDempsey.png'],same,1,0.4250519999999369,20,92.85714285714286,
XAFR1107,4,pos,0,pos0_id10_im17.bmp_pos0_id10_im1.bmp,['Im_LeonardoDiCaprio.png', 'Im_DanielRadcliffe.png', 'Im_BradPitt.png', 'Im_RobertPattinson.png', 'Im_DanielCraig.png', 'Im_RyanGosling.png', 'Im_JustinTimberlake.png', 'Im_GeorgeClooney.png', 'Im_RyanReynolds.png', 'Im_PatrickDempsey.png'],same,1,0.40850139999997737,21,92.85714285714286,
XAFR1107,4,pos,120,pos120_id7_im15.bmp_pos120_id7_im14.bmp,['Im_LeonardoDiCaprio.png', 'Im_DanielRadcliffe.png', 'Im_BradPitt.png', 'Im_RobertPattinson.png', 'Im_DanielCraig.png', 'Im_RyanGosling.png', 'Im_JustinTimberlake.png', 'Im_GeorgeClooney.png', 'Im_RyanReynolds.png', 'Im_PatrickDempsey.png'],same,1,0.41683179999995446,22,92.85714285714286,
XAFR1107,4,pos,90,pos90_id21_im17.bmp_pos90_id5_im20.bmp,['Im_LeonardoDiCaprio.png', 'Im_DanielRadcliffe.png', 'Im_BradPitt.png', 'Im_RobertPattinson.png', 'Im_DanielCraig.png', 'Im_RyanGosling.png', 'Im_JustinTimberlake.png', 'Im_GeorgeClooney.png', 'Im_RyanReynolds.png', 'Im_PatrickDempsey.png'],diff,1,0.5587436999999227,23,92.85714285714286,
XAFR1107,4,pos,0,pos0_id7_im14.bmp_pos0_id7_im15.bmp,['Im_LeonardoDiCaprio.png', 'Im_DanielRadcliffe.png', 'Im_BradPitt.png', 'Im_RobertPattinson.png', 'Im_DanielCraig.png', 'Im_RyanGosling.png', 'Im_JustinTimberlake.png', 'Im_GeorgeClooney.png', 'Im_RyanReynolds.png', 'Im_PatrickDempsey.png'],same,1,0.41673309999998764,24,92.85714285714286,
XAFR1107,5,neg,30,neg30_id17_im9.bmp_neg30_id17_im8.bmp,['Im_LeonardoDiCaprio.png', 'Im_DanielRadcliffe.png', 'Im_BradPitt.png', 'Im_RobertPattinson.png', 'Im_DanielCraig.png', 'Im_RyanGosling.png', 'Im_JustinTimberlake.png', 'Im_GeorgeClooney.png', 'Im_RyanReynolds.png', 'Im_PatrickDempsey.png'],same,1,0.4168895999999904,25,92.85714285714286,
XAFR1107,5,neg,30,neg30_id21_im16.bmp_neg30_id17_im14.bmp,['Im_LeonardoDiCaprio.png', 'Im_DanielRadcliffe.png', 'Im_BradPitt.png', 'Im_RobertPattinson.png', 'Im_DanielCraig.png', 'Im_RyanGosling.png', 'Im_JustinTimberlake.png', 'Im_GeorgeClooney.png', 'Im_RyanReynolds.png', 'Im_PatrickDempsey.png'],diff,1,0.42517910000003667,26,92.85714285714286,
XAFR1107,5,neg,150,neg150_id13_im29.bmp_neg150_id3_im17.bmp,['Im_LeonardoDiCaprio.png', 'Im_DanielRadcliffe.png', 'Im_BradPitt.png', 'Im_RobertPattinson.png', 'Im_DanielCraig.png', 'Im_RyanGosling.png', 'Im_JustinTimberlake.png', 'Im_GeorgeClooney.png', 'Im_RyanReynolds.png', 'Im_PatrickDempsey.png'],diff,1,0.4166400999999951,27,92.85714285714286,
XAFR1107,5,neg,0,neg0_id19_im27.bmp_neg0_id19_im8.bmp,['Im_LeonardoDiCaprio.png', 'Im_DanielRadcliffe.png', 'Im_BradPitt.png', 'Im_RobertPattinson.png', 'Im_DanielCraig.png', 'Im_RyanGosling.png', 'Im_JustinTimberlake.png', 'Im_GeorgeClooney.png', 'Im_RyanReynolds.png', 'Im_PatrickDempsey.png'],same,1,0.42506300000002284,28,92.85714285714286,
XAFR1107,5,neg,0,neg0_id4_im7.bmp_neg0_id4_im15.bmp,['Im_LeonardoDiCaprio.png', 'Im_DanielRadcliffe.png', 'Im_BradPitt.png', 'Im_RobertPattinson.png', 'Im_DanielCraig.png', 'Im_RyanGosling.png', 'Im_JustinTimberlake.png', 'Im_GeorgeClooney.png', 'Im_RyanReynolds.png', 'Im_PatrickDempsey.png'],same,1,0.4166863000000376,29,92.85714285714286,
XAFR1107,5,neg,120,neg120_id20_im3.bmp_neg120_id20_im30.bmp,['Im_LeonardoDiCaprio.png', 'Im_DanielRadcliffe.png', 'Im_BradPitt.png', 'Im_RobertPattinson.png', 'Im_DanielCraig.png', 'Im_RyanGosling.png', 'Im_JustinTimberlake.png', 'Im_GeorgeClooney.png', 'Im_RyanReynolds.png', 'Im_PatrickDempsey.png'],same,1,0.42500920000009046,30,92.85714285714286,
XAFR1107,5,neg,90,neg90_id4_im7.bmp_neg90_id4_im20.bmp,['Im_LeonardoDiCaprio.png', 'Im_DanielRadcliffe.png', 'Im_BradPitt.png', 'Im_RobertPattinson.png', 'Im_DanielCraig.png', 'Im_RyanGosling.png', 'Im_JustinTimberlake.png', 'Im_GeorgeClooney.png', 'Im_RyanReynolds.png', 'Im_PatrickDempsey.png'],same,1,0.4168333000000075,31,92.85714285714286,
XAFR1107,5,neg,150,neg150_id13_im15.bmp_neg150_id20_im12.bmp,['Im_LeonardoDiCaprio.png', 'Im_DanielRadcliffe.png', 'Im_BradPitt.png', 'Im_RobertPattinson.png', 'Im_DanielCraig.png', 'Im_RyanGosling.png', 'Im_JustinTimberlake.png', 'Im_GeorgeClooney.png', 'Im_RyanReynolds.png', 'Im_PatrickDempsey.png'],diff,1,0.4251454999999851,32,92.85714285714286,
XAFR1107,5,neg,120,neg120_id10_im1.bmp_neg120_id3_im17.bmp,['Im_LeonardoDiCaprio.png', 'Im_DanielRadcliffe.png', 'Im_BradPitt.png', 'Im_RobertPattinson.png', 'Im_DanielCraig.png', 'Im_RyanGosling.png', 'Im_JustinTimberlake.png', 'Im_GeorgeClooney.png', 'Im_RyanReynolds.png', 'Im_PatrickDempsey.png'],diff,1,0.42500169999993886,33,92.85714285714286,
XAFR1107,5,neg,fs,negfs_id13_im15.bmp_negfs_id13_im10.bmp,['Im_LeonardoDiCaprio.png', 'Im_DanielRadcliffe.png', 'Im_BradPitt.png', 'Im_RobertPattinson.png', 'Im_DanielCraig.png', 'Im_RyanGosling.png', 'Im_JustinTimberlake.png', 'Im_GeorgeClooney.png', 'Im_RyanReynolds.png', 'Im_PatrickDempsey.png'],same,1,0.42507419999992635,34,92.85714285714286,
XAFR1107,5,neg,60,neg60_id19_im8.bmp_neg60_id4_im7.bmp,['Im_LeonardoDiCaprio.png', 'Im_DanielRadcliffe.png', 'Im_BradPitt.png', 'Im_RobertPattinson.png', 'Im_DanielCraig.png', 'Im_RyanGosling.png', 'Im_JustinTimberlake.png', 'Im_GeorgeClooney.png', 'Im_RyanReynolds.png', 'Im_PatrickDempsey.png'],diff,1,0.4420236000000841,35,92.85714285714286,
XAFR1107,5,neg,fs,negfs_id10_im17.bmp_negfs_id3_im6.bmp,['Im_LeonardoDiCaprio.png', 'Im_DanielRadcliffe.png', 'Im_BradPitt.png', 'Im_RobertPattinson.png', 'Im_DanielCraig.png', 'Im_RyanGosling.png', 'Im_JustinTimberlake.png', 'Im_GeorgeClooney.png', 'Im_RyanReynolds.png', 'Im_PatrickDempsey.png'],diff,1,0.42521130000000085,36,92.85714285714286,
XAFR1107,5,neg,90,neg90_id7_im14.bmp_neg90_id4_im20.bmp,['Im_LeonardoDiCaprio.png', 'Im_DanielRadcliffe.png', 'Im_BradPitt.png', 'Im_RobertPattinson.png', 'Im_DanielCraig.png', 'Im_RyanGosling.png', 'Im_JustinTimberlake.png', 'Im_GeorgeClooney.png', 'Im_RyanReynolds.png', 'Im_PatrickDempsey.png'],diff,1,0.408344399999919,37,92.85714285714286,
XAFR1107,5,neg,60,neg60_id10_im1.bmp_neg60_id3_im17.bmp,['Im_LeonardoDiCaprio.png', 'Im_DanielRadcliffe.png', 'Im_BradPitt.png', 'Im_RobertPattinson.png', 'Im_DanielCraig.png', 'Im_RyanGosling.png', 'Im_JustinTimberlake.png', 'Im_GeorgeClooney.png', 'Im_RyanReynolds.png', 'Im_PatrickDempsey.png'],diff,1,0.4250712000000476,38,92.85714285714286,
XAFR1107,6,pos,90,pos90_id5_im1.bmp_pos90_id10_im1.bmp,['Im_LeonardoDiCaprio.png', 'Im_DanielRadcliffe.png', 'Im_BradPitt.png', 'Im_RobertPattinson.png', 'Im_DanielCraig.png', 'Im_RyanGosling.png', 'Im_JustinTimberlake.png', 'Im_GeorgeClooney.png', 'Im_RyanReynolds.png', 'Im_PatrickDempsey.png'],diff,1,0.41673339999999826,1,90.47619047619048,
XAFR1107,6,pos,150,pos150_id3_im17.bmp_pos150_id10_im1.bmp,['Im_LeonardoDiCaprio.png', 'Im_DanielRadcliffe.png', 'Im_BradPitt.png', 'Im_RobertPattinson.png', 'Im_DanielCraig.png', 'Im_RyanGosling.png', 'Im_JustinTimberlake.png', 'Im_GeorgeClooney.png', 'Im_RyanReynolds.png', 'Im_PatrickDempsey.png'],diff,1,0.4168991999999889,2,90.47619047619048,
XAFR1107,6,pos,60,pos60_id21_im22.bmp_pos60_id4_im20.bmp,['Im_LeonardoDiCaprio.png', 'Im_DanielRadcliffe.png', 'Im_BradPitt.png', 'Im_RobertPattinson.png', 'Im_DanielCraig.png', 'Im_RyanGosling.png', 'Im_JustinTimberlake.png', 'Im_GeorgeClooney.png', 'Im_RyanReynolds.png', 'Im_PatrickDempsey.png'],diff,1,0.4083646999999928,3,90.47619047619048,
XAFR1107,6,pos,fs,posfs_id7_im26.bmp_posfs_id20_im3.bmp,['Im_LeonardoDiCaprio.png', 'Im_DanielRadcliffe.png', 'Im_BradPitt.png', 'Im_RobertPattinson.png', 'Im_DanielCraig.png', 'Im_RyanGosling.png', 'Im_JustinTimberlake.png', 'Im_GeorgeClooney.png', 'Im_RyanReynolds.png', 'Im_PatrickDempsey.png'],diff,1,0.4167278999999553,4,90.47619047619048,
XAFR1107,6,pos,30,pos30_id5_im1.bmp_pos30_id5_im20.bmp,['Im_LeonardoDiCaprio.png', 'Im_DanielRadcliffe.png', 'Im_BradPitt.png', 'Im_RobertPattinson.png', 'Im_DanielCraig.png', 'Im_RyanGosling.png', 'Im_JustinTimberlake.png', 'Im_GeorgeClooney.png', 'Im_RyanReynolds.png', 'Im_PatrickDempsey.png'],same,1,0.4167322000000695,5,90.47619047619048,
XAFR1107,6,pos,150,pos150_id13_im15.bmp_pos150_id13_im10.bmp,['Im_LeonardoDiCaprio.png', 'Im_DanielRadcliffe.png', 'Im_BradPitt.png', 'Im_RobertPattinson.png', 'Im_DanielCraig.png', 'Im_RyanGosling.png', 'Im_JustinTimberlake.png', 'Im_GeorgeClooney.png', 'Im_RyanReynolds.png', 'Im_PatrickDempsey.png'],diff,0,0.40817630000003646,5,90.47619047619048,
XAFR1107,6,pos,0,pos0_id17_im14.bmp_pos0_id17_im8.bmp,['Im_LeonardoDiCaprio.png', 'Im_DanielRadcliffe.png', 'Im_BradPitt.png', 'Im_RobertPattinson.png', 'Im_DanielCraig.png', 'Im_RyanGosling.png', 'Im_JustinTimberlake.png', 'Im_GeorgeClooney.png', 'Im_RyanReynolds.png', 'Im_PatrickDempsey.png'],same,1,0.41667680000000473,6,90.47619047619048,
XAFR1107,6,pos,0,pos0_id19_im27.bmp_pos0_id19_im4.bmp,['Im_LeonardoDiCaprio.png', 'Im_DanielRadcliffe.png', 'Im_BradPitt.png', 'Im_RobertPattinson.png', 'Im_DanielCraig.png', 'Im_RyanGosling.png', 'Im_JustinTimberlake.png', 'Im_GeorgeClooney.png', 'Im_RyanReynolds.png', 'Im_PatrickDempsey.png'],same,1,0.4249833999999737,7,90.47619047619048,
XAFR1107,6,pos,120,pos120_id4_im15.bmp_pos120_id20_im12.bmp,['Im_LeonardoDiCaprio.png', 'Im_DanielRadcliffe.png', 'Im_BradPitt.png', 'Im_RobertPattinson.png', 'Im_DanielCraig.png', 'Im_RyanGosling.png', 'Im_JustinTimberlake.png', 'Im_GeorgeClooney.png', 'Im_RyanReynolds.png', 'Im_PatrickDempsey.png'],diff,1,0.41659199999992325,8,90.47619047619048,
XAFR1107,6,pos,60,pos60_id7_im15.bmp_pos60_id21_im16.bmp,['Im_LeonardoDiCaprio.png', 'Im_DanielRadcliffe.png', 'Im_BradPitt.png', 'Im_RobertPattinson.png', 'Im_DanielCraig.png', 'Im_RyanGosling.png', 'Im_JustinTimberlake.png', 'Im_GeorgeClooney.png', 'Im_RyanReynolds.png', 'Im_PatrickDempsey.png'],diff,1,1.016777300000058,9,90.47619047619048,
XAFR1107,6,pos,90,pos90_id7_im14.bmp_pos90_id17_im9.bmp,['Im_LeonardoDiCaprio.png', 'Im_DanielRadcliffe.png', 'Im_BradPitt.png', 'Im_RobertPattinson.png', 'Im_DanielCraig.png', 'Im_RyanGosling.png', 'Im_JustinTimberlake.png', 'Im_GeorgeClooney.png', 'Im_RyanReynolds.png', 'Im_PatrickDempsey.png'],diff,1,0.4167797000000064,10,90.47619047619048,
XAFR1107,6,pos,fs,posfs_id17_im9.bmp_posfs_id17_im14.bmp,['Im_LeonardoDiCaprio.png', 'Im_DanielRadcliffe.png', 'Im_BradPitt.png', 'Im_RobertPattinson.png', 'Im_DanielCraig.png', 'Im_RyanGosling.png', 'Im_JustinTimberlake.png', 'Im_GeorgeClooney.png', 'Im_RyanReynolds.png', 'Im_PatrickDempsey.png'],same,1,0.41669839999985925,11,90.47619047619048,
XAFR1107,6,pos,120,pos120_id3_im8.bmp_pos120_id3_im6.bmp,['Im_LeonardoDiCaprio.png', 'Im_DanielRadcliffe.png', 'Im_BradPitt.png', 'Im_RobertPattinson.png', 'Im_DanielCraig.png', 'Im_RyanGosling.png', 'Im_JustinTimberlake.png', 'Im_GeorgeClooney.png', 'Im_RyanReynolds.png', 'Im_PatrickDempsey.png'],same,1,0.4248329999998077,12,90.47619047619048,
XAFR1107,6,pos,30,pos30_id10_im17.bmp_pos30_id19_im4.bmp,['Im_LeonardoDiCaprio.png', 'Im_DanielRadcliffe.png', 'Im_BradPitt.png', 'Im_RobertPattinson.png', 'Im_DanielCraig.png', 'Im_RyanGosling.png', 'Im_JustinTimberlake.png', 'Im_GeorgeClooney.png', 'Im_RyanReynolds.png', 'Im_PatrickDempsey.png'],diff,1,0.40825119999999515,13,90.47619047619048,
XAFR1107,7,neg,90,neg90_id21_im17.bmp_neg90_id21_im22.bmp,['Im_LeonardoDiCaprio.png', 'Im_DanielRadcliffe.png', 'Im_BradPitt.png', 'Im_RobertPattinson.png', 'Im_DanielCraig.png', 'Im_RyanGosling.png', 'Im_JustinTimberlake.png', 'Im_GeorgeClooney.png', 'Im_RyanReynolds.png', 'Im_PatrickDempsey.png'],diff,0,0.7248658999999407,13,90.47619047619048,
XAFR1107,7,neg,30,neg30_id19_im8.bmp_neg30_id4_im7.bmp,['Im_LeonardoDiCaprio.png', 'Im_DanielRadcliffe.png', 'Im_BradPitt.png', 'Im_RobertPattinson.png', 'Im_DanielCraig.png', 'Im_RyanGosling.png', 'Im_JustinTimberlake.png', 'Im_GeorgeClooney.png', 'Im_RyanReynolds.png', 'Im_PatrickDempsey.png'],diff,1,0.6167335000000094,14,90.47619047619048,
XAFR1107,7,neg,60,neg60_id13_im15.bmp_neg60_id20_im12.bmp,['Im_LeonardoDiCaprio.png', 'Im_DanielRadcliffe.png', 'Im_BradPitt.png', 'Im_RobertPattinson.png', 'Im_DanielCraig.png', 'Im_RyanGosling.png', 'Im_JustinTimberlake.png', 'Im_GeorgeClooney.png', 'Im_RyanReynolds.png', 'Im_PatrickDempsey.png'],diff,1,0.4250319000000218,15,90.47619047619048,
XAFR1107,7,neg,150,neg150_id13_im29.bmp_neg150_id10_im18.bmp,['Im_LeonardoDiCaprio.png', 'Im_DanielRadcliffe.png', 'Im_BradPitt.png', 'Im_RobertPattinson.png', 'Im_DanielCraig.png', 'Im_RyanGosling.png', 'Im_JustinTimberlake.png', 'Im_GeorgeClooney.png', 'Im_RyanReynolds.png', 'Im_PatrickDempsey.png'],diff,1,0.7917680000000473,16,90.47619047619048,
XAFR1107,7,neg,120,neg120_id3_im8.bmp_neg120_id19_im27.bmp,['Im_LeonardoDiCaprio.png', 'Im_DanielRadcliffe.png', 'Im_BradPitt.png', 'Im_RobertPattinson.png', 'Im_DanielCraig.png', 'Im_RyanGosling.png', 'Im_JustinTimberlake.png', 'Im_GeorgeClooney.png', 'Im_RyanReynolds.png', 'Im_PatrickDempsey.png'],diff,1,0.6415885999999773,17,90.47619047619048,
XAFR1107,7,neg,150,neg150_id13_im29.bmp_neg150_id13_im10.bmp,['Im_LeonardoDiCaprio.png', 'Im_DanielRadcliffe.png', 'Im_BradPitt.png', 'Im_RobertPattinson.png', 'Im_DanielCraig.png', 'Im_RyanGosling.png', 'Im_JustinTimberlake.png', 'Im_GeorgeClooney.png', 'Im_RyanReynolds.png', 'Im_PatrickDempsey.png'],diff,0,0.41664410000021235,17,90.47619047619048,
XAFR1107,7,neg,fs,negfs_id5_im20.bmp_negfs_id5_im10.bmp,['Im_LeonardoDiCaprio.png', 'Im_DanielRadcliffe.png', 'Im_BradPitt.png', 'Im_RobertPattinson.png', 'Im_DanielCraig.png', 'Im_RyanGosling.png', 'Im_JustinTimberlake.png', 'Im_GeorgeClooney.png', 'Im_RyanReynolds.png', 'Im_PatrickDempsey.png'],same,1,0.41667230000007294,18,90.47619047619048,
XAFR1107,7,neg,60,neg60_id21_im17.bmp_neg60_id5_im10.bmp,['Im_LeonardoDiCaprio.png', 'Im_DanielRadcliffe.png', 'Im_BradPitt.png', 'Im_RobertPattinson.png', 'Im_DanielCraig.png', 'Im_RyanGosling.png', 'Im_JustinTimberlake.png', 'Im_GeorgeClooney.png', 'Im_RyanReynolds.png', 'Im_PatrickDempsey.png'],diff,1,0.4252894000001106,19,90.47619047619048,
XAFR1107,7,neg,120,neg120_id17_im9.bmp_neg120_id20_im30.bmp,['Im_LeonardoDiCaprio.png', 'Im_DanielRadcliffe.png', 'Im_BradPitt.png', 'Im_RobertPattinson.png', 'Im_DanielCraig.png', 'Im_RyanGosling.png', 'Im_JustinTimberlake.png', 'Im_GeorgeClooney.png', 'Im_RyanReynolds.png', 'Im_PatrickDempsey.png'],diff,1,0.4167840000000069,20,90.47619047619048,
XAFR1107,7,neg,fs,negfs_id17_im14.bmp_negfs_id17_im9.bmp,['Im_LeonardoDiCaprio.png', 'Im_DanielRadcliffe.png', 'Im_BradPitt.png', 'Im_RobertPattinson.png', 'Im_DanielCraig.png', 'Im_RyanGosling.png', 'Im_JustinTimberlake.png', 'Im_GeorgeClooney.png', 'Im_RyanReynolds.png', 'Im_PatrickDempsey.png'],same,1,0.4168025999999827,21,90.47619047619048,
XAFR1107,7,neg,30,neg30_id3_im8.bmp_neg30_id3_im6.bmp,['Im_LeonardoDiCaprio.png', 'Im_DanielRadcliffe.png', 'Im_BradPitt.png', 'Im_RobertPattinson.png', 'Im_DanielCraig.png', 'Im_RyanGosling.png', 'Im_JustinTimberlake.png', 'Im_GeorgeClooney.png', 'Im_RyanReynolds.png', 'Im_PatrickDempsey.png'],same,1,0.42519480000009935,22,90.47619047619048,
XAFR1107,7,neg,0,neg0_id5_im20.bmp_neg0_id5_im1.bmp,['Im_LeonardoDiCaprio.png', 'Im_DanielRadcliffe.png', 'Im_BradPitt.png', 'Im_RobertPattinson.png', 'Im_DanielCraig.png', 'Im_RyanGosling.png', 'Im_JustinTimberlake.png', 'Im_GeorgeClooney.png', 'Im_RyanReynolds.png', 'Im_PatrickDempsey.png'],same,1,0.4167721999999685,23,90.47619047619048,
XAFR1107,7,neg,90,neg90_id13_im10.bmp_neg90_id20_im30.bmp,['Im_LeonardoDiCaprio.png', 'Im_DanielRadcliffe.png', 'Im_BradPitt.png', 'Im_RobertPattinson.png', 'Im_DanielCraig.png', 'Im_RyanGosling.png', 'Im_JustinTimberlake.png', 'Im_GeorgeClooney.png', 'Im_RyanReynolds.png', 'Im_PatrickDempsey.png'],diff,1,0.41682719999994333,24,90.47619047619048,
XAFR1107,7,neg,0,neg0_id17_im8.bmp_neg0_id17_im9.bmp,['Im_LeonardoDiCaprio.png', 'Im_DanielRadcliffe.png', 'Im_BradPitt.png', 'Im_RobertPattinson.png', 'Im_DanielCraig.png', 'Im_RyanGosling.png', 'Im_JustinTimberlake.png', 'Im_GeorgeClooney.png', 'Im_RyanReynolds.png', 'Im_PatrickDempsey.png'],same,1,0.4166792000000896,25,90.47619047619048,
XAFR1107,8,inv,90,pos90_id5_im20.bmp_pos90_id5_im1.bmp,['Im_LeonardoDiCaprio.png', 'Im_DanielRadcliffe.png', 'Im_BradPitt.png', 'Im_RobertPattinson.png', 'Im_DanielCraig.png', 'Im_RyanGosling.png', 'Im_JustinTimberlake.png', 'Im_GeorgeClooney.png', 'Im_RyanReynolds.png', 'Im_PatrickDempsey.png'],same,1,0.41681160000007367,26,90.47619047619048,
XAFR1107,8,inv,0,pos0_id4_im20.bmp_pos0_id21_im22.bmp,['Im_LeonardoDiCaprio.png', 'Im_DanielRadcliffe.png', 'Im_BradPitt.png', 'Im_RobertPattinson.png', 'Im_DanielCraig.png', 'Im_RyanGosling.png', 'Im_JustinTimberlake.png', 'Im_GeorgeClooney.png', 'Im_RyanReynolds.png', 'Im_PatrickDempsey.png'],diff,1,0.45021459999998115,27,90.47619047619048,
XAFR1107,8,inv,fs,posfs_id20_im12.bmp_posfs_id20_im30.bmp,['Im_LeonardoDiCaprio.png', 'Im_DanielRadcliffe.png', 'Im_BradPitt.png', 'Im_RobertPattinson.png', 'Im_DanielCraig.png', 'Im_RyanGosling.png', 'Im_JustinTimberlake.png', 'Im_GeorgeClooney.png', 'Im_RyanReynolds.png', 'Im_PatrickDempsey.png'],same,1,0.41680670000005193,28,90.47619047619048,
XAFR1107,8,inv,150,pos150_id19_im27.bmp_pos150_id13_im15.bmp,['Im_LeonardoDiCaprio.png', 'Im_DanielRadcliffe.png', 'Im_BradPitt.png', 'Im_RobertPattinson.png', 'Im_DanielCraig.png', 'Im_RyanGosling.png', 'Im_JustinTimberlake.png', 'Im_GeorgeClooney.png', 'Im_RyanReynolds.png', 'Im_PatrickDempsey.png'],same,0,0.4167184000000361,28,90.47619047619048,
XAFR1107,8,inv,30,pos30_id21_im16.bmp_pos30_id21_im22.bmp,['Im_LeonardoDiCaprio.png', 'Im_DanielRadcliffe.png', 'Im_BradPitt.png', 'Im_RobertPattinson.png', 'Im_DanielCraig.png', 'Im_RyanGosling.png', 'Im_JustinTimberlake.png', 'Im_GeorgeClooney.png', 'Im_RyanReynolds.png', 'Im_PatrickDempsey.png'],same,1,0.4166573999998491,29,90.47619047619048,
XAFR1107,8,inv,120,pos120_id4_im20.bmp_pos120_id21_im22.bmp,['Im_LeonardoDiCaprio.png', 'Im_DanielRadcliffe.png', 'Im_BradPitt.png', 'Im_RobertPattinson.png', 'Im_DanielCraig.png', 'Im_RyanGosling.png', 'Im_JustinTimberlake.png', 'Im_GeorgeClooney.png', 'Im_RyanReynolds.png', 'Im_PatrickDempsey.png'],same,0,0.416518300000007,29,90.47619047619048,
XAFR1107,8,inv,fs,posfs_id20_im3.bmp_posfs_id20_im12.bmp,['Im_LeonardoDiCaprio.png', 'Im_DanielRadcliffe.png', 'Im_BradPitt.png', 'Im_RobertPattinson.png', 'Im_DanielCraig.png', 'Im_RyanGosling.png', 'Im_JustinTimberlake.png', 'Im_GeorgeClooney.png', 'Im_RyanReynolds.png', 'Im_PatrickDempsey.png'],same,1,0.4085852000000614,30,90.47619047619048,
XAFR1107,8,inv,90,pos90_id13_im15.bmp_pos90_id13_im29.bmp,['Im_LeonardoDiCaprio.png', 'Im_DanielRadcliffe.png', 'Im_BradPitt.png', 'Im_RobertPattinson.png', 'Im_DanielCraig.png', 'Im_RyanGosling.png', 'Im_JustinTimberlake.png', 'Im_GeorgeClooney.png', 'Im_RyanReynolds.png', 'Im_PatrickDempsey.png'],same,1,0.41663389999985156,31,90.47619047619048,
XAFR1107,8,inv,30,pos30_id10_im18.bmp_pos30_id10_im17.bmp,['Im_LeonardoDiCaprio.png', 'Im_DanielRadcliffe.png', 'Im_BradPitt.png', 'Im_RobertPattinson.png', 'Im_DanielCraig.png', 'Im_RyanGosling.png', 'Im_JustinTimberlake.png', 'Im_GeorgeClooney.png', 'Im_RyanReynolds.png', 'Im_PatrickDempsey.png'],same,1,0.41667979999988347,32,90.47619047619048,
XAFR1107,8,inv,120,pos120_id3_im17.bmp_pos120_id10_im1.bmp,['Im_LeonardoDiCaprio.png', 'Im_DanielRadcliffe.png', 'Im_BradPitt.png', 'Im_RobertPattinson.png', 'Im_DanielCraig.png', 'Im_RyanGosling.png', 'Im_JustinTimberlake.png', 'Im_GeorgeClooney.png', 'Im_RyanReynolds.png', 'Im_PatrickDempsey.png'],diff,1,0.42493300000001,33,90.47619047619048,
XAFR1107,8,inv,0,pos0_id10_im17.bmp_pos0_id10_im18.bmp,['Im_LeonardoDiCaprio.png', 'Im_DanielRadcliffe.png', 'Im_BradPitt.png', 'Im_RobertPattinson.png', 'Im_DanielCraig.png', 'Im_RyanGosling.png', 'Im_JustinTimberlake.png', 'Im_GeorgeClooney.png', 'Im_RyanReynolds.png', 'Im_PatrickDempsey.png'],same,1,0.4168108999999731,34,90.47619047619048,
XAFR1107,8,inv,60,pos60_id4_im20.bmp_pos60_id21_im22.bmp,['Im_LeonardoDiCaprio.png', 'Im_DanielRadcliffe.png', 'Im_BradPitt.png', 'Im_RobertPattinson.png', 'Im_DanielCraig.png', 'Im_RyanGosling.png', 'Im_JustinTimberlake.png', 'Im_GeorgeClooney.png', 'Im_RyanReynolds.png', 'Im_PatrickDempsey.png'],diff,1,0.41673040000000583,35,90.47619047619048,
XAFR1107,8,inv,150,pos150_id10_im17.bmp_pos150_id3_im6.bmp,['Im_LeonardoDiCaprio.png', 'Im_DanielRadcliffe.png', 'Im_BradPitt.png', 'Im_RobertPattinson.png', 'Im_DanielCraig.png', 'Im_RyanGosling.png', 'Im_JustinTimberlake.png', 'Im_GeorgeClooney.png', 'Im_RyanReynolds.png', 'Im_PatrickDempsey.png'],diff,1,0.47536760000002687,36,90.47619047619048,
XAFR1107,8,inv,60,pos60_id13_im10.bmp_pos60_id13_im29.bmp,['Im_LeonardoDiCaprio.png', 'Im_DanielRadcliffe.png', 'Im_BradPitt.png', 'Im_RobertPattinson.png', 'Im_DanielCraig.png', 'Im_RyanGosling.png', 'Im_JustinTimberlake.png', 'Im_GeorgeClooney.png', 'Im_RyanReynolds.png', 'Im_PatrickDempsey.png'],same,1,0.42510890000016843,37,90.47619047619048,
XAFR1107,9,pos,120,pos120_id10_im18.bmp_pos120_id10_im1.bmp,['Im_LeonardoDiCaprio.png', 'Im_DanielRadcliffe.png', 'Im_BradPitt.png', 'Im_RobertPattinson.png', 'Im_DanielCraig.png', 'Im_RyanGosling.png', 'Im_JustinTimberlake.png', 'Im_GeorgeClooney.png', 'Im_RyanReynolds.png', 'Im_PatrickDempsey.png'],same,1,0.41668460000005325,1,88.0952380952381,
XAFR1107,9,pos,60,pos60_id10_im18.bmp_pos60_id10_im1.bmp,['Im_LeonardoDiCaprio.png', 'Im_DanielRadcliffe.png', 'Im_BradPitt.png', 'Im_RobertPattinson.png', 'Im_DanielCraig.png', 'Im_RyanGosling.png', 'Im_JustinTimberlake.png', 'Im_GeorgeClooney.png', 'Im_RyanReynolds.png', 'Im_PatrickDempsey.png'],same,1,0.4249296000000413,2,88.0952380952381,
XAFR1107,9,pos,90,pos90_id10_im17.bmp_pos90_id10_im1.bmp,['Im_LeonardoDiCaprio.png', 'Im_DanielRadcliffe.png', 'Im_BradPitt.png', 'Im_RobertPattinson.png', 'Im_DanielCraig.png', 'Im_RyanGosling.png', 'Im_JustinTimberlake.png', 'Im_GeorgeClooney.png', 'Im_RyanReynolds.png', 'Im_PatrickDempsey.png'],same,1,0.41680429999996704,3,88.0952380952381,
XAFR1107,9,pos,120,pos120_id7_im26.bmp_pos120_id20_im3.bmp,['Im_LeonardoDiCaprio.png', 'Im_DanielRadcliffe.png', 'Im_BradPitt.png', 'Im_RobertPattinson.png', 'Im_DanielCraig.png', 'Im_RyanGosling.png', 'Im_JustinTimberlake.png', 'Im_GeorgeClooney.png', 'Im_RyanReynolds.png', 'Im_PatrickDempsey.png'],diff,1,0.4167331999999533,4,88.0952380952381,
XAFR1107,9,pos,90,pos90_id4_im15.bmp_pos90_id5_im1.bmp,['Im_LeonardoDiCaprio.png', 'Im_DanielRadcliffe.png', 'Im_BradPitt.png', 'Im_RobertPattinson.png', 'Im_DanielCraig.png', 'Im_RyanGosling.png', 'Im_JustinTimberlake.png', 'Im_GeorgeClooney.png', 'Im_RyanReynolds.png', 'Im_PatrickDempsey.png'],diff,1,0.42494399999986854,5,88.0952380952381,
XAFR1107,9,pos,0,pos0_id21_im22.bmp_pos0_id10_im18.bmp,['Im_LeonardoDiCaprio.png', 'Im_DanielRadcliffe.png', 'Im_BradPitt.png', 'Im_RobertPattinson.png', 'Im_DanielCraig.png', 'Im_RyanGosling.png', 'Im_JustinTimberlake.png', 'Im_GeorgeClooney.png', 'Im_RyanReynolds.png', 'Im_PatrickDempsey.png'],diff,1,0.40823649999992995,6,88.0952380952381,
XAFR1107,9,pos,150,pos150_id17_im8.bmp_pos150_id17_im9.bmp,['Im_LeonardoDiCaprio.png', 'Im_DanielRadcliffe.png', 'Im_BradPitt.png', 'Im_RobertPattinson.png', 'Im_DanielCraig.png', 'Im_RyanGosling.png', 'Im_JustinTimberlake.png', 'Im_GeorgeClooney.png', 'Im_RyanReynolds.png', 'Im_PatrickDempsey.png'],same,1,0.4168912000000091,7,88.0952380952381,
XAFR1107,9,pos,0,pos0_id10_im1.bmp_pos0_id3_im17.bmp,['Im_LeonardoDiCaprio.png', 'Im_DanielRadcliffe.png', 'Im_BradPitt.png', 'Im_RobertPattinson.png', 'Im_DanielCraig.png', 'Im_RyanGosling.png', 'Im_JustinTimberlake.png', 'Im_GeorgeClooney.png', 'Im_RyanReynolds.png', 'Im_PatrickDempsey.png'],diff,1,0.43345909999993637,8,88.0952380952381,
XAFR1107,9,pos,60,pos60_id3_im8.bmp_pos60_id3_im6.bmp,['Im_LeonardoDiCaprio.png', 'Im_DanielRadcliffe.png', 'Im_BradPitt.png', 'Im_RobertPattinson.png', 'Im_DanielCraig.png', 'Im_RyanGosling.png', 'Im_JustinTimberlake.png', 'Im_GeorgeClooney.png', 'Im_RyanReynolds.png', 'Im_PatrickDempsey.png'],same,1,0.41689880000012636,9,88.0952380952381,
XAFR1107,9,pos,fs,posfs_id4_im15.bmp_posfs_id5_im1.bmp,['Im_LeonardoDiCaprio.png', 'Im_DanielRadcliffe.png', 'Im_BradPitt.png', 'Im_RobertPattinson.png', 'Im_DanielCraig.png', 'Im_RyanGosling.png', 'Im_JustinTimberlake.png', 'Im_GeorgeClooney.png', 'Im_RyanReynolds.png', 'Im_PatrickDempsey.png'],diff,1,0.4083242000001519,10,88.0952380952381,
XAFR1107,9,pos,30,pos30_id17_im8.bmp_pos30_id13_im10.bmp,['Im_LeonardoDiCaprio.png', 'Im_DanielRadcliffe.png', 'Im_BradPitt.png', 'Im_RobertPattinson.png', 'Im_DanielCraig.png', 'Im_RyanGosling.png', 'Im_JustinTimberlake.png', 'Im_GeorgeClooney.png', 'Im_RyanReynolds.png', 'Im_PatrickDempsey.png'],diff,1,0.741704000000027,11,88.0952380952381,
XAFR1107,9,pos,fs,posfs_id7_im14.bmp_posfs_id7_im26.bmp,['Im_LeonardoDiCaprio.png', 'Im_DanielRadcliffe.png', 'Im_BradPitt.png', 'Im_RobertPattinson.png', 'Im_DanielCraig.png', 'Im_RyanGosling.png', 'Im_JustinTimberlake.png', 'Im_GeorgeClooney.png', 'Im_RyanReynolds.png', 'Im_PatrickDempsey.png'],diff,0,0.783452699999998,11,88.0952380952381,
XAFR1107,9,pos,150,pos150_id21_im16.bmp_pos150_id17_im14.bmp,['Im_LeonardoDiCaprio.png', 'Im_DanielRadcliffe.png', 'Im_BradPitt.png', 'Im_RobertPattinson.png', 'Im_DanielCraig.png', 'Im_RyanGosling.png', 'Im_JustinTimberlake.png', 'Im_GeorgeClooney.png', 'Im_RyanReynolds.png', 'Im_PatrickDempsey.png'],diff,1,0.6003499999999349,12,88.0952380952381,
XAFR1107,9,pos,30,pos30_id17_im14.bmp_pos30_id17_im8.bmp,['Im_LeonardoDiCaprio.png', 'Im_DanielRadcliffe.png', 'Im_BradPitt.png', 'Im_RobertPattinson.png', 'Im_DanielCraig.png', 'Im_RyanGosling.png', 'Im_JustinTimberlake.png', 'Im_GeorgeClooney.png', 'Im_RyanReynolds.png', 'Im_PatrickDempsey.png'],same,1,0.4250228999999308,13,88.0952380952381,
XAFR1107,10,neg,60,neg60_id4_im15.bmp_neg60_id20_im12.bmp,['Im_LeonardoDiCaprio.png', 'Im_DanielRadcliffe.png', 'Im_BradPitt.png', 'Im_RobertPattinson.png', 'Im_DanielCraig.png', 'Im_RyanGosling.png', 'Im_JustinTimberlake.png', 'Im_GeorgeClooney.png', 'Im_RyanReynolds.png', 'Im_PatrickDempsey.png'],diff,1,0.4252268999998705,14,88.0952380952381,
XAFR1107,10,neg,30,neg30_id5_im1.bmp_neg30_id10_im1.bmp,['Im_LeonardoDiCaprio.png', 'Im_DanielRadcliffe.png', 'Im_BradPitt.png', 'Im_RobertPattinson.png', 'Im_DanielCraig.png', 'Im_RyanGosling.png', 'Im_JustinTimberlake.png', 'Im_GeorgeClooney.png', 'Im_RyanReynolds.png', 'Im_PatrickDempsey.png'],diff,1,0.42532729999993535,15,88.0952380952381,
XAFR1107,10,neg,30,neg30_id7_im26.bmp_neg30_id3_im8.bmp,['Im_LeonardoDiCaprio.png', 'Im_DanielRadcliffe.png', 'Im_BradPitt.png', 'Im_RobertPattinson.png', 'Im_DanielCraig.png', 'Im_RyanGosling.png', 'Im_JustinTimberlake.png', 'Im_GeorgeClooney.png', 'Im_RyanReynolds.png', 'Im_PatrickDempsey.png'],diff,1,0.43339789999981804,16,88.0952380952381,
XAFR1107,10,neg,120,neg120_id21_im17.bmp_neg120_id5_im10.bmp,['Im_LeonardoDiCaprio.png', 'Im_DanielRadcliffe.png', 'Im_BradPitt.png', 'Im_RobertPattinson.png', 'Im_DanielCraig.png', 'Im_RyanGosling.png', 'Im_JustinTimberlake.png', 'Im_GeorgeClooney.png', 'Im_RyanReynolds.png', 'Im_PatrickDempsey.png'],diff,1,0.41671249999990323,17,88.0952380952381,
XAFR1107,10,neg,0,neg0_id17_im9.bmp_neg0_id20_im30.bmp,['Im_LeonardoDiCaprio.png', 'Im_DanielRadcliffe.png', 'Im_BradPitt.png', 'Im_RobertPattinson.png', 'Im_DanielCraig.png', 'Im_RyanGosling.png', 'Im_JustinTimberlake.png', 'Im_GeorgeClooney.png', 'Im_RyanReynolds.png', 'Im_PatrickDempsey.png'],diff,1,0.4250581000001148,18,88.0952380952381,
XAFR1107,10,neg,0,neg0_id10_im18.bmp_neg0_id13_im29.bmp,['Im_LeonardoDiCaprio.png', 'Im_DanielRadcliffe.png', 'Im_BradPitt.png', 'Im_RobertPattinson.png', 'Im_DanielCraig.png', 'Im_RyanGosling.png', 'Im_JustinTimberlake.png', 'Im_GeorgeClooney.png', 'Im_RyanReynolds.png', 'Im_PatrickDempsey.png'],diff,1,0.4251094999999623,19,88.0952380952381,
XAFR1107,10,neg,fs,negfs_id10_im17.bmp_negfs_id19_im4.bmp,['Im_LeonardoDiCaprio.png', 'Im_DanielRadcliffe.png', 'Im_BradPitt.png', 'Im_RobertPattinson.png', 'Im_DanielCraig.png', 'Im_RyanGosling.png', 'Im_JustinTimberlake.png', 'Im_GeorgeClooney.png', 'Im_RyanReynolds.png', 'Im_PatrickDempsey.png'],diff,1,0.450005899999951,20,88.0952380952381,
XAFR1107,10,neg,150,neg150_id4_im15.bmp_neg150_id5_im1.bmp,['Im_LeonardoDiCaprio.png', 'Im_DanielRadcliffe.png', 'Im_BradPitt.png', 'Im_RobertPattinson.png', 'Im_DanielCraig.png', 'Im_RyanGosling.png', 'Im_JustinTimberlake.png', 'Im_GeorgeClooney.png', 'Im_RyanReynolds.png', 'Im_PatrickDempsey.png'],diff,1,0.4167635999999675,21,88.0952380952381,
XAFR1107,10,neg,90,neg90_id5_im1.bmp_neg90_id5_im10.bmp,['Im_LeonardoDiCaprio.png', 'Im_DanielRadcliffe.png', 'Im_BradPitt.png', 'Im_RobertPattinson.png', 'Im_DanielCraig.png', 'Im_RyanGosling.png', 'Im_JustinTimberlake.png', 'Im_GeorgeClooney.png', 'Im_RyanReynolds.png', 'Im_PatrickDempsey.png'],same,1,0.41673869999999624,22,88.0952380952381,
XAFR1107,10,neg,fs,negfs_id5_im10.bmp_negfs_id21_im17.bmp,['Im_LeonardoDiCaprio.png', 'Im_DanielRadcliffe.png', 'Im_BradPitt.png', 'Im_RobertPattinson.png', 'Im_DanielCraig.png', 'Im_RyanGosling.png', 'Im_JustinTimberlake.png', 'Im_GeorgeClooney.png', 'Im_RyanReynolds.png', 'Im_PatrickDempsey.png'],diff,1,0.433489100000088,23,88.0952380952381,
XAFR1107,10,neg,120,neg120_id17_im9.bmp_neg120_id7_im14.bmp,['Im_LeonardoDiCaprio.png', 'Im_DanielRadcliffe.png', 'Im_BradPitt.png', 'Im_RobertPattinson.png', 'Im_DanielCraig.png', 'Im_RyanGosling.png', 'Im_JustinTimberlake.png', 'Im_GeorgeClooney.png', 'Im_RyanReynolds.png', 'Im_PatrickDempsey.png'],diff,1,0.41655280000009043,24,88.0952380952381,
XAFR1107,10,neg,90,neg90_id7_im15.bmp_neg90_id21_im16.bmp,['Im_LeonardoDiCaprio.png', 'Im_DanielRadcliffe.png', 'Im_BradPitt.png', 'Im_RobertPattinson.png', 'Im_DanielCraig.png', 'Im_RyanGosling.png', 'Im_JustinTimberlake.png', 'Im_GeorgeClooney.png', 'Im_RyanReynolds.png', 'Im_PatrickDempsey.png'],diff,1,0.4169627000001128,25,88.0952380952381,
XAFR1107,10,neg,60,neg60_id3_im6.bmp_neg60_id3_im17.bmp,['Im_LeonardoDiCaprio.png', 'Im_DanielRadcliffe.png', 'Im_BradPitt.png', 'Im_RobertPattinson.png', 'Im_DanielCraig.png', 'Im_RyanGosling.png', 'Im_JustinTimberlake.png', 'Im_GeorgeClooney.png', 'Im_RyanReynolds.png', 'Im_PatrickDempsey.png'],same,1,0.4168112000002111,26,88.0952380952381,
XAFR1107,10,neg,150,neg150_id19_im8.bmp_neg150_id19_im4.bmp,['Im_LeonardoDiCaprio.png', 'Im_DanielRadcliffe.png', 'Im_BradPitt.png', 'Im_RobertPattinson.png', 'Im_DanielCraig.png', 'Im_RyanGosling.png', 'Im_JustinTimberlake.png', 'Im_GeorgeClooney.png', 'Im_RyanReynolds.png', 'Im_PatrickDempsey.png'],same,1,0.416870900000049,27,88.0952380952381,
XAFR1107,11,inv,fs,posfs_id21_im16.bmp_posfs_id21_im22.bmp,['Im_LeonardoDiCaprio.png', 'Im_DanielRadcliffe.png', 'Im_BradPitt.png', 'Im_RobertPattinson.png', 'Im_DanielCraig.png', 'Im_RyanGosling.png', 'Im_JustinTimberlake.png', 'Im_GeorgeClooney.png', 'Im_RyanReynolds.png', 'Im_PatrickDempsey.png'],same,1,0.5332400999998299,28,88.0952380952381,
XAFR1107,11,inv,150,pos150_id7_im14.bmp_pos150_id4_im20.bmp,['Im_LeonardoDiCaprio.png', 'Im_DanielRadcliffe.png', 'Im_BradPitt.png', 'Im_RobertPattinson.png', 'Im_DanielCraig.png', 'Im_RyanGosling.png', 'Im_JustinTimberlake.png', 'Im_GeorgeClooney.png', 'Im_RyanReynolds.png', 'Im_PatrickDempsey.png'],diff,1,0.4249889999998686,29,88.0952380952381,
XAFR1107,11,inv,120,pos120_id10_im17.bmp_pos120_id10_im1.bmp,['Im_LeonardoDiCaprio.png', 'Im_DanielRadcliffe.png', 'Im_BradPitt.png', 'Im_RobertPattinson.png', 'Im_DanielCraig.png', 'Im_RyanGosling.png', 'Im_JustinTimberlake.png', 'Im_GeorgeClooney.png', 'Im_RyanReynolds.png', 'Im_PatrickDempsey.png'],same,1,0.4334370999999919,30,88.0952380952381,
XAFR1107,11,inv,120,pos120_id19_im27.bmp_pos120_id3_im8.bmp,['Im_LeonardoDiCaprio.png', 'Im_DanielRadcliffe.png', 'Im_BradPitt.png', 'Im_RobertPattinson.png', 'Im_DanielCraig.png', 'Im_RyanGosling.png', 'Im_JustinTimberlake.png', 'Im_GeorgeClooney.png', 'Im_RyanReynolds.png', 'Im_PatrickDempsey.png'],diff,1,0.4249750999999833,31,88.0952380952381,
XAFR1107,11,inv,60,pos60_id10_im1.bmp_pos60_id5_im1.bmp,['Im_LeonardoDiCaprio.png', 'Im_DanielRadcliffe.png', 'Im_BradPitt.png', 'Im_RobertPattinson.png', 'Im_DanielCraig.png', 'Im_RyanGosling.png', 'Im_JustinTimberlake.png', 'Im_GeorgeClooney.png', 'Im_RyanReynolds.png', 'Im_PatrickDempsey.png'],diff,1,0.4417928000000302,32,88.0952380952381,
XAFR1107,11,inv,30,pos30_id4_im7.bmp_pos30_id19_im4.bmp,['Im_LeonardoDiCaprio.png', 'Im_DanielRadcliffe.png', 'Im_BradPitt.png', 'Im_RobertPattinson.png', 'Im_DanielCraig.png', 'Im_RyanGosling.png', 'Im_JustinTimberlake.png', 'Im_GeorgeClooney.png', 'Im_RyanReynolds.png', 'Im_PatrickDempsey.png'],diff,1,0.4250403000000915,33,88.0952380952381,
XAFR1107,11,inv,150,pos150_id20_im30.bmp_pos150_id20_im3.bmp,['Im_LeonardoDiCaprio.png', 'Im_DanielRadcliffe.png', 'Im_BradPitt.png', 'Im_RobertPattinson.png', 'Im_DanielCraig.png', 'Im_RyanGosling.png', 'Im_JustinTimberlake.png', 'Im_GeorgeClooney.png', 'Im_RyanReynolds.png', 'Im_PatrickDempsey.png'],same,1,0.408625499999971,34,88.0952380952381,
XAFR1107,11,inv,fs,posfs_id7_im14.bmp_posfs_id4_im20.bmp,['Im_LeonardoDiCaprio.png', 'Im_DanielRadcliffe.png', 'Im_BradPitt.png', 'Im_RobertPattinson.png', 'Im_DanielCraig.png', 'Im_RyanGosling.png', 'Im_JustinTimberlake.png', 'Im_GeorgeClooney.png', 'Im_RyanReynolds.png', 'Im_PatrickDempsey.png'],same,0,0.4504047000000355,34,88.0952380952381,
XAFR1107,11,inv,60,pos60_id13_im15.bmp_pos60_id13_im10.bmp,['Im_LeonardoDiCaprio.png', 'Im_DanielRadcliffe.png', 'Im_BradPitt.png', 'Im_RobertPattinson.png', 'Im_DanielCraig.png', 'Im_RyanGosling.png', 'Im_JustinTimberlake.png', 'Im_GeorgeClooney.png', 'Im_RyanReynolds.png', 'Im_PatrickDempsey.png'],same,1,0.42515529999991486,35,88.0952380952381,
XAFR1107,11,inv,0,pos0_id19_im8.bmp_pos0_id19_im4.bmp,['Im_LeonardoDiCaprio.png', 'Im_DanielRadcliffe.png', 'Im_BradPitt.png', 'Im_RobertPattinson.png', 'Im_DanielCraig.png', 'Im_RyanGosling.png', 'Im_JustinTimberlake.png', 'Im_GeorgeClooney.png', 'Im_RyanReynolds.png', 'Im_PatrickDempsey.png'],diff,0,0.4251259999998638,35,88.0952380952381,
XAFR1107,11,inv,0,pos0_id19_im27.bmp_pos0_id19_im4.bmp,['Im_LeonardoDiCaprio.png', 'Im_DanielRadcliffe.png', 'Im_BradPitt.png', 'Im_RobertPattinson.png', 'Im_DanielCraig.png', 'Im_RyanGosling.png', 'Im_JustinTimberlake.png', 'Im_GeorgeClooney.png', 'Im_RyanReynolds.png', 'Im_PatrickDempsey.png'],same,1,0.4167803999998796,36,88.0952380952381,
XAFR1107,11,inv,90,pos90_id21_im17.bmp_pos90_id5_im20.bmp,['Im_LeonardoDiCaprio.png', 'Im_DanielRadcliffe.png', 'Im_BradPitt.png', 'Im_RobertPattinson.png', 'Im_DanielCraig.png', 'Im_RyanGosling.png', 'Im_JustinTimberlake.png', 'Im_GeorgeClooney.png', 'Im_RyanReynolds.png', 'Im_PatrickDempsey.png'],diff,1,0.4167970000000878,37,88.0952380952381,
XAFR1107,11,inv,30,pos30_id20_im3.bmp_pos30_id20_im30.bmp,['Im_LeonardoDiCaprio.png', 'Im_DanielRadcliffe.png', 'Im_BradPitt.png', 'Im_RobertPattinson.png', 'Im_DanielCraig.png', 'Im_RyanGosling.png', 'Im_JustinTimberlake.png', 'Im_GeorgeClooney.png', 'Im_RyanReynolds.png', 'Im_PatrickDempsey.png'],same,1,0.41665850000003957,38,88.0952380952381,
XAFR1107,11,inv,90,pos90_id20_im30.bmp_pos90_id20_im12.bmp,['Im_LeonardoDiCaprio.png', 'Im_DanielRadcliffe.png', 'Im_BradPitt.png', 'Im_RobertPattinson.png', 'Im_DanielCraig.png', 'Im_RyanGosling.png', 'Im_JustinTimberlake.png', 'Im_GeorgeClooney.png', 'Im_RyanReynolds.png', 'Im_PatrickDempsey.png'],same,1,0.5501891999999771,39,88.0952380952381,
XAFR1107,12,neg,120,neg120_id20_im12.bmp_neg120_id20_im3.bmp,['Im_LeonardoDiCaprio.png', 'Im_DanielRadcliffe.png', 'Im_BradPitt.png', 'Im_RobertPattinson.png', 'Im_DanielCraig.png', 'Im_RyanGosling.png', 'Im_JustinTimberlake.png', 'Im_GeorgeClooney.png', 'Im_RyanReynolds.png', 'Im_PatrickDempsey.png'],same,1,0.40835309999988567,1,92.85714285714286,
XAFR1107,12,neg,150,neg150_id13_im15.bmp_neg150_id13_im10.bmp,['Im_LeonardoDiCaprio.png', 'Im_DanielRadcliffe.png', 'Im_BradPitt.png', 'Im_RobertPattinson.png', 'Im_DanielCraig.png', 'Im_RyanGosling.png', 'Im_JustinTimberlake.png', 'Im_GeorgeClooney.png', 'Im_RyanReynolds.png', 'Im_PatrickDempsey.png'],same,1,0.4250835999998799,2,92.85714285714286,
XAFR1107,12,neg,60,neg60_id17_im8.bmp_neg60_id17_im14.bmp,['Im_LeonardoDiCaprio.png', 'Im_DanielRadcliffe.png', 'Im_BradPitt.png', 'Im_RobertPattinson.png', 'Im_DanielCraig.png', 'Im_RyanGosling.png', 'Im_JustinTimberlake.png', 'Im_GeorgeClooney.png', 'Im_RyanReynolds.png', 'Im_PatrickDempsey.png'],same,1,0.4250807999999324,3,92.85714285714286,
XAFR1107,12,neg,0,neg0_id21_im16.bmp_neg0_id17_im14.bmp,['Im_LeonardoDiCaprio.png', 'Im_DanielRadcliffe.png', 'Im_BradPitt.png', 'Im_RobertPattinson.png', 'Im_DanielCraig.png', 'Im_RyanGosling.png', 'Im_JustinTimberlake.png', 'Im_GeorgeClooney.png', 'Im_RyanReynolds.png', 'Im_PatrickDempsey.png'],diff,1,0.4670991000000413,4,92.85714285714286,
XAFR1107,12,neg,90,neg90_id20_im30.bmp_neg90_id20_im3.bmp,['Im_LeonardoDiCaprio.png', 'Im_DanielRadcliffe.png', 'Im_BradPitt.png', 'Im_RobertPattinson.png', 'Im_DanielCraig.png', 'Im_RyanGosling.png', 'Im_JustinTimberlake.png', 'Im_GeorgeClooney.png', 'Im_RyanReynolds.png', 'Im_PatrickDempsey.png'],same,1,0.42502540000009503,5,92.85714285714286,
XAFR1107,12,neg,60,neg60_id20_im12.bmp_neg60_id20_im30.bmp,['Im_LeonardoDiCaprio.png', 'Im_DanielRadcliffe.png', 'Im_BradPitt.png', 'Im_RobertPattinson.png', 'Im_DanielCraig.png', 'Im_RyanGosling.png', 'Im_JustinTimberlake.png', 'Im_GeorgeClooney.png', 'Im_RyanReynolds.png', 'Im_PatrickDempsey.png'],same,1,0.42517960000009225,6,92.85714285714286,
XAFR1107,12,neg,0,neg0_id10_im17.bmp_neg0_id10_im1.bmp,['Im_LeonardoDiCaprio.png', 'Im_DanielRadcliffe.png', 'Im_BradPitt.png', 'Im_RobertPattinson.png', 'Im_DanielCraig.png', 'Im_RyanGosling.png', 'Im_JustinTimberlake.png', 'Im_GeorgeClooney.png', 'Im_RyanReynolds.png', 'Im_PatrickDempsey.png'],same,1,0.5334054999998443,7,92.85714285714286,
XAFR1107,12,neg,150,neg150_id20_im30.bmp_neg150_id17_im9.bmp,['Im_LeonardoDiCaprio.png', 'Im_DanielRadcliffe.png', 'Im_BradPitt.png', 'Im_RobertPattinson.png', 'Im_DanielCraig.png', 'Im_RyanGosling.png', 'Im_JustinTimberlake.png', 'Im_GeorgeClooney.png', 'Im_RyanReynolds.png', 'Im_PatrickDempsey.png'],diff,1,0.4169099000000642,8,92.85714285714286,
XAFR1107,12,neg,30,neg30_id10_im18.bmp_neg30_id13_im29.bmp,['Im_LeonardoDiCaprio.png', 'Im_DanielRadcliffe.png', 'Im_BradPitt.png', 'Im_RobertPattinson.png', 'Im_DanielCraig.png', 'Im_RyanGosling.png', 'Im_JustinTimberlake.png', 'Im_GeorgeClooney.png', 'Im_RyanReynolds.png', 'Im_PatrickDempsey.png'],diff,1,0.41674509999984366,9,92.85714285714286,
XAFR1107,12,neg,30,neg30_id17_im8.bmp_neg30_id17_im14.bmp,['Im_LeonardoDiCaprio.png', 'Im_DanielRadcliffe.png', 'Im_BradPitt.png', 'Im_RobertPattinson.png', 'Im_DanielCraig.png', 'Im_RyanGosling.png', 'Im_JustinTimberlake.png', 'Im_GeorgeClooney.png', 'Im_RyanReynolds.png', 'Im_PatrickDempsey.png'],same,1,0.42509590000008757,10,92.85714285714286,
XAFR1107,12,neg,120,neg120_id13_im29.bmp_neg120_id13_im15.bmp,['Im_LeonardoDiCaprio.png', 'Im_DanielRadcliffe.png', 'Im_BradPitt.png', 'Im_RobertPattinson.png', 'Im_DanielCraig.png', 'Im_RyanGosling.png', 'Im_JustinTimberlake.png', 'Im_GeorgeClooney.png', 'Im_RyanReynolds.png', 'Im_PatrickDempsey.png'],same,1,0.7748599000001377,11,92.85714285714286,
XAFR1107,12,neg,fs,negfs_id17_im14.bmp_negfs_id17_im8.bmp,['Im_LeonardoDiCaprio.png', 'Im_DanielRadcliffe.png', 'Im_BradPitt.png', 'Im_RobertPattinson.png', 'Im_DanielCraig.png', 'Im_RyanGosling.png', 'Im_JustinTimberlake.png', 'Im_GeorgeClooney.png', 'Im_RyanReynolds.png', 'Im_PatrickDempsey.png'],same,1,0.4251158000001851,12,92.85714285714286,
XAFR1107,12,neg,fs,negfs_id20_im30.bmp_negfs_id20_im12.bmp,['Im_LeonardoDiCaprio.png', 'Im_DanielRadcliffe.png', 'Im_BradPitt.png', 'Im_RobertPattinson.png', 'Im_DanielCraig.png', 'Im_RyanGosling.png', 'Im_JustinTimberlake.png', 'Im_GeorgeClooney.png', 'Im_RyanReynolds.png', 'Im_PatrickDempsey.png'],same,1,0.42509769999992386,13,92.85714285714286,
XAFR1107,12,neg,90,neg90_id3_im8.bmp_neg90_id3_im6.bmp,['Im_LeonardoDiCaprio.png', 'Im_DanielRadcliffe.png', 'Im_BradPitt.png', 'Im_RobertPattinson.png', 'Im_DanielCraig.png', 'Im_RyanGosling.png', 'Im_JustinTimberlake.png', 'Im_GeorgeClooney.png', 'Im_RyanReynolds.png', 'Im_PatrickDempsey.png'],same,1,0.4165419999999358,14,92.85714285714286,
XAFR1107,13,inv,90,pos90_id7_im14.bmp_pos90_id17_im9.bmp,['Im_LeonardoDiCaprio.png', 'Im_DanielRadcliffe.png', 'Im_BradPitt.png', 'Im_RobertPattinson.png', 'Im_DanielCraig.png', 'Im_RyanGosling.png', 'Im_JustinTimberlake.png', 'Im_GeorgeClooney.png', 'Im_RyanReynolds.png', 'Im_PatrickDempsey.png'],diff,1,0.4249863000000005,15,92.85714285714286,
XAFR1107,13,inv,60,pos60_id13_im15.bmp_pos60_id13_im29.bmp,['Im_LeonardoDiCaprio.png', 'Im_DanielRadcliffe.png', 'Im_BradPitt.png', 'Im_RobertPattinson.png', 'Im_DanielCraig.png', 'Im_RyanGosling.png', 'Im_JustinTimberlake.png', 'Im_GeorgeClooney.png', 'Im_RyanReynolds.png', 'Im_PatrickDempsey.png'],same,1,0.41665119999993294,16,92.85714285714286,
XAFR1107,13,inv,30,pos30_id3_im17.bmp_pos30_id10_im1.bmp,['Im_LeonardoDiCaprio.png', 'Im_DanielRadcliffe.png', 'Im_BradPitt.png', 'Im_RobertPattinson.png', 'Im_DanielCraig.png', 'Im_RyanGosling.png', 'Im_JustinTimberlake.png', 'Im_GeorgeClooney.png', 'Im_RyanReynolds.png', 'Im_PatrickDempsey.png'],diff,1,0.4167155999998613,17,92.85714285714286,
XAFR1107,13,inv,150,pos150_id4_im20.bmp_pos150_id4_im15.bmp,['Im_LeonardoDiCaprio.png', 'Im_DanielRadcliffe.png', 'Im_BradPitt.png', 'Im_RobertPattinson.png', 'Im_DanielCraig.png', 'Im_RyanGosling.png', 'Im_JustinTimberlake.png', 'Im_GeorgeClooney.png', 'Im_RyanReynolds.png', 'Im_PatrickDempsey.png'],same,1,0.43338859999994384,18,92.85714285714286,
XAFR1107,13,inv,fs,posfs_id4_im7.bmp_posfs_id4_im15.bmp,['Im_LeonardoDiCaprio.png', 'Im_DanielRadcliffe.png', 'Im_BradPitt.png', 'Im_RobertPattinson.png', 'Im_DanielCraig.png', 'Im_RyanGosling.png', 'Im_JustinTimberlake.png', 'Im_GeorgeClooney.png', 'Im_RyanReynolds.png', 'Im_PatrickDempsey.png'],none,1,4.416873099999975,18,92.85714285714286,
XAFR1107,13,inv,0,pos0_id10_im1.bmp_pos0_id10_im18.bmp,['Im_LeonardoDiCaprio.png', 'Im_DanielRadcliffe.png', 'Im_BradPitt.png', 'Im_RobertPattinson.png', 'Im_DanielCraig.png', 'Im_RyanGosling.png', 'Im_JustinTimberlake.png', 'Im_GeorgeClooney.png', 'Im_RyanReynolds.png', 'Im_PatrickDempsey.png'],same,1,0.4167273999998997,19,92.85714285714286,
XAFR1107,13,inv,0,pos0_id17_im14.bmp_pos0_id17_im9.bmp,['Im_LeonardoDiCaprio.png', 'Im_DanielRadcliffe.png', 'Im_BradPitt.png', 'Im_RobertPattinson.png', 'Im_DanielCraig.png', 'Im_RyanGosling.png', 'Im_JustinTimberlake.png', 'Im_GeorgeClooney.png', 'Im_RyanReynolds.png', 'Im_PatrickDempsey.png'],same,1,0.42507839999984753,20,92.85714285714286,
XAFR1107,13,inv,150,pos150_id7_im26.bmp_pos150_id3_im8.bmp,['Im_LeonardoDiCaprio.png', 'Im_DanielRadcliffe.png', 'Im_BradPitt.png', 'Im_RobertPattinson.png', 'Im_DanielCraig.png', 'Im_RyanGosling.png', 'Im_JustinTimberlake.png', 'Im_GeorgeClooney.png', 'Im_RyanReynolds.png', 'Im_PatrickDempsey.png'],diff,1,0.4084663000001001,21,92.85714285714286,
XAFR1107,13,inv,30,pos30_id10_im18.bmp_pos30_id10_im1.bmp,['Im_LeonardoDiCaprio.png', 'Im_DanielRadcliffe.png', 'Im_BradPitt.png', 'Im_RobertPattinson.png', 'Im_DanielCraig.png', 'Im_RyanGosling.png', 'Im_JustinTimberlake.png', 'Im_GeorgeClooney.png', 'Im_RyanReynolds.png', 'Im_PatrickDempsey.png'],same,1,0.4168303999999807,22,92.85714285714286,
XAFR1107,13,inv,120,pos120_id21_im22.bmp_pos120_id21_im16.bmp,['Im_LeonardoDiCaprio.png', 'Im_DanielRadcliffe.png', 'Im_BradPitt.png', 'Im_RobertPattinson.png', 'Im_DanielCraig.png', 'Im_RyanGosling.png', 'Im_JustinTimberlake.png', 'Im_GeorgeClooney.png', 'Im_RyanReynolds.png', 'Im_PatrickDempsey.png'],same,1,0.4250529999999344,23,92.85714285714286,
XAFR1107,13,inv,fs,posfs_id10_im1.bmp_posfs_id5_im1.bmp,['Im_LeonardoDiCaprio.png', 'Im_DanielRadcliffe.png', 'Im_BradPitt.png', 'Im_RobertPattinson.png', 'Im_DanielCraig.png', 'Im_RyanGosling.png', 'Im_JustinTimberlake.png', 'Im_GeorgeClooney.png', 'Im_RyanReynolds.png', 'Im_PatrickDempsey.png'],diff,1,0.40830940000000737,24,92.85714285714286,
XAFR1107,13,inv,90,pos90_id7_im15.bmp_pos90_id21_im16.bmp,['Im_LeonardoDiCaprio.png', 'Im_DanielRadcliffe.png', 'Im_BradPitt.png', 'Im_RobertPattinson.png', 'Im_DanielCraig.png', 'Im_RyanGosling.png', 'Im_JustinTimberlake.png', 'Im_GeorgeClooney.png', 'Im_RyanReynolds.png', 'Im_PatrickDempsey.png'],same,0,0.41676250000000437,24,92.85714285714286,
XAFR1107,13,inv,60,pos60_id4_im15.bmp_pos60_id4_im20.bmp,['Im_LeonardoDiCaprio.png', 'Im_DanielRadcliffe.png', 'Im_BradPitt.png', 'Im_RobertPattinson.png', 'Im_DanielCraig.png', 'Im_RyanGosling.png', 'Im_JustinTimberlake.png', 'Im_GeorgeClooney.png', 'Im_RyanReynolds.png', 'Im_PatrickDempsey.png'],same,1,0.4250225999999202,25,92.85714285714286,
XAFR1107,13,inv,120,pos120_id19_im4.bmp_pos120_id19_im27.bmp,['Im_LeonardoDiCaprio.png', 'Im_DanielRadcliffe.png', 'Im_BradPitt.png', 'Im_RobertPattinson.png', 'Im_DanielCraig.png', 'Im_RyanGosling.png', 'Im_JustinTimberlake.png', 'Im_GeorgeClooney.png', 'Im_RyanReynolds.png', 'Im_PatrickDempsey.png'],same,1,0.4084904000001188,26,92.85714285714286,
XAFR1107,14,pos,90,pos90_id3_im8.bmp_pos90_id19_im27.bmp,['Im_LeonardoDiCaprio.png', 'Im_DanielRadcliffe.png', 'Im_BradPitt.png', 'Im_RobertPattinson.png', 'Im_DanielCraig.png', 'Im_RyanGosling.png', 'Im_JustinTimberlake.png', 'Im_GeorgeClooney.png', 'Im_RyanReynolds.png', 'Im_PatrickDempsey.png'],diff,1,0.42512090000013814,27,92.85714285714286,
XAFR1107,14,pos,150,pos150_id4_im7.bmp_pos150_id19_im8.bmp,['Im_LeonardoDiCaprio.png', 'Im_DanielRadcliffe.png', 'Im_BradPitt.png', 'Im_RobertPattinson.png', 'Im_DanielCraig.png', 'Im_RyanGosling.png', 'Im_JustinTimberlake.png', 'Im_GeorgeClooney.png', 'Im_RyanReynolds.png', 'Im_PatrickDempsey.png'],diff,1,0.4166568999999072,28,92.85714285714286,
XAFR1107,14,pos,60,pos60_id4_im15.bmp_pos60_id20_im12.bmp,['Im_LeonardoDiCaprio.png', 'Im_DanielRadcliffe.png', 'Im_BradPitt.png', 'Im_RobertPattinson.png', 'Im_DanielCraig.png', 'Im_RyanGosling.png', 'Im_JustinTimberlake.png', 'Im_GeorgeClooney.png', 'Im_RyanReynolds.png', 'Im_PatrickDempsey.png'],diff,1,0.41671999999994114,29,92.85714285714286,
XAFR1107,14,pos,120,pos120_id7_im15.bmp_pos120_id21_im16.bmp,['Im_LeonardoDiCaprio.png', 'Im_DanielRadcliffe.png', 'Im_BradPitt.png', 'Im_RobertPattinson.png', 'Im_DanielCraig.png', 'Im_RyanGosling.png', 'Im_JustinTimberlake.png', 'Im_GeorgeClooney.png', 'Im_RyanReynolds.png', 'Im_PatrickDempsey.png'],diff,1,0.41691530000002786,30,92.85714285714286,
XAFR1107,14,pos,150,pos150_id4_im7.bmp_pos150_id19_im4.bmp,['Im_LeonardoDiCaprio.png', 'Im_DanielRadcliffe.png', 'Im_BradPitt.png', 'Im_RobertPattinson.png', 'Im_DanielCraig.png', 'Im_RyanGosling.png', 'Im_JustinTimberlake.png', 'Im_GeorgeClooney.png', 'Im_RyanReynolds.png', 'Im_PatrickDempsey.png'],diff,1,0.4168032000000039,31,92.85714285714286,
XAFR1107,14,pos,30,pos30_id21_im22.bmp_pos30_id10_im18.bmp,['Im_LeonardoDiCaprio.png', 'Im_DanielRadcliffe.png', 'Im_BradPitt.png', 'Im_RobertPattinson.png', 'Im_DanielCraig.png', 'Im_RyanGosling.png', 'Im_JustinTimberlake.png', 'Im_GeorgeClooney.png', 'Im_RyanReynolds.png', 'Im_PatrickDempsey.png'],diff,1,0.4253306000000521,32,92.85714285714286,
XAFR1107,14,pos,30,pos30_id17_im14.bmp_pos30_id21_im16.bmp,['Im_LeonardoDiCaprio.png', 'Im_DanielRadcliffe.png', 'Im_BradPitt.png', 'Im_RobertPattinson.png', 'Im_DanielCraig.png', 'Im_RyanGosling.png', 'Im_JustinTimberlake.png', 'Im_GeorgeClooney.png', 'Im_RyanReynolds.png', 'Im_PatrickDempsey.png'],diff,1,0.4164901000001464,33,92.85714285714286,
XAFR1107,14,pos,0,pos0_id19_im27.bmp_pos0_id19_im8.bmp,['Im_LeonardoDiCaprio.png', 'Im_DanielRadcliffe.png', 'Im_BradPitt.png', 'Im_RobertPattinson.png', 'Im_DanielCraig.png', 'Im_RyanGosling.png', 'Im_JustinTimberlake.png', 'Im_GeorgeClooney.png', 'Im_RyanReynolds.png', 'Im_PatrickDempsey.png'],diff,0,0.6002457000001868,33,92.85714285714286,
XAFR1107,14,pos,90,pos90_id21_im17.bmp_pos90_id5_im10.bmp,['Im_LeonardoDiCaprio.png', 'Im_DanielRadcliffe.png', 'Im_BradPitt.png', 'Im_RobertPattinson.png', 'Im_DanielCraig.png', 'Im_RyanGosling.png', 'Im_JustinTimberlake.png', 'Im_GeorgeClooney.png', 'Im_RyanReynolds.png', 'Im_PatrickDempsey.png'],diff,1,0.41671880000012607,34,92.85714285714286,
