Sujet,Trial,Condition,Filter,Imname,Actor0,Actor1,Actor2,Actor3,Actor4,Actor5,Actor6,Actor7,Actor8,Actor9,Answer,Accu,RT,Score,Scoreperc, 
XAFR1107,train,neg,90,neg90_id7_im14.bmp_neg90_id17_im9.bmp,['Im_RobertPattinson.png', 'Im_RyanGosling.png', 'Im_PatrickDempsey.png', 'Im_BradPitt.png', 'Im_DanielRadcliffe.png', 'Im_JustinTimberlake.png', 'Im_GeorgeClooney.png', 'Im_LeonardoDiCaprio.png', 'Im_RyanReynolds.png', 'Im_DanielCraig.png'],diff,1,2.933563399999912,1,0,
XAFR1107,train,neg,0,neg0_id17_im14.bmp_neg0_id17_im8.bmp,['Im_RobertPattinson.png', 'Im_RyanGosling.png', 'Im_PatrickDempsey.png', 'Im_BradPitt.png', 'Im_DanielRadcliffe.png', 'Im_JustinTimberlake.png', 'Im_GeorgeClooney.png', 'Im_LeonardoDiCaprio.png', 'Im_RyanReynolds.png', 'Im_DanielCraig.png'],same,1,0.5664022000000841,2,0,
XAFR1107,train,neg,0,neg0_id21_im22.bmp_neg0_id21_im16.bmp,['Im_RobertPattinson.png', 'Im_RyanGosling.png', 'Im_PatrickDempsey.png', 'Im_BradPitt.png', 'Im_DanielRadcliffe.png', 'Im_JustinTimberlake.png', 'Im_GeorgeClooney.png', 'Im_LeonardoDiCaprio.png', 'Im_RyanReynolds.png', 'Im_DanielCraig.png'],same,1,0.43339060000107565,3,0,
XAFR1107,train,neg,30,neg30_id21_im17.bmp_neg30_id5_im20.bmp,['Im_RobertPattinson.png', 'Im_RyanGosling.png', 'Im_PatrickDempsey.png', 'Im_BradPitt.png', 'Im_DanielRadcliffe.png', 'Im_JustinTimberlake.png', 'Im_GeorgeClooney.png', 'Im_LeonardoDiCaprio.png', 'Im_RyanReynolds.png', 'Im_DanielCraig.png'],diff,1,0.416625899999417,4,0,
XAFR1107,train,neg,90,neg90_id13_im10.bmp_neg90_id13_im15.bmp,['Im_RobertPattinson.png', 'Im_RyanGosling.png', 'Im_PatrickDempsey.png', 'Im_BradPitt.png', 'Im_DanielRadcliffe.png', 'Im_JustinTimberlake.png', 'Im_GeorgeClooney.png', 'Im_LeonardoDiCaprio.png', 'Im_RyanReynolds.png', 'Im_DanielCraig.png'],same,1,0.41669760000149836,5,0,
XAFR1107,train,neg,60,neg60_id19_im4.bmp_neg60_id4_im7.bmp,['Im_RobertPattinson.png', 'Im_RyanGosling.png', 'Im_PatrickDempsey.png', 'Im_BradPitt.png', 'Im_DanielRadcliffe.png', 'Im_JustinTimberlake.png', 'Im_GeorgeClooney.png', 'Im_LeonardoDiCaprio.png', 'Im_RyanReynolds.png', 'Im_DanielCraig.png'],diff,1,0.5083257999995112,6,0,
XAFR1107,train,neg,120,neg120_id21_im16.bmp_neg120_id21_im17.bmp,['Im_RobertPattinson.png', 'Im_RyanGosling.png', 'Im_PatrickDempsey.png', 'Im_BradPitt.png', 'Im_DanielRadcliffe.png', 'Im_JustinTimberlake.png', 'Im_GeorgeClooney.png', 'Im_LeonardoDiCaprio.png', 'Im_RyanReynolds.png', 'Im_DanielCraig.png'],same,1,0.425016000001051,7,0,
XAFR1107,train,neg,30,neg30_id21_im22.bmp_neg30_id21_im17.bmp,['Im_RobertPattinson.png', 'Im_RyanGosling.png', 'Im_PatrickDempsey.png', 'Im_BradPitt.png', 'Im_DanielRadcliffe.png', 'Im_JustinTimberlake.png', 'Im_GeorgeClooney.png', 'Im_LeonardoDiCaprio.png', 'Im_RyanReynolds.png', 'Im_DanielCraig.png'],same,1,0.4167197999995551,8,0,
XAFR1107,train,neg,150,neg150_id13_im10.bmp_neg150_id20_im30.bmp,['Im_RobertPattinson.png', 'Im_RyanGosling.png', 'Im_PatrickDempsey.png', 'Im_BradPitt.png', 'Im_DanielRadcliffe.png', 'Im_JustinTimberlake.png', 'Im_GeorgeClooney.png', 'Im_LeonardoDiCaprio.png', 'Im_RyanReynolds.png', 'Im_DanielCraig.png'],diff,1,0.4250006000002031,9,0,
XAFR1107,train,neg,120,neg120_id21_im17.bmp_neg120_id21_im22.bmp,['Im_RobertPattinson.png', 'Im_RyanGosling.png', 'Im_PatrickDempsey.png', 'Im_BradPitt.png', 'Im_DanielRadcliffe.png', 'Im_JustinTimberlake.png', 'Im_GeorgeClooney.png', 'Im_LeonardoDiCaprio.png', 'Im_RyanReynolds.png', 'Im_DanielCraig.png'],same,1,0.7251003000001219,10,0,
XAFR1107,train,neg,60,neg60_id17_im9.bmp_neg60_id17_im8.bmp,['Im_RobertPattinson.png', 'Im_RyanGosling.png', 'Im_PatrickDempsey.png', 'Im_BradPitt.png', 'Im_DanielRadcliffe.png', 'Im_JustinTimberlake.png', 'Im_GeorgeClooney.png', 'Im_LeonardoDiCaprio.png', 'Im_RyanReynolds.png', 'Im_DanielCraig.png'],same,1,0.4167962000010448,11,0,
XAFR1107,train,neg,fs,negfs_id21_im16.bmp_negfs_id17_im14.bmp,['Im_RobertPattinson.png', 'Im_RyanGosling.png', 'Im_PatrickDempsey.png', 'Im_BradPitt.png', 'Im_DanielRadcliffe.png', 'Im_JustinTimberlake.png', 'Im_GeorgeClooney.png', 'Im_LeonardoDiCaprio.png', 'Im_RyanReynolds.png', 'Im_DanielCraig.png'],diff,1,1.0833531000007497,12,0,
XAFR1107,train,neg,fs,negfs_id3_im17.bmp_negfs_id10_im1.bmp,['Im_RobertPattinson.png', 'Im_RyanGosling.png', 'Im_PatrickDempsey.png', 'Im_BradPitt.png', 'Im_DanielRadcliffe.png', 'Im_JustinTimberlake.png', 'Im_GeorgeClooney.png', 'Im_LeonardoDiCaprio.png', 'Im_RyanReynolds.png', 'Im_DanielCraig.png'],diff,1,0.408191500000612,13,0,
XAFR1107,train,neg,150,neg150_id5_im10.bmp_neg150_id5_im20.bmp,['Im_RobertPattinson.png', 'Im_RyanGosling.png', 'Im_PatrickDempsey.png', 'Im_BradPitt.png', 'Im_DanielRadcliffe.png', 'Im_JustinTimberlake.png', 'Im_GeorgeClooney.png', 'Im_LeonardoDiCaprio.png', 'Im_RyanReynolds.png', 'Im_DanielCraig.png'],same,1,0.42500570000083826,14,0,
XAFR1107,train,pos,fs,posfs_id5_im20.bmp_posfs_id17_im14.bmp,['Im_RobertPattinson.png', 'Im_RyanGosling.png', 'Im_PatrickDempsey.png', 'Im_BradPitt.png', 'Im_DanielRadcliffe.png', 'Im_JustinTimberlake.png', 'Im_GeorgeClooney.png', 'Im_LeonardoDiCaprio.png', 'Im_RyanReynolds.png', 'Im_DanielCraig.png'],diff,1,0.41671669999959704,15,0,
XAFR1107,train,pos,120,pos120_id17_im9.bmp_pos120_id17_im14.bmp,['Im_RobertPattinson.png', 'Im_RyanGosling.png', 'Im_PatrickDempsey.png', 'Im_BradPitt.png', 'Im_DanielRadcliffe.png', 'Im_JustinTimberlake.png', 'Im_GeorgeClooney.png', 'Im_LeonardoDiCaprio.png', 'Im_RyanReynolds.png', 'Im_DanielCraig.png'],same,1,0.4167170000000624,16,0,
XAFR1107,train,pos,30,pos30_id5_im1.bmp_pos30_id10_im1.bmp,['Im_RobertPattinson.png', 'Im_RyanGosling.png', 'Im_PatrickDempsey.png', 'Im_BradPitt.png', 'Im_DanielRadcliffe.png', 'Im_JustinTimberlake.png', 'Im_GeorgeClooney.png', 'Im_LeonardoDiCaprio.png', 'Im_RyanReynolds.png', 'Im_DanielCraig.png'],diff,1,0.42510479999873496,17,0,
XAFR1107,train,pos,60,pos60_id17_im9.bmp_pos60_id17_im8.bmp,['Im_RobertPattinson.png', 'Im_RyanGosling.png', 'Im_PatrickDempsey.png', 'Im_BradPitt.png', 'Im_DanielRadcliffe.png', 'Im_JustinTimberlake.png', 'Im_GeorgeClooney.png', 'Im_LeonardoDiCaprio.png', 'Im_RyanReynolds.png', 'Im_DanielCraig.png'],same,1,0.9084344000002602,18,0,
XAFR1107,train,pos,150,pos150_id7_im26.bmp_pos150_id7_im14.bmp,['Im_RobertPattinson.png', 'Im_RyanGosling.png', 'Im_PatrickDempsey.png', 'Im_BradPitt.png', 'Im_DanielRadcliffe.png', 'Im_JustinTimberlake.png', 'Im_GeorgeClooney.png', 'Im_LeonardoDiCaprio.png', 'Im_RyanReynolds.png', 'Im_DanielCraig.png'],same,1,0.42502090000016324,19,0,
XAFR1107,train,pos,0,pos0_id10_im18.bmp_pos0_id10_im17.bmp,['Im_RobertPattinson.png', 'Im_RyanGosling.png', 'Im_PatrickDempsey.png', 'Im_BradPitt.png', 'Im_DanielRadcliffe.png', 'Im_JustinTimberlake.png', 'Im_GeorgeClooney.png', 'Im_LeonardoDiCaprio.png', 'Im_RyanReynolds.png', 'Im_DanielCraig.png'],same,1,0.4084502000005159,20,0,
XAFR1107,train,pos,90,pos90_id7_im15.bmp_pos90_id21_im16.bmp,['Im_RobertPattinson.png', 'Im_RyanGosling.png', 'Im_PatrickDempsey.png', 'Im_BradPitt.png', 'Im_DanielRadcliffe.png', 'Im_JustinTimberlake.png', 'Im_GeorgeClooney.png', 'Im_LeonardoDiCaprio.png', 'Im_RyanReynolds.png', 'Im_DanielCraig.png'],diff,1,0.4172168999994028,21,0,
XAFR1107,train,pos,60,pos60_id17_im9.bmp_pos60_id17_im14.bmp,['Im_RobertPattinson.png', 'Im_RyanGosling.png', 'Im_PatrickDempsey.png', 'Im_BradPitt.png', 'Im_DanielRadcliffe.png', 'Im_JustinTimberlake.png', 'Im_GeorgeClooney.png', 'Im_LeonardoDiCaprio.png', 'Im_RyanReynolds.png', 'Im_DanielCraig.png'],same,1,0.42447079999874404,22,0,
XAFR1107,train,pos,120,pos120_id13_im29.bmp_pos120_id13_im10.bmp,['Im_RobertPattinson.png', 'Im_RyanGosling.png', 'Im_PatrickDempsey.png', 'Im_BradPitt.png', 'Im_DanielRadcliffe.png', 'Im_JustinTimberlake.png', 'Im_GeorgeClooney.png', 'Im_LeonardoDiCaprio.png', 'Im_RyanReynolds.png', 'Im_DanielCraig.png'],same,1,0.424985799998467,23,0,
XAFR1107,train,pos,fs,posfs_id20_im12.bmp_posfs_id4_im15.bmp,['Im_RobertPattinson.png', 'Im_RyanGosling.png', 'Im_PatrickDempsey.png', 'Im_BradPitt.png', 'Im_DanielRadcliffe.png', 'Im_JustinTimberlake.png', 'Im_GeorgeClooney.png', 'Im_LeonardoDiCaprio.png', 'Im_RyanReynolds.png', 'Im_DanielCraig.png'],diff,1,0.42511840000042866,24,0,
XAFR1107,train,pos,0,pos0_id4_im7.bmp_pos0_id19_im4.bmp,['Im_RobertPattinson.png', 'Im_RyanGosling.png', 'Im_PatrickDempsey.png', 'Im_BradPitt.png', 'Im_DanielRadcliffe.png', 'Im_JustinTimberlake.png', 'Im_GeorgeClooney.png', 'Im_LeonardoDiCaprio.png', 'Im_RyanReynolds.png', 'Im_DanielCraig.png'],diff,1,0.42501699999957054,25,0,
XAFR1107,train,pos,150,pos150_id13_im29.bmp_pos150_id13_im10.bmp,['Im_RobertPattinson.png', 'Im_RyanGosling.png', 'Im_PatrickDempsey.png', 'Im_BradPitt.png', 'Im_DanielRadcliffe.png', 'Im_JustinTimberlake.png', 'Im_GeorgeClooney.png', 'Im_LeonardoDiCaprio.png', 'Im_RyanReynolds.png', 'Im_DanielCraig.png'],diff,0,0.5833481999998185,25,0,
XAFR1107,train,pos,30,pos30_id19_im8.bmp_pos30_id19_im4.bmp,['Im_RobertPattinson.png', 'Im_RyanGosling.png', 'Im_PatrickDempsey.png', 'Im_BradPitt.png', 'Im_DanielRadcliffe.png', 'Im_JustinTimberlake.png', 'Im_GeorgeClooney.png', 'Im_LeonardoDiCaprio.png', 'Im_RyanReynolds.png', 'Im_DanielCraig.png'],same,1,0.4249722999993537,26,0,
XAFR1107,train,pos,90,pos90_id19_im27.bmp_pos90_id19_im4.bmp,['Im_RobertPattinson.png', 'Im_RyanGosling.png', 'Im_PatrickDempsey.png', 'Im_BradPitt.png', 'Im_DanielRadcliffe.png', 'Im_JustinTimberlake.png', 'Im_GeorgeClooney.png', 'Im_LeonardoDiCaprio.png', 'Im_RyanReynolds.png', 'Im_DanielCraig.png'],same,1,0.9078492999997252,27,0,
XAFR1107,train,neg,fs,negfs_id4_im15.bmp_negfs_id20_im12.bmp,['Im_RobertPattinson.png', 'Im_RyanGosling.png', 'Im_PatrickDempsey.png', 'Im_BradPitt.png', 'Im_DanielRadcliffe.png', 'Im_JustinTimberlake.png', 'Im_GeorgeClooney.png', 'Im_LeonardoDiCaprio.png', 'Im_RyanReynolds.png', 'Im_DanielCraig.png'],diff,1,0.41671279999900435,28,0,
XAFR1107,train,neg,fs,negfs_id4_im15.bmp_negfs_id4_im7.bmp,['Im_RobertPattinson.png', 'Im_RyanGosling.png', 'Im_PatrickDempsey.png', 'Im_BradPitt.png', 'Im_DanielRadcliffe.png', 'Im_JustinTimberlake.png', 'Im_GeorgeClooney.png', 'Im_LeonardoDiCaprio.png', 'Im_RyanReynolds.png', 'Im_DanielCraig.png'],same,1,0.4250952000002144,29,0,
XAFR1107,train,neg,0,neg0_id5_im20.bmp_neg0_id5_im10.bmp,['Im_RobertPattinson.png', 'Im_RyanGosling.png', 'Im_PatrickDempsey.png', 'Im_BradPitt.png', 'Im_DanielRadcliffe.png', 'Im_JustinTimberlake.png', 'Im_GeorgeClooney.png', 'Im_LeonardoDiCaprio.png', 'Im_RyanReynolds.png', 'Im_DanielCraig.png'],same,1,0.42510570000013104,30,0,
XAFR1107,train,neg,0,neg0_id3_im17.bmp_neg0_id13_im29.bmp,['Im_RobertPattinson.png', 'Im_RyanGosling.png', 'Im_PatrickDempsey.png', 'Im_BradPitt.png', 'Im_DanielRadcliffe.png', 'Im_JustinTimberlake.png', 'Im_GeorgeClooney.png', 'Im_LeonardoDiCaprio.png', 'Im_RyanReynolds.png', 'Im_DanielCraig.png'],diff,1,0.49187439999877824,31,0,
XAFR1107,train,neg,150,neg150_id21_im22.bmp_neg150_id10_im18.bmp,['Im_RobertPattinson.png', 'Im_RyanGosling.png', 'Im_PatrickDempsey.png', 'Im_BradPitt.png', 'Im_DanielRadcliffe.png', 'Im_JustinTimberlake.png', 'Im_GeorgeClooney.png', 'Im_LeonardoDiCaprio.png', 'Im_RyanReynolds.png', 'Im_DanielCraig.png'],diff,1,0.9668358999988413,32,0,
XAFR1107,train,neg,120,neg120_id19_im8.bmp_neg120_id19_im4.bmp,['Im_RobertPattinson.png', 'Im_RyanGosling.png', 'Im_PatrickDempsey.png', 'Im_BradPitt.png', 'Im_DanielRadcliffe.png', 'Im_JustinTimberlake.png', 'Im_GeorgeClooney.png', 'Im_LeonardoDiCaprio.png', 'Im_RyanReynolds.png', 'Im_DanielCraig.png'],same,1,0.6000112999990961,33,0,
XAFR1107,train,neg,150,neg150_id17_im9.bmp_neg150_id7_im14.bmp,['Im_RobertPattinson.png', 'Im_RyanGosling.png', 'Im_PatrickDempsey.png', 'Im_BradPitt.png', 'Im_DanielRadcliffe.png', 'Im_JustinTimberlake.png', 'Im_GeorgeClooney.png', 'Im_LeonardoDiCaprio.png', 'Im_RyanReynolds.png', 'Im_DanielCraig.png'],diff,1,0.4083141999999498,34,0,
XAFR1107,train,neg,30,neg30_id20_im30.bmp_neg30_id20_im12.bmp,['Im_RobertPattinson.png', 'Im_RyanGosling.png', 'Im_PatrickDempsey.png', 'Im_BradPitt.png', 'Im_DanielRadcliffe.png', 'Im_JustinTimberlake.png', 'Im_GeorgeClooney.png', 'Im_LeonardoDiCaprio.png', 'Im_RyanReynolds.png', 'Im_DanielCraig.png'],same,1,0.4083991999996215,35,0,
XAFR1107,train,neg,60,neg60_id17_im14.bmp_neg60_id17_im9.bmp,['Im_RobertPattinson.png', 'Im_RyanGosling.png', 'Im_PatrickDempsey.png', 'Im_BradPitt.png', 'Im_DanielRadcliffe.png', 'Im_JustinTimberlake.png', 'Im_GeorgeClooney.png', 'Im_LeonardoDiCaprio.png', 'Im_RyanReynolds.png', 'Im_DanielCraig.png'],same,1,1.2666670999988128,36,0,
XAFR1107,train,neg,120,neg120_id3_im6.bmp_neg120_id10_im17.bmp,['Im_RobertPattinson.png', 'Im_RyanGosling.png', 'Im_PatrickDempsey.png', 'Im_BradPitt.png', 'Im_DanielRadcliffe.png', 'Im_JustinTimberlake.png', 'Im_GeorgeClooney.png', 'Im_LeonardoDiCaprio.png', 'Im_RyanReynolds.png', 'Im_DanielCraig.png'],diff,1,0.5333480000008421,37,0,
XAFR1107,train,neg,90,neg90_id17_im8.bmp_neg90_id17_im9.bmp,['Im_RobertPattinson.png', 'Im_RyanGosling.png', 'Im_PatrickDempsey.png', 'Im_BradPitt.png', 'Im_DanielRadcliffe.png', 'Im_JustinTimberlake.png', 'Im_GeorgeClooney.png', 'Im_LeonardoDiCaprio.png', 'Im_RyanReynolds.png', 'Im_DanielCraig.png'],same,1,0.4250439000006736,38,0,
XAFR1107,train,neg,90,neg90_id17_im8.bmp_neg90_id13_im10.bmp,['Im_RobertPattinson.png', 'Im_RyanGosling.png', 'Im_PatrickDempsey.png', 'Im_BradPitt.png', 'Im_DanielRadcliffe.png', 'Im_JustinTimberlake.png', 'Im_GeorgeClooney.png', 'Im_LeonardoDiCaprio.png', 'Im_RyanReynolds.png', 'Im_DanielCraig.png'],diff,1,0.40842110000085086,39,0,
XAFR1107,train,neg,30,neg30_id20_im12.bmp_neg30_id4_im15.bmp,['Im_RobertPattinson.png', 'Im_RyanGosling.png', 'Im_PatrickDempsey.png', 'Im_BradPitt.png', 'Im_DanielRadcliffe.png', 'Im_JustinTimberlake.png', 'Im_GeorgeClooney.png', 'Im_LeonardoDiCaprio.png', 'Im_RyanReynolds.png', 'Im_DanielCraig.png'],diff,1,0.4083381999989797,40,0,
XAFR1107,train,neg,60,neg60_id7_im26.bmp_neg60_id7_im14.bmp,['Im_RobertPattinson.png', 'Im_RyanGosling.png', 'Im_PatrickDempsey.png', 'Im_BradPitt.png', 'Im_DanielRadcliffe.png', 'Im_JustinTimberlake.png', 'Im_GeorgeClooney.png', 'Im_LeonardoDiCaprio.png', 'Im_RyanReynolds.png', 'Im_DanielCraig.png'],same,1,1.3666779000013776,41,0,
XAFR1107,train,inv,90,pos90_id3_im17.bmp_pos90_id13_im29.bmp,['Im_RobertPattinson.png', 'Im_RyanGosling.png', 'Im_PatrickDempsey.png', 'Im_BradPitt.png', 'Im_DanielRadcliffe.png', 'Im_JustinTimberlake.png', 'Im_GeorgeClooney.png', 'Im_LeonardoDiCaprio.png', 'Im_RyanReynolds.png', 'Im_DanielCraig.png'],same,0,0.5579895000009856,0,97.61904761904762,
XAFR1107,train,inv,150,pos150_id4_im7.bmp_pos150_id19_im4.bmp,['Im_RobertPattinson.png', 'Im_RyanGosling.png', 'Im_PatrickDempsey.png', 'Im_BradPitt.png', 'Im_DanielRadcliffe.png', 'Im_JustinTimberlake.png', 'Im_GeorgeClooney.png', 'Im_LeonardoDiCaprio.png', 'Im_RyanReynolds.png', 'Im_DanielCraig.png'],diff,1,0.4416951000002882,1,97.61904761904762,
XAFR1107,train,inv,0,pos0_id17_im14.bmp_pos0_id17_im8.bmp,['Im_RobertPattinson.png', 'Im_RyanGosling.png', 'Im_PatrickDempsey.png', 'Im_BradPitt.png', 'Im_DanielRadcliffe.png', 'Im_JustinTimberlake.png', 'Im_GeorgeClooney.png', 'Im_LeonardoDiCaprio.png', 'Im_RyanReynolds.png', 'Im_DanielCraig.png'],diff,0,0.4083804000001692,1,97.61904761904762,
XAFR1107,train,inv,90,pos90_id10_im1.bmp_pos90_id10_im18.bmp,['Im_RobertPattinson.png', 'Im_RyanGosling.png', 'Im_PatrickDempsey.png', 'Im_BradPitt.png', 'Im_DanielRadcliffe.png', 'Im_JustinTimberlake.png', 'Im_GeorgeClooney.png', 'Im_LeonardoDiCaprio.png', 'Im_RyanReynolds.png', 'Im_DanielCraig.png'],same,1,0.43336679999993066,2,97.61904761904762,
XAFR1107,train,inv,150,pos150_id17_im8.bmp_pos150_id5_im10.bmp,['Im_RobertPattinson.png', 'Im_RyanGosling.png', 'Im_PatrickDempsey.png', 'Im_BradPitt.png', 'Im_DanielRadcliffe.png', 'Im_JustinTimberlake.png', 'Im_GeorgeClooney.png', 'Im_LeonardoDiCaprio.png', 'Im_RyanReynolds.png', 'Im_DanielCraig.png'],diff,1,0.4085938000007445,3,97.61904761904762,
XAFR1107,train,inv,30,pos30_id20_im3.bmp_pos30_id7_im15.bmp,['Im_RobertPattinson.png', 'Im_RyanGosling.png', 'Im_PatrickDempsey.png', 'Im_BradPitt.png', 'Im_DanielRadcliffe.png', 'Im_JustinTimberlake.png', 'Im_GeorgeClooney.png', 'Im_LeonardoDiCaprio.png', 'Im_RyanReynolds.png', 'Im_DanielCraig.png'],diff,1,0.4160577000002377,4,97.61904761904762,
XAFR1107,train,inv,0,pos0_id10_im17.bmp_pos0_id10_im1.bmp,['Im_RobertPattinson.png', 'Im_RyanGosling.png', 'Im_PatrickDempsey.png', 'Im_BradPitt.png', 'Im_DanielRadcliffe.png', 'Im_JustinTimberlake.png', 'Im_GeorgeClooney.png', 'Im_LeonardoDiCaprio.png', 'Im_RyanReynolds.png', 'Im_DanielCraig.png'],same,1,0.424969499999861,5,97.61904761904762,
XAFR1107,train,inv,60,pos60_id19_im27.bmp_pos60_id19_im8.bmp,['Im_RobertPattinson.png', 'Im_RyanGosling.png', 'Im_PatrickDempsey.png', 'Im_BradPitt.png', 'Im_DanielRadcliffe.png', 'Im_JustinTimberlake.png', 'Im_GeorgeClooney.png', 'Im_LeonardoDiCaprio.png', 'Im_RyanReynolds.png', 'Im_DanielCraig.png'],same,1,0.4083952999990288,6,97.61904761904762,
XAFR1107,train,inv,120,pos120_id10_im18.bmp_pos120_id21_im22.bmp,['Im_RobertPattinson.png', 'Im_RyanGosling.png', 'Im_PatrickDempsey.png', 'Im_BradPitt.png', 'Im_DanielRadcliffe.png', 'Im_JustinTimberlake.png', 'Im_GeorgeClooney.png', 'Im_LeonardoDiCaprio.png', 'Im_RyanReynolds.png', 'Im_DanielCraig.png'],diff,1,0.4166900000000169,7,97.61904761904762,
XAFR1107,train,inv,60,pos60_id3_im6.bmp_pos60_id3_im17.bmp,['Im_RobertPattinson.png', 'Im_RyanGosling.png', 'Im_PatrickDempsey.png', 'Im_BradPitt.png', 'Im_DanielRadcliffe.png', 'Im_JustinTimberlake.png', 'Im_GeorgeClooney.png', 'Im_LeonardoDiCaprio.png', 'Im_RyanReynolds.png', 'Im_DanielCraig.png'],same,1,0.42506950000097277,8,97.61904761904762,
XAFR1107,train,inv,fs,posfs_id21_im16.bmp_posfs_id21_im17.bmp,['Im_RobertPattinson.png', 'Im_RyanGosling.png', 'Im_PatrickDempsey.png', 'Im_BradPitt.png', 'Im_DanielRadcliffe.png', 'Im_JustinTimberlake.png', 'Im_GeorgeClooney.png', 'Im_LeonardoDiCaprio.png', 'Im_RyanReynolds.png', 'Im_DanielCraig.png'],same,1,0.43298309999954654,9,97.61904761904762,
XAFR1107,train,inv,fs,posfs_id20_im3.bmp_posfs_id7_im15.bmp,['Im_RobertPattinson.png', 'Im_RyanGosling.png', 'Im_PatrickDempsey.png', 'Im_BradPitt.png', 'Im_DanielRadcliffe.png', 'Im_JustinTimberlake.png', 'Im_GeorgeClooney.png', 'Im_LeonardoDiCaprio.png', 'Im_RyanReynolds.png', 'Im_DanielCraig.png'],diff,1,0.42505460000029416,10,97.61904761904762,
XAFR1107,train,inv,120,pos120_id21_im22.bmp_pos120_id21_im17.bmp,['Im_RobertPattinson.png', 'Im_RyanGosling.png', 'Im_PatrickDempsey.png', 'Im_BradPitt.png', 'Im_DanielRadcliffe.png', 'Im_JustinTimberlake.png', 'Im_GeorgeClooney.png', 'Im_LeonardoDiCaprio.png', 'Im_RyanReynolds.png', 'Im_DanielCraig.png'],same,1,0.5085421000003407,11,97.61904761904762,
XAFR1107,train,inv,30,pos30_id21_im16.bmp_pos30_id7_im15.bmp,['Im_RobertPattinson.png', 'Im_RyanGosling.png', 'Im_PatrickDempsey.png', 'Im_BradPitt.png', 'Im_DanielRadcliffe.png', 'Im_JustinTimberlake.png', 'Im_GeorgeClooney.png', 'Im_LeonardoDiCaprio.png', 'Im_RyanReynolds.png', 'Im_DanielCraig.png'],diff,1,0.4250926000004256,12,97.61904761904762,
XAFR1107,train,inv,150,pos150_id21_im16.bmp_pos150_id21_im17.bmp,['Im_RobertPattinson.png', 'Im_RyanGosling.png', 'Im_PatrickDempsey.png', 'Im_BradPitt.png', 'Im_DanielRadcliffe.png', 'Im_JustinTimberlake.png', 'Im_GeorgeClooney.png', 'Im_LeonardoDiCaprio.png', 'Im_RyanReynolds.png', 'Im_DanielCraig.png'],same,1,0.4665229000002,13,97.61904761904762,
XAFR1107,train,inv,150,pos150_id7_im15.bmp_pos150_id7_im26.bmp,['Im_RobertPattinson.png', 'Im_RyanGosling.png', 'Im_PatrickDempsey.png', 'Im_BradPitt.png', 'Im_DanielRadcliffe.png', 'Im_JustinTimberlake.png', 'Im_GeorgeClooney.png', 'Im_LeonardoDiCaprio.png', 'Im_RyanReynolds.png', 'Im_DanielCraig.png'],same,1,0.41669830000137154,14,97.61904761904762,
XAFR1107,train,inv,90,pos90_id17_im14.bmp_pos90_id17_im8.bmp,['Im_RobertPattinson.png', 'Im_RyanGosling.png', 'Im_PatrickDempsey.png', 'Im_BradPitt.png', 'Im_DanielRadcliffe.png', 'Im_JustinTimberlake.png', 'Im_GeorgeClooney.png', 'Im_LeonardoDiCaprio.png', 'Im_RyanReynolds.png', 'Im_DanielCraig.png'],same,1,0.42499639999914507,15,97.61904761904762,
XAFR1107,train,inv,fs,posfs_id4_im20.bmp_posfs_id4_im15.bmp,['Im_RobertPattinson.png', 'Im_RyanGosling.png', 'Im_PatrickDempsey.png', 'Im_BradPitt.png', 'Im_DanielRadcliffe.png', 'Im_JustinTimberlake.png', 'Im_GeorgeClooney.png', 'Im_LeonardoDiCaprio.png', 'Im_RyanReynolds.png', 'Im_DanielCraig.png'],same,1,0.41661260000000766,16,97.61904761904762,
XAFR1107,train,inv,120,pos120_id4_im7.bmp_pos120_id19_im8.bmp,['Im_RobertPattinson.png', 'Im_RyanGosling.png', 'Im_PatrickDempsey.png', 'Im_BradPitt.png', 'Im_DanielRadcliffe.png', 'Im_JustinTimberlake.png', 'Im_GeorgeClooney.png', 'Im_LeonardoDiCaprio.png', 'Im_RyanReynolds.png', 'Im_DanielCraig.png'],diff,1,0.4166722000009031,17,97.61904761904762,
XAFR1107,train,inv,60,pos60_id20_im30.bmp_pos60_id13_im10.bmp,['Im_RobertPattinson.png', 'Im_RyanGosling.png', 'Im_PatrickDempsey.png', 'Im_BradPitt.png', 'Im_DanielRadcliffe.png', 'Im_JustinTimberlake.png', 'Im_GeorgeClooney.png', 'Im_LeonardoDiCaprio.png', 'Im_RyanReynolds.png', 'Im_DanielCraig.png'],diff,1,0.42516169999908016,18,97.61904761904762,
XAFR1107,train,inv,120,pos120_id5_im20.bmp_pos120_id21_im17.bmp,['Im_RobertPattinson.png', 'Im_RyanGosling.png', 'Im_PatrickDempsey.png', 'Im_BradPitt.png', 'Im_DanielRadcliffe.png', 'Im_JustinTimberlake.png', 'Im_GeorgeClooney.png', 'Im_LeonardoDiCaprio.png', 'Im_RyanReynolds.png', 'Im_DanielCraig.png'],diff,1,0.43294240000068385,19,97.61904761904762,
XAFR1107,train,inv,30,pos30_id5_im10.bmp_pos30_id5_im1.bmp,['Im_RobertPattinson.png', 'Im_RyanGosling.png', 'Im_PatrickDempsey.png', 'Im_BradPitt.png', 'Im_DanielRadcliffe.png', 'Im_JustinTimberlake.png', 'Im_GeorgeClooney.png', 'Im_LeonardoDiCaprio.png', 'Im_RyanReynolds.png', 'Im_DanielCraig.png'],same,1,0.4164089999994758,20,97.61904761904762,
XAFR1107,train,inv,30,pos30_id13_im10.bmp_pos30_id17_im8.bmp,['Im_RobertPattinson.png', 'Im_RyanGosling.png', 'Im_PatrickDempsey.png', 'Im_BradPitt.png', 'Im_DanielRadcliffe.png', 'Im_JustinTimberlake.png', 'Im_GeorgeClooney.png', 'Im_LeonardoDiCaprio.png', 'Im_RyanReynolds.png', 'Im_DanielCraig.png'],diff,1,0.4249734000004537,21,97.61904761904762,
XAFR1107,train,inv,0,pos0_id10_im17.bmp_pos0_id3_im6.bmp,['Im_RobertPattinson.png', 'Im_RyanGosling.png', 'Im_PatrickDempsey.png', 'Im_BradPitt.png', 'Im_DanielRadcliffe.png', 'Im_JustinTimberlake.png', 'Im_GeorgeClooney.png', 'Im_LeonardoDiCaprio.png', 'Im_RyanReynolds.png', 'Im_DanielCraig.png'],diff,1,0.40835450000122364,22,97.61904761904762,
XAFR1107,train,inv,60,pos60_id21_im17.bmp_pos60_id5_im20.bmp,['Im_RobertPattinson.png', 'Im_RyanGosling.png', 'Im_PatrickDempsey.png', 'Im_BradPitt.png', 'Im_DanielRadcliffe.png', 'Im_JustinTimberlake.png', 'Im_GeorgeClooney.png', 'Im_LeonardoDiCaprio.png', 'Im_RyanReynolds.png', 'Im_DanielCraig.png'],diff,1,0.408451100000093,23,97.61904761904762,
XAFR1107,train,inv,fs,posfs_id13_im15.bmp_posfs_id20_im12.bmp,['Im_RobertPattinson.png', 'Im_RyanGosling.png', 'Im_PatrickDempsey.png', 'Im_BradPitt.png', 'Im_DanielRadcliffe.png', 'Im_JustinTimberlake.png', 'Im_GeorgeClooney.png', 'Im_LeonardoDiCaprio.png', 'Im_RyanReynolds.png', 'Im_DanielCraig.png'],diff,1,0.9002031999989413,24,97.61904761904762,
XAFR1107,train,inv,90,pos90_id13_im15.bmp_pos90_id20_im12.bmp,['Im_RobertPattinson.png', 'Im_RyanGosling.png', 'Im_PatrickDempsey.png', 'Im_BradPitt.png', 'Im_DanielRadcliffe.png', 'Im_JustinTimberlake.png', 'Im_GeorgeClooney.png', 'Im_LeonardoDiCaprio.png', 'Im_RyanReynolds.png', 'Im_DanielCraig.png'],diff,1,0.41675109999960114,25,97.61904761904762,
XAFR1107,train,inv,0,pos0_id4_im15.bmp_pos0_id5_im1.bmp,['Im_RobertPattinson.png', 'Im_RyanGosling.png', 'Im_PatrickDempsey.png', 'Im_BradPitt.png', 'Im_DanielRadcliffe.png', 'Im_JustinTimberlake.png', 'Im_GeorgeClooney.png', 'Im_LeonardoDiCaprio.png', 'Im_RyanReynolds.png', 'Im_DanielCraig.png'],diff,1,1.9919267000004766,26,97.61904761904762,
XAFR1107,train,pos,0,pos0_id3_im6.bmp_pos0_id19_im8.bmp,['Im_RobertPattinson.png', 'Im_RyanGosling.png', 'Im_PatrickDempsey.png', 'Im_BradPitt.png', 'Im_DanielRadcliffe.png', 'Im_JustinTimberlake.png', 'Im_GeorgeClooney.png', 'Im_LeonardoDiCaprio.png', 'Im_RyanReynolds.png', 'Im_DanielCraig.png'],diff,1,0.40839629999936733,27,97.61904761904762,
XAFR1107,train,pos,150,pos150_id21_im17.bmp_pos150_id21_im22.bmp,['Im_RobertPattinson.png', 'Im_RyanGosling.png', 'Im_PatrickDempsey.png', 'Im_BradPitt.png', 'Im_DanielRadcliffe.png', 'Im_JustinTimberlake.png', 'Im_GeorgeClooney.png', 'Im_LeonardoDiCaprio.png', 'Im_RyanReynolds.png', 'Im_DanielCraig.png'],same,1,0.4167326000006142,28,97.61904761904762,
XAFR1107,train,pos,150,pos150_id3_im17.bmp_pos150_id3_im6.bmp,['Im_RobertPattinson.png', 'Im_RyanGosling.png', 'Im_PatrickDempsey.png', 'Im_BradPitt.png', 'Im_DanielRadcliffe.png', 'Im_JustinTimberlake.png', 'Im_GeorgeClooney.png', 'Im_LeonardoDiCaprio.png', 'Im_RyanReynolds.png', 'Im_DanielCraig.png'],same,1,0.42505379999965953,29,97.61904761904762,
XAFR1107,train,pos,60,pos60_id7_im14.bmp_pos60_id17_im9.bmp,['Im_RobertPattinson.png', 'Im_RyanGosling.png', 'Im_PatrickDempsey.png', 'Im_BradPitt.png', 'Im_DanielRadcliffe.png', 'Im_JustinTimberlake.png', 'Im_GeorgeClooney.png', 'Im_LeonardoDiCaprio.png', 'Im_RyanReynolds.png', 'Im_DanielCraig.png'],diff,1,0.5749708000003011,30,97.61904761904762,
XAFR1107,train,pos,90,pos90_id13_im10.bmp_pos90_id20_im30.bmp,['Im_RobertPattinson.png', 'Im_RyanGosling.png', 'Im_PatrickDempsey.png', 'Im_BradPitt.png', 'Im_DanielRadcliffe.png', 'Im_JustinTimberlake.png', 'Im_GeorgeClooney.png', 'Im_LeonardoDiCaprio.png', 'Im_RyanReynolds.png', 'Im_DanielCraig.png'],diff,1,0.42503510000096867,31,97.61904761904762,
XAFR1107,train,pos,90,pos90_id7_im14.bmp_pos90_id7_im15.bmp,['Im_RobertPattinson.png', 'Im_RyanGosling.png', 'Im_PatrickDempsey.png', 'Im_BradPitt.png', 'Im_DanielRadcliffe.png', 'Im_JustinTimberlake.png', 'Im_GeorgeClooney.png', 'Im_LeonardoDiCaprio.png', 'Im_RyanReynolds.png', 'Im_DanielCraig.png'],same,1,0.4250986999995803,32,97.61904761904762,
XAFR1107,train,pos,fs,posfs_id7_im15.bmp_posfs_id20_im3.bmp,['Im_RobertPattinson.png', 'Im_RyanGosling.png', 'Im_PatrickDempsey.png', 'Im_BradPitt.png', 'Im_DanielRadcliffe.png', 'Im_JustinTimberlake.png', 'Im_GeorgeClooney.png', 'Im_LeonardoDiCaprio.png', 'Im_RyanReynolds.png', 'Im_DanielCraig.png'],diff,1,0.42503539999961504,33,97.61904761904762,
XAFR1107,train,pos,120,pos120_id3_im17.bmp_pos120_id13_im29.bmp,['Im_RobertPattinson.png', 'Im_RyanGosling.png', 'Im_PatrickDempsey.png', 'Im_BradPitt.png', 'Im_DanielRadcliffe.png', 'Im_JustinTimberlake.png', 'Im_GeorgeClooney.png', 'Im_LeonardoDiCaprio.png', 'Im_RyanReynolds.png', 'Im_DanielCraig.png'],diff,1,0.4083386000002065,34,97.61904761904762,
XAFR1107,train,pos,30,pos30_id21_im17.bmp_pos30_id21_im22.bmp,['Im_RobertPattinson.png', 'Im_RyanGosling.png', 'Im_PatrickDempsey.png', 'Im_BradPitt.png', 'Im_DanielRadcliffe.png', 'Im_JustinTimberlake.png', 'Im_GeorgeClooney.png', 'Im_LeonardoDiCaprio.png', 'Im_RyanReynolds.png', 'Im_DanielCraig.png'],same,1,0.42517210000005434,35,97.61904761904762,
XAFR1107,train,pos,fs,posfs_id20_im3.bmp_posfs_id20_im30.bmp,['Im_RobertPattinson.png', 'Im_RyanGosling.png', 'Im_PatrickDempsey.png', 'Im_BradPitt.png', 'Im_DanielRadcliffe.png', 'Im_JustinTimberlake.png', 'Im_GeorgeClooney.png', 'Im_LeonardoDiCaprio.png', 'Im_RyanReynolds.png', 'Im_DanielCraig.png'],same,1,0.8415394999992714,36,97.61904761904762,
XAFR1107,train,pos,30,pos30_id20_im3.bmp_pos30_id20_im30.bmp,['Im_RobertPattinson.png', 'Im_RyanGosling.png', 'Im_PatrickDempsey.png', 'Im_BradPitt.png', 'Im_DanielRadcliffe.png', 'Im_JustinTimberlake.png', 'Im_GeorgeClooney.png', 'Im_LeonardoDiCaprio.png', 'Im_RyanReynolds.png', 'Im_DanielCraig.png'],same,1,0.416883300000336,37,97.61904761904762,
XAFR1107,train,pos,120,pos120_id10_im1.bmp_pos120_id3_im17.bmp,['Im_RobertPattinson.png', 'Im_RyanGosling.png', 'Im_PatrickDempsey.png', 'Im_BradPitt.png', 'Im_DanielRadcliffe.png', 'Im_JustinTimberlake.png', 'Im_GeorgeClooney.png', 'Im_LeonardoDiCaprio.png', 'Im_RyanReynolds.png', 'Im_DanielCraig.png'],diff,1,0.4165990999990754,38,97.61904761904762,
XAFR1107,train,pos,0,pos0_id21_im17.bmp_pos0_id21_im22.bmp,['Im_RobertPattinson.png', 'Im_RyanGosling.png', 'Im_PatrickDempsey.png', 'Im_BradPitt.png', 'Im_DanielRadcliffe.png', 'Im_JustinTimberlake.png', 'Im_GeorgeClooney.png', 'Im_LeonardoDiCaprio.png', 'Im_RyanReynolds.png', 'Im_DanielCraig.png'],same,1,0.4250633999999991,39,97.61904761904762,
XAFR1107,train,pos,60,pos60_id3_im6.bmp_pos60_id10_im17.bmp,['Im_RobertPattinson.png', 'Im_RyanGosling.png', 'Im_PatrickDempsey.png', 'Im_BradPitt.png', 'Im_DanielRadcliffe.png', 'Im_JustinTimberlake.png', 'Im_GeorgeClooney.png', 'Im_LeonardoDiCaprio.png', 'Im_RyanReynolds.png', 'Im_DanielCraig.png'],diff,1,0.4166444999991654,40,97.61904761904762,
XAFR1107,0,neg,90,neg90_id19_im4.bmp_neg90_id19_im27.bmp,['Im_RobertPattinson.png', 'Im_RyanGosling.png', 'Im_PatrickDempsey.png', 'Im_BradPitt.png', 'Im_DanielRadcliffe.png', 'Im_JustinTimberlake.png', 'Im_GeorgeClooney.png', 'Im_LeonardoDiCaprio.png', 'Im_RyanReynolds.png', 'Im_DanielCraig.png'],same,1,0.4167682999996032,1,0,
XAFR1107,0,neg,150,neg150_id17_im8.bmp_neg150_id17_im14.bmp,['Im_RobertPattinson.png', 'Im_RyanGosling.png', 'Im_PatrickDempsey.png', 'Im_BradPitt.png', 'Im_DanielRadcliffe.png', 'Im_JustinTimberlake.png', 'Im_GeorgeClooney.png', 'Im_LeonardoDiCaprio.png', 'Im_RyanReynolds.png', 'Im_DanielCraig.png'],same,1,0.41667949999828124,2,0,
XAFR1107,0,neg,90,neg90_id19_im8.bmp_neg90_id19_im4.bmp,['Im_RobertPattinson.png', 'Im_RyanGosling.png', 'Im_PatrickDempsey.png', 'Im_BradPitt.png', 'Im_DanielRadcliffe.png', 'Im_JustinTimberlake.png', 'Im_GeorgeClooney.png', 'Im_LeonardoDiCaprio.png', 'Im_RyanReynolds.png', 'Im_DanielCraig.png'],same,1,0.41666909999912605,3,0,
XAFR1107,0,neg,30,neg30_id20_im30.bmp_neg30_id17_im9.bmp,['Im_RobertPattinson.png', 'Im_RyanGosling.png', 'Im_PatrickDempsey.png', 'Im_BradPitt.png', 'Im_DanielRadcliffe.png', 'Im_JustinTimberlake.png', 'Im_GeorgeClooney.png', 'Im_LeonardoDiCaprio.png', 'Im_RyanReynolds.png', 'Im_DanielCraig.png'],diff,1,0.4251074999992852,4,0,
XAFR1107,0,neg,0,neg0_id17_im14.bmp_neg0_id17_im9.bmp,['Im_RobertPattinson.png', 'Im_RyanGosling.png', 'Im_PatrickDempsey.png', 'Im_BradPitt.png', 'Im_DanielRadcliffe.png', 'Im_JustinTimberlake.png', 'Im_GeorgeClooney.png', 'Im_LeonardoDiCaprio.png', 'Im_RyanReynolds.png', 'Im_DanielCraig.png'],same,1,0.41688669999894046,5,0,
XAFR1107,0,neg,60,neg60_id7_im15.bmp_neg60_id20_im3.bmp,['Im_RobertPattinson.png', 'Im_RyanGosling.png', 'Im_PatrickDempsey.png', 'Im_BradPitt.png', 'Im_DanielRadcliffe.png', 'Im_JustinTimberlake.png', 'Im_GeorgeClooney.png', 'Im_LeonardoDiCaprio.png', 'Im_RyanReynolds.png', 'Im_DanielCraig.png'],diff,1,0.4167442999987543,6,0,
XAFR1107,0,neg,60,neg60_id17_im14.bmp_neg60_id5_im20.bmp,['Im_RobertPattinson.png', 'Im_RyanGosling.png', 'Im_PatrickDempsey.png', 'Im_BradPitt.png', 'Im_DanielRadcliffe.png', 'Im_JustinTimberlake.png', 'Im_GeorgeClooney.png', 'Im_LeonardoDiCaprio.png', 'Im_RyanReynolds.png', 'Im_DanielCraig.png'],same,0,0.41666910000094504,6,0,
XAFR1107,0,neg,fs,negfs_id17_im8.bmp_negfs_id13_im10.bmp,['Im_RobertPattinson.png', 'Im_RyanGosling.png', 'Im_PatrickDempsey.png', 'Im_BradPitt.png', 'Im_DanielRadcliffe.png', 'Im_JustinTimberlake.png', 'Im_GeorgeClooney.png', 'Im_LeonardoDiCaprio.png', 'Im_RyanReynolds.png', 'Im_DanielCraig.png'],diff,1,0.42510089999996126,7,0,
XAFR1107,0,neg,150,neg150_id3_im17.bmp_neg150_id3_im6.bmp,['Im_RobertPattinson.png', 'Im_RyanGosling.png', 'Im_PatrickDempsey.png', 'Im_BradPitt.png', 'Im_DanielRadcliffe.png', 'Im_JustinTimberlake.png', 'Im_GeorgeClooney.png', 'Im_LeonardoDiCaprio.png', 'Im_RyanReynolds.png', 'Im_DanielCraig.png'],same,1,0.4167230000002746,8,0,
XAFR1107,0,neg,120,neg120_id13_im10.bmp_neg120_id13_im29.bmp,['Im_RobertPattinson.png', 'Im_RyanGosling.png', 'Im_PatrickDempsey.png', 'Im_BradPitt.png', 'Im_DanielRadcliffe.png', 'Im_JustinTimberlake.png', 'Im_GeorgeClooney.png', 'Im_LeonardoDiCaprio.png', 'Im_RyanReynolds.png', 'Im_DanielCraig.png'],same,1,0.4334199999993871,9,0,
XAFR1107,0,neg,120,neg120_id7_im15.bmp_neg120_id21_im16.bmp,['Im_RobertPattinson.png', 'Im_RyanGosling.png', 'Im_PatrickDempsey.png', 'Im_BradPitt.png', 'Im_DanielRadcliffe.png', 'Im_JustinTimberlake.png', 'Im_GeorgeClooney.png', 'Im_LeonardoDiCaprio.png', 'Im_RyanReynolds.png', 'Im_DanielCraig.png'],diff,1,0.8500311999996484,10,0,
XAFR1107,0,neg,30,neg30_id19_im4.bmp_neg30_id19_im8.bmp,['Im_RobertPattinson.png', 'Im_RyanGosling.png', 'Im_PatrickDempsey.png', 'Im_BradPitt.png', 'Im_DanielRadcliffe.png', 'Im_JustinTimberlake.png', 'Im_GeorgeClooney.png', 'Im_LeonardoDiCaprio.png', 'Im_RyanReynolds.png', 'Im_DanielCraig.png'],same,1,0.8085449999998673,11,0,
XAFR1107,0,neg,0,neg0_id3_im8.bmp_neg0_id3_im6.bmp,['Im_RobertPattinson.png', 'Im_RyanGosling.png', 'Im_PatrickDempsey.png', 'Im_BradPitt.png', 'Im_DanielRadcliffe.png', 'Im_JustinTimberlake.png', 'Im_GeorgeClooney.png', 'Im_LeonardoDiCaprio.png', 'Im_RyanReynolds.png', 'Im_DanielCraig.png'],same,1,0.4250124999998661,12,0,
XAFR1107,0,neg,fs,negfs_id5_im1.bmp_negfs_id10_im1.bmp,['Im_RobertPattinson.png', 'Im_RyanGosling.png', 'Im_PatrickDempsey.png', 'Im_BradPitt.png', 'Im_DanielRadcliffe.png', 'Im_JustinTimberlake.png', 'Im_GeorgeClooney.png', 'Im_LeonardoDiCaprio.png', 'Im_RyanReynolds.png', 'Im_DanielCraig.png'],diff,1,0.41675410000061675,13,0,
XAFR1107,1,neg,fs,negfs_id17_im8.bmp_negfs_id17_im9.bmp,['Im_RobertPattinson.png', 'Im_RyanGosling.png', 'Im_PatrickDempsey.png', 'Im_BradPitt.png', 'Im_DanielRadcliffe.png', 'Im_JustinTimberlake.png', 'Im_GeorgeClooney.png', 'Im_LeonardoDiCaprio.png', 'Im_RyanReynolds.png', 'Im_DanielCraig.png'],same,1,0.6169711999991705,14,0,
XAFR1107,1,neg,0,neg0_id7_im14.bmp_neg0_id4_im20.bmp,['Im_RobertPattinson.png', 'Im_RyanGosling.png', 'Im_PatrickDempsey.png', 'Im_BradPitt.png', 'Im_DanielRadcliffe.png', 'Im_JustinTimberlake.png', 'Im_GeorgeClooney.png', 'Im_LeonardoDiCaprio.png', 'Im_RyanReynolds.png', 'Im_DanielCraig.png'],diff,1,0.4251361000006,15,0,
XAFR1107,1,neg,30,neg30_id17_im8.bmp_neg30_id13_im10.bmp,['Im_RobertPattinson.png', 'Im_RyanGosling.png', 'Im_PatrickDempsey.png', 'Im_BradPitt.png', 'Im_DanielRadcliffe.png', 'Im_JustinTimberlake.png', 'Im_GeorgeClooney.png', 'Im_LeonardoDiCaprio.png', 'Im_RyanReynolds.png', 'Im_DanielCraig.png'],diff,1,0.41670759999942675,16,0,
XAFR1107,1,neg,0,neg0_id13_im10.bmp_neg0_id13_im15.bmp,['Im_RobertPattinson.png', 'Im_RyanGosling.png', 'Im_PatrickDempsey.png', 'Im_BradPitt.png', 'Im_DanielRadcliffe.png', 'Im_JustinTimberlake.png', 'Im_GeorgeClooney.png', 'Im_LeonardoDiCaprio.png', 'Im_RyanReynolds.png', 'Im_DanielCraig.png'],same,1,0.41667899999993097,17,0,
XAFR1107,1,neg,150,neg150_id5_im10.bmp_neg150_id21_im17.bmp,['Im_RobertPattinson.png', 'Im_RyanGosling.png', 'Im_PatrickDempsey.png', 'Im_BradPitt.png', 'Im_DanielRadcliffe.png', 'Im_JustinTimberlake.png', 'Im_GeorgeClooney.png', 'Im_LeonardoDiCaprio.png', 'Im_RyanReynolds.png', 'Im_DanielCraig.png'],diff,1,0.4167245999997249,18,0,
XAFR1107,1,neg,90,neg90_id5_im20.bmp_neg90_id21_im17.bmp,['Im_RobertPattinson.png', 'Im_RyanGosling.png', 'Im_PatrickDempsey.png', 'Im_BradPitt.png', 'Im_DanielRadcliffe.png', 'Im_JustinTimberlake.png', 'Im_GeorgeClooney.png', 'Im_LeonardoDiCaprio.png', 'Im_RyanReynolds.png', 'Im_DanielCraig.png'],diff,1,0.4170644000005268,19,0,
XAFR1107,1,neg,fs,negfs_id19_im27.bmp_negfs_id13_im15.bmp,['Im_RobertPattinson.png', 'Im_RyanGosling.png', 'Im_PatrickDempsey.png', 'Im_BradPitt.png', 'Im_DanielRadcliffe.png', 'Im_JustinTimberlake.png', 'Im_GeorgeClooney.png', 'Im_LeonardoDiCaprio.png', 'Im_RyanReynolds.png', 'Im_DanielCraig.png'],diff,1,0.4250396000006731,20,0,
XAFR1107,1,neg,120,neg120_id4_im15.bmp_neg120_id4_im20.bmp,['Im_RobertPattinson.png', 'Im_RyanGosling.png', 'Im_PatrickDempsey.png', 'Im_BradPitt.png', 'Im_DanielRadcliffe.png', 'Im_JustinTimberlake.png', 'Im_GeorgeClooney.png', 'Im_LeonardoDiCaprio.png', 'Im_RyanReynolds.png', 'Im_DanielCraig.png'],same,1,0.42506460000004154,21,0,
XAFR1107,1,neg,150,neg150_id19_im27.bmp_neg150_id13_im15.bmp,['Im_RobertPattinson.png', 'Im_RyanGosling.png', 'Im_PatrickDempsey.png', 'Im_BradPitt.png', 'Im_DanielRadcliffe.png', 'Im_JustinTimberlake.png', 'Im_GeorgeClooney.png', 'Im_LeonardoDiCaprio.png', 'Im_RyanReynolds.png', 'Im_DanielCraig.png'],diff,1,0.625077799999417,22,0,
XAFR1107,1,neg,120,neg120_id10_im18.bmp_neg120_id21_im22.bmp,['Im_RobertPattinson.png', 'Im_RyanGosling.png', 'Im_PatrickDempsey.png', 'Im_BradPitt.png', 'Im_DanielRadcliffe.png', 'Im_JustinTimberlake.png', 'Im_GeorgeClooney.png', 'Im_LeonardoDiCaprio.png', 'Im_RyanReynolds.png', 'Im_DanielCraig.png'],diff,1,0.425075499999366,23,0,
XAFR1107,1,neg,60,neg60_id7_im15.bmp_neg60_id7_im26.bmp,['Im_RobertPattinson.png', 'Im_RyanGosling.png', 'Im_PatrickDempsey.png', 'Im_BradPitt.png', 'Im_DanielRadcliffe.png', 'Im_JustinTimberlake.png', 'Im_GeorgeClooney.png', 'Im_LeonardoDiCaprio.png', 'Im_RyanReynolds.png', 'Im_DanielCraig.png'],same,1,0.42505220000020927,24,0,
XAFR1107,1,neg,30,neg30_id7_im26.bmp_neg30_id20_im3.bmp,['Im_RobertPattinson.png', 'Im_RyanGosling.png', 'Im_PatrickDempsey.png', 'Im_BradPitt.png', 'Im_DanielRadcliffe.png', 'Im_JustinTimberlake.png', 'Im_GeorgeClooney.png', 'Im_LeonardoDiCaprio.png', 'Im_RyanReynolds.png', 'Im_DanielCraig.png'],diff,1,0.4250261000015598,25,0,
XAFR1107,1,neg,90,neg90_id7_im15.bmp_neg90_id7_im14.bmp,['Im_RobertPattinson.png', 'Im_RyanGosling.png', 'Im_PatrickDempsey.png', 'Im_BradPitt.png', 'Im_DanielRadcliffe.png', 'Im_JustinTimberlake.png', 'Im_GeorgeClooney.png', 'Im_LeonardoDiCaprio.png', 'Im_RyanReynolds.png', 'Im_DanielCraig.png'],same,1,0.40833779999957187,26,0,
XAFR1107,1,neg,60,neg60_id7_im26.bmp_neg60_id3_im8.bmp,['Im_RobertPattinson.png', 'Im_RyanGosling.png', 'Im_PatrickDempsey.png', 'Im_BradPitt.png', 'Im_DanielRadcliffe.png', 'Im_JustinTimberlake.png', 'Im_GeorgeClooney.png', 'Im_LeonardoDiCaprio.png', 'Im_RyanReynolds.png', 'Im_DanielCraig.png'],diff,1,0.750068100000135,27,0,
XAFR1107,2,inv,60,pos60_id7_im14.bmp_pos60_id4_im20.bmp,['Im_RobertPattinson.png', 'Im_RyanGosling.png', 'Im_PatrickDempsey.png', 'Im_BradPitt.png', 'Im_DanielRadcliffe.png', 'Im_JustinTimberlake.png', 'Im_GeorgeClooney.png', 'Im_LeonardoDiCaprio.png', 'Im_RyanReynolds.png', 'Im_DanielCraig.png'],same,0,0.41670090000116033,27,0,
XAFR1107,2,inv,30,pos30_id13_im15.bmp_pos30_id19_im27.bmp,['Im_RobertPattinson.png', 'Im_RyanGosling.png', 'Im_PatrickDempsey.png', 'Im_BradPitt.png', 'Im_DanielRadcliffe.png', 'Im_JustinTimberlake.png', 'Im_GeorgeClooney.png', 'Im_LeonardoDiCaprio.png', 'Im_RyanReynolds.png', 'Im_DanielCraig.png'],same,0,0.41674069999862695,27,0,
XAFR1107,2,inv,120,pos120_id4_im7.bmp_pos120_id19_im4.bmp,['Im_RobertPattinson.png', 'Im_RyanGosling.png', 'Im_PatrickDempsey.png', 'Im_BradPitt.png', 'Im_DanielRadcliffe.png', 'Im_JustinTimberlake.png', 'Im_GeorgeClooney.png', 'Im_LeonardoDiCaprio.png', 'Im_RyanReynolds.png', 'Im_DanielCraig.png'],diff,1,0.4167682999996032,28,0,
XAFR1107,2,inv,90,pos90_id4_im20.bmp_pos90_id4_im15.bmp,['Im_RobertPattinson.png', 'Im_RyanGosling.png', 'Im_PatrickDempsey.png', 'Im_BradPitt.png', 'Im_DanielRadcliffe.png', 'Im_JustinTimberlake.png', 'Im_GeorgeClooney.png', 'Im_LeonardoDiCaprio.png', 'Im_RyanReynolds.png', 'Im_DanielCraig.png'],same,1,0.6751352999999654,29,0,
XAFR1107,2,inv,30,pos30_id20_im12.bmp_pos30_id20_im3.bmp,['Im_RobertPattinson.png', 'Im_RyanGosling.png', 'Im_PatrickDempsey.png', 'Im_BradPitt.png', 'Im_DanielRadcliffe.png', 'Im_JustinTimberlake.png', 'Im_GeorgeClooney.png', 'Im_LeonardoDiCaprio.png', 'Im_RyanReynolds.png', 'Im_DanielCraig.png'],same,1,0.6167693999996118,30,0,
XAFR1107,2,inv,120,pos120_id21_im17.bmp_pos120_id5_im10.bmp,['Im_RobertPattinson.png', 'Im_RyanGosling.png', 'Im_PatrickDempsey.png', 'Im_BradPitt.png', 'Im_DanielRadcliffe.png', 'Im_JustinTimberlake.png', 'Im_GeorgeClooney.png', 'Im_LeonardoDiCaprio.png', 'Im_RyanReynolds.png', 'Im_DanielCraig.png'],diff,1,0.4248423000008188,31,0,
XAFR1107,2,inv,0,pos0_id7_im26.bmp_pos0_id7_im15.bmp,['Im_RobertPattinson.png', 'Im_RyanGosling.png', 'Im_PatrickDempsey.png', 'Im_BradPitt.png', 'Im_DanielRadcliffe.png', 'Im_JustinTimberlake.png', 'Im_GeorgeClooney.png', 'Im_LeonardoDiCaprio.png', 'Im_RyanReynolds.png', 'Im_DanielCraig.png'],same,1,0.4418444000002637,32,0,
XAFR1107,2,inv,90,pos90_id10_im1.bmp_pos90_id5_im1.bmp,['Im_RobertPattinson.png', 'Im_RyanGosling.png', 'Im_PatrickDempsey.png', 'Im_BradPitt.png', 'Im_DanielRadcliffe.png', 'Im_JustinTimberlake.png', 'Im_GeorgeClooney.png', 'Im_LeonardoDiCaprio.png', 'Im_RyanReynolds.png', 'Im_DanielCraig.png'],diff,1,0.4166304999998829,33,0,
XAFR1107,2,inv,0,pos0_id21_im22.bmp_pos0_id21_im17.bmp,['Im_RobertPattinson.png', 'Im_RyanGosling.png', 'Im_PatrickDempsey.png', 'Im_BradPitt.png', 'Im_DanielRadcliffe.png', 'Im_JustinTimberlake.png', 'Im_GeorgeClooney.png', 'Im_LeonardoDiCaprio.png', 'Im_RyanReynolds.png', 'Im_DanielCraig.png'],same,1,0.4167693999988842,34,0,
XAFR1107,2,inv,60,pos60_id10_im17.bmp_pos60_id10_im1.bmp,['Im_RobertPattinson.png', 'Im_RyanGosling.png', 'Im_PatrickDempsey.png', 'Im_BradPitt.png', 'Im_DanielRadcliffe.png', 'Im_JustinTimberlake.png', 'Im_GeorgeClooney.png', 'Im_LeonardoDiCaprio.png', 'Im_RyanReynolds.png', 'Im_DanielCraig.png'],same,1,0.4167371000003186,35,0,
XAFR1107,2,inv,150,pos150_id21_im16.bmp_pos150_id21_im22.bmp,['Im_RobertPattinson.png', 'Im_RyanGosling.png', 'Im_PatrickDempsey.png', 'Im_BradPitt.png', 'Im_DanielRadcliffe.png', 'Im_JustinTimberlake.png', 'Im_GeorgeClooney.png', 'Im_LeonardoDiCaprio.png', 'Im_RyanReynolds.png', 'Im_DanielCraig.png'],same,1,0.4250800000008894,36,0,
XAFR1107,2,inv,fs,posfs_id17_im9.bmp_posfs_id20_im30.bmp,['Im_RobertPattinson.png', 'Im_RyanGosling.png', 'Im_PatrickDempsey.png', 'Im_BradPitt.png', 'Im_DanielRadcliffe.png', 'Im_JustinTimberlake.png', 'Im_GeorgeClooney.png', 'Im_LeonardoDiCaprio.png', 'Im_RyanReynolds.png', 'Im_DanielCraig.png'],diff,1,0.43347519999952056,37,0,
XAFR1107,2,inv,fs,posfs_id3_im17.bmp_posfs_id3_im6.bmp,['Im_RobertPattinson.png', 'Im_RyanGosling.png', 'Im_PatrickDempsey.png', 'Im_BradPitt.png', 'Im_DanielRadcliffe.png', 'Im_JustinTimberlake.png', 'Im_GeorgeClooney.png', 'Im_LeonardoDiCaprio.png', 'Im_RyanReynolds.png', 'Im_DanielCraig.png'],same,1,0.42510070000025735,38,0,
XAFR1107,2,inv,150,pos150_id3_im8.bmp_pos150_id3_im6.bmp,['Im_RobertPattinson.png', 'Im_RyanGosling.png', 'Im_PatrickDempsey.png', 'Im_BradPitt.png', 'Im_DanielRadcliffe.png', 'Im_JustinTimberlake.png', 'Im_GeorgeClooney.png', 'Im_LeonardoDiCaprio.png', 'Im_RyanReynolds.png', 'Im_DanielCraig.png'],same,1,0.4167755999988003,39,0,
XAFR1107,3,pos,90,pos90_id3_im17.bmp_pos90_id3_im8.bmp,['Im_RobertPattinson.png', 'Im_RyanGosling.png', 'Im_PatrickDempsey.png', 'Im_BradPitt.png', 'Im_DanielRadcliffe.png', 'Im_JustinTimberlake.png', 'Im_GeorgeClooney.png', 'Im_LeonardoDiCaprio.png', 'Im_RyanReynolds.png', 'Im_DanielCraig.png'],same,1,0.4250649000005069,1,92.85714285714286,
XAFR1107,3,pos,fs,posfs_id3_im8.bmp_posfs_id7_im26.bmp,['Im_RobertPattinson.png', 'Im_RyanGosling.png', 'Im_PatrickDempsey.png', 'Im_BradPitt.png', 'Im_DanielRadcliffe.png', 'Im_JustinTimberlake.png', 'Im_GeorgeClooney.png', 'Im_LeonardoDiCaprio.png', 'Im_RyanReynolds.png', 'Im_DanielCraig.png'],diff,1,0.42494149999947695,2,92.85714285714286,
XAFR1107,3,pos,120,pos120_id4_im20.bmp_pos120_id21_im22.bmp,['Im_RobertPattinson.png', 'Im_RyanGosling.png', 'Im_PatrickDempsey.png', 'Im_BradPitt.png', 'Im_DanielRadcliffe.png', 'Im_JustinTimberlake.png', 'Im_GeorgeClooney.png', 'Im_LeonardoDiCaprio.png', 'Im_RyanReynolds.png', 'Im_DanielCraig.png'],diff,1,0.4168123999988893,3,92.85714285714286,
XAFR1107,3,pos,fs,posfs_id7_im15.bmp_posfs_id7_im26.bmp,['Im_RobertPattinson.png', 'Im_RyanGosling.png', 'Im_PatrickDempsey.png', 'Im_BradPitt.png', 'Im_DanielRadcliffe.png', 'Im_JustinTimberlake.png', 'Im_GeorgeClooney.png', 'Im_LeonardoDiCaprio.png', 'Im_RyanReynolds.png', 'Im_DanielCraig.png'],same,1,0.43350939999982074,4,92.85714285714286,
XAFR1107,3,pos,60,pos60_id17_im14.bmp_pos60_id5_im20.bmp,['Im_RobertPattinson.png', 'Im_RyanGosling.png', 'Im_PatrickDempsey.png', 'Im_BradPitt.png', 'Im_DanielRadcliffe.png', 'Im_JustinTimberlake.png', 'Im_GeorgeClooney.png', 'Im_LeonardoDiCaprio.png', 'Im_RyanReynolds.png', 'Im_DanielCraig.png'],diff,1,0.4252770999992208,5,92.85714285714286,
XAFR1107,3,pos,30,pos30_id21_im17.bmp_pos30_id5_im10.bmp,['Im_RobertPattinson.png', 'Im_RyanGosling.png', 'Im_PatrickDempsey.png', 'Im_BradPitt.png', 'Im_DanielRadcliffe.png', 'Im_JustinTimberlake.png', 'Im_GeorgeClooney.png', 'Im_LeonardoDiCaprio.png', 'Im_RyanReynolds.png', 'Im_DanielCraig.png'],diff,1,0.5418078000002424,6,92.85714285714286,
XAFR1107,3,pos,30,pos30_id3_im8.bmp_pos30_id3_im6.bmp,['Im_RobertPattinson.png', 'Im_RyanGosling.png', 'Im_PatrickDempsey.png', 'Im_BradPitt.png', 'Im_DanielRadcliffe.png', 'Im_JustinTimberlake.png', 'Im_GeorgeClooney.png', 'Im_LeonardoDiCaprio.png', 'Im_RyanReynolds.png', 'Im_DanielCraig.png'],same,1,0.4251641999999265,7,92.85714285714286,
XAFR1107,3,pos,60,pos60_id7_im26.bmp_pos60_id7_im15.bmp,['Im_RobertPattinson.png', 'Im_RyanGosling.png', 'Im_PatrickDempsey.png', 'Im_BradPitt.png', 'Im_DanielRadcliffe.png', 'Im_JustinTimberlake.png', 'Im_GeorgeClooney.png', 'Im_LeonardoDiCaprio.png', 'Im_RyanReynolds.png', 'Im_DanielCraig.png'],same,1,0.42526379999981145,8,92.85714285714286,
XAFR1107,3,pos,150,pos150_id5_im10.bmp_pos150_id21_im17.bmp,['Im_RobertPattinson.png', 'Im_RyanGosling.png', 'Im_PatrickDempsey.png', 'Im_BradPitt.png', 'Im_DanielRadcliffe.png', 'Im_JustinTimberlake.png', 'Im_GeorgeClooney.png', 'Im_LeonardoDiCaprio.png', 'Im_RyanReynolds.png', 'Im_DanielCraig.png'],diff,1,0.40842890000021725,9,92.85714285714286,
XAFR1107,3,pos,0,pos0_id21_im16.bmp_pos0_id21_im17.bmp,['Im_RobertPattinson.png', 'Im_RyanGosling.png', 'Im_PatrickDempsey.png', 'Im_BradPitt.png', 'Im_DanielRadcliffe.png', 'Im_JustinTimberlake.png', 'Im_GeorgeClooney.png', 'Im_LeonardoDiCaprio.png', 'Im_RyanReynolds.png', 'Im_DanielCraig.png'],same,1,0.4166907999988325,10,92.85714285714286,
XAFR1107,3,pos,0,pos0_id19_im4.bmp_pos0_id19_im8.bmp,['Im_RobertPattinson.png', 'Im_RyanGosling.png', 'Im_PatrickDempsey.png', 'Im_BradPitt.png', 'Im_DanielRadcliffe.png', 'Im_JustinTimberlake.png', 'Im_GeorgeClooney.png', 'Im_LeonardoDiCaprio.png', 'Im_RyanReynolds.png', 'Im_DanielCraig.png'],same,1,0.4251141999993706,11,92.85714285714286,
XAFR1107,3,pos,90,pos90_id17_im9.bmp_pos90_id20_im30.bmp,['Im_RobertPattinson.png', 'Im_RyanGosling.png', 'Im_PatrickDempsey.png', 'Im_BradPitt.png', 'Im_DanielRadcliffe.png', 'Im_JustinTimberlake.png', 'Im_GeorgeClooney.png', 'Im_LeonardoDiCaprio.png', 'Im_RyanReynolds.png', 'Im_DanielCraig.png'],diff,1,0.4167183000008663,12,92.85714285714286,
XAFR1107,3,pos,120,pos120_id21_im16.bmp_pos120_id21_im22.bmp,['Im_RobertPattinson.png', 'Im_RyanGosling.png', 'Im_PatrickDempsey.png', 'Im_BradPitt.png', 'Im_DanielRadcliffe.png', 'Im_JustinTimberlake.png', 'Im_GeorgeClooney.png', 'Im_LeonardoDiCaprio.png', 'Im_RyanReynolds.png', 'Im_DanielCraig.png'],same,1,0.4250750999999582,13,92.85714285714286,
XAFR1107,3,pos,150,pos150_id19_im27.bmp_pos150_id3_im8.bmp,['Im_RobertPattinson.png', 'Im_RyanGosling.png', 'Im_PatrickDempsey.png', 'Im_BradPitt.png', 'Im_DanielRadcliffe.png', 'Im_JustinTimberlake.png', 'Im_GeorgeClooney.png', 'Im_LeonardoDiCaprio.png', 'Im_RyanReynolds.png', 'Im_DanielCraig.png'],diff,1,0.541763199998968,14,92.85714285714286,
XAFR1107,4,neg,fs,negfs_id13_im15.bmp_negfs_id20_im12.bmp,['Im_RobertPattinson.png', 'Im_RyanGosling.png', 'Im_PatrickDempsey.png', 'Im_BradPitt.png', 'Im_DanielRadcliffe.png', 'Im_JustinTimberlake.png', 'Im_GeorgeClooney.png', 'Im_LeonardoDiCaprio.png', 'Im_RyanReynolds.png', 'Im_DanielCraig.png'],diff,1,0.48366770000029646,15,92.85714285714286,
XAFR1107,4,neg,0,neg0_id4_im7.bmp_neg0_id4_im20.bmp,['Im_RobertPattinson.png', 'Im_RyanGosling.png', 'Im_PatrickDempsey.png', 'Im_BradPitt.png', 'Im_DanielRadcliffe.png', 'Im_JustinTimberlake.png', 'Im_GeorgeClooney.png', 'Im_LeonardoDiCaprio.png', 'Im_RyanReynolds.png', 'Im_DanielCraig.png'],same,1,0.4084098000002996,16,92.85714285714286,
XAFR1107,4,neg,120,neg120_id10_im18.bmp_neg120_id10_im17.bmp,['Im_RobertPattinson.png', 'Im_RyanGosling.png', 'Im_PatrickDempsey.png', 'Im_BradPitt.png', 'Im_DanielRadcliffe.png', 'Im_JustinTimberlake.png', 'Im_GeorgeClooney.png', 'Im_LeonardoDiCaprio.png', 'Im_RyanReynolds.png', 'Im_DanielCraig.png'],same,1,0.41675759999998263,17,92.85714285714286,
XAFR1107,4,neg,90,neg90_id21_im22.bmp_neg90_id21_im16.bmp,['Im_RobertPattinson.png', 'Im_RyanGosling.png', 'Im_PatrickDempsey.png', 'Im_BradPitt.png', 'Im_DanielRadcliffe.png', 'Im_JustinTimberlake.png', 'Im_GeorgeClooney.png', 'Im_LeonardoDiCaprio.png', 'Im_RyanReynolds.png', 'Im_DanielCraig.png'],same,1,0.616795899999488,18,92.85714285714286,
XAFR1107,4,neg,30,neg30_id13_im29.bmp_neg30_id13_im15.bmp,['Im_RobertPattinson.png', 'Im_RyanGosling.png', 'Im_PatrickDempsey.png', 'Im_BradPitt.png', 'Im_DanielRadcliffe.png', 'Im_JustinTimberlake.png', 'Im_GeorgeClooney.png', 'Im_LeonardoDiCaprio.png', 'Im_RyanReynolds.png', 'Im_DanielCraig.png'],diff,0,0.416860599998472,18,92.85714285714286,
XAFR1107,4,neg,60,neg60_id20_im12.bmp_neg60_id20_im3.bmp,['Im_RobertPattinson.png', 'Im_RyanGosling.png', 'Im_PatrickDempsey.png', 'Im_BradPitt.png', 'Im_DanielRadcliffe.png', 'Im_JustinTimberlake.png', 'Im_GeorgeClooney.png', 'Im_LeonardoDiCaprio.png', 'Im_RyanReynolds.png', 'Im_DanielCraig.png'],same,1,0.41668189999836613,19,92.85714285714286,
XAFR1107,4,neg,150,neg150_id4_im7.bmp_neg150_id19_im4.bmp,['Im_RobertPattinson.png', 'Im_RyanGosling.png', 'Im_PatrickDempsey.png', 'Im_BradPitt.png', 'Im_DanielRadcliffe.png', 'Im_JustinTimberlake.png', 'Im_GeorgeClooney.png', 'Im_LeonardoDiCaprio.png', 'Im_RyanReynolds.png', 'Im_DanielCraig.png'],diff,1,1.1916541000009602,20,92.85714285714286,
XAFR1107,4,neg,0,neg0_id3_im8.bmp_neg0_id19_im27.bmp,['Im_RobertPattinson.png', 'Im_RyanGosling.png', 'Im_PatrickDempsey.png', 'Im_BradPitt.png', 'Im_DanielRadcliffe.png', 'Im_JustinTimberlake.png', 'Im_GeorgeClooney.png', 'Im_LeonardoDiCaprio.png', 'Im_RyanReynolds.png', 'Im_DanielCraig.png'],diff,1,0.4165943999996671,21,92.85714285714286,
XAFR1107,4,neg,120,neg120_id5_im10.bmp_neg120_id5_im20.bmp,['Im_RobertPattinson.png', 'Im_RyanGosling.png', 'Im_PatrickDempsey.png', 'Im_BradPitt.png', 'Im_DanielRadcliffe.png', 'Im_JustinTimberlake.png', 'Im_GeorgeClooney.png', 'Im_LeonardoDiCaprio.png', 'Im_RyanReynolds.png', 'Im_DanielCraig.png'],same,1,0.4167247999994288,22,92.85714285714286,
XAFR1107,4,neg,fs,negfs_id20_im3.bmp_negfs_id20_im30.bmp,['Im_RobertPattinson.png', 'Im_RyanGosling.png', 'Im_PatrickDempsey.png', 'Im_BradPitt.png', 'Im_DanielRadcliffe.png', 'Im_JustinTimberlake.png', 'Im_GeorgeClooney.png', 'Im_LeonardoDiCaprio.png', 'Im_RyanReynolds.png', 'Im_DanielCraig.png'],same,1,0.42503410000063013,23,92.85714285714286,
XAFR1107,4,neg,30,neg30_id3_im17.bmp_neg30_id13_im29.bmp,['Im_RobertPattinson.png', 'Im_RyanGosling.png', 'Im_PatrickDempsey.png', 'Im_BradPitt.png', 'Im_DanielRadcliffe.png', 'Im_JustinTimberlake.png', 'Im_GeorgeClooney.png', 'Im_LeonardoDiCaprio.png', 'Im_RyanReynolds.png', 'Im_DanielCraig.png'],diff,1,1.5500702999997884,24,92.85714285714286,
XAFR1107,4,neg,150,neg150_id17_im14.bmp_neg150_id21_im16.bmp,['Im_RobertPattinson.png', 'Im_RyanGosling.png', 'Im_PatrickDempsey.png', 'Im_BradPitt.png', 'Im_DanielRadcliffe.png', 'Im_JustinTimberlake.png', 'Im_GeorgeClooney.png', 'Im_LeonardoDiCaprio.png', 'Im_RyanReynolds.png', 'Im_DanielCraig.png'],same,0,0.583415299999615,24,92.85714285714286,
XAFR1107,4,neg,60,neg60_id20_im30.bmp_neg60_id20_im3.bmp,['Im_RobertPattinson.png', 'Im_RyanGosling.png', 'Im_PatrickDempsey.png', 'Im_BradPitt.png', 'Im_DanielRadcliffe.png', 'Im_JustinTimberlake.png', 'Im_GeorgeClooney.png', 'Im_LeonardoDiCaprio.png', 'Im_RyanReynolds.png', 'Im_DanielCraig.png'],same,1,0.41655209999953513,25,92.85714285714286,
XAFR1107,4,neg,90,neg90_id10_im18.bmp_neg90_id13_im29.bmp,['Im_RobertPattinson.png', 'Im_RyanGosling.png', 'Im_PatrickDempsey.png', 'Im_BradPitt.png', 'Im_DanielRadcliffe.png', 'Im_JustinTimberlake.png', 'Im_GeorgeClooney.png', 'Im_LeonardoDiCaprio.png', 'Im_RyanReynolds.png', 'Im_DanielCraig.png'],diff,1,0.4248993999990489,26,92.85714285714286,
XAFR1107,5,inv,30,pos30_id21_im22.bmp_pos30_id4_im20.bmp,['Im_RobertPattinson.png', 'Im_RyanGosling.png', 'Im_PatrickDempsey.png', 'Im_BradPitt.png', 'Im_DanielRadcliffe.png', 'Im_JustinTimberlake.png', 'Im_GeorgeClooney.png', 'Im_LeonardoDiCaprio.png', 'Im_RyanReynolds.png', 'Im_DanielCraig.png'],diff,1,0.4083256000012625,27,92.85714285714286,
XAFR1107,5,inv,60,pos60_id7_im14.bmp_pos60_id17_im9.bmp,['Im_RobertPattinson.png', 'Im_RyanGosling.png', 'Im_PatrickDempsey.png', 'Im_BradPitt.png', 'Im_DanielRadcliffe.png', 'Im_JustinTimberlake.png', 'Im_GeorgeClooney.png', 'Im_LeonardoDiCaprio.png', 'Im_RyanReynolds.png', 'Im_DanielCraig.png'],same,0,0.46684859999913897,27,92.85714285714286,
XAFR1107,5,inv,120,pos120_id7_im15.bmp_pos120_id7_im14.bmp,['Im_RobertPattinson.png', 'Im_RyanGosling.png', 'Im_PatrickDempsey.png', 'Im_BradPitt.png', 'Im_DanielRadcliffe.png', 'Im_JustinTimberlake.png', 'Im_GeorgeClooney.png', 'Im_LeonardoDiCaprio.png', 'Im_RyanReynolds.png', 'Im_DanielCraig.png'],same,1,0.43351909999910276,28,92.85714285714286,
XAFR1107,5,inv,120,pos120_id17_im8.bmp_pos120_id5_im10.bmp,['Im_RobertPattinson.png', 'Im_RyanGosling.png', 'Im_PatrickDempsey.png', 'Im_BradPitt.png', 'Im_DanielRadcliffe.png', 'Im_JustinTimberlake.png', 'Im_GeorgeClooney.png', 'Im_LeonardoDiCaprio.png', 'Im_RyanReynolds.png', 'Im_DanielCraig.png'],diff,1,0.4334346999985428,29,92.85714285714286,
XAFR1107,5,inv,90,pos90_id4_im7.bmp_pos90_id19_im4.bmp,['Im_RobertPattinson.png', 'Im_RyanGosling.png', 'Im_PatrickDempsey.png', 'Im_BradPitt.png', 'Im_DanielRadcliffe.png', 'Im_JustinTimberlake.png', 'Im_GeorgeClooney.png', 'Im_LeonardoDiCaprio.png', 'Im_RyanReynolds.png', 'Im_DanielCraig.png'],diff,1,0.42498089999935473,30,92.85714285714286,
XAFR1107,5,inv,150,pos150_id7_im14.bmp_pos150_id7_im26.bmp,['Im_RobertPattinson.png', 'Im_RyanGosling.png', 'Im_PatrickDempsey.png', 'Im_BradPitt.png', 'Im_DanielRadcliffe.png', 'Im_JustinTimberlake.png', 'Im_GeorgeClooney.png', 'Im_LeonardoDiCaprio.png', 'Im_RyanReynolds.png', 'Im_DanielCraig.png'],same,1,0.4333479000015359,31,92.85714285714286,
XAFR1107,5,inv,fs,posfs_id10_im18.bmp_posfs_id10_im17.bmp,['Im_RobertPattinson.png', 'Im_RyanGosling.png', 'Im_PatrickDempsey.png', 'Im_BradPitt.png', 'Im_DanielRadcliffe.png', 'Im_JustinTimberlake.png', 'Im_GeorgeClooney.png', 'Im_LeonardoDiCaprio.png', 'Im_RyanReynolds.png', 'Im_DanielCraig.png'],same,1,0.4166140999986965,32,92.85714285714286,
XAFR1107,5,inv,60,pos60_id10_im18.bmp_pos60_id21_im22.bmp,['Im_RobertPattinson.png', 'Im_RyanGosling.png', 'Im_PatrickDempsey.png', 'Im_BradPitt.png', 'Im_DanielRadcliffe.png', 'Im_JustinTimberlake.png', 'Im_GeorgeClooney.png', 'Im_LeonardoDiCaprio.png', 'Im_RyanReynolds.png', 'Im_DanielCraig.png'],diff,1,0.4168635000005452,33,92.85714285714286,
XAFR1107,5,inv,90,pos90_id17_im14.bmp_pos90_id5_im20.bmp,['Im_RobertPattinson.png', 'Im_RyanGosling.png', 'Im_PatrickDempsey.png', 'Im_BradPitt.png', 'Im_DanielRadcliffe.png', 'Im_JustinTimberlake.png', 'Im_GeorgeClooney.png', 'Im_LeonardoDiCaprio.png', 'Im_RyanReynolds.png', 'Im_DanielCraig.png'],diff,1,0.4167379999998957,34,92.85714285714286,
XAFR1107,5,inv,150,pos150_id10_im17.bmp_pos150_id10_im1.bmp,['Im_RobertPattinson.png', 'Im_RyanGosling.png', 'Im_PatrickDempsey.png', 'Im_BradPitt.png', 'Im_DanielRadcliffe.png', 'Im_JustinTimberlake.png', 'Im_GeorgeClooney.png', 'Im_LeonardoDiCaprio.png', 'Im_RyanReynolds.png', 'Im_DanielCraig.png'],same,1,0.41673609999998007,35,92.85714285714286,
XAFR1107,5,inv,0,pos0_id4_im20.bmp_pos0_id4_im7.bmp,['Im_RobertPattinson.png', 'Im_RyanGosling.png', 'Im_PatrickDempsey.png', 'Im_BradPitt.png', 'Im_DanielRadcliffe.png', 'Im_JustinTimberlake.png', 'Im_GeorgeClooney.png', 'Im_LeonardoDiCaprio.png', 'Im_RyanReynolds.png', 'Im_DanielCraig.png'],same,1,0.4333728000001429,36,92.85714285714286,
XAFR1107,5,inv,0,pos0_id5_im20.bmp_pos0_id17_im14.bmp,['Im_RobertPattinson.png', 'Im_RyanGosling.png', 'Im_PatrickDempsey.png', 'Im_BradPitt.png', 'Im_DanielRadcliffe.png', 'Im_JustinTimberlake.png', 'Im_GeorgeClooney.png', 'Im_LeonardoDiCaprio.png', 'Im_RyanReynolds.png', 'Im_DanielCraig.png'],diff,1,0.9249746999994386,37,92.85714285714286,
XAFR1107,5,inv,fs,posfs_id5_im20.bmp_posfs_id5_im1.bmp,['Im_RobertPattinson.png', 'Im_RyanGosling.png', 'Im_PatrickDempsey.png', 'Im_BradPitt.png', 'Im_DanielRadcliffe.png', 'Im_JustinTimberlake.png', 'Im_GeorgeClooney.png', 'Im_LeonardoDiCaprio.png', 'Im_RyanReynolds.png', 'Im_DanielCraig.png'],same,1,0.7499738000005891,38,92.85714285714286,
XAFR1107,5,inv,30,pos30_id5_im20.bmp_pos30_id21_im17.bmp,['Im_RobertPattinson.png', 'Im_RyanGosling.png', 'Im_PatrickDempsey.png', 'Im_BradPitt.png', 'Im_DanielRadcliffe.png', 'Im_JustinTimberlake.png', 'Im_GeorgeClooney.png', 'Im_LeonardoDiCaprio.png', 'Im_RyanReynolds.png', 'Im_DanielCraig.png'],diff,1,0.41676689999985683,39,92.85714285714286,
XAFR1107,6,pos,0,pos0_id4_im20.bmp_pos0_id21_im22.bmp,['Im_RobertPattinson.png', 'Im_RyanGosling.png', 'Im_PatrickDempsey.png', 'Im_BradPitt.png', 'Im_DanielRadcliffe.png', 'Im_JustinTimberlake.png', 'Im_GeorgeClooney.png', 'Im_LeonardoDiCaprio.png', 'Im_RyanReynolds.png', 'Im_DanielCraig.png'],diff,1,0.43345570000019507,1,92.85714285714286,
XAFR1107,6,pos,60,pos60_id10_im1.bmp_pos60_id5_im1.bmp,['Im_RobertPattinson.png', 'Im_RyanGosling.png', 'Im_PatrickDempsey.png', 'Im_BradPitt.png', 'Im_DanielRadcliffe.png', 'Im_JustinTimberlake.png', 'Im_GeorgeClooney.png', 'Im_LeonardoDiCaprio.png', 'Im_RyanReynolds.png', 'Im_DanielCraig.png'],diff,1,0.42502910000075644,2,92.85714285714286,
XAFR1107,6,pos,90,pos90_id4_im15.bmp_pos90_id4_im7.bmp,['Im_RobertPattinson.png', 'Im_RyanGosling.png', 'Im_PatrickDempsey.png', 'Im_BradPitt.png', 'Im_DanielRadcliffe.png', 'Im_JustinTimberlake.png', 'Im_GeorgeClooney.png', 'Im_LeonardoDiCaprio.png', 'Im_RyanReynolds.png', 'Im_DanielCraig.png'],same,1,0.4167574999992212,3,92.85714285714286,
XAFR1107,6,pos,120,pos120_id17_im8.bmp_pos120_id17_im14.bmp,['Im_RobertPattinson.png', 'Im_RyanGosling.png', 'Im_PatrickDempsey.png', 'Im_BradPitt.png', 'Im_DanielRadcliffe.png', 'Im_JustinTimberlake.png', 'Im_GeorgeClooney.png', 'Im_LeonardoDiCaprio.png', 'Im_RyanReynolds.png', 'Im_DanielCraig.png'],same,1,0.41687549999915063,4,92.85714285714286,
XAFR1107,6,pos,30,pos30_id20_im12.bmp_pos30_id13_im15.bmp,['Im_RobertPattinson.png', 'Im_RyanGosling.png', 'Im_PatrickDempsey.png', 'Im_BradPitt.png', 'Im_DanielRadcliffe.png', 'Im_JustinTimberlake.png', 'Im_GeorgeClooney.png', 'Im_LeonardoDiCaprio.png', 'Im_RyanReynolds.png', 'Im_DanielCraig.png'],diff,1,1.3419552999985171,5,92.85714285714286,
XAFR1107,6,pos,150,pos150_id10_im18.bmp_pos150_id10_im17.bmp,['Im_RobertPattinson.png', 'Im_RyanGosling.png', 'Im_PatrickDempsey.png', 'Im_BradPitt.png', 'Im_DanielRadcliffe.png', 'Im_JustinTimberlake.png', 'Im_GeorgeClooney.png', 'Im_LeonardoDiCaprio.png', 'Im_RyanReynolds.png', 'Im_DanielCraig.png'],same,1,0.42514009999831615,6,92.85714285714286,
XAFR1107,6,pos,150,pos150_id7_im26.bmp_pos150_id20_im3.bmp,['Im_RobertPattinson.png', 'Im_RyanGosling.png', 'Im_PatrickDempsey.png', 'Im_BradPitt.png', 'Im_DanielRadcliffe.png', 'Im_JustinTimberlake.png', 'Im_GeorgeClooney.png', 'Im_LeonardoDiCaprio.png', 'Im_RyanReynolds.png', 'Im_DanielCraig.png'],diff,1,0.42497829999956593,7,92.85714285714286,
XAFR1107,6,pos,90,pos90_id4_im20.bmp_pos90_id4_im7.bmp,['Im_RobertPattinson.png', 'Im_RyanGosling.png', 'Im_PatrickDempsey.png', 'Im_BradPitt.png', 'Im_DanielRadcliffe.png', 'Im_JustinTimberlake.png', 'Im_GeorgeClooney.png', 'Im_LeonardoDiCaprio.png', 'Im_RyanReynolds.png', 'Im_DanielCraig.png'],same,1,0.40838390000135405,8,92.85714285714286,
XAFR1107,6,pos,fs,posfs_id3_im8.bmp_posfs_id19_im27.bmp,['Im_RobertPattinson.png', 'Im_RyanGosling.png', 'Im_PatrickDempsey.png', 'Im_BradPitt.png', 'Im_DanielRadcliffe.png', 'Im_JustinTimberlake.png', 'Im_GeorgeClooney.png', 'Im_LeonardoDiCaprio.png', 'Im_RyanReynolds.png', 'Im_DanielCraig.png'],diff,1,0.4250064999996539,9,92.85714285714286,
XAFR1107,6,pos,60,pos60_id4_im15.bmp_pos60_id4_im20.bmp,['Im_RobertPattinson.png', 'Im_RyanGosling.png', 'Im_PatrickDempsey.png', 'Im_BradPitt.png', 'Im_DanielRadcliffe.png', 'Im_JustinTimberlake.png', 'Im_GeorgeClooney.png', 'Im_LeonardoDiCaprio.png', 'Im_RyanReynolds.png', 'Im_DanielCraig.png'],same,1,0.4167254000003595,10,92.85714285714286,
XAFR1107,6,pos,0,pos0_id17_im9.bmp_pos0_id20_im30.bmp,['Im_RobertPattinson.png', 'Im_RyanGosling.png', 'Im_PatrickDempsey.png', 'Im_BradPitt.png', 'Im_DanielRadcliffe.png', 'Im_JustinTimberlake.png', 'Im_GeorgeClooney.png', 'Im_LeonardoDiCaprio.png', 'Im_RyanReynolds.png', 'Im_DanielCraig.png'],diff,1,0.4167143999984546,11,92.85714285714286,
XAFR1107,6,pos,30,pos30_id4_im20.bmp_pos30_id7_im14.bmp,['Im_RobertPattinson.png', 'Im_RyanGosling.png', 'Im_PatrickDempsey.png', 'Im_BradPitt.png', 'Im_DanielRadcliffe.png', 'Im_JustinTimberlake.png', 'Im_GeorgeClooney.png', 'Im_LeonardoDiCaprio.png', 'Im_RyanReynolds.png', 'Im_DanielCraig.png'],diff,1,0.41664510000009614,12,92.85714285714286,
XAFR1107,6,pos,fs,posfs_id10_im17.bmp_posfs_id3_im6.bmp,['Im_RobertPattinson.png', 'Im_RyanGosling.png', 'Im_PatrickDempsey.png', 'Im_BradPitt.png', 'Im_DanielRadcliffe.png', 'Im_JustinTimberlake.png', 'Im_GeorgeClooney.png', 'Im_LeonardoDiCaprio.png', 'Im_RyanReynolds.png', 'Im_DanielCraig.png'],diff,1,0.9085353999998915,13,92.85714285714286,
XAFR1107,6,pos,120,pos120_id20_im3.bmp_pos120_id7_im15.bmp,['Im_RobertPattinson.png', 'Im_RyanGosling.png', 'Im_PatrickDempsey.png', 'Im_BradPitt.png', 'Im_DanielRadcliffe.png', 'Im_JustinTimberlake.png', 'Im_GeorgeClooney.png', 'Im_LeonardoDiCaprio.png', 'Im_RyanReynolds.png', 'Im_DanielCraig.png'],diff,1,0.6167107999990549,14,92.85714285714286,
XAFR1107,7,pos,60,pos60_id7_im14.bmp_pos60_id7_im15.bmp,['Im_RobertPattinson.png', 'Im_RyanGosling.png', 'Im_PatrickDempsey.png', 'Im_BradPitt.png', 'Im_DanielRadcliffe.png', 'Im_JustinTimberlake.png', 'Im_GeorgeClooney.png', 'Im_LeonardoDiCaprio.png', 'Im_RyanReynolds.png', 'Im_DanielCraig.png'],same,1,0.42510069999843836,15,92.85714285714286,
XAFR1107,7,pos,0,pos0_id13_im10.bmp_pos0_id13_im29.bmp,['Im_RobertPattinson.png', 'Im_RyanGosling.png', 'Im_PatrickDempsey.png', 'Im_BradPitt.png', 'Im_DanielRadcliffe.png', 'Im_JustinTimberlake.png', 'Im_GeorgeClooney.png', 'Im_LeonardoDiCaprio.png', 'Im_RyanReynolds.png', 'Im_DanielCraig.png'],same,1,0.44174849999944854,16,92.85714285714286,
XAFR1107,7,pos,fs,posfs_id3_im17.bmp_posfs_id3_im6.bmp,['Im_RobertPattinson.png', 'Im_RyanGosling.png', 'Im_PatrickDempsey.png', 'Im_BradPitt.png', 'Im_DanielRadcliffe.png', 'Im_JustinTimberlake.png', 'Im_GeorgeClooney.png', 'Im_LeonardoDiCaprio.png', 'Im_RyanReynolds.png', 'Im_DanielCraig.png'],same,1,0.4167605000002368,17,92.85714285714286,
XAFR1107,7,pos,150,pos150_id4_im20.bmp_pos150_id4_im7.bmp,['Im_RobertPattinson.png', 'Im_RyanGosling.png', 'Im_PatrickDempsey.png', 'Im_BradPitt.png', 'Im_DanielRadcliffe.png', 'Im_JustinTimberlake.png', 'Im_GeorgeClooney.png', 'Im_LeonardoDiCaprio.png', 'Im_RyanReynolds.png', 'Im_DanielCraig.png'],same,1,0.4166464999998425,18,92.85714285714286,
XAFR1107,7,pos,120,pos120_id19_im27.bmp_pos120_id3_im8.bmp,['Im_RobertPattinson.png', 'Im_RyanGosling.png', 'Im_PatrickDempsey.png', 'Im_BradPitt.png', 'Im_DanielRadcliffe.png', 'Im_JustinTimberlake.png', 'Im_GeorgeClooney.png', 'Im_LeonardoDiCaprio.png', 'Im_RyanReynolds.png', 'Im_DanielCraig.png'],diff,1,0.42505030000029365,19,92.85714285714286,
XAFR1107,7,pos,90,pos90_id3_im6.bmp_pos90_id3_im17.bmp,['Im_RobertPattinson.png', 'Im_RyanGosling.png', 'Im_PatrickDempsey.png', 'Im_BradPitt.png', 'Im_DanielRadcliffe.png', 'Im_JustinTimberlake.png', 'Im_GeorgeClooney.png', 'Im_LeonardoDiCaprio.png', 'Im_RyanReynolds.png', 'Im_DanielCraig.png'],same,1,0.42514610000034736,20,92.85714285714286,
XAFR1107,7,pos,90,pos90_id20_im3.bmp_pos90_id20_im12.bmp,['Im_RobertPattinson.png', 'Im_RyanGosling.png', 'Im_PatrickDempsey.png', 'Im_BradPitt.png', 'Im_DanielRadcliffe.png', 'Im_JustinTimberlake.png', 'Im_GeorgeClooney.png', 'Im_LeonardoDiCaprio.png', 'Im_RyanReynolds.png', 'Im_DanielCraig.png'],same,1,0.4169765999995434,21,92.85714285714286,
XAFR1107,7,pos,0,pos0_id10_im17.bmp_pos0_id19_im4.bmp,['Im_RobertPattinson.png', 'Im_RyanGosling.png', 'Im_PatrickDempsey.png', 'Im_BradPitt.png', 'Im_DanielRadcliffe.png', 'Im_JustinTimberlake.png', 'Im_GeorgeClooney.png', 'Im_LeonardoDiCaprio.png', 'Im_RyanReynolds.png', 'Im_DanielCraig.png'],diff,1,0.4250601999992796,22,92.85714285714286,
XAFR1107,7,pos,60,pos60_id5_im10.bmp_pos60_id21_im17.bmp,['Im_RobertPattinson.png', 'Im_RyanGosling.png', 'Im_PatrickDempsey.png', 'Im_BradPitt.png', 'Im_DanielRadcliffe.png', 'Im_JustinTimberlake.png', 'Im_GeorgeClooney.png', 'Im_LeonardoDiCaprio.png', 'Im_RyanReynolds.png', 'Im_DanielCraig.png'],diff,1,0.42505290000008245,23,92.85714285714286,
XAFR1107,7,pos,30,pos30_id5_im10.bmp_pos30_id5_im1.bmp,['Im_RobertPattinson.png', 'Im_RyanGosling.png', 'Im_PatrickDempsey.png', 'Im_BradPitt.png', 'Im_DanielRadcliffe.png', 'Im_JustinTimberlake.png', 'Im_GeorgeClooney.png', 'Im_LeonardoDiCaprio.png', 'Im_RyanReynolds.png', 'Im_DanielCraig.png'],same,1,0.4249994000001607,24,92.85714285714286,
XAFR1107,7,pos,120,pos120_id13_im10.bmp_pos120_id17_im8.bmp,['Im_RobertPattinson.png', 'Im_RyanGosling.png', 'Im_PatrickDempsey.png', 'Im_BradPitt.png', 'Im_DanielRadcliffe.png', 'Im_JustinTimberlake.png', 'Im_GeorgeClooney.png', 'Im_LeonardoDiCaprio.png', 'Im_RyanReynolds.png', 'Im_DanielCraig.png'],diff,1,0.4251041000006808,25,92.85714285714286,
XAFR1107,7,pos,150,pos150_id4_im7.bmp_pos150_id4_im15.bmp,['Im_RobertPattinson.png', 'Im_RyanGosling.png', 'Im_PatrickDempsey.png', 'Im_BradPitt.png', 'Im_DanielRadcliffe.png', 'Im_JustinTimberlake.png', 'Im_GeorgeClooney.png', 'Im_LeonardoDiCaprio.png', 'Im_RyanReynolds.png', 'Im_DanielCraig.png'],same,1,0.4250709999996616,26,92.85714285714286,
XAFR1107,7,pos,fs,posfs_id4_im20.bmp_posfs_id4_im7.bmp,['Im_RobertPattinson.png', 'Im_RyanGosling.png', 'Im_PatrickDempsey.png', 'Im_BradPitt.png', 'Im_DanielRadcliffe.png', 'Im_JustinTimberlake.png', 'Im_GeorgeClooney.png', 'Im_LeonardoDiCaprio.png', 'Im_RyanReynolds.png', 'Im_DanielCraig.png'],same,1,0.40840380000008736,27,92.85714285714286,
XAFR1107,7,pos,30,pos30_id17_im9.bmp_pos30_id17_im8.bmp,['Im_RobertPattinson.png', 'Im_RyanGosling.png', 'Im_PatrickDempsey.png', 'Im_BradPitt.png', 'Im_DanielRadcliffe.png', 'Im_JustinTimberlake.png', 'Im_GeorgeClooney.png', 'Im_LeonardoDiCaprio.png', 'Im_RyanReynolds.png', 'Im_DanielCraig.png'],same,1,0.4167261000002327,28,92.85714285714286,
XAFR1107,8,inv,30,pos30_id19_im8.bmp_pos30_id4_im7.bmp,['Im_RobertPattinson.png', 'Im_RyanGosling.png', 'Im_PatrickDempsey.png', 'Im_BradPitt.png', 'Im_DanielRadcliffe.png', 'Im_JustinTimberlake.png', 'Im_GeorgeClooney.png', 'Im_LeonardoDiCaprio.png', 'Im_RyanReynolds.png', 'Im_DanielCraig.png'],same,0,0.4168414000014309,28,92.85714285714286,
XAFR1107,8,inv,90,pos90_id13_im10.bmp_pos90_id20_im30.bmp,['Im_RobertPattinson.png', 'Im_RyanGosling.png', 'Im_PatrickDempsey.png', 'Im_BradPitt.png', 'Im_DanielRadcliffe.png', 'Im_JustinTimberlake.png', 'Im_GeorgeClooney.png', 'Im_LeonardoDiCaprio.png', 'Im_RyanReynolds.png', 'Im_DanielCraig.png'],diff,1,0.4168117999997776,29,92.85714285714286,
XAFR1107,8,inv,0,pos0_id19_im4.bmp_pos0_id10_im17.bmp,['Im_RobertPattinson.png', 'Im_RyanGosling.png', 'Im_PatrickDempsey.png', 'Im_BradPitt.png', 'Im_DanielRadcliffe.png', 'Im_JustinTimberlake.png', 'Im_GeorgeClooney.png', 'Im_LeonardoDiCaprio.png', 'Im_RyanReynolds.png', 'Im_DanielCraig.png'],same,0,0.5751154999998107,29,92.85714285714286,
XAFR1107,8,inv,fs,posfs_id13_im10.bmp_posfs_id13_im29.bmp,['Im_RobertPattinson.png', 'Im_RyanGosling.png', 'Im_PatrickDempsey.png', 'Im_BradPitt.png', 'Im_DanielRadcliffe.png', 'Im_JustinTimberlake.png', 'Im_GeorgeClooney.png', 'Im_LeonardoDiCaprio.png', 'Im_RyanReynolds.png', 'Im_DanielCraig.png'],same,1,0.4333040000001347,30,92.85714285714286,
XAFR1107,8,inv,150,pos150_id7_im14.bmp_pos150_id17_im9.bmp,['Im_RobertPattinson.png', 'Im_RyanGosling.png', 'Im_PatrickDempsey.png', 'Im_BradPitt.png', 'Im_DanielRadcliffe.png', 'Im_JustinTimberlake.png', 'Im_GeorgeClooney.png', 'Im_LeonardoDiCaprio.png', 'Im_RyanReynolds.png', 'Im_DanielCraig.png'],diff,1,0.42510740000034275,31,92.85714285714286,
XAFR1107,8,inv,60,pos60_id5_im20.bmp_pos60_id5_im1.bmp,['Im_RobertPattinson.png', 'Im_RyanGosling.png', 'Im_PatrickDempsey.png', 'Im_BradPitt.png', 'Im_DanielRadcliffe.png', 'Im_JustinTimberlake.png', 'Im_GeorgeClooney.png', 'Im_LeonardoDiCaprio.png', 'Im_RyanReynolds.png', 'Im_DanielCraig.png'],same,1,0.43360869999924034,32,92.85714285714286,
XAFR1107,8,inv,120,pos120_id17_im14.bmp_pos120_id17_im8.bmp,['Im_RobertPattinson.png', 'Im_RyanGosling.png', 'Im_PatrickDempsey.png', 'Im_BradPitt.png', 'Im_DanielRadcliffe.png', 'Im_JustinTimberlake.png', 'Im_GeorgeClooney.png', 'Im_LeonardoDiCaprio.png', 'Im_RyanReynolds.png', 'Im_DanielCraig.png'],diff,0,0.41675000000032014,32,92.85714285714286,
XAFR1107,8,inv,150,pos150_id21_im17.bmp_pos150_id21_im22.bmp,['Im_RobertPattinson.png', 'Im_RyanGosling.png', 'Im_PatrickDempsey.png', 'Im_BradPitt.png', 'Im_DanielRadcliffe.png', 'Im_JustinTimberlake.png', 'Im_GeorgeClooney.png', 'Im_LeonardoDiCaprio.png', 'Im_RyanReynolds.png', 'Im_DanielCraig.png'],same,1,0.42505789999995613,33,92.85714285714286,
XAFR1107,8,inv,30,pos30_id17_im14.bmp_pos30_id17_im8.bmp,['Im_RobertPattinson.png', 'Im_RyanGosling.png', 'Im_PatrickDempsey.png', 'Im_BradPitt.png', 'Im_DanielRadcliffe.png', 'Im_JustinTimberlake.png', 'Im_GeorgeClooney.png', 'Im_LeonardoDiCaprio.png', 'Im_RyanReynolds.png', 'Im_DanielCraig.png'],same,1,0.45857620000060706,34,92.85714285714286,
XAFR1107,8,inv,120,pos120_id10_im18.bmp_pos120_id13_im29.bmp,['Im_RobertPattinson.png', 'Im_RyanGosling.png', 'Im_PatrickDempsey.png', 'Im_BradPitt.png', 'Im_DanielRadcliffe.png', 'Im_JustinTimberlake.png', 'Im_GeorgeClooney.png', 'Im_LeonardoDiCaprio.png', 'Im_RyanReynolds.png', 'Im_DanielCraig.png'],same,0,0.625009699999282,34,92.85714285714286,
XAFR1107,8,inv,60,pos60_id7_im26.bmp_pos60_id7_im14.bmp,['Im_RobertPattinson.png', 'Im_RyanGosling.png', 'Im_PatrickDempsey.png', 'Im_BradPitt.png', 'Im_DanielRadcliffe.png', 'Im_JustinTimberlake.png', 'Im_GeorgeClooney.png', 'Im_LeonardoDiCaprio.png', 'Im_RyanReynolds.png', 'Im_DanielCraig.png'],same,1,0.40001719999963825,35,92.85714285714286,
XAFR1107,8,inv,fs,posfs_id10_im18.bmp_posfs_id13_im29.bmp,['Im_RobertPattinson.png', 'Im_RyanGosling.png', 'Im_PatrickDempsey.png', 'Im_BradPitt.png', 'Im_DanielRadcliffe.png', 'Im_JustinTimberlake.png', 'Im_GeorgeClooney.png', 'Im_LeonardoDiCaprio.png', 'Im_RyanReynolds.png', 'Im_DanielCraig.png'],diff,1,0.5753875999998854,36,92.85714285714286,
XAFR1107,8,inv,0,pos0_id7_im26.bmp_pos0_id20_im3.bmp,['Im_RobertPattinson.png', 'Im_RyanGosling.png', 'Im_PatrickDempsey.png', 'Im_BradPitt.png', 'Im_DanielRadcliffe.png', 'Im_JustinTimberlake.png', 'Im_GeorgeClooney.png', 'Im_LeonardoDiCaprio.png', 'Im_RyanReynolds.png', 'Im_DanielCraig.png'],diff,1,0.4085406000012881,37,92.85714285714286,
XAFR1107,8,inv,90,pos90_id17_im8.bmp_pos90_id17_im9.bmp,['Im_RobertPattinson.png', 'Im_RyanGosling.png', 'Im_PatrickDempsey.png', 'Im_BradPitt.png', 'Im_DanielRadcliffe.png', 'Im_JustinTimberlake.png', 'Im_GeorgeClooney.png', 'Im_LeonardoDiCaprio.png', 'Im_RyanReynolds.png', 'Im_DanielCraig.png'],same,1,0.41675410000061675,38,92.85714285714286,
XAFR1107,9,neg,60,neg60_id3_im6.bmp_neg60_id10_im17.bmp,['Im_RobertPattinson.png', 'Im_RyanGosling.png', 'Im_PatrickDempsey.png', 'Im_BradPitt.png', 'Im_DanielRadcliffe.png', 'Im_JustinTimberlake.png', 'Im_GeorgeClooney.png', 'Im_LeonardoDiCaprio.png', 'Im_RyanReynolds.png', 'Im_DanielCraig.png'],diff,1,0.41676079999888316,1,90.47619047619048,
XAFR1107,9,neg,90,neg90_id19_im27.bmp_neg90_id13_im15.bmp,['Im_RobertPattinson.png', 'Im_RyanGosling.png', 'Im_PatrickDempsey.png', 'Im_BradPitt.png', 'Im_DanielRadcliffe.png', 'Im_JustinTimberlake.png', 'Im_GeorgeClooney.png', 'Im_LeonardoDiCaprio.png', 'Im_RyanReynolds.png', 'Im_DanielCraig.png'],same,0,0.40824910000083037,1,90.47619047619048,
XAFR1107,9,neg,120,neg120_id4_im15.bmp_neg120_id5_im1.bmp,['Im_RobertPattinson.png', 'Im_RyanGosling.png', 'Im_PatrickDempsey.png', 'Im_BradPitt.png', 'Im_DanielRadcliffe.png', 'Im_JustinTimberlake.png', 'Im_GeorgeClooney.png', 'Im_LeonardoDiCaprio.png', 'Im_RyanReynolds.png', 'Im_DanielCraig.png'],diff,1,0.42517249999946216,2,90.47619047619048,
XAFR1107,9,neg,fs,negfs_id5_im20.bmp_negfs_id5_im1.bmp,['Im_RobertPattinson.png', 'Im_RyanGosling.png', 'Im_PatrickDempsey.png', 'Im_BradPitt.png', 'Im_DanielRadcliffe.png', 'Im_JustinTimberlake.png', 'Im_GeorgeClooney.png', 'Im_LeonardoDiCaprio.png', 'Im_RyanReynolds.png', 'Im_DanielCraig.png'],same,1,0.43337590000010096,3,90.47619047619048,
XAFR1107,9,neg,fs,negfs_id13_im29.bmp_negfs_id13_im10.bmp,['Im_RobertPattinson.png', 'Im_RyanGosling.png', 'Im_PatrickDempsey.png', 'Im_BradPitt.png', 'Im_DanielRadcliffe.png', 'Im_JustinTimberlake.png', 'Im_GeorgeClooney.png', 'Im_LeonardoDiCaprio.png', 'Im_RyanReynolds.png', 'Im_DanielCraig.png'],same,1,0.4250246999999945,4,90.47619047619048,
XAFR1107,9,neg,0,neg0_id4_im15.bmp_neg0_id5_im1.bmp,['Im_RobertPattinson.png', 'Im_RyanGosling.png', 'Im_PatrickDempsey.png', 'Im_BradPitt.png', 'Im_DanielRadcliffe.png', 'Im_JustinTimberlake.png', 'Im_GeorgeClooney.png', 'Im_LeonardoDiCaprio.png', 'Im_RyanReynolds.png', 'Im_DanielCraig.png'],diff,1,0.43334649999997055,5,90.47619047619048,
XAFR1107,9,neg,60,neg60_id17_im9.bmp_neg60_id7_im14.bmp,['Im_RobertPattinson.png', 'Im_RyanGosling.png', 'Im_PatrickDempsey.png', 'Im_BradPitt.png', 'Im_DanielRadcliffe.png', 'Im_JustinTimberlake.png', 'Im_GeorgeClooney.png', 'Im_LeonardoDiCaprio.png', 'Im_RyanReynolds.png', 'Im_DanielCraig.png'],diff,1,0.4167445000002772,6,90.47619047619048,
XAFR1107,9,neg,120,neg120_id4_im7.bmp_neg120_id19_im8.bmp,['Im_RobertPattinson.png', 'Im_RyanGosling.png', 'Im_PatrickDempsey.png', 'Im_BradPitt.png', 'Im_DanielRadcliffe.png', 'Im_JustinTimberlake.png', 'Im_GeorgeClooney.png', 'Im_LeonardoDiCaprio.png', 'Im_RyanReynolds.png', 'Im_DanielCraig.png'],diff,1,0.4834850999995979,7,90.47619047619048,
XAFR1107,9,neg,150,neg150_id17_im14.bmp_neg150_id5_im20.bmp,['Im_RobertPattinson.png', 'Im_RyanGosling.png', 'Im_PatrickDempsey.png', 'Im_BradPitt.png', 'Im_DanielRadcliffe.png', 'Im_JustinTimberlake.png', 'Im_GeorgeClooney.png', 'Im_LeonardoDiCaprio.png', 'Im_RyanReynolds.png', 'Im_DanielCraig.png'],diff,1,0.4504897999995592,8,90.47619047619048,
XAFR1107,9,neg,30,neg30_id17_im8.bmp_neg30_id5_im10.bmp,['Im_RobertPattinson.png', 'Im_RyanGosling.png', 'Im_PatrickDempsey.png', 'Im_BradPitt.png', 'Im_DanielRadcliffe.png', 'Im_JustinTimberlake.png', 'Im_GeorgeClooney.png', 'Im_LeonardoDiCaprio.png', 'Im_RyanReynolds.png', 'Im_DanielCraig.png'],same,0,1.1750462999989395,8,90.47619047619048,
XAFR1107,9,neg,30,neg30_id17_im9.bmp_neg30_id17_im14.bmp,['Im_RobertPattinson.png', 'Im_RyanGosling.png', 'Im_PatrickDempsey.png', 'Im_BradPitt.png', 'Im_DanielRadcliffe.png', 'Im_JustinTimberlake.png', 'Im_GeorgeClooney.png', 'Im_LeonardoDiCaprio.png', 'Im_RyanReynolds.png', 'Im_DanielCraig.png'],same,1,0.42529040000044915,9,90.47619047619048,
XAFR1107,9,neg,150,neg150_id17_im9.bmp_neg150_id17_im14.bmp,['Im_RobertPattinson.png', 'Im_RyanGosling.png', 'Im_PatrickDempsey.png', 'Im_BradPitt.png', 'Im_DanielRadcliffe.png', 'Im_JustinTimberlake.png', 'Im_GeorgeClooney.png', 'Im_LeonardoDiCaprio.png', 'Im_RyanReynolds.png', 'Im_DanielCraig.png'],same,1,0.41662429999996675,10,90.47619047619048,
XAFR1107,9,neg,0,neg0_id4_im7.bmp_neg0_id19_im4.bmp,['Im_RobertPattinson.png', 'Im_RyanGosling.png', 'Im_PatrickDempsey.png', 'Im_BradPitt.png', 'Im_DanielRadcliffe.png', 'Im_JustinTimberlake.png', 'Im_GeorgeClooney.png', 'Im_LeonardoDiCaprio.png', 'Im_RyanReynolds.png', 'Im_DanielCraig.png'],diff,1,2.274938900000052,11,90.47619047619048,
XAFR1107,9,neg,90,neg90_id21_im22.bmp_neg90_id4_im20.bmp,['Im_RobertPattinson.png', 'Im_RyanGosling.png', 'Im_PatrickDempsey.png', 'Im_BradPitt.png', 'Im_DanielRadcliffe.png', 'Im_JustinTimberlake.png', 'Im_GeorgeClooney.png', 'Im_LeonardoDiCaprio.png', 'Im_RyanReynolds.png', 'Im_DanielCraig.png'],diff,1,0.42519460000039544,12,90.47619047619048,
XAFR1107,10,pos,0,pos0_id7_im26.bmp_pos0_id3_im8.bmp,['Im_RobertPattinson.png', 'Im_RyanGosling.png', 'Im_PatrickDempsey.png', 'Im_BradPitt.png', 'Im_DanielRadcliffe.png', 'Im_JustinTimberlake.png', 'Im_GeorgeClooney.png', 'Im_LeonardoDiCaprio.png', 'Im_RyanReynolds.png', 'Im_DanielCraig.png'],diff,1,0.41666340000119817,13,90.47619047619048,
XAFR1107,10,pos,fs,posfs_id13_im15.bmp_posfs_id20_im12.bmp,['Im_RobertPattinson.png', 'Im_RyanGosling.png', 'Im_PatrickDempsey.png', 'Im_BradPitt.png', 'Im_DanielRadcliffe.png', 'Im_JustinTimberlake.png', 'Im_GeorgeClooney.png', 'Im_LeonardoDiCaprio.png', 'Im_RyanReynolds.png', 'Im_DanielCraig.png'],diff,1,0.41690640000160784,14,90.47619047619048,
XAFR1107,10,pos,30,pos30_id4_im15.bmp_pos30_id4_im7.bmp,['Im_RobertPattinson.png', 'Im_RyanGosling.png', 'Im_PatrickDempsey.png', 'Im_BradPitt.png', 'Im_DanielRadcliffe.png', 'Im_JustinTimberlake.png', 'Im_GeorgeClooney.png', 'Im_LeonardoDiCaprio.png', 'Im_RyanReynolds.png', 'Im_DanielCraig.png'],same,1,0.41665090000060445,15,90.47619047619048,
XAFR1107,10,pos,120,pos120_id3_im6.bmp_pos120_id19_im8.bmp,['Im_RobertPattinson.png', 'Im_RyanGosling.png', 'Im_PatrickDempsey.png', 'Im_BradPitt.png', 'Im_DanielRadcliffe.png', 'Im_JustinTimberlake.png', 'Im_GeorgeClooney.png', 'Im_LeonardoDiCaprio.png', 'Im_RyanReynolds.png', 'Im_DanielCraig.png'],diff,1,0.4085006000004796,16,90.47619047619048,
XAFR1107,10,pos,90,pos90_id17_im9.bmp_pos90_id17_im8.bmp,['Im_RobertPattinson.png', 'Im_RyanGosling.png', 'Im_PatrickDempsey.png', 'Im_BradPitt.png', 'Im_DanielRadcliffe.png', 'Im_JustinTimberlake.png', 'Im_GeorgeClooney.png', 'Im_LeonardoDiCaprio.png', 'Im_RyanReynolds.png', 'Im_DanielCraig.png'],same,1,0.7333914000009827,17,90.47619047619048,
XAFR1107,10,pos,120,pos120_id19_im27.bmp_pos120_id13_im15.bmp,['Im_RobertPattinson.png', 'Im_RyanGosling.png', 'Im_PatrickDempsey.png', 'Im_BradPitt.png', 'Im_DanielRadcliffe.png', 'Im_JustinTimberlake.png', 'Im_GeorgeClooney.png', 'Im_LeonardoDiCaprio.png', 'Im_RyanReynolds.png', 'Im_DanielCraig.png'],diff,1,0.41695380000055593,18,90.47619047619048,
XAFR1107,10,pos,90,pos90_id20_im12.bmp_pos90_id4_im15.bmp,['Im_RobertPattinson.png', 'Im_RyanGosling.png', 'Im_PatrickDempsey.png', 'Im_BradPitt.png', 'Im_DanielRadcliffe.png', 'Im_JustinTimberlake.png', 'Im_GeorgeClooney.png', 'Im_LeonardoDiCaprio.png', 'Im_RyanReynolds.png', 'Im_DanielCraig.png'],diff,1,0.8669169000004331,19,90.47619047619048,
XAFR1107,10,pos,60,pos60_id20_im3.bmp_pos60_id20_im30.bmp,['Im_RobertPattinson.png', 'Im_RyanGosling.png', 'Im_PatrickDempsey.png', 'Im_BradPitt.png', 'Im_DanielRadcliffe.png', 'Im_JustinTimberlake.png', 'Im_GeorgeClooney.png', 'Im_LeonardoDiCaprio.png', 'Im_RyanReynolds.png', 'Im_DanielCraig.png'],same,1,0.41670540000086476,20,90.47619047619048,
XAFR1107,10,pos,150,pos150_id7_im15.bmp_pos150_id7_im14.bmp,['Im_RobertPattinson.png', 'Im_RyanGosling.png', 'Im_PatrickDempsey.png', 'Im_BradPitt.png', 'Im_DanielRadcliffe.png', 'Im_JustinTimberlake.png', 'Im_GeorgeClooney.png', 'Im_LeonardoDiCaprio.png', 'Im_RyanReynolds.png', 'Im_DanielCraig.png'],same,1,0.4168688999998267,21,90.47619047619048,
XAFR1107,10,pos,fs,posfs_id17_im8.bmp_posfs_id5_im10.bmp,['Im_RobertPattinson.png', 'Im_RyanGosling.png', 'Im_PatrickDempsey.png', 'Im_BradPitt.png', 'Im_DanielRadcliffe.png', 'Im_JustinTimberlake.png', 'Im_GeorgeClooney.png', 'Im_LeonardoDiCaprio.png', 'Im_RyanReynolds.png', 'Im_DanielCraig.png'],diff,1,0.41673529999934544,22,90.47619047619048,
XAFR1107,10,pos,150,pos150_id7_im15.bmp_pos150_id20_im3.bmp,['Im_RobertPattinson.png', 'Im_RyanGosling.png', 'Im_PatrickDempsey.png', 'Im_BradPitt.png', 'Im_DanielRadcliffe.png', 'Im_JustinTimberlake.png', 'Im_GeorgeClooney.png', 'Im_LeonardoDiCaprio.png', 'Im_RyanReynolds.png', 'Im_DanielCraig.png'],diff,1,0.42504100000041944,23,90.47619047619048,
XAFR1107,10,pos,60,pos60_id20_im3.bmp_pos60_id7_im26.bmp,['Im_RobertPattinson.png', 'Im_RyanGosling.png', 'Im_PatrickDempsey.png', 'Im_BradPitt.png', 'Im_DanielRadcliffe.png', 'Im_JustinTimberlake.png', 'Im_GeorgeClooney.png', 'Im_LeonardoDiCaprio.png', 'Im_RyanReynolds.png', 'Im_DanielCraig.png'],diff,1,0.42508529999940947,24,90.47619047619048,
XAFR1107,10,pos,0,pos0_id20_im3.bmp_pos0_id7_im15.bmp,['Im_RobertPattinson.png', 'Im_RyanGosling.png', 'Im_PatrickDempsey.png', 'Im_BradPitt.png', 'Im_DanielRadcliffe.png', 'Im_JustinTimberlake.png', 'Im_GeorgeClooney.png', 'Im_LeonardoDiCaprio.png', 'Im_RyanReynolds.png', 'Im_DanielCraig.png'],diff,1,0.8749965000006341,25,90.47619047619048,
XAFR1107,10,pos,30,pos30_id5_im1.bmp_pos30_id4_im15.bmp,['Im_RobertPattinson.png', 'Im_RyanGosling.png', 'Im_PatrickDempsey.png', 'Im_BradPitt.png', 'Im_DanielRadcliffe.png', 'Im_JustinTimberlake.png', 'Im_GeorgeClooney.png', 'Im_LeonardoDiCaprio.png', 'Im_RyanReynolds.png', 'Im_DanielCraig.png'],diff,1,0.5832915999999386,26,90.47619047619048,
XAFR1107,11,inv,150,pos150_id7_im15.bmp_pos150_id20_im3.bmp,['Im_RobertPattinson.png', 'Im_RyanGosling.png', 'Im_PatrickDempsey.png', 'Im_BradPitt.png', 'Im_DanielRadcliffe.png', 'Im_JustinTimberlake.png', 'Im_GeorgeClooney.png', 'Im_LeonardoDiCaprio.png', 'Im_RyanReynolds.png', 'Im_DanielCraig.png'],diff,1,0.4166610000011133,27,90.47619047619048,
XAFR1107,11,inv,60,pos60_id7_im14.bmp_pos60_id7_im15.bmp,['Im_RobertPattinson.png', 'Im_RyanGosling.png', 'Im_PatrickDempsey.png', 'Im_BradPitt.png', 'Im_DanielRadcliffe.png', 'Im_JustinTimberlake.png', 'Im_GeorgeClooney.png', 'Im_LeonardoDiCaprio.png', 'Im_RyanReynolds.png', 'Im_DanielCraig.png'],same,1,0.4250088999997388,28,90.47619047619048,
XAFR1107,11,inv,120,pos120_id3_im8.bmp_pos120_id3_im6.bmp,['Im_RobertPattinson.png', 'Im_RyanGosling.png', 'Im_PatrickDempsey.png', 'Im_BradPitt.png', 'Im_DanielRadcliffe.png', 'Im_JustinTimberlake.png', 'Im_GeorgeClooney.png', 'Im_LeonardoDiCaprio.png', 'Im_RyanReynolds.png', 'Im_DanielCraig.png'],same,1,0.48319550000087474,29,90.47619047619048,
XAFR1107,11,inv,120,pos120_id20_im3.bmp_pos120_id20_im30.bmp,['Im_RobertPattinson.png', 'Im_RyanGosling.png', 'Im_PatrickDempsey.png', 'Im_BradPitt.png', 'Im_DanielRadcliffe.png', 'Im_JustinTimberlake.png', 'Im_GeorgeClooney.png', 'Im_LeonardoDiCaprio.png', 'Im_RyanReynolds.png', 'Im_DanielCraig.png'],same,1,0.4166361000006873,30,90.47619047619048,
XAFR1107,11,inv,60,pos60_id21_im17.bmp_pos60_id5_im10.bmp,['Im_RobertPattinson.png', 'Im_RyanGosling.png', 'Im_PatrickDempsey.png', 'Im_BradPitt.png', 'Im_DanielRadcliffe.png', 'Im_JustinTimberlake.png', 'Im_GeorgeClooney.png', 'Im_LeonardoDiCaprio.png', 'Im_RyanReynolds.png', 'Im_DanielCraig.png'],diff,1,0.41695699999945646,31,90.47619047619048,
XAFR1107,11,inv,fs,posfs_id13_im29.bmp_posfs_id3_im17.bmp,['Im_RobertPattinson.png', 'Im_RyanGosling.png', 'Im_PatrickDempsey.png', 'Im_BradPitt.png', 'Im_DanielRadcliffe.png', 'Im_JustinTimberlake.png', 'Im_GeorgeClooney.png', 'Im_LeonardoDiCaprio.png', 'Im_RyanReynolds.png', 'Im_DanielCraig.png'],diff,1,0.42518900000141,32,90.47619047619048,
XAFR1107,11,inv,30,pos30_id19_im8.bmp_pos30_id3_im6.bmp,['Im_RobertPattinson.png', 'Im_RyanGosling.png', 'Im_PatrickDempsey.png', 'Im_BradPitt.png', 'Im_DanielRadcliffe.png', 'Im_JustinTimberlake.png', 'Im_GeorgeClooney.png', 'Im_LeonardoDiCaprio.png', 'Im_RyanReynolds.png', 'Im_DanielCraig.png'],same,0,0.458586100001412,32,90.47619047619048,
XAFR1107,11,inv,90,pos90_id4_im15.bmp_pos90_id4_im7.bmp,['Im_RobertPattinson.png', 'Im_RyanGosling.png', 'Im_PatrickDempsey.png', 'Im_BradPitt.png', 'Im_DanielRadcliffe.png', 'Im_JustinTimberlake.png', 'Im_GeorgeClooney.png', 'Im_LeonardoDiCaprio.png', 'Im_RyanReynolds.png', 'Im_DanielCraig.png'],same,1,0.42499429999952554,33,90.47619047619048,
XAFR1107,11,inv,30,pos30_id5_im10.bmp_pos30_id21_im17.bmp,['Im_RobertPattinson.png', 'Im_RyanGosling.png', 'Im_PatrickDempsey.png', 'Im_BradPitt.png', 'Im_DanielRadcliffe.png', 'Im_JustinTimberlake.png', 'Im_GeorgeClooney.png', 'Im_LeonardoDiCaprio.png', 'Im_RyanReynolds.png', 'Im_DanielCraig.png'],diff,1,0.41664529999980005,34,90.47619047619048,
XAFR1107,11,inv,0,pos0_id13_im29.bmp_pos0_id3_im17.bmp,['Im_RobertPattinson.png', 'Im_RyanGosling.png', 'Im_PatrickDempsey.png', 'Im_BradPitt.png', 'Im_DanielRadcliffe.png', 'Im_JustinTimberlake.png', 'Im_GeorgeClooney.png', 'Im_LeonardoDiCaprio.png', 'Im_RyanReynolds.png', 'Im_DanielCraig.png'],diff,1,0.4168828999991092,35,90.47619047619048,
XAFR1107,11,inv,150,pos150_id10_im18.bmp_pos150_id10_im1.bmp,['Im_RobertPattinson.png', 'Im_RyanGosling.png', 'Im_PatrickDempsey.png', 'Im_BradPitt.png', 'Im_DanielRadcliffe.png', 'Im_JustinTimberlake.png', 'Im_GeorgeClooney.png', 'Im_LeonardoDiCaprio.png', 'Im_RyanReynolds.png', 'Im_DanielCraig.png'],same,1,0.4166503999986162,36,90.47619047619048,
XAFR1107,11,inv,fs,posfs_id4_im7.bmp_posfs_id19_im4.bmp,['Im_RobertPattinson.png', 'Im_RyanGosling.png', 'Im_PatrickDempsey.png', 'Im_BradPitt.png', 'Im_DanielRadcliffe.png', 'Im_JustinTimberlake.png', 'Im_GeorgeClooney.png', 'Im_LeonardoDiCaprio.png', 'Im_RyanReynolds.png', 'Im_DanielCraig.png'],diff,1,0.4167468000014196,37,90.47619047619048,
XAFR1107,11,inv,0,pos0_id7_im26.bmp_pos0_id7_im14.bmp,['Im_RobertPattinson.png', 'Im_RyanGosling.png', 'Im_PatrickDempsey.png', 'Im_BradPitt.png', 'Im_DanielRadcliffe.png', 'Im_JustinTimberlake.png', 'Im_GeorgeClooney.png', 'Im_LeonardoDiCaprio.png', 'Im_RyanReynolds.png', 'Im_DanielCraig.png'],same,1,0.41672189999917464,38,90.47619047619048,
XAFR1107,11,inv,90,pos90_id4_im15.bmp_pos90_id20_im12.bmp,['Im_RobertPattinson.png', 'Im_RyanGosling.png', 'Im_PatrickDempsey.png', 'Im_BradPitt.png', 'Im_DanielRadcliffe.png', 'Im_JustinTimberlake.png', 'Im_GeorgeClooney.png', 'Im_LeonardoDiCaprio.png', 'Im_RyanReynolds.png', 'Im_DanielCraig.png'],same,0,0.4250633999999991,38,90.47619047619048,
XAFR1107,12,neg,120,neg120_id13_im29.bmp_neg120_id3_im17.bmp,['Im_RobertPattinson.png', 'Im_RyanGosling.png', 'Im_PatrickDempsey.png', 'Im_BradPitt.png', 'Im_DanielRadcliffe.png', 'Im_JustinTimberlake.png', 'Im_GeorgeClooney.png', 'Im_LeonardoDiCaprio.png', 'Im_RyanReynolds.png', 'Im_DanielCraig.png'],diff,1,0.4083671999997023,1,90.47619047619048,
XAFR1107,12,neg,0,neg0_id20_im3.bmp_neg0_id7_im26.bmp,['Im_RobertPattinson.png', 'Im_RyanGosling.png', 'Im_PatrickDempsey.png', 'Im_BradPitt.png', 'Im_DanielRadcliffe.png', 'Im_JustinTimberlake.png', 'Im_GeorgeClooney.png', 'Im_LeonardoDiCaprio.png', 'Im_RyanReynolds.png', 'Im_DanielCraig.png'],diff,1,0.4250644000003376,2,90.47619047619048,
XAFR1107,12,neg,0,neg0_id7_im14.bmp_neg0_id7_im26.bmp,['Im_RobertPattinson.png', 'Im_RyanGosling.png', 'Im_PatrickDempsey.png', 'Im_BradPitt.png', 'Im_DanielRadcliffe.png', 'Im_JustinTimberlake.png', 'Im_GeorgeClooney.png', 'Im_LeonardoDiCaprio.png', 'Im_RyanReynolds.png', 'Im_DanielCraig.png'],diff,0,0.4166201000007277,2,90.47619047619048,
XAFR1107,12,neg,30,neg30_id5_im1.bmp_neg30_id4_im15.bmp,['Im_RobertPattinson.png', 'Im_RyanGosling.png', 'Im_PatrickDempsey.png', 'Im_BradPitt.png', 'Im_DanielRadcliffe.png', 'Im_JustinTimberlake.png', 'Im_GeorgeClooney.png', 'Im_LeonardoDiCaprio.png', 'Im_RyanReynolds.png', 'Im_DanielCraig.png'],diff,1,0.4250919999994949,3,90.47619047619048,
XAFR1107,12,neg,fs,negfs_id7_im14.bmp_negfs_id17_im9.bmp,['Im_RobertPattinson.png', 'Im_RyanGosling.png', 'Im_PatrickDempsey.png', 'Im_BradPitt.png', 'Im_DanielRadcliffe.png', 'Im_JustinTimberlake.png', 'Im_GeorgeClooney.png', 'Im_LeonardoDiCaprio.png', 'Im_RyanReynolds.png', 'Im_DanielCraig.png'],diff,1,0.45854549999967276,4,90.47619047619048,
XAFR1107,12,neg,120,neg120_id19_im8.bmp_neg120_id3_im6.bmp,['Im_RobertPattinson.png', 'Im_RyanGosling.png', 'Im_PatrickDempsey.png', 'Im_BradPitt.png', 'Im_DanielRadcliffe.png', 'Im_JustinTimberlake.png', 'Im_GeorgeClooney.png', 'Im_LeonardoDiCaprio.png', 'Im_RyanReynolds.png', 'Im_DanielCraig.png'],diff,1,0.7750052000010328,5,90.47619047619048,
XAFR1107,12,neg,60,neg60_id5_im1.bmp_neg60_id4_im15.bmp,['Im_RobertPattinson.png', 'Im_RyanGosling.png', 'Im_PatrickDempsey.png', 'Im_BradPitt.png', 'Im_DanielRadcliffe.png', 'Im_JustinTimberlake.png', 'Im_GeorgeClooney.png', 'Im_LeonardoDiCaprio.png', 'Im_RyanReynolds.png', 'Im_DanielCraig.png'],same,0,0.48359979999986535,5,90.47619047619048,
XAFR1107,12,neg,90,neg90_id7_im26.bmp_neg90_id3_im8.bmp,['Im_RobertPattinson.png', 'Im_RyanGosling.png', 'Im_PatrickDempsey.png', 'Im_BradPitt.png', 'Im_DanielRadcliffe.png', 'Im_JustinTimberlake.png', 'Im_GeorgeClooney.png', 'Im_LeonardoDiCaprio.png', 'Im_RyanReynolds.png', 'Im_DanielCraig.png'],diff,1,0.42527870000049006,6,90.47619047619048,
XAFR1107,12,neg,150,neg150_id13_im29.bmp_neg150_id13_im15.bmp,['Im_RobertPattinson.png', 'Im_RyanGosling.png', 'Im_PatrickDempsey.png', 'Im_BradPitt.png', 'Im_DanielRadcliffe.png', 'Im_JustinTimberlake.png', 'Im_GeorgeClooney.png', 'Im_LeonardoDiCaprio.png', 'Im_RyanReynolds.png', 'Im_DanielCraig.png'],same,1,0.4167520000009972,7,90.47619047619048,
XAFR1107,12,neg,60,neg60_id5_im20.bmp_neg60_id21_im17.bmp,['Im_RobertPattinson.png', 'Im_RyanGosling.png', 'Im_PatrickDempsey.png', 'Im_BradPitt.png', 'Im_DanielRadcliffe.png', 'Im_JustinTimberlake.png', 'Im_GeorgeClooney.png', 'Im_LeonardoDiCaprio.png', 'Im_RyanReynolds.png', 'Im_DanielCraig.png'],diff,1,0.41657280000072205,8,90.47619047619048,
XAFR1107,12,neg,150,neg150_id7_im15.bmp_neg150_id7_im14.bmp,['Im_RobertPattinson.png', 'Im_RyanGosling.png', 'Im_PatrickDempsey.png', 'Im_BradPitt.png', 'Im_DanielRadcliffe.png', 'Im_JustinTimberlake.png', 'Im_GeorgeClooney.png', 'Im_LeonardoDiCaprio.png', 'Im_RyanReynolds.png', 'Im_DanielCraig.png'],diff,0,0.4167128999997658,8,90.47619047619048,
XAFR1107,12,neg,30,neg30_id20_im3.bmp_neg30_id20_im30.bmp,['Im_RobertPattinson.png', 'Im_RyanGosling.png', 'Im_PatrickDempsey.png', 'Im_BradPitt.png', 'Im_DanielRadcliffe.png', 'Im_JustinTimberlake.png', 'Im_GeorgeClooney.png', 'Im_LeonardoDiCaprio.png', 'Im_RyanReynolds.png', 'Im_DanielCraig.png'],same,1,0.4334078000010777,9,90.47619047619048,
XAFR1107,12,neg,fs,negfs_id7_im15.bmp_negfs_id20_im3.bmp,['Im_RobertPattinson.png', 'Im_RyanGosling.png', 'Im_PatrickDempsey.png', 'Im_BradPitt.png', 'Im_DanielRadcliffe.png', 'Im_JustinTimberlake.png', 'Im_GeorgeClooney.png', 'Im_LeonardoDiCaprio.png', 'Im_RyanReynolds.png', 'Im_DanielCraig.png'],diff,1,0.4250952000002144,10,90.47619047619048,
XAFR1107,12,neg,90,neg90_id10_im17.bmp_neg90_id10_im1.bmp,['Im_RobertPattinson.png', 'Im_RyanGosling.png', 'Im_PatrickDempsey.png', 'Im_BradPitt.png', 'Im_DanielRadcliffe.png', 'Im_JustinTimberlake.png', 'Im_GeorgeClooney.png', 'Im_LeonardoDiCaprio.png', 'Im_RyanReynolds.png', 'Im_DanielCraig.png'],same,1,0.416699499999595,11,90.47619047619048,
XAFR1107,13,inv,0,pos0_id7_im15.bmp_pos0_id20_im3.bmp,['Im_RobertPattinson.png', 'Im_RyanGosling.png', 'Im_PatrickDempsey.png', 'Im_BradPitt.png', 'Im_DanielRadcliffe.png', 'Im_JustinTimberlake.png', 'Im_GeorgeClooney.png', 'Im_LeonardoDiCaprio.png', 'Im_RyanReynolds.png', 'Im_DanielCraig.png'],diff,1,0.4169051999997464,12,90.47619047619048,
XAFR1107,13,inv,90,pos90_id20_im3.bmp_pos90_id7_im15.bmp,['Im_RobertPattinson.png', 'Im_RyanGosling.png', 'Im_PatrickDempsey.png', 'Im_BradPitt.png', 'Im_DanielRadcliffe.png', 'Im_JustinTimberlake.png', 'Im_GeorgeClooney.png', 'Im_LeonardoDiCaprio.png', 'Im_RyanReynolds.png', 'Im_DanielCraig.png'],same,0,0.508413899999141,12,90.47619047619048,
XAFR1107,13,inv,0,pos0_id5_im20.bmp_pos0_id5_im1.bmp,['Im_RobertPattinson.png', 'Im_RyanGosling.png', 'Im_PatrickDempsey.png', 'Im_BradPitt.png', 'Im_DanielRadcliffe.png', 'Im_JustinTimberlake.png', 'Im_GeorgeClooney.png', 'Im_LeonardoDiCaprio.png', 'Im_RyanReynolds.png', 'Im_DanielCraig.png'],same,1,0.9669499000010546,13,90.47619047619048,
XAFR1107,13,inv,30,pos30_id4_im15.bmp_pos30_id5_im1.bmp,['Im_RobertPattinson.png', 'Im_RyanGosling.png', 'Im_PatrickDempsey.png', 'Im_BradPitt.png', 'Im_DanielRadcliffe.png', 'Im_JustinTimberlake.png', 'Im_GeorgeClooney.png', 'Im_LeonardoDiCaprio.png', 'Im_RyanReynolds.png', 'Im_DanielCraig.png'],diff,1,0.4666973000003054,14,90.47619047619048,
XAFR1107,13,inv,120,pos120_id13_im10.bmp_pos120_id17_im8.bmp,['Im_RobertPattinson.png', 'Im_RyanGosling.png', 'Im_PatrickDempsey.png', 'Im_BradPitt.png', 'Im_DanielRadcliffe.png', 'Im_JustinTimberlake.png', 'Im_GeorgeClooney.png', 'Im_LeonardoDiCaprio.png', 'Im_RyanReynolds.png', 'Im_DanielCraig.png'],diff,1,0.5919004999996105,15,90.47619047619048,
XAFR1107,13,inv,150,pos150_id19_im4.bmp_pos150_id19_im27.bmp,['Im_RobertPattinson.png', 'Im_RyanGosling.png', 'Im_PatrickDempsey.png', 'Im_BradPitt.png', 'Im_DanielRadcliffe.png', 'Im_JustinTimberlake.png', 'Im_GeorgeClooney.png', 'Im_LeonardoDiCaprio.png', 'Im_RyanReynolds.png', 'Im_DanielCraig.png'],diff,0,0.7333708999994997,15,90.47619047619048,
XAFR1107,13,inv,30,pos30_id5_im1.bmp_pos30_id10_im1.bmp,['Im_RobertPattinson.png', 'Im_RyanGosling.png', 'Im_PatrickDempsey.png', 'Im_BradPitt.png', 'Im_DanielRadcliffe.png', 'Im_JustinTimberlake.png', 'Im_GeorgeClooney.png', 'Im_LeonardoDiCaprio.png', 'Im_RyanReynolds.png', 'Im_DanielCraig.png'],diff,1,0.4251717000006465,16,90.47619047619048,
XAFR1107,13,inv,90,pos90_id5_im10.bmp_pos90_id17_im8.bmp,['Im_RobertPattinson.png', 'Im_RyanGosling.png', 'Im_PatrickDempsey.png', 'Im_BradPitt.png', 'Im_DanielRadcliffe.png', 'Im_JustinTimberlake.png', 'Im_GeorgeClooney.png', 'Im_LeonardoDiCaprio.png', 'Im_RyanReynolds.png', 'Im_DanielCraig.png'],diff,1,0.41668789999857836,17,90.47619047619048,
XAFR1107,13,inv,120,pos120_id10_im17.bmp_pos120_id3_im6.bmp,['Im_RobertPattinson.png', 'Im_RyanGosling.png', 'Im_PatrickDempsey.png', 'Im_BradPitt.png', 'Im_DanielRadcliffe.png', 'Im_JustinTimberlake.png', 'Im_GeorgeClooney.png', 'Im_LeonardoDiCaprio.png', 'Im_RyanReynolds.png', 'Im_DanielCraig.png'],diff,1,0.9086025999986305,18,90.47619047619048,
XAFR1107,13,inv,60,pos60_id13_im29.bmp_pos60_id10_im18.bmp,['Im_RobertPattinson.png', 'Im_RyanGosling.png', 'Im_PatrickDempsey.png', 'Im_BradPitt.png', 'Im_DanielRadcliffe.png', 'Im_JustinTimberlake.png', 'Im_GeorgeClooney.png', 'Im_LeonardoDiCaprio.png', 'Im_RyanReynolds.png', 'Im_DanielCraig.png'],diff,1,0.5503114000002824,19,90.47619047619048,
XAFR1107,13,inv,fs,posfs_id5_im10.bmp_posfs_id17_im8.bmp,['Im_RobertPattinson.png', 'Im_RyanGosling.png', 'Im_PatrickDempsey.png', 'Im_BradPitt.png', 'Im_DanielRadcliffe.png', 'Im_JustinTimberlake.png', 'Im_GeorgeClooney.png', 'Im_LeonardoDiCaprio.png', 'Im_RyanReynolds.png', 'Im_DanielCraig.png'],diff,1,0.40831689999868104,20,90.47619047619048,
XAFR1107,13,inv,60,pos60_id19_im27.bmp_pos60_id19_im4.bmp,['Im_RobertPattinson.png', 'Im_RyanGosling.png', 'Im_PatrickDempsey.png', 'Im_BradPitt.png', 'Im_DanielRadcliffe.png', 'Im_JustinTimberlake.png', 'Im_GeorgeClooney.png', 'Im_LeonardoDiCaprio.png', 'Im_RyanReynolds.png', 'Im_DanielCraig.png'],same,1,0.4167500999992626,21,90.47619047619048,
XAFR1107,13,inv,150,pos150_id10_im17.bmp_pos150_id19_im4.bmp,['Im_RobertPattinson.png', 'Im_RyanGosling.png', 'Im_PatrickDempsey.png', 'Im_BradPitt.png', 'Im_DanielRadcliffe.png', 'Im_JustinTimberlake.png', 'Im_GeorgeClooney.png', 'Im_LeonardoDiCaprio.png', 'Im_RyanReynolds.png', 'Im_DanielCraig.png'],diff,1,0.4250781000009738,22,90.47619047619048,
XAFR1107,13,inv,fs,posfs_id7_im15.bmp_posfs_id7_im26.bmp,['Im_RobertPattinson.png', 'Im_RyanGosling.png', 'Im_PatrickDempsey.png', 'Im_BradPitt.png', 'Im_DanielRadcliffe.png', 'Im_JustinTimberlake.png', 'Im_GeorgeClooney.png', 'Im_LeonardoDiCaprio.png', 'Im_RyanReynolds.png', 'Im_DanielCraig.png'],same,1,0.4165993000005983,23,90.47619047619048,
XAFR1107,14,neg,60,neg60_id7_im15.bmp_neg60_id21_im16.bmp,['Im_RobertPattinson.png', 'Im_RyanGosling.png', 'Im_PatrickDempsey.png', 'Im_BradPitt.png', 'Im_DanielRadcliffe.png', 'Im_JustinTimberlake.png', 'Im_GeorgeClooney.png', 'Im_LeonardoDiCaprio.png', 'Im_RyanReynolds.png', 'Im_DanielCraig.png'],diff,1,0.4166964999985794,24,90.47619047619048,
XAFR1107,14,neg,0,neg0_id10_im18.bmp_neg0_id10_im1.bmp,['Im_RobertPattinson.png', 'Im_RyanGosling.png', 'Im_PatrickDempsey.png', 'Im_BradPitt.png', 'Im_DanielRadcliffe.png', 'Im_JustinTimberlake.png', 'Im_GeorgeClooney.png', 'Im_LeonardoDiCaprio.png', 'Im_RyanReynolds.png', 'Im_DanielCraig.png'],same,1,0.4167109999998502,25,90.47619047619048,
XAFR1107,14,neg,60,neg60_id19_im8.bmp_neg60_id19_im27.bmp,['Im_RobertPattinson.png', 'Im_RyanGosling.png', 'Im_PatrickDempsey.png', 'Im_BradPitt.png', 'Im_DanielRadcliffe.png', 'Im_JustinTimberlake.png', 'Im_GeorgeClooney.png', 'Im_LeonardoDiCaprio.png', 'Im_RyanReynolds.png', 'Im_DanielCraig.png'],same,1,0.40833310000016354,26,90.47619047619048,
XAFR1107,14,neg,90,neg90_id13_im29.bmp_neg90_id13_im10.bmp,['Im_RobertPattinson.png', 'Im_RyanGosling.png', 'Im_PatrickDempsey.png', 'Im_BradPitt.png', 'Im_DanielRadcliffe.png', 'Im_JustinTimberlake.png', 'Im_GeorgeClooney.png', 'Im_LeonardoDiCaprio.png', 'Im_RyanReynolds.png', 'Im_DanielCraig.png'],same,1,0.42501289999927394,27,90.47619047619048,
XAFR1107,14,neg,120,neg120_id7_im26.bmp_neg120_id20_im3.bmp,['Im_RobertPattinson.png', 'Im_RyanGosling.png', 'Im_PatrickDempsey.png', 'Im_BradPitt.png', 'Im_DanielRadcliffe.png', 'Im_JustinTimberlake.png', 'Im_GeorgeClooney.png', 'Im_LeonardoDiCaprio.png', 'Im_RyanReynolds.png', 'Im_DanielCraig.png'],diff,1,0.41671470000073896,28,90.47619047619048,
XAFR1107,14,neg,150,neg150_id21_im22.bmp_neg150_id21_im17.bmp,['Im_RobertPattinson.png', 'Im_RyanGosling.png', 'Im_PatrickDempsey.png', 'Im_BradPitt.png', 'Im_DanielRadcliffe.png', 'Im_JustinTimberlake.png', 'Im_GeorgeClooney.png', 'Im_LeonardoDiCaprio.png', 'Im_RyanReynolds.png', 'Im_DanielCraig.png'],same,1,0.42521490000035556,29,90.47619047619048,
XAFR1107,14,neg,150,neg150_id4_im20.bmp_neg150_id4_im15.bmp,['Im_RobertPattinson.png', 'Im_RyanGosling.png', 'Im_PatrickDempsey.png', 'Im_BradPitt.png', 'Im_DanielRadcliffe.png', 'Im_JustinTimberlake.png', 'Im_GeorgeClooney.png', 'Im_LeonardoDiCaprio.png', 'Im_RyanReynolds.png', 'Im_DanielCraig.png'],same,1,0.5250551000008272,30,90.47619047619048,
XAFR1107,14,neg,120,neg120_id19_im27.bmp_neg120_id19_im4.bmp,['Im_RobertPattinson.png', 'Im_RyanGosling.png', 'Im_PatrickDempsey.png', 'Im_BradPitt.png', 'Im_DanielRadcliffe.png', 'Im_JustinTimberlake.png', 'Im_GeorgeClooney.png', 'Im_LeonardoDiCaprio.png', 'Im_RyanReynolds.png', 'Im_DanielCraig.png'],diff,0,0.4500391999990825,30,90.47619047619048,
XAFR1107,14,neg,30,neg30_id4_im15.bmp_neg30_id4_im20.bmp,['Im_RobertPattinson.png', 'Im_RyanGosling.png', 'Im_PatrickDempsey.png', 'Im_BradPitt.png', 'Im_DanielRadcliffe.png', 'Im_JustinTimberlake.png', 'Im_GeorgeClooney.png', 'Im_LeonardoDiCaprio.png', 'Im_RyanReynolds.png', 'Im_DanielCraig.png'],same,1,0.42508380000072066,31,90.47619047619048,
