Sujet,Trial,Condition,Filter,Imname,Actor0,Actor1,Actor2,Actor3,Actor4,Actor5,Actor6,Actor7,Actor8,Actor9,Answer,Accu,RT,Score,Scoreperc, 
YVSY0203,train,pos,60,pos60_id8_im21.bmp_pos60_id19_im4.bmp,['Im_ElijahWood.png', 'Im_BenStiller.png', 'Im_RobertPattinson.png', 'Im_PatrickDempsey.png', 'Im_JustinTimberlake.png', 'Im_LeonardoDiCaprio.png', 'Im_DanielRadcliffe.png', 'Im_HughJackman.png', 'Im_KeanuReeves.png', 'Im_GeorgeClooney.png'],diff,1,1.1166753000006793,1,0,
YVSY0203,train,pos,90,pos90_id11_im1.bmp_pos90_id11_im2.bmp,['Im_ElijahWood.png', 'Im_BenStiller.png', 'Im_RobertPattinson.png', 'Im_PatrickDempsey.png', 'Im_JustinTimberlake.png', 'Im_LeonardoDiCaprio.png', 'Im_DanielRadcliffe.png', 'Im_HughJackman.png', 'Im_KeanuReeves.png', 'Im_GeorgeClooney.png'],diff,0,0.8587310000002617,1,0,
YVSY0203,train,pos,120,pos120_id2_im2.bmp_pos120_id2_im3.bmp,['Im_ElijahWood.png', 'Im_BenStiller.png', 'Im_RobertPattinson.png', 'Im_PatrickDempsey.png', 'Im_JustinTimberlake.png', 'Im_LeonardoDiCaprio.png', 'Im_DanielRadcliffe.png', 'Im_HughJackman.png', 'Im_KeanuReeves.png', 'Im_GeorgeClooney.png'],same,1,0.9333548999993582,2,0,
YVSY0203,train,pos,60,pos60_id11_im1.bmp_pos60_id19_im8.bmp,['Im_ElijahWood.png', 'Im_BenStiller.png', 'Im_RobertPattinson.png', 'Im_PatrickDempsey.png', 'Im_JustinTimberlake.png', 'Im_LeonardoDiCaprio.png', 'Im_DanielRadcliffe.png', 'Im_HughJackman.png', 'Im_KeanuReeves.png', 'Im_GeorgeClooney.png'],diff,1,0.47501869999996416,3,0,
YVSY0203,train,pos,0,pos0_id13_im29.bmp_pos0_id13_im10.bmp,['Im_ElijahWood.png', 'Im_BenStiller.png', 'Im_RobertPattinson.png', 'Im_PatrickDempsey.png', 'Im_JustinTimberlake.png', 'Im_LeonardoDiCaprio.png', 'Im_DanielRadcliffe.png', 'Im_HughJackman.png', 'Im_KeanuReeves.png', 'Im_GeorgeClooney.png'],diff,0,1.1668211000005613,3,0,
YVSY0203,train,pos,90,pos90_id8_im20.bmp_pos90_id8_im21.bmp,['Im_ElijahWood.png', 'Im_BenStiller.png', 'Im_RobertPattinson.png', 'Im_PatrickDempsey.png', 'Im_JustinTimberlake.png', 'Im_LeonardoDiCaprio.png', 'Im_DanielRadcliffe.png', 'Im_HughJackman.png', 'Im_KeanuReeves.png', 'Im_GeorgeClooney.png'],same,1,0.8498316000004706,4,0,
YVSY0203,train,pos,120,pos120_id13_im29.bmp_pos120_id13_im10.bmp,['Im_ElijahWood.png', 'Im_BenStiller.png', 'Im_RobertPattinson.png', 'Im_PatrickDempsey.png', 'Im_JustinTimberlake.png', 'Im_LeonardoDiCaprio.png', 'Im_DanielRadcliffe.png', 'Im_HughJackman.png', 'Im_KeanuReeves.png', 'Im_GeorgeClooney.png'],diff,0,0.41683460000058403,4,0,
YVSY0203,train,pos,fs,posfs_id13_im29.bmp_posfs_id19_im8.bmp,['Im_ElijahWood.png', 'Im_BenStiller.png', 'Im_RobertPattinson.png', 'Im_PatrickDempsey.png', 'Im_JustinTimberlake.png', 'Im_LeonardoDiCaprio.png', 'Im_DanielRadcliffe.png', 'Im_HughJackman.png', 'Im_KeanuReeves.png', 'Im_GeorgeClooney.png'],diff,1,0.6177201000000423,5,0,
YVSY0203,train,pos,30,pos30_id13_im29.bmp_pos30_id19_im8.bmp,['Im_ElijahWood.png', 'Im_BenStiller.png', 'Im_RobertPattinson.png', 'Im_PatrickDempsey.png', 'Im_JustinTimberlake.png', 'Im_LeonardoDiCaprio.png', 'Im_DanielRadcliffe.png', 'Im_HughJackman.png', 'Im_KeanuReeves.png', 'Im_GeorgeClooney.png'],same,0,0.8671646000002511,5,0,
YVSY0203,train,pos,150,pos150_id13_im10.bmp_pos150_id13_im29.bmp,['Im_ElijahWood.png', 'Im_BenStiller.png', 'Im_RobertPattinson.png', 'Im_PatrickDempsey.png', 'Im_JustinTimberlake.png', 'Im_LeonardoDiCaprio.png', 'Im_DanielRadcliffe.png', 'Im_HughJackman.png', 'Im_KeanuReeves.png', 'Im_GeorgeClooney.png'],diff,0,1.6501590999996552,5,0,
YVSY0203,train,pos,fs,posfs_id10_im1.bmp_posfs_id5_im1.bmp,['Im_ElijahWood.png', 'Im_BenStiller.png', 'Im_RobertPattinson.png', 'Im_PatrickDempsey.png', 'Im_JustinTimberlake.png', 'Im_LeonardoDiCaprio.png', 'Im_DanielRadcliffe.png', 'Im_HughJackman.png', 'Im_KeanuReeves.png', 'Im_GeorgeClooney.png'],diff,1,0.7998942999993233,6,0,
YVSY0203,train,pos,30,pos30_id2_im16.bmp_pos30_id2_im3.bmp,['Im_ElijahWood.png', 'Im_BenStiller.png', 'Im_RobertPattinson.png', 'Im_PatrickDempsey.png', 'Im_JustinTimberlake.png', 'Im_LeonardoDiCaprio.png', 'Im_DanielRadcliffe.png', 'Im_HughJackman.png', 'Im_KeanuReeves.png', 'Im_GeorgeClooney.png'],same,1,0.7669568000001163,7,0,
YVSY0203,train,pos,0,pos0_id2_im16.bmp_pos0_id13_im10.bmp,['Im_ElijahWood.png', 'Im_BenStiller.png', 'Im_RobertPattinson.png', 'Im_PatrickDempsey.png', 'Im_JustinTimberlake.png', 'Im_LeonardoDiCaprio.png', 'Im_DanielRadcliffe.png', 'Im_HughJackman.png', 'Im_KeanuReeves.png', 'Im_GeorgeClooney.png'],diff,1,0.5164663999994445,8,0,
YVSY0203,train,pos,150,pos150_id10_im18.bmp_pos150_id10_im1.bmp,['Im_ElijahWood.png', 'Im_BenStiller.png', 'Im_RobertPattinson.png', 'Im_PatrickDempsey.png', 'Im_JustinTimberlake.png', 'Im_LeonardoDiCaprio.png', 'Im_DanielRadcliffe.png', 'Im_HughJackman.png', 'Im_KeanuReeves.png', 'Im_GeorgeClooney.png'],same,1,0.725328300000001,9,0,
YVSY0203,train,inv,0,pos0_id17_im9.bmp_pos0_id17_im8.bmp,['Im_ElijahWood.png', 'Im_BenStiller.png', 'Im_RobertPattinson.png', 'Im_PatrickDempsey.png', 'Im_JustinTimberlake.png', 'Im_LeonardoDiCaprio.png', 'Im_DanielRadcliffe.png', 'Im_HughJackman.png', 'Im_KeanuReeves.png', 'Im_GeorgeClooney.png'],same,1,0.9502158999994208,10,0,
YVSY0203,train,inv,150,pos150_id17_im8.bmp_pos150_id6_im19.bmp,['Im_ElijahWood.png', 'Im_BenStiller.png', 'Im_RobertPattinson.png', 'Im_PatrickDempsey.png', 'Im_JustinTimberlake.png', 'Im_LeonardoDiCaprio.png', 'Im_DanielRadcliffe.png', 'Im_HughJackman.png', 'Im_KeanuReeves.png', 'Im_GeorgeClooney.png'],diff,1,0.650243699999919,11,0,
YVSY0203,train,inv,90,pos90_id10_im1.bmp_pos90_id5_im1.bmp,['Im_ElijahWood.png', 'Im_BenStiller.png', 'Im_RobertPattinson.png', 'Im_PatrickDempsey.png', 'Im_JustinTimberlake.png', 'Im_LeonardoDiCaprio.png', 'Im_DanielRadcliffe.png', 'Im_HughJackman.png', 'Im_KeanuReeves.png', 'Im_GeorgeClooney.png'],same,0,0.7167064000004757,11,0,
YVSY0203,train,inv,30,pos30_id10_im18.bmp_pos30_id10_im1.bmp,['Im_ElijahWood.png', 'Im_BenStiller.png', 'Im_RobertPattinson.png', 'Im_PatrickDempsey.png', 'Im_JustinTimberlake.png', 'Im_LeonardoDiCaprio.png', 'Im_DanielRadcliffe.png', 'Im_HughJackman.png', 'Im_KeanuReeves.png', 'Im_GeorgeClooney.png'],same,1,0.45905060000040976,12,0,
YVSY0203,train,inv,60,pos60_id13_im10.bmp_pos60_id7_im26.bmp,['Im_ElijahWood.png', 'Im_BenStiller.png', 'Im_RobertPattinson.png', 'Im_PatrickDempsey.png', 'Im_JustinTimberlake.png', 'Im_LeonardoDiCaprio.png', 'Im_DanielRadcliffe.png', 'Im_HughJackman.png', 'Im_KeanuReeves.png', 'Im_GeorgeClooney.png'],diff,1,0.45849009999983537,13,0,
YVSY0203,train,inv,fs,posfs_id13_im10.bmp_posfs_id7_im26.bmp,['Im_ElijahWood.png', 'Im_BenStiller.png', 'Im_RobertPattinson.png', 'Im_PatrickDempsey.png', 'Im_JustinTimberlake.png', 'Im_LeonardoDiCaprio.png', 'Im_DanielRadcliffe.png', 'Im_HughJackman.png', 'Im_KeanuReeves.png', 'Im_GeorgeClooney.png'],diff,1,0.6004487000000154,14,0,
YVSY0203,train,inv,150,pos150_id13_im10.bmp_pos150_id13_im29.bmp,['Im_ElijahWood.png', 'Im_BenStiller.png', 'Im_RobertPattinson.png', 'Im_PatrickDempsey.png', 'Im_JustinTimberlake.png', 'Im_LeonardoDiCaprio.png', 'Im_DanielRadcliffe.png', 'Im_HughJackman.png', 'Im_KeanuReeves.png', 'Im_GeorgeClooney.png'],diff,0,0.6249174999993556,14,0,
YVSY0203,train,inv,120,pos120_id7_im14.bmp_pos120_id10_im1.bmp,['Im_ElijahWood.png', 'Im_BenStiller.png', 'Im_RobertPattinson.png', 'Im_PatrickDempsey.png', 'Im_JustinTimberlake.png', 'Im_LeonardoDiCaprio.png', 'Im_DanielRadcliffe.png', 'Im_HughJackman.png', 'Im_KeanuReeves.png', 'Im_GeorgeClooney.png'],diff,1,0.4170830000002752,15,0,
YVSY0203,train,inv,0,pos0_id17_im8.bmp_pos0_id10_im17.bmp,['Im_ElijahWood.png', 'Im_BenStiller.png', 'Im_RobertPattinson.png', 'Im_PatrickDempsey.png', 'Im_JustinTimberlake.png', 'Im_LeonardoDiCaprio.png', 'Im_DanielRadcliffe.png', 'Im_HughJackman.png', 'Im_KeanuReeves.png', 'Im_GeorgeClooney.png'],same,0,0.6415035999998508,15,0,
YVSY0203,train,inv,60,pos60_id13_im15.bmp_pos60_id11_im1.bmp,['Im_ElijahWood.png', 'Im_BenStiller.png', 'Im_RobertPattinson.png', 'Im_PatrickDempsey.png', 'Im_JustinTimberlake.png', 'Im_LeonardoDiCaprio.png', 'Im_DanielRadcliffe.png', 'Im_HughJackman.png', 'Im_KeanuReeves.png', 'Im_GeorgeClooney.png'],diff,1,0.7167428000002474,16,0,
YVSY0203,train,inv,90,pos90_id2_im16.bmp_pos90_id8_im20.bmp,['Im_ElijahWood.png', 'Im_BenStiller.png', 'Im_RobertPattinson.png', 'Im_PatrickDempsey.png', 'Im_JustinTimberlake.png', 'Im_LeonardoDiCaprio.png', 'Im_DanielRadcliffe.png', 'Im_HughJackman.png', 'Im_KeanuReeves.png', 'Im_GeorgeClooney.png'],diff,1,0.5000371000005543,17,0,
YVSY0203,train,inv,120,pos120_id2_im2.bmp_pos120_id2_im3.bmp,['Im_ElijahWood.png', 'Im_BenStiller.png', 'Im_RobertPattinson.png', 'Im_PatrickDempsey.png', 'Im_JustinTimberlake.png', 'Im_LeonardoDiCaprio.png', 'Im_DanielRadcliffe.png', 'Im_HughJackman.png', 'Im_KeanuReeves.png', 'Im_GeorgeClooney.png'],same,1,0.4249571999998807,18,0,
YVSY0203,train,inv,30,pos30_id6_im12.bmp_pos30_id7_im14.bmp,['Im_ElijahWood.png', 'Im_BenStiller.png', 'Im_RobertPattinson.png', 'Im_PatrickDempsey.png', 'Im_JustinTimberlake.png', 'Im_LeonardoDiCaprio.png', 'Im_DanielRadcliffe.png', 'Im_HughJackman.png', 'Im_KeanuReeves.png', 'Im_GeorgeClooney.png'],diff,1,0.40837289999944915,19,0,
YVSY0203,train,inv,fs,posfs_id19_im4.bmp_posfs_id8_im20.bmp,['Im_ElijahWood.png', 'Im_BenStiller.png', 'Im_RobertPattinson.png', 'Im_PatrickDempsey.png', 'Im_JustinTimberlake.png', 'Im_LeonardoDiCaprio.png', 'Im_DanielRadcliffe.png', 'Im_HughJackman.png', 'Im_KeanuReeves.png', 'Im_GeorgeClooney.png'],diff,1,0.5169608999995035,20,0,
YVSY0203,train,neg,90,neg90_id10_im1.bmp_neg90_id7_im14.bmp,['Im_ElijahWood.png', 'Im_BenStiller.png', 'Im_RobertPattinson.png', 'Im_PatrickDempsey.png', 'Im_JustinTimberlake.png', 'Im_LeonardoDiCaprio.png', 'Im_DanielRadcliffe.png', 'Im_HughJackman.png', 'Im_KeanuReeves.png', 'Im_GeorgeClooney.png'],diff,1,0.48308430000088265,21,0,
YVSY0203,train,neg,60,neg60_id2_im16.bmp_neg60_id8_im20.bmp,['Im_ElijahWood.png', 'Im_BenStiller.png', 'Im_RobertPattinson.png', 'Im_PatrickDempsey.png', 'Im_JustinTimberlake.png', 'Im_LeonardoDiCaprio.png', 'Im_DanielRadcliffe.png', 'Im_HughJackman.png', 'Im_KeanuReeves.png', 'Im_GeorgeClooney.png'],same,0,0.8668791999998575,21,0,
YVSY0203,train,neg,fs,negfs_id5_im10.bmp_negfs_id5_im20.bmp,['Im_ElijahWood.png', 'Im_BenStiller.png', 'Im_RobertPattinson.png', 'Im_PatrickDempsey.png', 'Im_JustinTimberlake.png', 'Im_LeonardoDiCaprio.png', 'Im_DanielRadcliffe.png', 'Im_HughJackman.png', 'Im_KeanuReeves.png', 'Im_GeorgeClooney.png'],same,1,1.71670450000056,22,0,
YVSY0203,train,neg,150,neg150_id19_im27.bmp_neg150_id6_im12.bmp,['Im_ElijahWood.png', 'Im_BenStiller.png', 'Im_RobertPattinson.png', 'Im_PatrickDempsey.png', 'Im_JustinTimberlake.png', 'Im_LeonardoDiCaprio.png', 'Im_DanielRadcliffe.png', 'Im_HughJackman.png', 'Im_KeanuReeves.png', 'Im_GeorgeClooney.png'],diff,1,0.5167295000001104,23,0,
YVSY0203,train,neg,30,neg30_id5_im20.bmp_neg30_id17_im14.bmp,['Im_ElijahWood.png', 'Im_BenStiller.png', 'Im_RobertPattinson.png', 'Im_PatrickDempsey.png', 'Im_JustinTimberlake.png', 'Im_LeonardoDiCaprio.png', 'Im_DanielRadcliffe.png', 'Im_HughJackman.png', 'Im_KeanuReeves.png', 'Im_GeorgeClooney.png'],same,0,0.5752410000004602,23,0,
YVSY0203,train,neg,fs,negfs_id11_im1.bmp_negfs_id11_im10.bmp,['Im_ElijahWood.png', 'Im_BenStiller.png', 'Im_RobertPattinson.png', 'Im_PatrickDempsey.png', 'Im_JustinTimberlake.png', 'Im_LeonardoDiCaprio.png', 'Im_DanielRadcliffe.png', 'Im_HughJackman.png', 'Im_KeanuReeves.png', 'Im_GeorgeClooney.png'],same,1,0.8169672000003629,24,0,
YVSY0203,train,neg,60,neg60_id8_im21.bmp_neg60_id8_im20.bmp,['Im_ElijahWood.png', 'Im_BenStiller.png', 'Im_RobertPattinson.png', 'Im_PatrickDempsey.png', 'Im_JustinTimberlake.png', 'Im_LeonardoDiCaprio.png', 'Im_DanielRadcliffe.png', 'Im_HughJackman.png', 'Im_KeanuReeves.png', 'Im_GeorgeClooney.png'],same,1,0.7336410999996588,25,0,
YVSY0203,train,neg,150,neg150_id5_im20.bmp_neg150_id5_im10.bmp,['Im_ElijahWood.png', 'Im_BenStiller.png', 'Im_RobertPattinson.png', 'Im_PatrickDempsey.png', 'Im_JustinTimberlake.png', 'Im_LeonardoDiCaprio.png', 'Im_DanielRadcliffe.png', 'Im_HughJackman.png', 'Im_KeanuReeves.png', 'Im_GeorgeClooney.png'],same,1,0.416678900000079,26,0,
YVSY0203,train,neg,30,neg30_id2_im16.bmp_neg30_id2_im3.bmp,['Im_ElijahWood.png', 'Im_BenStiller.png', 'Im_RobertPattinson.png', 'Im_PatrickDempsey.png', 'Im_JustinTimberlake.png', 'Im_LeonardoDiCaprio.png', 'Im_DanielRadcliffe.png', 'Im_HughJackman.png', 'Im_KeanuReeves.png', 'Im_GeorgeClooney.png'],diff,0,0.6166442999992796,26,0,
YVSY0203,train,neg,120,neg120_id6_im12.bmp_neg120_id19_im27.bmp,['Im_ElijahWood.png', 'Im_BenStiller.png', 'Im_RobertPattinson.png', 'Im_PatrickDempsey.png', 'Im_JustinTimberlake.png', 'Im_LeonardoDiCaprio.png', 'Im_DanielRadcliffe.png', 'Im_HughJackman.png', 'Im_KeanuReeves.png', 'Im_GeorgeClooney.png'],diff,1,0.4662722000002759,27,0,
YVSY0203,train,neg,0,neg0_id11_im10.bmp_neg0_id11_im1.bmp,['Im_ElijahWood.png', 'Im_BenStiller.png', 'Im_RobertPattinson.png', 'Im_PatrickDempsey.png', 'Im_JustinTimberlake.png', 'Im_LeonardoDiCaprio.png', 'Im_DanielRadcliffe.png', 'Im_HughJackman.png', 'Im_KeanuReeves.png', 'Im_GeorgeClooney.png'],diff,0,0.7416497999993226,27,0,
YVSY0203,train,neg,90,neg90_id6_im19.bmp_neg90_id6_im18.bmp,['Im_ElijahWood.png', 'Im_BenStiller.png', 'Im_RobertPattinson.png', 'Im_PatrickDempsey.png', 'Im_JustinTimberlake.png', 'Im_LeonardoDiCaprio.png', 'Im_DanielRadcliffe.png', 'Im_HughJackman.png', 'Im_KeanuReeves.png', 'Im_GeorgeClooney.png'],same,1,0.41658469999947556,28,0,
YVSY0203,train,neg,0,neg0_id8_im21.bmp_neg0_id5_im20.bmp,['Im_ElijahWood.png', 'Im_BenStiller.png', 'Im_RobertPattinson.png', 'Im_PatrickDempsey.png', 'Im_JustinTimberlake.png', 'Im_LeonardoDiCaprio.png', 'Im_DanielRadcliffe.png', 'Im_HughJackman.png', 'Im_KeanuReeves.png', 'Im_GeorgeClooney.png'],same,0,0.7084858000007443,28,0,
YVSY0203,train,neg,120,neg120_id11_im1.bmp_neg120_id11_im10.bmp,['Im_ElijahWood.png', 'Im_BenStiller.png', 'Im_RobertPattinson.png', 'Im_PatrickDempsey.png', 'Im_JustinTimberlake.png', 'Im_LeonardoDiCaprio.png', 'Im_DanielRadcliffe.png', 'Im_HughJackman.png', 'Im_KeanuReeves.png', 'Im_GeorgeClooney.png'],same,1,0.6750416000004407,29,0,
YVSY0203,train,inv,fs,posfs_id19_im27.bmp_posfs_id6_im12.bmp,['Im_ElijahWood.png', 'Im_BenStiller.png', 'Im_RobertPattinson.png', 'Im_PatrickDempsey.png', 'Im_JustinTimberlake.png', 'Im_LeonardoDiCaprio.png', 'Im_DanielRadcliffe.png', 'Im_HughJackman.png', 'Im_KeanuReeves.png', 'Im_GeorgeClooney.png'],diff,1,0.7585180999994918,1,69.04761904761905,
YVSY0203,train,inv,90,pos90_id13_im10.bmp_pos90_id13_im29.bmp,['Im_ElijahWood.png', 'Im_BenStiller.png', 'Im_RobertPattinson.png', 'Im_PatrickDempsey.png', 'Im_JustinTimberlake.png', 'Im_LeonardoDiCaprio.png', 'Im_DanielRadcliffe.png', 'Im_HughJackman.png', 'Im_KeanuReeves.png', 'Im_GeorgeClooney.png'],same,1,0.9167963999998392,2,69.04761904761905,
YVSY0203,train,inv,60,pos60_id11_im10.bmp_pos60_id11_im1.bmp,['Im_ElijahWood.png', 'Im_BenStiller.png', 'Im_RobertPattinson.png', 'Im_PatrickDempsey.png', 'Im_JustinTimberlake.png', 'Im_LeonardoDiCaprio.png', 'Im_DanielRadcliffe.png', 'Im_HughJackman.png', 'Im_KeanuReeves.png', 'Im_GeorgeClooney.png'],diff,0,0.5919516000003568,2,69.04761904761905,
YVSY0203,train,inv,90,pos90_id7_im26.bmp_pos90_id2_im2.bmp,['Im_ElijahWood.png', 'Im_BenStiller.png', 'Im_RobertPattinson.png', 'Im_PatrickDempsey.png', 'Im_JustinTimberlake.png', 'Im_LeonardoDiCaprio.png', 'Im_DanielRadcliffe.png', 'Im_HughJackman.png', 'Im_KeanuReeves.png', 'Im_GeorgeClooney.png'],same,0,0.850154200000361,2,69.04761904761905,
YVSY0203,train,inv,fs,posfs_id7_im26.bmp_posfs_id7_im15.bmp,['Im_ElijahWood.png', 'Im_BenStiller.png', 'Im_RobertPattinson.png', 'Im_PatrickDempsey.png', 'Im_JustinTimberlake.png', 'Im_LeonardoDiCaprio.png', 'Im_DanielRadcliffe.png', 'Im_HughJackman.png', 'Im_KeanuReeves.png', 'Im_GeorgeClooney.png'],same,1,1.0836075999995955,3,69.04761904761905,
YVSY0203,train,inv,120,pos120_id11_im2.bmp_pos120_id10_im18.bmp,['Im_ElijahWood.png', 'Im_BenStiller.png', 'Im_RobertPattinson.png', 'Im_PatrickDempsey.png', 'Im_JustinTimberlake.png', 'Im_LeonardoDiCaprio.png', 'Im_DanielRadcliffe.png', 'Im_HughJackman.png', 'Im_KeanuReeves.png', 'Im_GeorgeClooney.png'],diff,1,0.7169603000002098,4,69.04761904761905,
YVSY0203,train,inv,60,pos60_id8_im20.bmp_pos60_id8_im13.bmp,['Im_ElijahWood.png', 'Im_BenStiller.png', 'Im_RobertPattinson.png', 'Im_PatrickDempsey.png', 'Im_JustinTimberlake.png', 'Im_LeonardoDiCaprio.png', 'Im_DanielRadcliffe.png', 'Im_HughJackman.png', 'Im_KeanuReeves.png', 'Im_GeorgeClooney.png'],same,1,1.075158999999985,5,69.04761904761905,
YVSY0203,train,inv,120,pos120_id6_im12.bmp_pos120_id7_im14.bmp,['Im_ElijahWood.png', 'Im_BenStiller.png', 'Im_RobertPattinson.png', 'Im_PatrickDempsey.png', 'Im_JustinTimberlake.png', 'Im_LeonardoDiCaprio.png', 'Im_DanielRadcliffe.png', 'Im_HughJackman.png', 'Im_KeanuReeves.png', 'Im_GeorgeClooney.png'],diff,1,0.39974179999990156,6,69.04761904761905,
YVSY0203,train,inv,150,pos150_id11_im2.bmp_pos150_id10_im18.bmp,['Im_ElijahWood.png', 'Im_BenStiller.png', 'Im_RobertPattinson.png', 'Im_PatrickDempsey.png', 'Im_JustinTimberlake.png', 'Im_LeonardoDiCaprio.png', 'Im_DanielRadcliffe.png', 'Im_HughJackman.png', 'Im_KeanuReeves.png', 'Im_GeorgeClooney.png'],diff,1,0.8250437999995484,7,69.04761904761905,
YVSY0203,train,inv,30,pos30_id13_im10.bmp_pos30_id13_im15.bmp,['Im_ElijahWood.png', 'Im_BenStiller.png', 'Im_RobertPattinson.png', 'Im_PatrickDempsey.png', 'Im_JustinTimberlake.png', 'Im_LeonardoDiCaprio.png', 'Im_DanielRadcliffe.png', 'Im_HughJackman.png', 'Im_KeanuReeves.png', 'Im_GeorgeClooney.png'],same,1,0.52537140000004,8,69.04761904761905,
YVSY0203,train,inv,0,pos0_id8_im13.bmp_pos0_id8_im20.bmp,['Im_ElijahWood.png', 'Im_BenStiller.png', 'Im_RobertPattinson.png', 'Im_PatrickDempsey.png', 'Im_JustinTimberlake.png', 'Im_LeonardoDiCaprio.png', 'Im_DanielRadcliffe.png', 'Im_HughJackman.png', 'Im_KeanuReeves.png', 'Im_GeorgeClooney.png'],same,1,0.7587260999998762,9,69.04761904761905,
YVSY0203,train,inv,150,pos150_id7_im15.bmp_pos150_id7_im26.bmp,['Im_ElijahWood.png', 'Im_BenStiller.png', 'Im_RobertPattinson.png', 'Im_PatrickDempsey.png', 'Im_JustinTimberlake.png', 'Im_LeonardoDiCaprio.png', 'Im_DanielRadcliffe.png', 'Im_HughJackman.png', 'Im_KeanuReeves.png', 'Im_GeorgeClooney.png'],same,1,0.6001003999999739,10,69.04761904761905,
YVSY0203,train,inv,30,pos30_id17_im9.bmp_pos30_id5_im10.bmp,['Im_ElijahWood.png', 'Im_BenStiller.png', 'Im_RobertPattinson.png', 'Im_PatrickDempsey.png', 'Im_JustinTimberlake.png', 'Im_LeonardoDiCaprio.png', 'Im_DanielRadcliffe.png', 'Im_HughJackman.png', 'Im_KeanuReeves.png', 'Im_GeorgeClooney.png'],diff,1,0.6666793999993388,11,69.04761904761905,
YVSY0203,train,inv,0,pos0_id5_im1.bmp_pos0_id11_im2.bmp,['Im_ElijahWood.png', 'Im_BenStiller.png', 'Im_RobertPattinson.png', 'Im_PatrickDempsey.png', 'Im_JustinTimberlake.png', 'Im_LeonardoDiCaprio.png', 'Im_DanielRadcliffe.png', 'Im_HughJackman.png', 'Im_KeanuReeves.png', 'Im_GeorgeClooney.png'],same,0,1.0170428000001266,11,69.04761904761905,
YVSY0203,train,pos,120,pos120_id6_im18.bmp_pos120_id6_im12.bmp,['Im_ElijahWood.png', 'Im_BenStiller.png', 'Im_RobertPattinson.png', 'Im_PatrickDempsey.png', 'Im_JustinTimberlake.png', 'Im_LeonardoDiCaprio.png', 'Im_DanielRadcliffe.png', 'Im_HughJackman.png', 'Im_KeanuReeves.png', 'Im_GeorgeClooney.png'],same,1,0.9333505000004152,12,69.04761904761905,
YVSY0203,train,pos,30,pos30_id10_im17.bmp_pos30_id10_im18.bmp,['Im_ElijahWood.png', 'Im_BenStiller.png', 'Im_RobertPattinson.png', 'Im_PatrickDempsey.png', 'Im_JustinTimberlake.png', 'Im_LeonardoDiCaprio.png', 'Im_DanielRadcliffe.png', 'Im_HughJackman.png', 'Im_KeanuReeves.png', 'Im_GeorgeClooney.png'],same,1,0.591875600000094,13,69.04761904761905,
YVSY0203,train,pos,150,pos150_id10_im17.bmp_pos150_id5_im10.bmp,['Im_ElijahWood.png', 'Im_BenStiller.png', 'Im_RobertPattinson.png', 'Im_PatrickDempsey.png', 'Im_JustinTimberlake.png', 'Im_LeonardoDiCaprio.png', 'Im_DanielRadcliffe.png', 'Im_HughJackman.png', 'Im_KeanuReeves.png', 'Im_GeorgeClooney.png'],diff,1,0.41667039999992994,14,69.04761904761905,
YVSY0203,train,pos,fs,posfs_id13_im10.bmp_posfs_id7_im26.bmp,['Im_ElijahWood.png', 'Im_BenStiller.png', 'Im_RobertPattinson.png', 'Im_PatrickDempsey.png', 'Im_JustinTimberlake.png', 'Im_LeonardoDiCaprio.png', 'Im_DanielRadcliffe.png', 'Im_HughJackman.png', 'Im_KeanuReeves.png', 'Im_GeorgeClooney.png'],diff,1,0.4082095000003392,15,69.04761904761905,
YVSY0203,train,pos,30,pos30_id6_im12.bmp_pos30_id6_im18.bmp,['Im_ElijahWood.png', 'Im_BenStiller.png', 'Im_RobertPattinson.png', 'Im_PatrickDempsey.png', 'Im_JustinTimberlake.png', 'Im_LeonardoDiCaprio.png', 'Im_DanielRadcliffe.png', 'Im_HughJackman.png', 'Im_KeanuReeves.png', 'Im_GeorgeClooney.png'],same,1,1.0668580999999904,16,69.04761904761905,
YVSY0203,train,pos,90,pos90_id13_im15.bmp_pos90_id7_im15.bmp,['Im_ElijahWood.png', 'Im_BenStiller.png', 'Im_RobertPattinson.png', 'Im_PatrickDempsey.png', 'Im_JustinTimberlake.png', 'Im_LeonardoDiCaprio.png', 'Im_DanielRadcliffe.png', 'Im_HughJackman.png', 'Im_KeanuReeves.png', 'Im_GeorgeClooney.png'],diff,1,0.4165714000000662,17,69.04761904761905,
YVSY0203,train,pos,0,pos0_id8_im20.bmp_pos0_id8_im13.bmp,['Im_ElijahWood.png', 'Im_BenStiller.png', 'Im_RobertPattinson.png', 'Im_PatrickDempsey.png', 'Im_JustinTimberlake.png', 'Im_LeonardoDiCaprio.png', 'Im_DanielRadcliffe.png', 'Im_HughJackman.png', 'Im_KeanuReeves.png', 'Im_GeorgeClooney.png'],same,1,1.0000763999996707,18,69.04761904761905,
YVSY0203,train,pos,90,pos90_id19_im4.bmp_pos90_id8_im20.bmp,['Im_ElijahWood.png', 'Im_BenStiller.png', 'Im_RobertPattinson.png', 'Im_PatrickDempsey.png', 'Im_JustinTimberlake.png', 'Im_LeonardoDiCaprio.png', 'Im_DanielRadcliffe.png', 'Im_HughJackman.png', 'Im_KeanuReeves.png', 'Im_GeorgeClooney.png'],diff,1,0.41653039999982866,19,69.04761904761905,
YVSY0203,train,pos,0,pos0_id6_im19.bmp_pos0_id17_im9.bmp,['Im_ElijahWood.png', 'Im_BenStiller.png', 'Im_RobertPattinson.png', 'Im_PatrickDempsey.png', 'Im_JustinTimberlake.png', 'Im_LeonardoDiCaprio.png', 'Im_DanielRadcliffe.png', 'Im_HughJackman.png', 'Im_KeanuReeves.png', 'Im_GeorgeClooney.png'],diff,1,0.8167126000007556,20,69.04761904761905,
YVSY0203,train,pos,60,pos60_id8_im21.bmp_pos60_id5_im20.bmp,['Im_ElijahWood.png', 'Im_BenStiller.png', 'Im_RobertPattinson.png', 'Im_PatrickDempsey.png', 'Im_JustinTimberlake.png', 'Im_LeonardoDiCaprio.png', 'Im_DanielRadcliffe.png', 'Im_HughJackman.png', 'Im_KeanuReeves.png', 'Im_GeorgeClooney.png'],diff,1,0.4168797000002087,21,69.04761904761905,
YVSY0203,train,pos,150,pos150_id17_im8.bmp_pos150_id17_im9.bmp,['Im_ElijahWood.png', 'Im_BenStiller.png', 'Im_RobertPattinson.png', 'Im_PatrickDempsey.png', 'Im_JustinTimberlake.png', 'Im_LeonardoDiCaprio.png', 'Im_DanielRadcliffe.png', 'Im_HughJackman.png', 'Im_KeanuReeves.png', 'Im_GeorgeClooney.png'],same,1,0.48345379999955185,22,69.04761904761905,
YVSY0203,train,pos,fs,posfs_id2_im3.bmp_posfs_id2_im16.bmp,['Im_ElijahWood.png', 'Im_BenStiller.png', 'Im_RobertPattinson.png', 'Im_PatrickDempsey.png', 'Im_JustinTimberlake.png', 'Im_LeonardoDiCaprio.png', 'Im_DanielRadcliffe.png', 'Im_HughJackman.png', 'Im_KeanuReeves.png', 'Im_GeorgeClooney.png'],same,1,0.6001107999991291,23,69.04761904761905,
YVSY0203,train,pos,120,pos120_id19_im4.bmp_pos120_id8_im21.bmp,['Im_ElijahWood.png', 'Im_BenStiller.png', 'Im_RobertPattinson.png', 'Im_PatrickDempsey.png', 'Im_JustinTimberlake.png', 'Im_LeonardoDiCaprio.png', 'Im_DanielRadcliffe.png', 'Im_HughJackman.png', 'Im_KeanuReeves.png', 'Im_GeorgeClooney.png'],diff,1,1.1001274000000194,24,69.04761904761905,
YVSY0203,train,pos,60,pos60_id11_im10.bmp_pos60_id11_im1.bmp,['Im_ElijahWood.png', 'Im_BenStiller.png', 'Im_RobertPattinson.png', 'Im_PatrickDempsey.png', 'Im_JustinTimberlake.png', 'Im_LeonardoDiCaprio.png', 'Im_DanielRadcliffe.png', 'Im_HughJackman.png', 'Im_KeanuReeves.png', 'Im_GeorgeClooney.png'],diff,0,0.47482190000027913,24,69.04761904761905,
YVSY0203,train,neg,120,neg120_id8_im13.bmp_neg120_id8_im21.bmp,['Im_ElijahWood.png', 'Im_BenStiller.png', 'Im_RobertPattinson.png', 'Im_PatrickDempsey.png', 'Im_JustinTimberlake.png', 'Im_LeonardoDiCaprio.png', 'Im_DanielRadcliffe.png', 'Im_HughJackman.png', 'Im_KeanuReeves.png', 'Im_GeorgeClooney.png'],diff,0,0.8500929000001634,24,69.04761904761905,
YVSY0203,train,neg,fs,negfs_id6_im19.bmp_negfs_id6_im12.bmp,['Im_ElijahWood.png', 'Im_BenStiller.png', 'Im_RobertPattinson.png', 'Im_PatrickDempsey.png', 'Im_JustinTimberlake.png', 'Im_LeonardoDiCaprio.png', 'Im_DanielRadcliffe.png', 'Im_HughJackman.png', 'Im_KeanuReeves.png', 'Im_GeorgeClooney.png'],same,1,0.6248125000001892,25,69.04761904761905,
YVSY0203,train,neg,90,neg90_id11_im2.bmp_neg90_id11_im1.bmp,['Im_ElijahWood.png', 'Im_BenStiller.png', 'Im_RobertPattinson.png', 'Im_PatrickDempsey.png', 'Im_JustinTimberlake.png', 'Im_LeonardoDiCaprio.png', 'Im_DanielRadcliffe.png', 'Im_HughJackman.png', 'Im_KeanuReeves.png', 'Im_GeorgeClooney.png'],same,1,0.42543859999932465,26,69.04761904761905,
YVSY0203,train,neg,30,neg30_id7_im14.bmp_neg30_id10_im1.bmp,['Im_ElijahWood.png', 'Im_BenStiller.png', 'Im_RobertPattinson.png', 'Im_PatrickDempsey.png', 'Im_JustinTimberlake.png', 'Im_LeonardoDiCaprio.png', 'Im_DanielRadcliffe.png', 'Im_HughJackman.png', 'Im_KeanuReeves.png', 'Im_GeorgeClooney.png'],diff,1,0.5833193999997093,27,69.04761904761905,
YVSY0203,train,neg,120,neg120_id10_im18.bmp_neg120_id2_im3.bmp,['Im_ElijahWood.png', 'Im_BenStiller.png', 'Im_RobertPattinson.png', 'Im_PatrickDempsey.png', 'Im_JustinTimberlake.png', 'Im_LeonardoDiCaprio.png', 'Im_DanielRadcliffe.png', 'Im_HughJackman.png', 'Im_KeanuReeves.png', 'Im_GeorgeClooney.png'],diff,1,0.5168512000000192,28,69.04761904761905,
YVSY0203,train,neg,90,neg90_id10_im18.bmp_neg90_id10_im1.bmp,['Im_ElijahWood.png', 'Im_BenStiller.png', 'Im_RobertPattinson.png', 'Im_PatrickDempsey.png', 'Im_JustinTimberlake.png', 'Im_LeonardoDiCaprio.png', 'Im_DanielRadcliffe.png', 'Im_HughJackman.png', 'Im_KeanuReeves.png', 'Im_GeorgeClooney.png'],same,1,0.7838729000004605,29,69.04761904761905,
YVSY0203,train,neg,0,neg0_id2_im16.bmp_neg0_id13_im10.bmp,['Im_ElijahWood.png', 'Im_BenStiller.png', 'Im_RobertPattinson.png', 'Im_PatrickDempsey.png', 'Im_JustinTimberlake.png', 'Im_LeonardoDiCaprio.png', 'Im_DanielRadcliffe.png', 'Im_HughJackman.png', 'Im_KeanuReeves.png', 'Im_GeorgeClooney.png'],diff,1,0.5249745999999504,30,69.04761904761905,
YVSY0203,train,neg,fs,negfs_id10_im18.bmp_negfs_id11_im2.bmp,['Im_ElijahWood.png', 'Im_BenStiller.png', 'Im_RobertPattinson.png', 'Im_PatrickDempsey.png', 'Im_JustinTimberlake.png', 'Im_LeonardoDiCaprio.png', 'Im_DanielRadcliffe.png', 'Im_HughJackman.png', 'Im_KeanuReeves.png', 'Im_GeorgeClooney.png'],diff,1,0.4167145999999775,31,69.04761904761905,
YVSY0203,train,neg,0,neg0_id2_im3.bmp_neg0_id6_im18.bmp,['Im_ElijahWood.png', 'Im_BenStiller.png', 'Im_RobertPattinson.png', 'Im_PatrickDempsey.png', 'Im_JustinTimberlake.png', 'Im_LeonardoDiCaprio.png', 'Im_DanielRadcliffe.png', 'Im_HughJackman.png', 'Im_KeanuReeves.png', 'Im_GeorgeClooney.png'],diff,1,0.5750871000000188,32,69.04761904761905,
YVSY0203,train,neg,60,neg60_id6_im18.bmp_neg60_id6_im19.bmp,['Im_ElijahWood.png', 'Im_BenStiller.png', 'Im_RobertPattinson.png', 'Im_PatrickDempsey.png', 'Im_JustinTimberlake.png', 'Im_LeonardoDiCaprio.png', 'Im_DanielRadcliffe.png', 'Im_HughJackman.png', 'Im_KeanuReeves.png', 'Im_GeorgeClooney.png'],same,1,0.6501483000001826,33,69.04761904761905,
YVSY0203,train,neg,60,neg60_id2_im16.bmp_neg60_id13_im10.bmp,['Im_ElijahWood.png', 'Im_BenStiller.png', 'Im_RobertPattinson.png', 'Im_PatrickDempsey.png', 'Im_JustinTimberlake.png', 'Im_LeonardoDiCaprio.png', 'Im_DanielRadcliffe.png', 'Im_HughJackman.png', 'Im_KeanuReeves.png', 'Im_GeorgeClooney.png'],diff,1,0.7581768000000011,34,69.04761904761905,
YVSY0203,train,neg,30,neg30_id10_im17.bmp_neg30_id10_im18.bmp,['Im_ElijahWood.png', 'Im_BenStiller.png', 'Im_RobertPattinson.png', 'Im_PatrickDempsey.png', 'Im_JustinTimberlake.png', 'Im_LeonardoDiCaprio.png', 'Im_DanielRadcliffe.png', 'Im_HughJackman.png', 'Im_KeanuReeves.png', 'Im_GeorgeClooney.png'],same,1,0.46672100000068895,35,69.04761904761905,
YVSY0203,train,neg,150,neg150_id19_im8.bmp_neg150_id19_im4.bmp,['Im_ElijahWood.png', 'Im_BenStiller.png', 'Im_RobertPattinson.png', 'Im_PatrickDempsey.png', 'Im_JustinTimberlake.png', 'Im_LeonardoDiCaprio.png', 'Im_DanielRadcliffe.png', 'Im_HughJackman.png', 'Im_KeanuReeves.png', 'Im_GeorgeClooney.png'],same,1,0.5333528000001024,36,69.04761904761905,
YVSY0203,train,neg,150,neg150_id13_im29.bmp_neg150_id8_im13.bmp,['Im_ElijahWood.png', 'Im_BenStiller.png', 'Im_RobertPattinson.png', 'Im_PatrickDempsey.png', 'Im_JustinTimberlake.png', 'Im_LeonardoDiCaprio.png', 'Im_DanielRadcliffe.png', 'Im_HughJackman.png', 'Im_KeanuReeves.png', 'Im_GeorgeClooney.png'],same,0,0.7500586000005569,36,69.04761904761905,
YVSY0203,train,neg,60,neg60_id5_im1.bmp_neg60_id10_im1.bmp,['Im_ElijahWood.png', 'Im_BenStiller.png', 'Im_RobertPattinson.png', 'Im_PatrickDempsey.png', 'Im_JustinTimberlake.png', 'Im_LeonardoDiCaprio.png', 'Im_DanielRadcliffe.png', 'Im_HughJackman.png', 'Im_KeanuReeves.png', 'Im_GeorgeClooney.png'],diff,1,1.150068700000702,1,85.71428571428571,
YVSY0203,train,neg,0,neg0_id10_im18.bmp_neg0_id10_im17.bmp,['Im_ElijahWood.png', 'Im_BenStiller.png', 'Im_RobertPattinson.png', 'Im_PatrickDempsey.png', 'Im_JustinTimberlake.png', 'Im_LeonardoDiCaprio.png', 'Im_DanielRadcliffe.png', 'Im_HughJackman.png', 'Im_KeanuReeves.png', 'Im_GeorgeClooney.png'],same,1,0.6500161999992997,2,85.71428571428571,
YVSY0203,train,neg,150,neg150_id17_im14.bmp_neg150_id11_im10.bmp,['Im_ElijahWood.png', 'Im_BenStiller.png', 'Im_RobertPattinson.png', 'Im_PatrickDempsey.png', 'Im_JustinTimberlake.png', 'Im_LeonardoDiCaprio.png', 'Im_DanielRadcliffe.png', 'Im_HughJackman.png', 'Im_KeanuReeves.png', 'Im_GeorgeClooney.png'],diff,1,0.399758199999269,3,85.71428571428571,
YVSY0203,train,neg,0,neg0_id11_im10.bmp_neg0_id17_im14.bmp,['Im_ElijahWood.png', 'Im_BenStiller.png', 'Im_RobertPattinson.png', 'Im_PatrickDempsey.png', 'Im_JustinTimberlake.png', 'Im_LeonardoDiCaprio.png', 'Im_DanielRadcliffe.png', 'Im_HughJackman.png', 'Im_KeanuReeves.png', 'Im_GeorgeClooney.png'],diff,1,0.41677919999983715,4,85.71428571428571,
YVSY0203,train,neg,120,neg120_id8_im20.bmp_neg120_id8_im13.bmp,['Im_ElijahWood.png', 'Im_BenStiller.png', 'Im_RobertPattinson.png', 'Im_PatrickDempsey.png', 'Im_JustinTimberlake.png', 'Im_LeonardoDiCaprio.png', 'Im_DanielRadcliffe.png', 'Im_HughJackman.png', 'Im_KeanuReeves.png', 'Im_GeorgeClooney.png'],same,1,0.4165054000004602,5,85.71428571428571,
YVSY0203,train,neg,120,neg120_id7_im14.bmp_neg120_id7_im15.bmp,['Im_ElijahWood.png', 'Im_BenStiller.png', 'Im_RobertPattinson.png', 'Im_PatrickDempsey.png', 'Im_JustinTimberlake.png', 'Im_LeonardoDiCaprio.png', 'Im_DanielRadcliffe.png', 'Im_HughJackman.png', 'Im_KeanuReeves.png', 'Im_GeorgeClooney.png'],same,1,0.7836494999992283,6,85.71428571428571,
YVSY0203,train,neg,fs,negfs_id13_im29.bmp_negfs_id8_im13.bmp,['Im_ElijahWood.png', 'Im_BenStiller.png', 'Im_RobertPattinson.png', 'Im_PatrickDempsey.png', 'Im_JustinTimberlake.png', 'Im_LeonardoDiCaprio.png', 'Im_DanielRadcliffe.png', 'Im_HughJackman.png', 'Im_KeanuReeves.png', 'Im_GeorgeClooney.png'],diff,1,0.40821990000040387,7,85.71428571428571,
YVSY0203,train,neg,fs,negfs_id17_im8.bmp_negfs_id17_im14.bmp,['Im_ElijahWood.png', 'Im_BenStiller.png', 'Im_RobertPattinson.png', 'Im_PatrickDempsey.png', 'Im_JustinTimberlake.png', 'Im_LeonardoDiCaprio.png', 'Im_DanielRadcliffe.png', 'Im_HughJackman.png', 'Im_KeanuReeves.png', 'Im_GeorgeClooney.png'],same,1,0.5169756000004782,8,85.71428571428571,
YVSY0203,train,neg,30,neg30_id6_im18.bmp_neg30_id2_im3.bmp,['Im_ElijahWood.png', 'Im_BenStiller.png', 'Im_RobertPattinson.png', 'Im_PatrickDempsey.png', 'Im_JustinTimberlake.png', 'Im_LeonardoDiCaprio.png', 'Im_DanielRadcliffe.png', 'Im_HughJackman.png', 'Im_KeanuReeves.png', 'Im_GeorgeClooney.png'],diff,1,0.48348150000038004,9,85.71428571428571,
YVSY0203,train,neg,90,neg90_id13_im29.bmp_neg90_id19_im8.bmp,['Im_ElijahWood.png', 'Im_BenStiller.png', 'Im_RobertPattinson.png', 'Im_PatrickDempsey.png', 'Im_JustinTimberlake.png', 'Im_LeonardoDiCaprio.png', 'Im_DanielRadcliffe.png', 'Im_HughJackman.png', 'Im_KeanuReeves.png', 'Im_GeorgeClooney.png'],same,0,0.40847930000018096,9,85.71428571428571,
YVSY0203,train,neg,30,neg30_id19_im8.bmp_neg30_id19_im4.bmp,['Im_ElijahWood.png', 'Im_BenStiller.png', 'Im_RobertPattinson.png', 'Im_PatrickDempsey.png', 'Im_JustinTimberlake.png', 'Im_LeonardoDiCaprio.png', 'Im_DanielRadcliffe.png', 'Im_HughJackman.png', 'Im_KeanuReeves.png', 'Im_GeorgeClooney.png'],diff,0,0.6750269000003755,9,85.71428571428571,
YVSY0203,train,neg,90,neg90_id8_im13.bmp_neg90_id6_im18.bmp,['Im_ElijahWood.png', 'Im_BenStiller.png', 'Im_RobertPattinson.png', 'Im_PatrickDempsey.png', 'Im_JustinTimberlake.png', 'Im_LeonardoDiCaprio.png', 'Im_DanielRadcliffe.png', 'Im_HughJackman.png', 'Im_KeanuReeves.png', 'Im_GeorgeClooney.png'],same,0,0.3999459000006027,9,85.71428571428571,
YVSY0203,train,neg,60,neg60_id17_im14.bmp_neg60_id17_im8.bmp,['Im_ElijahWood.png', 'Im_BenStiller.png', 'Im_RobertPattinson.png', 'Im_PatrickDempsey.png', 'Im_JustinTimberlake.png', 'Im_LeonardoDiCaprio.png', 'Im_DanielRadcliffe.png', 'Im_HughJackman.png', 'Im_KeanuReeves.png', 'Im_GeorgeClooney.png'],same,1,0.5668596999994406,10,85.71428571428571,
YVSY0203,train,neg,150,neg150_id2_im3.bmp_neg150_id2_im2.bmp,['Im_ElijahWood.png', 'Im_BenStiller.png', 'Im_RobertPattinson.png', 'Im_PatrickDempsey.png', 'Im_JustinTimberlake.png', 'Im_LeonardoDiCaprio.png', 'Im_DanielRadcliffe.png', 'Im_HughJackman.png', 'Im_KeanuReeves.png', 'Im_GeorgeClooney.png'],diff,0,0.7166276999996626,10,85.71428571428571,
YVSY0203,train,inv,0,pos0_id13_im10.bmp_pos0_id13_im29.bmp,['Im_ElijahWood.png', 'Im_BenStiller.png', 'Im_RobertPattinson.png', 'Im_PatrickDempsey.png', 'Im_JustinTimberlake.png', 'Im_LeonardoDiCaprio.png', 'Im_DanielRadcliffe.png', 'Im_HughJackman.png', 'Im_KeanuReeves.png', 'Im_GeorgeClooney.png'],diff,0,0.9001819999994041,10,85.71428571428571,
YVSY0203,train,inv,120,pos120_id7_im26.bmp_pos120_id7_im14.bmp,['Im_ElijahWood.png', 'Im_BenStiller.png', 'Im_RobertPattinson.png', 'Im_PatrickDempsey.png', 'Im_JustinTimberlake.png', 'Im_LeonardoDiCaprio.png', 'Im_DanielRadcliffe.png', 'Im_HughJackman.png', 'Im_KeanuReeves.png', 'Im_GeorgeClooney.png'],diff,0,0.39994430000024295,10,85.71428571428571,
YVSY0203,train,inv,60,pos60_id19_im4.bmp_pos60_id8_im21.bmp,['Im_ElijahWood.png', 'Im_BenStiller.png', 'Im_RobertPattinson.png', 'Im_PatrickDempsey.png', 'Im_JustinTimberlake.png', 'Im_LeonardoDiCaprio.png', 'Im_DanielRadcliffe.png', 'Im_HughJackman.png', 'Im_KeanuReeves.png', 'Im_GeorgeClooney.png'],diff,1,0.5332848000007289,11,85.71428571428571,
YVSY0203,train,inv,0,pos0_id19_im27.bmp_pos0_id19_im8.bmp,['Im_ElijahWood.png', 'Im_BenStiller.png', 'Im_RobertPattinson.png', 'Im_PatrickDempsey.png', 'Im_JustinTimberlake.png', 'Im_LeonardoDiCaprio.png', 'Im_DanielRadcliffe.png', 'Im_HughJackman.png', 'Im_KeanuReeves.png', 'Im_GeorgeClooney.png'],same,1,0.5254173000002993,12,85.71428571428571,
YVSY0203,train,inv,30,pos30_id7_im15.bmp_pos30_id7_im26.bmp,['Im_ElijahWood.png', 'Im_BenStiller.png', 'Im_RobertPattinson.png', 'Im_PatrickDempsey.png', 'Im_JustinTimberlake.png', 'Im_LeonardoDiCaprio.png', 'Im_DanielRadcliffe.png', 'Im_HughJackman.png', 'Im_KeanuReeves.png', 'Im_GeorgeClooney.png'],diff,0,0.9001415000002453,12,85.71428571428571,
YVSY0203,train,inv,150,pos150_id10_im18.bmp_pos150_id10_im1.bmp,['Im_ElijahWood.png', 'Im_BenStiller.png', 'Im_RobertPattinson.png', 'Im_PatrickDempsey.png', 'Im_JustinTimberlake.png', 'Im_LeonardoDiCaprio.png', 'Im_DanielRadcliffe.png', 'Im_HughJackman.png', 'Im_KeanuReeves.png', 'Im_GeorgeClooney.png'],same,1,0.41687850000016624,13,85.71428571428571,
YVSY0203,train,inv,90,pos90_id5_im20.bmp_pos90_id5_im1.bmp,['Im_ElijahWood.png', 'Im_BenStiller.png', 'Im_RobertPattinson.png', 'Im_PatrickDempsey.png', 'Im_JustinTimberlake.png', 'Im_LeonardoDiCaprio.png', 'Im_DanielRadcliffe.png', 'Im_HughJackman.png', 'Im_KeanuReeves.png', 'Im_GeorgeClooney.png'],same,1,0.4915669000001799,14,85.71428571428571,
YVSY0203,train,inv,60,pos60_id7_im26.bmp_pos60_id7_im15.bmp,['Im_ElijahWood.png', 'Im_BenStiller.png', 'Im_RobertPattinson.png', 'Im_PatrickDempsey.png', 'Im_JustinTimberlake.png', 'Im_LeonardoDiCaprio.png', 'Im_DanielRadcliffe.png', 'Im_HughJackman.png', 'Im_KeanuReeves.png', 'Im_GeorgeClooney.png'],same,1,0.4416553000000931,15,85.71428571428571,
YVSY0203,train,inv,120,pos120_id6_im19.bmp_pos120_id17_im8.bmp,['Im_ElijahWood.png', 'Im_BenStiller.png', 'Im_RobertPattinson.png', 'Im_PatrickDempsey.png', 'Im_JustinTimberlake.png', 'Im_LeonardoDiCaprio.png', 'Im_DanielRadcliffe.png', 'Im_HughJackman.png', 'Im_KeanuReeves.png', 'Im_GeorgeClooney.png'],same,0,0.47519439999996393,15,85.71428571428571,
YVSY0203,train,inv,90,pos90_id13_im29.bmp_pos90_id19_im8.bmp,['Im_ElijahWood.png', 'Im_BenStiller.png', 'Im_RobertPattinson.png', 'Im_PatrickDempsey.png', 'Im_JustinTimberlake.png', 'Im_LeonardoDiCaprio.png', 'Im_DanielRadcliffe.png', 'Im_HughJackman.png', 'Im_KeanuReeves.png', 'Im_GeorgeClooney.png'],same,0,0.5752112999998644,15,85.71428571428571,
YVSY0203,train,inv,150,pos150_id17_im14.bmp_pos150_id17_im9.bmp,['Im_ElijahWood.png', 'Im_BenStiller.png', 'Im_RobertPattinson.png', 'Im_PatrickDempsey.png', 'Im_JustinTimberlake.png', 'Im_LeonardoDiCaprio.png', 'Im_DanielRadcliffe.png', 'Im_HughJackman.png', 'Im_KeanuReeves.png', 'Im_GeorgeClooney.png'],same,1,0.5000060000002122,16,85.71428571428571,
YVSY0203,train,inv,fs,posfs_id11_im1.bmp_posfs_id19_im8.bmp,['Im_ElijahWood.png', 'Im_BenStiller.png', 'Im_RobertPattinson.png', 'Im_PatrickDempsey.png', 'Im_JustinTimberlake.png', 'Im_LeonardoDiCaprio.png', 'Im_DanielRadcliffe.png', 'Im_HughJackman.png', 'Im_KeanuReeves.png', 'Im_GeorgeClooney.png'],diff,1,0.5836230000004434,17,85.71428571428571,
YVSY0203,train,inv,30,pos30_id6_im18.bmp_pos30_id8_im13.bmp,['Im_ElijahWood.png', 'Im_BenStiller.png', 'Im_RobertPattinson.png', 'Im_PatrickDempsey.png', 'Im_JustinTimberlake.png', 'Im_LeonardoDiCaprio.png', 'Im_DanielRadcliffe.png', 'Im_HughJackman.png', 'Im_KeanuReeves.png', 'Im_GeorgeClooney.png'],same,0,0.7005533999999898,17,85.71428571428571,
YVSY0203,train,inv,fs,posfs_id6_im19.bmp_posfs_id17_im8.bmp,['Im_ElijahWood.png', 'Im_BenStiller.png', 'Im_RobertPattinson.png', 'Im_PatrickDempsey.png', 'Im_JustinTimberlake.png', 'Im_LeonardoDiCaprio.png', 'Im_DanielRadcliffe.png', 'Im_HughJackman.png', 'Im_KeanuReeves.png', 'Im_GeorgeClooney.png'],diff,1,1.0170858999999837,18,85.71428571428571,
YVSY0203,train,pos,150,pos150_id11_im2.bmp_pos150_id10_im18.bmp,['Im_ElijahWood.png', 'Im_BenStiller.png', 'Im_RobertPattinson.png', 'Im_PatrickDempsey.png', 'Im_JustinTimberlake.png', 'Im_LeonardoDiCaprio.png', 'Im_DanielRadcliffe.png', 'Im_HughJackman.png', 'Im_KeanuReeves.png', 'Im_GeorgeClooney.png'],diff,1,0.7333628999995199,19,85.71428571428571,
YVSY0203,train,pos,150,pos150_id5_im10.bmp_pos150_id5_im20.bmp,['Im_ElijahWood.png', 'Im_BenStiller.png', 'Im_RobertPattinson.png', 'Im_PatrickDempsey.png', 'Im_JustinTimberlake.png', 'Im_LeonardoDiCaprio.png', 'Im_DanielRadcliffe.png', 'Im_HughJackman.png', 'Im_KeanuReeves.png', 'Im_GeorgeClooney.png'],same,1,0.44974829999955546,20,85.71428571428571,
YVSY0203,train,pos,fs,posfs_id2_im2.bmp_posfs_id2_im16.bmp,['Im_ElijahWood.png', 'Im_BenStiller.png', 'Im_RobertPattinson.png', 'Im_PatrickDempsey.png', 'Im_JustinTimberlake.png', 'Im_LeonardoDiCaprio.png', 'Im_DanielRadcliffe.png', 'Im_HughJackman.png', 'Im_KeanuReeves.png', 'Im_GeorgeClooney.png'],same,1,1.0670847000001231,21,85.71428571428571,
YVSY0203,train,pos,30,pos30_id10_im1.bmp_pos30_id10_im18.bmp,['Im_ElijahWood.png', 'Im_BenStiller.png', 'Im_RobertPattinson.png', 'Im_PatrickDempsey.png', 'Im_JustinTimberlake.png', 'Im_LeonardoDiCaprio.png', 'Im_DanielRadcliffe.png', 'Im_HughJackman.png', 'Im_KeanuReeves.png', 'Im_GeorgeClooney.png'],same,1,0.583432399999765,22,85.71428571428571,
YVSY0203,train,pos,120,pos120_id10_im17.bmp_pos120_id10_im1.bmp,['Im_ElijahWood.png', 'Im_BenStiller.png', 'Im_RobertPattinson.png', 'Im_PatrickDempsey.png', 'Im_JustinTimberlake.png', 'Im_LeonardoDiCaprio.png', 'Im_DanielRadcliffe.png', 'Im_HughJackman.png', 'Im_KeanuReeves.png', 'Im_GeorgeClooney.png'],same,1,0.5086024000001999,23,85.71428571428571,
YVSY0203,train,pos,30,pos30_id10_im18.bmp_pos30_id2_im3.bmp,['Im_ElijahWood.png', 'Im_BenStiller.png', 'Im_RobertPattinson.png', 'Im_PatrickDempsey.png', 'Im_JustinTimberlake.png', 'Im_LeonardoDiCaprio.png', 'Im_DanielRadcliffe.png', 'Im_HughJackman.png', 'Im_KeanuReeves.png', 'Im_GeorgeClooney.png'],diff,1,0.4833124000006137,24,85.71428571428571,
YVSY0203,train,pos,90,pos90_id17_im8.bmp_pos90_id6_im19.bmp,['Im_ElijahWood.png', 'Im_BenStiller.png', 'Im_RobertPattinson.png', 'Im_PatrickDempsey.png', 'Im_JustinTimberlake.png', 'Im_LeonardoDiCaprio.png', 'Im_DanielRadcliffe.png', 'Im_HughJackman.png', 'Im_KeanuReeves.png', 'Im_GeorgeClooney.png'],diff,1,0.8337553000001208,25,85.71428571428571,
YVSY0203,train,pos,60,pos60_id6_im19.bmp_pos60_id17_im8.bmp,['Im_ElijahWood.png', 'Im_BenStiller.png', 'Im_RobertPattinson.png', 'Im_PatrickDempsey.png', 'Im_JustinTimberlake.png', 'Im_LeonardoDiCaprio.png', 'Im_DanielRadcliffe.png', 'Im_HughJackman.png', 'Im_KeanuReeves.png', 'Im_GeorgeClooney.png'],diff,1,0.5916957999997976,26,85.71428571428571,
YVSY0203,train,pos,0,pos0_id17_im14.bmp_pos0_id11_im10.bmp,['Im_ElijahWood.png', 'Im_BenStiller.png', 'Im_RobertPattinson.png', 'Im_PatrickDempsey.png', 'Im_JustinTimberlake.png', 'Im_LeonardoDiCaprio.png', 'Im_DanielRadcliffe.png', 'Im_HughJackman.png', 'Im_KeanuReeves.png', 'Im_GeorgeClooney.png'],diff,1,0.41686590000063006,27,85.71428571428571,
YVSY0203,train,pos,60,pos60_id10_im17.bmp_pos60_id17_im8.bmp,['Im_ElijahWood.png', 'Im_BenStiller.png', 'Im_RobertPattinson.png', 'Im_PatrickDempsey.png', 'Im_JustinTimberlake.png', 'Im_LeonardoDiCaprio.png', 'Im_DanielRadcliffe.png', 'Im_HughJackman.png', 'Im_KeanuReeves.png', 'Im_GeorgeClooney.png'],diff,1,1.391754000000219,28,85.71428571428571,
YVSY0203,train,pos,120,pos120_id6_im19.bmp_pos120_id17_im9.bmp,['Im_ElijahWood.png', 'Im_BenStiller.png', 'Im_RobertPattinson.png', 'Im_PatrickDempsey.png', 'Im_JustinTimberlake.png', 'Im_LeonardoDiCaprio.png', 'Im_DanielRadcliffe.png', 'Im_HughJackman.png', 'Im_KeanuReeves.png', 'Im_GeorgeClooney.png'],diff,1,0.5748764999998457,29,85.71428571428571,
YVSY0203,train,pos,0,pos0_id11_im10.bmp_pos0_id19_im27.bmp,['Im_ElijahWood.png', 'Im_BenStiller.png', 'Im_RobertPattinson.png', 'Im_PatrickDempsey.png', 'Im_JustinTimberlake.png', 'Im_LeonardoDiCaprio.png', 'Im_DanielRadcliffe.png', 'Im_HughJackman.png', 'Im_KeanuReeves.png', 'Im_GeorgeClooney.png'],diff,1,0.4082601000000068,30,85.71428571428571,
YVSY0203,train,pos,90,pos90_id17_im9.bmp_pos90_id6_im19.bmp,['Im_ElijahWood.png', 'Im_BenStiller.png', 'Im_RobertPattinson.png', 'Im_PatrickDempsey.png', 'Im_JustinTimberlake.png', 'Im_LeonardoDiCaprio.png', 'Im_DanielRadcliffe.png', 'Im_HughJackman.png', 'Im_KeanuReeves.png', 'Im_GeorgeClooney.png'],diff,1,0.5167081999998118,31,85.71428571428571,
YVSY0203,train,pos,fs,posfs_id13_im15.bmp_posfs_id7_im15.bmp,['Im_ElijahWood.png', 'Im_BenStiller.png', 'Im_RobertPattinson.png', 'Im_PatrickDempsey.png', 'Im_JustinTimberlake.png', 'Im_LeonardoDiCaprio.png', 'Im_DanielRadcliffe.png', 'Im_HughJackman.png', 'Im_KeanuReeves.png', 'Im_GeorgeClooney.png'],diff,1,0.46669780000047467,32,85.71428571428571,
YVSY0203,0,neg,60,neg60_id19_im4.bmp_neg60_id19_im27.bmp,['Im_ElijahWood.png', 'Im_BenStiller.png', 'Im_RobertPattinson.png', 'Im_PatrickDempsey.png', 'Im_JustinTimberlake.png', 'Im_LeonardoDiCaprio.png', 'Im_DanielRadcliffe.png', 'Im_HughJackman.png', 'Im_KeanuReeves.png', 'Im_GeorgeClooney.png'],diff,0,0.8000615999999354,0,0,
YVSY0203,0,neg,150,neg150_id6_im18.bmp_neg150_id6_im12.bmp,['Im_ElijahWood.png', 'Im_BenStiller.png', 'Im_RobertPattinson.png', 'Im_PatrickDempsey.png', 'Im_JustinTimberlake.png', 'Im_LeonardoDiCaprio.png', 'Im_DanielRadcliffe.png', 'Im_HughJackman.png', 'Im_KeanuReeves.png', 'Im_GeorgeClooney.png'],diff,0,0.5083645999993678,0,0,
YVSY0203,0,neg,120,neg120_id17_im9.bmp_neg120_id5_im10.bmp,['Im_ElijahWood.png', 'Im_BenStiller.png', 'Im_RobertPattinson.png', 'Im_PatrickDempsey.png', 'Im_JustinTimberlake.png', 'Im_LeonardoDiCaprio.png', 'Im_DanielRadcliffe.png', 'Im_HughJackman.png', 'Im_KeanuReeves.png', 'Im_GeorgeClooney.png'],same,0,0.5419218999995792,0,0,
YVSY0203,0,neg,120,neg120_id6_im19.bmp_neg120_id17_im8.bmp,['Im_ElijahWood.png', 'Im_BenStiller.png', 'Im_RobertPattinson.png', 'Im_PatrickDempsey.png', 'Im_JustinTimberlake.png', 'Im_LeonardoDiCaprio.png', 'Im_DanielRadcliffe.png', 'Im_HughJackman.png', 'Im_KeanuReeves.png', 'Im_GeorgeClooney.png'],diff,1,0.44206410000060714,1,0,
YVSY0203,0,neg,90,neg90_id6_im18.bmp_neg90_id2_im3.bmp,['Im_ElijahWood.png', 'Im_BenStiller.png', 'Im_RobertPattinson.png', 'Im_PatrickDempsey.png', 'Im_JustinTimberlake.png', 'Im_LeonardoDiCaprio.png', 'Im_DanielRadcliffe.png', 'Im_HughJackman.png', 'Im_KeanuReeves.png', 'Im_GeorgeClooney.png'],diff,1,0.4002141999999367,2,0,
YVSY0203,0,neg,0,neg0_id19_im4.bmp_neg0_id8_im21.bmp,['Im_ElijahWood.png', 'Im_BenStiller.png', 'Im_RobertPattinson.png', 'Im_PatrickDempsey.png', 'Im_JustinTimberlake.png', 'Im_LeonardoDiCaprio.png', 'Im_DanielRadcliffe.png', 'Im_HughJackman.png', 'Im_KeanuReeves.png', 'Im_GeorgeClooney.png'],diff,1,0.5919711000005918,3,0,
YVSY0203,0,neg,30,neg30_id6_im19.bmp_neg30_id6_im18.bmp,['Im_ElijahWood.png', 'Im_BenStiller.png', 'Im_RobertPattinson.png', 'Im_PatrickDempsey.png', 'Im_JustinTimberlake.png', 'Im_LeonardoDiCaprio.png', 'Im_DanielRadcliffe.png', 'Im_HughJackman.png', 'Im_KeanuReeves.png', 'Im_GeorgeClooney.png'],same,1,0.4503825000001598,4,0,
YVSY0203,0,neg,0,neg0_id2_im2.bmp_neg0_id7_im26.bmp,['Im_ElijahWood.png', 'Im_BenStiller.png', 'Im_RobertPattinson.png', 'Im_PatrickDempsey.png', 'Im_JustinTimberlake.png', 'Im_LeonardoDiCaprio.png', 'Im_DanielRadcliffe.png', 'Im_HughJackman.png', 'Im_KeanuReeves.png', 'Im_GeorgeClooney.png'],diff,1,1.358517400000892,5,0,
YVSY0203,0,neg,90,neg90_id5_im20.bmp_neg90_id17_im14.bmp,['Im_ElijahWood.png', 'Im_BenStiller.png', 'Im_RobertPattinson.png', 'Im_PatrickDempsey.png', 'Im_JustinTimberlake.png', 'Im_LeonardoDiCaprio.png', 'Im_DanielRadcliffe.png', 'Im_HughJackman.png', 'Im_KeanuReeves.png', 'Im_GeorgeClooney.png'],diff,1,0.8003509999998641,6,0,
YVSY0203,0,neg,fs,negfs_id13_im29.bmp_negfs_id19_im8.bmp,['Im_ElijahWood.png', 'Im_BenStiller.png', 'Im_RobertPattinson.png', 'Im_PatrickDempsey.png', 'Im_JustinTimberlake.png', 'Im_LeonardoDiCaprio.png', 'Im_DanielRadcliffe.png', 'Im_HughJackman.png', 'Im_KeanuReeves.png', 'Im_GeorgeClooney.png'],diff,1,0.9585922000005667,7,0,
YVSY0203,0,neg,60,neg60_id10_im18.bmp_neg60_id11_im2.bmp,['Im_ElijahWood.png', 'Im_BenStiller.png', 'Im_RobertPattinson.png', 'Im_PatrickDempsey.png', 'Im_JustinTimberlake.png', 'Im_LeonardoDiCaprio.png', 'Im_DanielRadcliffe.png', 'Im_HughJackman.png', 'Im_KeanuReeves.png', 'Im_GeorgeClooney.png'],diff,1,0.6085112999999183,8,0,
YVSY0203,0,neg,30,neg30_id6_im19.bmp_neg30_id17_im9.bmp,['Im_ElijahWood.png', 'Im_BenStiller.png', 'Im_RobertPattinson.png', 'Im_PatrickDempsey.png', 'Im_JustinTimberlake.png', 'Im_LeonardoDiCaprio.png', 'Im_DanielRadcliffe.png', 'Im_HughJackman.png', 'Im_KeanuReeves.png', 'Im_GeorgeClooney.png'],same,0,0.9418446999998196,8,0,
YVSY0203,0,neg,fs,negfs_id10_im18.bmp_negfs_id10_im17.bmp,['Im_ElijahWood.png', 'Im_BenStiller.png', 'Im_RobertPattinson.png', 'Im_PatrickDempsey.png', 'Im_JustinTimberlake.png', 'Im_LeonardoDiCaprio.png', 'Im_DanielRadcliffe.png', 'Im_HughJackman.png', 'Im_KeanuReeves.png', 'Im_GeorgeClooney.png'],same,1,0.5999467000001459,9,0,
YVSY0203,0,neg,150,neg150_id10_im17.bmp_neg150_id10_im1.bmp,['Im_ElijahWood.png', 'Im_BenStiller.png', 'Im_RobertPattinson.png', 'Im_PatrickDempsey.png', 'Im_JustinTimberlake.png', 'Im_LeonardoDiCaprio.png', 'Im_DanielRadcliffe.png', 'Im_HughJackman.png', 'Im_KeanuReeves.png', 'Im_GeorgeClooney.png'],same,1,0.40836209999997664,10,0,
YVSY0203,1,pos,150,pos150_id6_im18.bmp_pos150_id6_im12.bmp,['Im_ElijahWood.png', 'Im_BenStiller.png', 'Im_RobertPattinson.png', 'Im_PatrickDempsey.png', 'Im_JustinTimberlake.png', 'Im_LeonardoDiCaprio.png', 'Im_DanielRadcliffe.png', 'Im_HughJackman.png', 'Im_KeanuReeves.png', 'Im_GeorgeClooney.png'],same,1,0.8419567999999344,11,0,
YVSY0203,1,pos,120,pos120_id11_im2.bmp_pos120_id5_im1.bmp,['Im_ElijahWood.png', 'Im_BenStiller.png', 'Im_RobertPattinson.png', 'Im_PatrickDempsey.png', 'Im_JustinTimberlake.png', 'Im_LeonardoDiCaprio.png', 'Im_DanielRadcliffe.png', 'Im_HughJackman.png', 'Im_KeanuReeves.png', 'Im_GeorgeClooney.png'],diff,1,0.40829389999998966,12,0,
YVSY0203,1,pos,0,pos0_id13_im29.bmp_pos0_id13_im15.bmp,['Im_ElijahWood.png', 'Im_BenStiller.png', 'Im_RobertPattinson.png', 'Im_PatrickDempsey.png', 'Im_JustinTimberlake.png', 'Im_LeonardoDiCaprio.png', 'Im_DanielRadcliffe.png', 'Im_HughJackman.png', 'Im_KeanuReeves.png', 'Im_GeorgeClooney.png'],diff,0,0.9752659999994648,12,0,
YVSY0203,1,pos,30,pos30_id10_im17.bmp_pos30_id5_im10.bmp,['Im_ElijahWood.png', 'Im_BenStiller.png', 'Im_RobertPattinson.png', 'Im_PatrickDempsey.png', 'Im_JustinTimberlake.png', 'Im_LeonardoDiCaprio.png', 'Im_DanielRadcliffe.png', 'Im_HughJackman.png', 'Im_KeanuReeves.png', 'Im_GeorgeClooney.png'],same,0,0.6667822999997952,12,0,
YVSY0203,1,pos,fs,posfs_id17_im8.bmp_posfs_id17_im9.bmp,['Im_ElijahWood.png', 'Im_BenStiller.png', 'Im_RobertPattinson.png', 'Im_PatrickDempsey.png', 'Im_JustinTimberlake.png', 'Im_LeonardoDiCaprio.png', 'Im_DanielRadcliffe.png', 'Im_HughJackman.png', 'Im_KeanuReeves.png', 'Im_GeorgeClooney.png'],same,1,0.5753977999993367,13,0,
YVSY0203,1,pos,90,pos90_id13_im29.bmp_pos90_id19_im8.bmp,['Im_ElijahWood.png', 'Im_BenStiller.png', 'Im_RobertPattinson.png', 'Im_PatrickDempsey.png', 'Im_JustinTimberlake.png', 'Im_LeonardoDiCaprio.png', 'Im_DanielRadcliffe.png', 'Im_HughJackman.png', 'Im_KeanuReeves.png', 'Im_GeorgeClooney.png'],diff,1,0.5169871999996758,14,0,
YVSY0203,1,pos,120,pos120_id6_im12.bmp_pos120_id19_im27.bmp,['Im_ElijahWood.png', 'Im_BenStiller.png', 'Im_RobertPattinson.png', 'Im_PatrickDempsey.png', 'Im_JustinTimberlake.png', 'Im_LeonardoDiCaprio.png', 'Im_DanielRadcliffe.png', 'Im_HughJackman.png', 'Im_KeanuReeves.png', 'Im_GeorgeClooney.png'],diff,1,0.4332332000003589,15,0,
YVSY0203,1,pos,90,pos90_id5_im1.bmp_pos90_id11_im2.bmp,['Im_ElijahWood.png', 'Im_BenStiller.png', 'Im_RobertPattinson.png', 'Im_PatrickDempsey.png', 'Im_JustinTimberlake.png', 'Im_LeonardoDiCaprio.png', 'Im_DanielRadcliffe.png', 'Im_HughJackman.png', 'Im_KeanuReeves.png', 'Im_GeorgeClooney.png'],diff,1,0.4252016000000367,16,0,
YVSY0203,1,pos,60,pos60_id7_im26.bmp_pos60_id2_im2.bmp,['Im_ElijahWood.png', 'Im_BenStiller.png', 'Im_RobertPattinson.png', 'Im_PatrickDempsey.png', 'Im_JustinTimberlake.png', 'Im_LeonardoDiCaprio.png', 'Im_DanielRadcliffe.png', 'Im_HughJackman.png', 'Im_KeanuReeves.png', 'Im_GeorgeClooney.png'],diff,1,0.8165709000004426,17,0,
YVSY0203,1,pos,30,pos30_id17_im8.bmp_pos30_id17_im9.bmp,['Im_ElijahWood.png', 'Im_BenStiller.png', 'Im_RobertPattinson.png', 'Im_PatrickDempsey.png', 'Im_JustinTimberlake.png', 'Im_LeonardoDiCaprio.png', 'Im_DanielRadcliffe.png', 'Im_HughJackman.png', 'Im_KeanuReeves.png', 'Im_GeorgeClooney.png'],same,1,0.4666557999998986,18,0,
YVSY0203,1,pos,60,pos60_id2_im16.bmp_pos60_id2_im2.bmp,['Im_ElijahWood.png', 'Im_BenStiller.png', 'Im_RobertPattinson.png', 'Im_PatrickDempsey.png', 'Im_JustinTimberlake.png', 'Im_LeonardoDiCaprio.png', 'Im_DanielRadcliffe.png', 'Im_HughJackman.png', 'Im_KeanuReeves.png', 'Im_GeorgeClooney.png'],same,1,0.9751660000001721,19,0,
YVSY0203,1,pos,fs,posfs_id6_im19.bmp_posfs_id17_im9.bmp,['Im_ElijahWood.png', 'Im_BenStiller.png', 'Im_RobertPattinson.png', 'Im_PatrickDempsey.png', 'Im_JustinTimberlake.png', 'Im_LeonardoDiCaprio.png', 'Im_DanielRadcliffe.png', 'Im_HughJackman.png', 'Im_KeanuReeves.png', 'Im_GeorgeClooney.png'],diff,1,0.6084068000000116,20,0,
YVSY0203,1,pos,0,pos0_id5_im10.bmp_pos0_id17_im9.bmp,['Im_ElijahWood.png', 'Im_BenStiller.png', 'Im_RobertPattinson.png', 'Im_PatrickDempsey.png', 'Im_JustinTimberlake.png', 'Im_LeonardoDiCaprio.png', 'Im_DanielRadcliffe.png', 'Im_HughJackman.png', 'Im_KeanuReeves.png', 'Im_GeorgeClooney.png'],diff,1,0.9003376000000571,21,0,
YVSY0203,1,pos,150,pos150_id17_im8.bmp_pos150_id17_im14.bmp,['Im_ElijahWood.png', 'Im_BenStiller.png', 'Im_RobertPattinson.png', 'Im_PatrickDempsey.png', 'Im_JustinTimberlake.png', 'Im_LeonardoDiCaprio.png', 'Im_DanielRadcliffe.png', 'Im_HughJackman.png', 'Im_KeanuReeves.png', 'Im_GeorgeClooney.png'],same,1,0.41663489999973535,22,0,
YVSY0203,2,inv,150,pos150_id11_im2.bmp_pos150_id11_im10.bmp,['Im_ElijahWood.png', 'Im_BenStiller.png', 'Im_RobertPattinson.png', 'Im_PatrickDempsey.png', 'Im_JustinTimberlake.png', 'Im_LeonardoDiCaprio.png', 'Im_DanielRadcliffe.png', 'Im_HughJackman.png', 'Im_KeanuReeves.png', 'Im_GeorgeClooney.png'],same,1,0.49202020000029734,23,0,
YVSY0203,2,inv,150,pos150_id8_im21.bmp_pos150_id8_im20.bmp,['Im_ElijahWood.png', 'Im_BenStiller.png', 'Im_RobertPattinson.png', 'Im_PatrickDempsey.png', 'Im_JustinTimberlake.png', 'Im_LeonardoDiCaprio.png', 'Im_DanielRadcliffe.png', 'Im_HughJackman.png', 'Im_KeanuReeves.png', 'Im_GeorgeClooney.png'],same,1,0.42508619999989605,24,0,
YVSY0203,2,inv,90,pos90_id17_im14.bmp_pos90_id5_im20.bmp,['Im_ElijahWood.png', 'Im_BenStiller.png', 'Im_RobertPattinson.png', 'Im_PatrickDempsey.png', 'Im_JustinTimberlake.png', 'Im_LeonardoDiCaprio.png', 'Im_DanielRadcliffe.png', 'Im_HughJackman.png', 'Im_KeanuReeves.png', 'Im_GeorgeClooney.png'],same,0,0.41673830000036105,24,0,
YVSY0203,2,inv,fs,posfs_id19_im4.bmp_posfs_id19_im27.bmp,['Im_ElijahWood.png', 'Im_BenStiller.png', 'Im_RobertPattinson.png', 'Im_PatrickDempsey.png', 'Im_JustinTimberlake.png', 'Im_LeonardoDiCaprio.png', 'Im_DanielRadcliffe.png', 'Im_HughJackman.png', 'Im_KeanuReeves.png', 'Im_GeorgeClooney.png'],diff,0,0.49156109999967157,24,0,
YVSY0203,2,inv,120,pos120_id5_im10.bmp_pos120_id5_im1.bmp,['Im_ElijahWood.png', 'Im_BenStiller.png', 'Im_RobertPattinson.png', 'Im_PatrickDempsey.png', 'Im_JustinTimberlake.png', 'Im_LeonardoDiCaprio.png', 'Im_DanielRadcliffe.png', 'Im_HughJackman.png', 'Im_KeanuReeves.png', 'Im_GeorgeClooney.png'],same,1,0.42484719999993104,25,0,
YVSY0203,2,inv,60,pos60_id5_im10.bmp_pos60_id17_im9.bmp,['Im_ElijahWood.png', 'Im_BenStiller.png', 'Im_RobertPattinson.png', 'Im_PatrickDempsey.png', 'Im_JustinTimberlake.png', 'Im_LeonardoDiCaprio.png', 'Im_DanielRadcliffe.png', 'Im_HughJackman.png', 'Im_KeanuReeves.png', 'Im_GeorgeClooney.png'],diff,1,0.4166978000002928,26,0,
YVSY0203,2,inv,fs,posfs_id17_im8.bmp_posfs_id17_im9.bmp,['Im_ElijahWood.png', 'Im_BenStiller.png', 'Im_RobertPattinson.png', 'Im_PatrickDempsey.png', 'Im_JustinTimberlake.png', 'Im_LeonardoDiCaprio.png', 'Im_DanielRadcliffe.png', 'Im_HughJackman.png', 'Im_KeanuReeves.png', 'Im_GeorgeClooney.png'],same,1,0.7915752999997494,27,0,
YVSY0203,2,inv,30,pos30_id17_im8.bmp_pos30_id6_im19.bmp,['Im_ElijahWood.png', 'Im_BenStiller.png', 'Im_RobertPattinson.png', 'Im_PatrickDempsey.png', 'Im_JustinTimberlake.png', 'Im_LeonardoDiCaprio.png', 'Im_DanielRadcliffe.png', 'Im_HughJackman.png', 'Im_KeanuReeves.png', 'Im_GeorgeClooney.png'],diff,1,0.45033149999926536,28,0,
YVSY0203,2,inv,0,pos0_id6_im12.bmp_pos0_id19_im27.bmp,['Im_ElijahWood.png', 'Im_BenStiller.png', 'Im_RobertPattinson.png', 'Im_PatrickDempsey.png', 'Im_JustinTimberlake.png', 'Im_LeonardoDiCaprio.png', 'Im_DanielRadcliffe.png', 'Im_HughJackman.png', 'Im_KeanuReeves.png', 'Im_GeorgeClooney.png'],diff,1,0.41650449999997363,29,0,
YVSY0203,2,inv,0,pos0_id2_im3.bmp_pos0_id2_im2.bmp,['Im_ElijahWood.png', 'Im_BenStiller.png', 'Im_RobertPattinson.png', 'Im_PatrickDempsey.png', 'Im_JustinTimberlake.png', 'Im_LeonardoDiCaprio.png', 'Im_DanielRadcliffe.png', 'Im_HughJackman.png', 'Im_KeanuReeves.png', 'Im_GeorgeClooney.png'],same,1,0.4167299999999159,30,0,
YVSY0203,2,inv,90,pos90_id5_im20.bmp_pos90_id8_im21.bmp,['Im_ElijahWood.png', 'Im_BenStiller.png', 'Im_RobertPattinson.png', 'Im_PatrickDempsey.png', 'Im_JustinTimberlake.png', 'Im_LeonardoDiCaprio.png', 'Im_DanielRadcliffe.png', 'Im_HughJackman.png', 'Im_KeanuReeves.png', 'Im_GeorgeClooney.png'],diff,1,0.4919308999997156,31,0,
YVSY0203,2,inv,60,pos60_id17_im14.bmp_pos60_id17_im9.bmp,['Im_ElijahWood.png', 'Im_BenStiller.png', 'Im_RobertPattinson.png', 'Im_PatrickDempsey.png', 'Im_JustinTimberlake.png', 'Im_LeonardoDiCaprio.png', 'Im_DanielRadcliffe.png', 'Im_HughJackman.png', 'Im_KeanuReeves.png', 'Im_GeorgeClooney.png'],diff,0,0.9752739999994446,31,0,
YVSY0203,2,inv,120,pos120_id2_im16.bmp_pos120_id2_im2.bmp,['Im_ElijahWood.png', 'Im_BenStiller.png', 'Im_RobertPattinson.png', 'Im_PatrickDempsey.png', 'Im_JustinTimberlake.png', 'Im_LeonardoDiCaprio.png', 'Im_DanielRadcliffe.png', 'Im_HughJackman.png', 'Im_KeanuReeves.png', 'Im_GeorgeClooney.png'],same,1,0.42492179999953805,32,0,
YVSY0203,2,inv,30,pos30_id11_im1.bmp_pos30_id11_im2.bmp,['Im_ElijahWood.png', 'Im_BenStiller.png', 'Im_RobertPattinson.png', 'Im_PatrickDempsey.png', 'Im_JustinTimberlake.png', 'Im_LeonardoDiCaprio.png', 'Im_DanielRadcliffe.png', 'Im_HughJackman.png', 'Im_KeanuReeves.png', 'Im_GeorgeClooney.png'],diff,0,0.4167349000008471,32,0,
YVSY0203,3,inv,150,pos150_id19_im8.bmp_pos150_id19_im4.bmp,['Im_ElijahWood.png', 'Im_BenStiller.png', 'Im_RobertPattinson.png', 'Im_PatrickDempsey.png', 'Im_JustinTimberlake.png', 'Im_LeonardoDiCaprio.png', 'Im_DanielRadcliffe.png', 'Im_HughJackman.png', 'Im_KeanuReeves.png', 'Im_GeorgeClooney.png'],same,1,0.8416931000001568,1,76.19047619047619,
YVSY0203,3,inv,60,pos60_id19_im27.bmp_pos60_id19_im8.bmp,['Im_ElijahWood.png', 'Im_BenStiller.png', 'Im_RobertPattinson.png', 'Im_PatrickDempsey.png', 'Im_JustinTimberlake.png', 'Im_LeonardoDiCaprio.png', 'Im_DanielRadcliffe.png', 'Im_HughJackman.png', 'Im_KeanuReeves.png', 'Im_GeorgeClooney.png'],same,1,0.4166261000000304,2,76.19047619047619,
YVSY0203,3,inv,0,pos0_id7_im26.bmp_pos0_id7_im14.bmp,['Im_ElijahWood.png', 'Im_BenStiller.png', 'Im_RobertPattinson.png', 'Im_PatrickDempsey.png', 'Im_JustinTimberlake.png', 'Im_LeonardoDiCaprio.png', 'Im_DanielRadcliffe.png', 'Im_HughJackman.png', 'Im_KeanuReeves.png', 'Im_GeorgeClooney.png'],same,1,0.5084954000003563,3,76.19047619047619,
YVSY0203,3,inv,30,pos30_id19_im27.bmp_pos30_id19_im8.bmp,['Im_ElijahWood.png', 'Im_BenStiller.png', 'Im_RobertPattinson.png', 'Im_PatrickDempsey.png', 'Im_JustinTimberlake.png', 'Im_LeonardoDiCaprio.png', 'Im_DanielRadcliffe.png', 'Im_HughJackman.png', 'Im_KeanuReeves.png', 'Im_GeorgeClooney.png'],same,1,0.42510979999951815,4,76.19047619047619,
YVSY0203,3,inv,60,pos60_id11_im2.bmp_pos60_id10_im18.bmp,['Im_ElijahWood.png', 'Im_BenStiller.png', 'Im_RobertPattinson.png', 'Im_PatrickDempsey.png', 'Im_JustinTimberlake.png', 'Im_LeonardoDiCaprio.png', 'Im_DanielRadcliffe.png', 'Im_HughJackman.png', 'Im_KeanuReeves.png', 'Im_GeorgeClooney.png'],diff,1,0.5250614999995378,5,76.19047619047619,
YVSY0203,3,inv,90,pos90_id8_im21.bmp_pos90_id19_im4.bmp,['Im_ElijahWood.png', 'Im_BenStiller.png', 'Im_RobertPattinson.png', 'Im_PatrickDempsey.png', 'Im_JustinTimberlake.png', 'Im_LeonardoDiCaprio.png', 'Im_DanielRadcliffe.png', 'Im_HughJackman.png', 'Im_KeanuReeves.png', 'Im_GeorgeClooney.png'],diff,1,0.6666350000004968,6,76.19047619047619,
YVSY0203,3,inv,30,pos30_id13_im15.bmp_pos30_id13_im29.bmp,['Im_ElijahWood.png', 'Im_BenStiller.png', 'Im_RobertPattinson.png', 'Im_PatrickDempsey.png', 'Im_JustinTimberlake.png', 'Im_LeonardoDiCaprio.png', 'Im_DanielRadcliffe.png', 'Im_HughJackman.png', 'Im_KeanuReeves.png', 'Im_GeorgeClooney.png'],same,1,0.883636700000352,7,76.19047619047619,
YVSY0203,3,inv,fs,posfs_id2_im3.bmp_posfs_id2_im2.bmp,['Im_ElijahWood.png', 'Im_BenStiller.png', 'Im_RobertPattinson.png', 'Im_PatrickDempsey.png', 'Im_JustinTimberlake.png', 'Im_LeonardoDiCaprio.png', 'Im_DanielRadcliffe.png', 'Im_HughJackman.png', 'Im_KeanuReeves.png', 'Im_GeorgeClooney.png'],same,1,0.949925500000063,8,76.19047619047619,
YVSY0203,3,inv,150,pos150_id19_im8.bmp_pos150_id19_im27.bmp,['Im_ElijahWood.png', 'Im_BenStiller.png', 'Im_RobertPattinson.png', 'Im_PatrickDempsey.png', 'Im_JustinTimberlake.png', 'Im_LeonardoDiCaprio.png', 'Im_DanielRadcliffe.png', 'Im_HughJackman.png', 'Im_KeanuReeves.png', 'Im_GeorgeClooney.png'],same,1,0.5584516999997504,9,76.19047619047619,
YVSY0203,3,inv,0,pos0_id19_im8.bmp_pos0_id19_im4.bmp,['Im_ElijahWood.png', 'Im_BenStiller.png', 'Im_RobertPattinson.png', 'Im_PatrickDempsey.png', 'Im_JustinTimberlake.png', 'Im_LeonardoDiCaprio.png', 'Im_DanielRadcliffe.png', 'Im_HughJackman.png', 'Im_KeanuReeves.png', 'Im_GeorgeClooney.png'],diff,0,0.4250497000002724,9,76.19047619047619,
YVSY0203,3,inv,120,pos120_id5_im10.bmp_pos120_id5_im20.bmp,['Im_ElijahWood.png', 'Im_BenStiller.png', 'Im_RobertPattinson.png', 'Im_PatrickDempsey.png', 'Im_JustinTimberlake.png', 'Im_LeonardoDiCaprio.png', 'Im_DanielRadcliffe.png', 'Im_HughJackman.png', 'Im_KeanuReeves.png', 'Im_GeorgeClooney.png'],same,1,0.5755600000002232,10,76.19047619047619,
YVSY0203,3,inv,120,pos120_id11_im1.bmp_pos120_id19_im8.bmp,['Im_ElijahWood.png', 'Im_BenStiller.png', 'Im_RobertPattinson.png', 'Im_PatrickDempsey.png', 'Im_JustinTimberlake.png', 'Im_LeonardoDiCaprio.png', 'Im_DanielRadcliffe.png', 'Im_HughJackman.png', 'Im_KeanuReeves.png', 'Im_GeorgeClooney.png'],same,0,0.5919656000005489,10,76.19047619047619,
YVSY0203,3,inv,fs,posfs_id13_im29.bmp_posfs_id8_im13.bmp,['Im_ElijahWood.png', 'Im_BenStiller.png', 'Im_RobertPattinson.png', 'Im_PatrickDempsey.png', 'Im_JustinTimberlake.png', 'Im_LeonardoDiCaprio.png', 'Im_DanielRadcliffe.png', 'Im_HughJackman.png', 'Im_KeanuReeves.png', 'Im_GeorgeClooney.png'],diff,1,0.41657260000010865,11,76.19047619047619,
YVSY0203,3,inv,90,pos90_id10_im18.bmp_pos90_id2_im3.bmp,['Im_ElijahWood.png', 'Im_BenStiller.png', 'Im_RobertPattinson.png', 'Im_PatrickDempsey.png', 'Im_JustinTimberlake.png', 'Im_LeonardoDiCaprio.png', 'Im_DanielRadcliffe.png', 'Im_HughJackman.png', 'Im_KeanuReeves.png', 'Im_GeorgeClooney.png'],diff,1,0.5500389999997424,12,76.19047619047619,
YVSY0203,4,neg,120,neg120_id8_im20.bmp_neg120_id2_im16.bmp,['Im_ElijahWood.png', 'Im_BenStiller.png', 'Im_RobertPattinson.png', 'Im_PatrickDempsey.png', 'Im_JustinTimberlake.png', 'Im_LeonardoDiCaprio.png', 'Im_DanielRadcliffe.png', 'Im_HughJackman.png', 'Im_KeanuReeves.png', 'Im_GeorgeClooney.png'],same,0,0.5665193000004365,12,76.19047619047619,
YVSY0203,4,neg,150,neg150_id6_im12.bmp_neg150_id7_im14.bmp,['Im_ElijahWood.png', 'Im_BenStiller.png', 'Im_RobertPattinson.png', 'Im_PatrickDempsey.png', 'Im_JustinTimberlake.png', 'Im_LeonardoDiCaprio.png', 'Im_DanielRadcliffe.png', 'Im_HughJackman.png', 'Im_KeanuReeves.png', 'Im_GeorgeClooney.png'],diff,1,0.41668750000008004,13,76.19047619047619,
YVSY0203,4,neg,120,neg120_id17_im9.bmp_neg120_id17_im14.bmp,['Im_ElijahWood.png', 'Im_BenStiller.png', 'Im_RobertPattinson.png', 'Im_PatrickDempsey.png', 'Im_JustinTimberlake.png', 'Im_LeonardoDiCaprio.png', 'Im_DanielRadcliffe.png', 'Im_HughJackman.png', 'Im_KeanuReeves.png', 'Im_GeorgeClooney.png'],diff,0,1.0834482000000207,13,76.19047619047619,
YVSY0203,4,neg,30,neg30_id6_im12.bmp_neg30_id19_im27.bmp,['Im_ElijahWood.png', 'Im_BenStiller.png', 'Im_RobertPattinson.png', 'Im_PatrickDempsey.png', 'Im_JustinTimberlake.png', 'Im_LeonardoDiCaprio.png', 'Im_DanielRadcliffe.png', 'Im_HughJackman.png', 'Im_KeanuReeves.png', 'Im_GeorgeClooney.png'],diff,1,0.7336044000003312,14,76.19047619047619,
YVSY0203,4,neg,0,neg0_id19_im8.bmp_neg0_id13_im29.bmp,['Im_ElijahWood.png', 'Im_BenStiller.png', 'Im_RobertPattinson.png', 'Im_PatrickDempsey.png', 'Im_JustinTimberlake.png', 'Im_LeonardoDiCaprio.png', 'Im_DanielRadcliffe.png', 'Im_HughJackman.png', 'Im_KeanuReeves.png', 'Im_GeorgeClooney.png'],diff,1,1.234168199999658,15,76.19047619047619,
YVSY0203,4,neg,60,neg60_id6_im12.bmp_neg60_id19_im27.bmp,['Im_ElijahWood.png', 'Im_BenStiller.png', 'Im_RobertPattinson.png', 'Im_PatrickDempsey.png', 'Im_JustinTimberlake.png', 'Im_LeonardoDiCaprio.png', 'Im_DanielRadcliffe.png', 'Im_HughJackman.png', 'Im_KeanuReeves.png', 'Im_GeorgeClooney.png'],diff,1,1.6252564000005805,16,76.19047619047619,
YVSY0203,4,neg,90,neg90_id5_im20.bmp_neg90_id5_im10.bmp,['Im_ElijahWood.png', 'Im_BenStiller.png', 'Im_RobertPattinson.png', 'Im_PatrickDempsey.png', 'Im_JustinTimberlake.png', 'Im_LeonardoDiCaprio.png', 'Im_DanielRadcliffe.png', 'Im_HughJackman.png', 'Im_KeanuReeves.png', 'Im_GeorgeClooney.png'],diff,0,0.5998546999999235,16,76.19047619047619,
YVSY0203,4,neg,30,neg30_id7_im14.bmp_neg30_id7_im15.bmp,['Im_ElijahWood.png', 'Im_BenStiller.png', 'Im_RobertPattinson.png', 'Im_PatrickDempsey.png', 'Im_JustinTimberlake.png', 'Im_LeonardoDiCaprio.png', 'Im_DanielRadcliffe.png', 'Im_HughJackman.png', 'Im_KeanuReeves.png', 'Im_GeorgeClooney.png'],diff,0,0.6587404000001698,16,76.19047619047619,
YVSY0203,4,neg,150,neg150_id5_im20.bmp_neg150_id8_im21.bmp,['Im_ElijahWood.png', 'Im_BenStiller.png', 'Im_RobertPattinson.png', 'Im_PatrickDempsey.png', 'Im_JustinTimberlake.png', 'Im_LeonardoDiCaprio.png', 'Im_DanielRadcliffe.png', 'Im_HughJackman.png', 'Im_KeanuReeves.png', 'Im_GeorgeClooney.png'],diff,1,0.5004216999996061,17,76.19047619047619,
YVSY0203,4,neg,0,neg0_id6_im18.bmp_neg0_id6_im12.bmp,['Im_ElijahWood.png', 'Im_BenStiller.png', 'Im_RobertPattinson.png', 'Im_PatrickDempsey.png', 'Im_JustinTimberlake.png', 'Im_LeonardoDiCaprio.png', 'Im_DanielRadcliffe.png', 'Im_HughJackman.png', 'Im_KeanuReeves.png', 'Im_GeorgeClooney.png'],same,1,0.8002003000001423,18,76.19047619047619,
YVSY0203,4,neg,90,neg90_id13_im10.bmp_neg90_id13_im29.bmp,['Im_ElijahWood.png', 'Im_BenStiller.png', 'Im_RobertPattinson.png', 'Im_PatrickDempsey.png', 'Im_JustinTimberlake.png', 'Im_LeonardoDiCaprio.png', 'Im_DanielRadcliffe.png', 'Im_HughJackman.png', 'Im_KeanuReeves.png', 'Im_GeorgeClooney.png'],same,1,0.6750883000004251,19,76.19047619047619,
YVSY0203,4,neg,60,neg60_id7_im15.bmp_neg60_id13_im15.bmp,['Im_ElijahWood.png', 'Im_BenStiller.png', 'Im_RobertPattinson.png', 'Im_PatrickDempsey.png', 'Im_JustinTimberlake.png', 'Im_LeonardoDiCaprio.png', 'Im_DanielRadcliffe.png', 'Im_HughJackman.png', 'Im_KeanuReeves.png', 'Im_GeorgeClooney.png'],diff,1,0.4166810999995505,20,76.19047619047619,
YVSY0203,4,neg,fs,negfs_id19_im27.bmp_negfs_id19_im4.bmp,['Im_ElijahWood.png', 'Im_BenStiller.png', 'Im_RobertPattinson.png', 'Im_PatrickDempsey.png', 'Im_JustinTimberlake.png', 'Im_LeonardoDiCaprio.png', 'Im_DanielRadcliffe.png', 'Im_HughJackman.png', 'Im_KeanuReeves.png', 'Im_GeorgeClooney.png'],diff,0,1.266615799999272,20,76.19047619047619,
YVSY0203,4,neg,fs,negfs_id8_im20.bmp_negfs_id19_im4.bmp,['Im_ElijahWood.png', 'Im_BenStiller.png', 'Im_RobertPattinson.png', 'Im_PatrickDempsey.png', 'Im_JustinTimberlake.png', 'Im_LeonardoDiCaprio.png', 'Im_DanielRadcliffe.png', 'Im_HughJackman.png', 'Im_KeanuReeves.png', 'Im_GeorgeClooney.png'],diff,1,0.9420092000000295,21,76.19047619047619,
YVSY0203,5,pos,150,pos150_id2_im16.bmp_pos150_id13_im10.bmp,['Im_ElijahWood.png', 'Im_BenStiller.png', 'Im_RobertPattinson.png', 'Im_PatrickDempsey.png', 'Im_JustinTimberlake.png', 'Im_LeonardoDiCaprio.png', 'Im_DanielRadcliffe.png', 'Im_HughJackman.png', 'Im_KeanuReeves.png', 'Im_GeorgeClooney.png'],diff,1,0.6584324999994351,22,76.19047619047619,
YVSY0203,5,pos,90,pos90_id10_im18.bmp_pos90_id10_im1.bmp,['Im_ElijahWood.png', 'Im_BenStiller.png', 'Im_RobertPattinson.png', 'Im_PatrickDempsey.png', 'Im_JustinTimberlake.png', 'Im_LeonardoDiCaprio.png', 'Im_DanielRadcliffe.png', 'Im_HughJackman.png', 'Im_KeanuReeves.png', 'Im_GeorgeClooney.png'],same,1,0.4500108000002001,23,76.19047619047619,
YVSY0203,5,pos,0,pos0_id7_im15.bmp_pos0_id7_im14.bmp,['Im_ElijahWood.png', 'Im_BenStiller.png', 'Im_RobertPattinson.png', 'Im_PatrickDempsey.png', 'Im_JustinTimberlake.png', 'Im_LeonardoDiCaprio.png', 'Im_DanielRadcliffe.png', 'Im_HughJackman.png', 'Im_KeanuReeves.png', 'Im_GeorgeClooney.png'],same,1,0.5248842999999397,24,76.19047619047619,
YVSY0203,5,pos,60,pos60_id2_im16.bmp_pos60_id2_im3.bmp,['Im_ElijahWood.png', 'Im_BenStiller.png', 'Im_RobertPattinson.png', 'Im_PatrickDempsey.png', 'Im_JustinTimberlake.png', 'Im_LeonardoDiCaprio.png', 'Im_DanielRadcliffe.png', 'Im_HughJackman.png', 'Im_KeanuReeves.png', 'Im_GeorgeClooney.png'],same,1,0.5336456000004546,25,76.19047619047619,
YVSY0203,5,pos,30,pos30_id19_im8.bmp_pos30_id19_im4.bmp,['Im_ElijahWood.png', 'Im_BenStiller.png', 'Im_RobertPattinson.png', 'Im_PatrickDempsey.png', 'Im_JustinTimberlake.png', 'Im_LeonardoDiCaprio.png', 'Im_DanielRadcliffe.png', 'Im_HughJackman.png', 'Im_KeanuReeves.png', 'Im_GeorgeClooney.png'],same,1,0.4252553000005719,26,76.19047619047619,
YVSY0203,5,pos,120,pos120_id19_im27.bmp_pos120_id19_im4.bmp,['Im_ElijahWood.png', 'Im_BenStiller.png', 'Im_RobertPattinson.png', 'Im_PatrickDempsey.png', 'Im_JustinTimberlake.png', 'Im_LeonardoDiCaprio.png', 'Im_DanielRadcliffe.png', 'Im_HughJackman.png', 'Im_KeanuReeves.png', 'Im_GeorgeClooney.png'],same,1,0.4584437000003163,27,76.19047619047619,
YVSY0203,5,pos,60,pos60_id11_im2.bmp_pos60_id11_im10.bmp,['Im_ElijahWood.png', 'Im_BenStiller.png', 'Im_RobertPattinson.png', 'Im_PatrickDempsey.png', 'Im_JustinTimberlake.png', 'Im_LeonardoDiCaprio.png', 'Im_DanielRadcliffe.png', 'Im_HughJackman.png', 'Im_KeanuReeves.png', 'Im_GeorgeClooney.png'],same,1,0.6253335000001243,28,76.19047619047619,
YVSY0203,5,pos,0,pos0_id19_im8.bmp_pos0_id13_im29.bmp,['Im_ElijahWood.png', 'Im_BenStiller.png', 'Im_RobertPattinson.png', 'Im_PatrickDempsey.png', 'Im_JustinTimberlake.png', 'Im_LeonardoDiCaprio.png', 'Im_DanielRadcliffe.png', 'Im_HughJackman.png', 'Im_KeanuReeves.png', 'Im_GeorgeClooney.png'],diff,1,0.41675190000023576,29,76.19047619047619,
YVSY0203,5,pos,90,pos90_id13_im10.bmp_pos90_id2_im16.bmp,['Im_ElijahWood.png', 'Im_BenStiller.png', 'Im_RobertPattinson.png', 'Im_PatrickDempsey.png', 'Im_JustinTimberlake.png', 'Im_LeonardoDiCaprio.png', 'Im_DanielRadcliffe.png', 'Im_HughJackman.png', 'Im_KeanuReeves.png', 'Im_GeorgeClooney.png'],diff,1,0.43325669999921956,30,76.19047619047619,
YVSY0203,5,pos,150,pos150_id2_im3.bmp_pos150_id2_im16.bmp,['Im_ElijahWood.png', 'Im_BenStiller.png', 'Im_RobertPattinson.png', 'Im_PatrickDempsey.png', 'Im_JustinTimberlake.png', 'Im_LeonardoDiCaprio.png', 'Im_DanielRadcliffe.png', 'Im_HughJackman.png', 'Im_KeanuReeves.png', 'Im_GeorgeClooney.png'],same,1,0.5836256000002322,31,76.19047619047619,
YVSY0203,5,pos,120,pos120_id13_im15.bmp_pos120_id13_im10.bmp,['Im_ElijahWood.png', 'Im_BenStiller.png', 'Im_RobertPattinson.png', 'Im_PatrickDempsey.png', 'Im_JustinTimberlake.png', 'Im_LeonardoDiCaprio.png', 'Im_DanielRadcliffe.png', 'Im_HughJackman.png', 'Im_KeanuReeves.png', 'Im_GeorgeClooney.png'],same,1,0.5334741999995458,32,76.19047619047619,
YVSY0203,5,pos,30,pos30_id11_im2.bmp_pos30_id11_im1.bmp,['Im_ElijahWood.png', 'Im_BenStiller.png', 'Im_RobertPattinson.png', 'Im_PatrickDempsey.png', 'Im_JustinTimberlake.png', 'Im_LeonardoDiCaprio.png', 'Im_DanielRadcliffe.png', 'Im_HughJackman.png', 'Im_KeanuReeves.png', 'Im_GeorgeClooney.png'],same,1,0.525092300000324,33,76.19047619047619,
YVSY0203,5,pos,fs,posfs_id7_im14.bmp_posfs_id7_im26.bmp,['Im_ElijahWood.png', 'Im_BenStiller.png', 'Im_RobertPattinson.png', 'Im_PatrickDempsey.png', 'Im_JustinTimberlake.png', 'Im_LeonardoDiCaprio.png', 'Im_DanielRadcliffe.png', 'Im_HughJackman.png', 'Im_KeanuReeves.png', 'Im_GeorgeClooney.png'],same,1,0.450021800000286,34,76.19047619047619,
YVSY0203,5,pos,fs,posfs_id2_im16.bmp_posfs_id13_im10.bmp,['Im_ElijahWood.png', 'Im_BenStiller.png', 'Im_RobertPattinson.png', 'Im_PatrickDempsey.png', 'Im_JustinTimberlake.png', 'Im_LeonardoDiCaprio.png', 'Im_DanielRadcliffe.png', 'Im_HughJackman.png', 'Im_KeanuReeves.png', 'Im_GeorgeClooney.png'],diff,1,0.41673460000038176,35,76.19047619047619,
YVSY0203,6,pos,0,pos0_id11_im1.bmp_pos0_id13_im15.bmp,['Im_ElijahWood.png', 'Im_BenStiller.png', 'Im_RobertPattinson.png', 'Im_PatrickDempsey.png', 'Im_JustinTimberlake.png', 'Im_LeonardoDiCaprio.png', 'Im_DanielRadcliffe.png', 'Im_HughJackman.png', 'Im_KeanuReeves.png', 'Im_GeorgeClooney.png'],diff,1,0.4337049999994633,1,83.33333333333333,
YVSY0203,6,pos,60,pos60_id17_im9.bmp_pos60_id5_im10.bmp,['Im_ElijahWood.png', 'Im_BenStiller.png', 'Im_RobertPattinson.png', 'Im_PatrickDempsey.png', 'Im_JustinTimberlake.png', 'Im_LeonardoDiCaprio.png', 'Im_DanielRadcliffe.png', 'Im_HughJackman.png', 'Im_KeanuReeves.png', 'Im_GeorgeClooney.png'],diff,1,0.4584543000000849,2,83.33333333333333,
YVSY0203,6,pos,150,pos150_id13_im29.bmp_pos150_id19_im8.bmp,['Im_ElijahWood.png', 'Im_BenStiller.png', 'Im_RobertPattinson.png', 'Im_PatrickDempsey.png', 'Im_JustinTimberlake.png', 'Im_LeonardoDiCaprio.png', 'Im_DanielRadcliffe.png', 'Im_HughJackman.png', 'Im_KeanuReeves.png', 'Im_GeorgeClooney.png'],same,0,0.4167985000003682,2,83.33333333333333,
YVSY0203,6,pos,fs,posfs_id6_im18.bmp_posfs_id8_im13.bmp,['Im_ElijahWood.png', 'Im_BenStiller.png', 'Im_RobertPattinson.png', 'Im_PatrickDempsey.png', 'Im_JustinTimberlake.png', 'Im_LeonardoDiCaprio.png', 'Im_DanielRadcliffe.png', 'Im_HughJackman.png', 'Im_KeanuReeves.png', 'Im_GeorgeClooney.png'],same,0,0.6752668999997695,2,83.33333333333333,
YVSY0203,6,pos,fs,posfs_id6_im12.bmp_posfs_id6_im18.bmp,['Im_ElijahWood.png', 'Im_BenStiller.png', 'Im_RobertPattinson.png', 'Im_PatrickDempsey.png', 'Im_JustinTimberlake.png', 'Im_LeonardoDiCaprio.png', 'Im_DanielRadcliffe.png', 'Im_HughJackman.png', 'Im_KeanuReeves.png', 'Im_GeorgeClooney.png'],same,1,0.5501919000007547,3,83.33333333333333,
YVSY0203,6,pos,120,pos120_id2_im2.bmp_pos120_id7_im26.bmp,['Im_ElijahWood.png', 'Im_BenStiller.png', 'Im_RobertPattinson.png', 'Im_PatrickDempsey.png', 'Im_JustinTimberlake.png', 'Im_LeonardoDiCaprio.png', 'Im_DanielRadcliffe.png', 'Im_HughJackman.png', 'Im_KeanuReeves.png', 'Im_GeorgeClooney.png'],diff,1,0.41675089999989723,4,83.33333333333333,
YVSY0203,6,pos,60,pos60_id11_im10.bmp_pos60_id17_im14.bmp,['Im_ElijahWood.png', 'Im_BenStiller.png', 'Im_RobertPattinson.png', 'Im_PatrickDempsey.png', 'Im_JustinTimberlake.png', 'Im_LeonardoDiCaprio.png', 'Im_DanielRadcliffe.png', 'Im_HughJackman.png', 'Im_KeanuReeves.png', 'Im_GeorgeClooney.png'],diff,1,0.424920800000109,5,83.33333333333333,
YVSY0203,6,pos,30,pos30_id8_im13.bmp_pos30_id6_im18.bmp,['Im_ElijahWood.png', 'Im_BenStiller.png', 'Im_RobertPattinson.png', 'Im_PatrickDempsey.png', 'Im_JustinTimberlake.png', 'Im_LeonardoDiCaprio.png', 'Im_DanielRadcliffe.png', 'Im_HughJackman.png', 'Im_KeanuReeves.png', 'Im_GeorgeClooney.png'],diff,1,0.4166820000000371,6,83.33333333333333,
YVSY0203,6,pos,90,pos90_id8_im21.bmp_pos90_id5_im20.bmp,['Im_ElijahWood.png', 'Im_BenStiller.png', 'Im_RobertPattinson.png', 'Im_PatrickDempsey.png', 'Im_JustinTimberlake.png', 'Im_LeonardoDiCaprio.png', 'Im_DanielRadcliffe.png', 'Im_HughJackman.png', 'Im_KeanuReeves.png', 'Im_GeorgeClooney.png'],same,0,0.6086446999997861,6,83.33333333333333,
YVSY0203,6,pos,150,pos150_id13_im15.bmp_pos150_id11_im1.bmp,['Im_ElijahWood.png', 'Im_BenStiller.png', 'Im_RobertPattinson.png', 'Im_PatrickDempsey.png', 'Im_JustinTimberlake.png', 'Im_LeonardoDiCaprio.png', 'Im_DanielRadcliffe.png', 'Im_HughJackman.png', 'Im_KeanuReeves.png', 'Im_GeorgeClooney.png'],diff,1,0.4251916999992318,7,83.33333333333333,
YVSY0203,6,pos,30,pos30_id2_im2.bmp_pos30_id7_im15.bmp,['Im_ElijahWood.png', 'Im_BenStiller.png', 'Im_RobertPattinson.png', 'Im_PatrickDempsey.png', 'Im_JustinTimberlake.png', 'Im_LeonardoDiCaprio.png', 'Im_DanielRadcliffe.png', 'Im_HughJackman.png', 'Im_KeanuReeves.png', 'Im_GeorgeClooney.png'],same,0,1.1498376999998072,7,83.33333333333333,
YVSY0203,6,pos,120,pos120_id13_im29.bmp_pos120_id8_im13.bmp,['Im_ElijahWood.png', 'Im_BenStiller.png', 'Im_RobertPattinson.png', 'Im_PatrickDempsey.png', 'Im_JustinTimberlake.png', 'Im_LeonardoDiCaprio.png', 'Im_DanielRadcliffe.png', 'Im_HughJackman.png', 'Im_KeanuReeves.png', 'Im_GeorgeClooney.png'],diff,1,0.4670202999996036,8,83.33333333333333,
YVSY0203,6,pos,90,pos90_id17_im9.bmp_pos90_id17_im8.bmp,['Im_ElijahWood.png', 'Im_BenStiller.png', 'Im_RobertPattinson.png', 'Im_PatrickDempsey.png', 'Im_JustinTimberlake.png', 'Im_LeonardoDiCaprio.png', 'Im_DanielRadcliffe.png', 'Im_HughJackman.png', 'Im_KeanuReeves.png', 'Im_GeorgeClooney.png'],same,1,0.41645840000001044,9,83.33333333333333,
YVSY0203,6,pos,0,pos0_id2_im16.bmp_pos0_id2_im2.bmp,['Im_ElijahWood.png', 'Im_BenStiller.png', 'Im_RobertPattinson.png', 'Im_PatrickDempsey.png', 'Im_JustinTimberlake.png', 'Im_LeonardoDiCaprio.png', 'Im_DanielRadcliffe.png', 'Im_HughJackman.png', 'Im_KeanuReeves.png', 'Im_GeorgeClooney.png'],same,1,0.4166579000002457,10,83.33333333333333,
YVSY0203,7,neg,120,neg120_id17_im14.bmp_neg120_id11_im10.bmp,['Im_ElijahWood.png', 'Im_BenStiller.png', 'Im_RobertPattinson.png', 'Im_PatrickDempsey.png', 'Im_JustinTimberlake.png', 'Im_LeonardoDiCaprio.png', 'Im_DanielRadcliffe.png', 'Im_HughJackman.png', 'Im_KeanuReeves.png', 'Im_GeorgeClooney.png'],same,0,0.4419950000001336,10,83.33333333333333,
YVSY0203,7,neg,30,neg30_id7_im26.bmp_neg30_id2_im2.bmp,['Im_ElijahWood.png', 'Im_BenStiller.png', 'Im_RobertPattinson.png', 'Im_PatrickDempsey.png', 'Im_JustinTimberlake.png', 'Im_LeonardoDiCaprio.png', 'Im_DanielRadcliffe.png', 'Im_HughJackman.png', 'Im_KeanuReeves.png', 'Im_GeorgeClooney.png'],diff,1,0.4918965999995635,11,83.33333333333333,
YVSY0203,7,neg,120,neg120_id13_im15.bmp_neg120_id7_im15.bmp,['Im_ElijahWood.png', 'Im_BenStiller.png', 'Im_RobertPattinson.png', 'Im_PatrickDempsey.png', 'Im_JustinTimberlake.png', 'Im_LeonardoDiCaprio.png', 'Im_DanielRadcliffe.png', 'Im_HughJackman.png', 'Im_KeanuReeves.png', 'Im_GeorgeClooney.png'],diff,1,0.4667509000000791,12,83.33333333333333,
YVSY0203,7,neg,60,neg60_id7_im26.bmp_neg60_id2_im2.bmp,['Im_ElijahWood.png', 'Im_BenStiller.png', 'Im_RobertPattinson.png', 'Im_PatrickDempsey.png', 'Im_JustinTimberlake.png', 'Im_LeonardoDiCaprio.png', 'Im_DanielRadcliffe.png', 'Im_HughJackman.png', 'Im_KeanuReeves.png', 'Im_GeorgeClooney.png'],diff,1,0.6168168000003789,13,83.33333333333333,
YVSY0203,7,neg,90,neg90_id7_im26.bmp_neg90_id2_im2.bmp,['Im_ElijahWood.png', 'Im_BenStiller.png', 'Im_RobertPattinson.png', 'Im_PatrickDempsey.png', 'Im_JustinTimberlake.png', 'Im_LeonardoDiCaprio.png', 'Im_DanielRadcliffe.png', 'Im_HughJackman.png', 'Im_KeanuReeves.png', 'Im_GeorgeClooney.png'],diff,1,0.8504653999998482,14,83.33333333333333,
YVSY0203,7,neg,90,neg90_id5_im1.bmp_neg90_id5_im20.bmp,['Im_ElijahWood.png', 'Im_BenStiller.png', 'Im_RobertPattinson.png', 'Im_PatrickDempsey.png', 'Im_JustinTimberlake.png', 'Im_LeonardoDiCaprio.png', 'Im_DanielRadcliffe.png', 'Im_HughJackman.png', 'Im_KeanuReeves.png', 'Im_GeorgeClooney.png'],same,1,0.7335393999992448,15,83.33333333333333,
YVSY0203,7,neg,0,neg0_id6_im19.bmp_neg0_id6_im18.bmp,['Im_ElijahWood.png', 'Im_BenStiller.png', 'Im_RobertPattinson.png', 'Im_PatrickDempsey.png', 'Im_JustinTimberlake.png', 'Im_LeonardoDiCaprio.png', 'Im_DanielRadcliffe.png', 'Im_HughJackman.png', 'Im_KeanuReeves.png', 'Im_GeorgeClooney.png'],same,1,0.6253089000001637,16,83.33333333333333,
YVSY0203,7,neg,30,neg30_id11_im1.bmp_neg30_id11_im10.bmp,['Im_ElijahWood.png', 'Im_BenStiller.png', 'Im_RobertPattinson.png', 'Im_PatrickDempsey.png', 'Im_JustinTimberlake.png', 'Im_LeonardoDiCaprio.png', 'Im_DanielRadcliffe.png', 'Im_HughJackman.png', 'Im_KeanuReeves.png', 'Im_GeorgeClooney.png'],diff,0,0.483498900000086,16,83.33333333333333,
YVSY0203,7,neg,fs,negfs_id5_im1.bmp_negfs_id11_im2.bmp,['Im_ElijahWood.png', 'Im_BenStiller.png', 'Im_RobertPattinson.png', 'Im_PatrickDempsey.png', 'Im_JustinTimberlake.png', 'Im_LeonardoDiCaprio.png', 'Im_DanielRadcliffe.png', 'Im_HughJackman.png', 'Im_KeanuReeves.png', 'Im_GeorgeClooney.png'],diff,1,0.40844339999966905,17,83.33333333333333,
YVSY0203,7,neg,150,neg150_id7_im14.bmp_neg150_id10_im1.bmp,['Im_ElijahWood.png', 'Im_BenStiller.png', 'Im_RobertPattinson.png', 'Im_PatrickDempsey.png', 'Im_JustinTimberlake.png', 'Im_LeonardoDiCaprio.png', 'Im_DanielRadcliffe.png', 'Im_HughJackman.png', 'Im_KeanuReeves.png', 'Im_GeorgeClooney.png'],diff,1,0.41661130000011326,18,83.33333333333333,
YVSY0203,7,neg,0,neg0_id10_im17.bmp_neg0_id10_im1.bmp,['Im_ElijahWood.png', 'Im_BenStiller.png', 'Im_RobertPattinson.png', 'Im_PatrickDempsey.png', 'Im_JustinTimberlake.png', 'Im_LeonardoDiCaprio.png', 'Im_DanielRadcliffe.png', 'Im_HughJackman.png', 'Im_KeanuReeves.png', 'Im_GeorgeClooney.png'],same,1,0.4331843999998455,19,83.33333333333333,
YVSY0203,7,neg,fs,negfs_id11_im1.bmp_negfs_id19_im8.bmp,['Im_ElijahWood.png', 'Im_BenStiller.png', 'Im_RobertPattinson.png', 'Im_PatrickDempsey.png', 'Im_JustinTimberlake.png', 'Im_LeonardoDiCaprio.png', 'Im_DanielRadcliffe.png', 'Im_HughJackman.png', 'Im_KeanuReeves.png', 'Im_GeorgeClooney.png'],diff,1,0.41672810000000027,20,83.33333333333333,
YVSY0203,7,neg,150,neg150_id2_im2.bmp_neg150_id7_im15.bmp,['Im_ElijahWood.png', 'Im_BenStiller.png', 'Im_RobertPattinson.png', 'Im_PatrickDempsey.png', 'Im_JustinTimberlake.png', 'Im_LeonardoDiCaprio.png', 'Im_DanielRadcliffe.png', 'Im_HughJackman.png', 'Im_KeanuReeves.png', 'Im_GeorgeClooney.png'],diff,1,0.41676430000006803,21,83.33333333333333,
YVSY0203,7,neg,60,neg60_id6_im12.bmp_neg60_id6_im19.bmp,['Im_ElijahWood.png', 'Im_BenStiller.png', 'Im_RobertPattinson.png', 'Im_PatrickDempsey.png', 'Im_JustinTimberlake.png', 'Im_LeonardoDiCaprio.png', 'Im_DanielRadcliffe.png', 'Im_HughJackman.png', 'Im_KeanuReeves.png', 'Im_GeorgeClooney.png'],same,1,0.41687739999997575,22,83.33333333333333,
YVSY0203,8,inv,0,pos0_id2_im3.bmp_pos0_id6_im18.bmp,['Im_ElijahWood.png', 'Im_BenStiller.png', 'Im_RobertPattinson.png', 'Im_PatrickDempsey.png', 'Im_JustinTimberlake.png', 'Im_LeonardoDiCaprio.png', 'Im_DanielRadcliffe.png', 'Im_HughJackman.png', 'Im_KeanuReeves.png', 'Im_GeorgeClooney.png'],diff,1,0.4250128000003315,23,83.33333333333333,
YVSY0203,8,inv,30,pos30_id8_im21.bmp_pos30_id5_im20.bmp,['Im_ElijahWood.png', 'Im_BenStiller.png', 'Im_RobertPattinson.png', 'Im_PatrickDempsey.png', 'Im_JustinTimberlake.png', 'Im_LeonardoDiCaprio.png', 'Im_DanielRadcliffe.png', 'Im_HughJackman.png', 'Im_KeanuReeves.png', 'Im_GeorgeClooney.png'],diff,1,0.5333869999994931,24,83.33333333333333,
YVSY0203,8,inv,90,pos90_id19_im27.bmp_pos90_id19_im8.bmp,['Im_ElijahWood.png', 'Im_BenStiller.png', 'Im_RobertPattinson.png', 'Im_PatrickDempsey.png', 'Im_JustinTimberlake.png', 'Im_LeonardoDiCaprio.png', 'Im_DanielRadcliffe.png', 'Im_HughJackman.png', 'Im_KeanuReeves.png', 'Im_GeorgeClooney.png'],same,1,0.4167418999995789,25,83.33333333333333,
YVSY0203,8,inv,120,pos120_id19_im27.bmp_pos120_id19_im8.bmp,['Im_ElijahWood.png', 'Im_BenStiller.png', 'Im_RobertPattinson.png', 'Im_PatrickDempsey.png', 'Im_JustinTimberlake.png', 'Im_LeonardoDiCaprio.png', 'Im_DanielRadcliffe.png', 'Im_HughJackman.png', 'Im_KeanuReeves.png', 'Im_GeorgeClooney.png'],same,1,0.42502779999995255,26,83.33333333333333,
YVSY0203,8,inv,150,pos150_id2_im3.bmp_pos150_id6_im18.bmp,['Im_ElijahWood.png', 'Im_BenStiller.png', 'Im_RobertPattinson.png', 'Im_PatrickDempsey.png', 'Im_JustinTimberlake.png', 'Im_LeonardoDiCaprio.png', 'Im_DanielRadcliffe.png', 'Im_HughJackman.png', 'Im_KeanuReeves.png', 'Im_GeorgeClooney.png'],diff,1,0.5582518999999593,27,83.33333333333333,
YVSY0203,8,inv,120,pos120_id8_im13.bmp_pos120_id13_im29.bmp,['Im_ElijahWood.png', 'Im_BenStiller.png', 'Im_RobertPattinson.png', 'Im_PatrickDempsey.png', 'Im_JustinTimberlake.png', 'Im_LeonardoDiCaprio.png', 'Im_DanielRadcliffe.png', 'Im_HughJackman.png', 'Im_KeanuReeves.png', 'Im_GeorgeClooney.png'],diff,1,0.4831911000001128,28,83.33333333333333,
YVSY0203,8,inv,90,pos90_id17_im8.bmp_pos90_id17_im14.bmp,['Im_ElijahWood.png', 'Im_BenStiller.png', 'Im_RobertPattinson.png', 'Im_PatrickDempsey.png', 'Im_JustinTimberlake.png', 'Im_LeonardoDiCaprio.png', 'Im_DanielRadcliffe.png', 'Im_HughJackman.png', 'Im_KeanuReeves.png', 'Im_GeorgeClooney.png'],same,1,0.8253597000002628,29,83.33333333333333,
YVSY0203,8,inv,60,pos60_id17_im8.bmp_pos60_id17_im9.bmp,['Im_ElijahWood.png', 'Im_BenStiller.png', 'Im_RobertPattinson.png', 'Im_PatrickDempsey.png', 'Im_JustinTimberlake.png', 'Im_LeonardoDiCaprio.png', 'Im_DanielRadcliffe.png', 'Im_HughJackman.png', 'Im_KeanuReeves.png', 'Im_GeorgeClooney.png'],diff,0,0.816592899999705,29,83.33333333333333,
YVSY0203,8,inv,fs,posfs_id8_im13.bmp_posfs_id8_im20.bmp,['Im_ElijahWood.png', 'Im_BenStiller.png', 'Im_RobertPattinson.png', 'Im_PatrickDempsey.png', 'Im_JustinTimberlake.png', 'Im_LeonardoDiCaprio.png', 'Im_DanielRadcliffe.png', 'Im_HughJackman.png', 'Im_KeanuReeves.png', 'Im_GeorgeClooney.png'],same,1,0.7168809999993755,30,83.33333333333333,
YVSY0203,8,inv,fs,posfs_id11_im2.bmp_posfs_id11_im1.bmp,['Im_ElijahWood.png', 'Im_BenStiller.png', 'Im_RobertPattinson.png', 'Im_PatrickDempsey.png', 'Im_JustinTimberlake.png', 'Im_LeonardoDiCaprio.png', 'Im_DanielRadcliffe.png', 'Im_HughJackman.png', 'Im_KeanuReeves.png', 'Im_GeorgeClooney.png'],same,1,0.4334638999998788,31,83.33333333333333,
YVSY0203,8,inv,150,pos150_id7_im26.bmp_pos150_id13_im10.bmp,['Im_ElijahWood.png', 'Im_BenStiller.png', 'Im_RobertPattinson.png', 'Im_PatrickDempsey.png', 'Im_JustinTimberlake.png', 'Im_LeonardoDiCaprio.png', 'Im_DanielRadcliffe.png', 'Im_HughJackman.png', 'Im_KeanuReeves.png', 'Im_GeorgeClooney.png'],diff,1,0.8170028000004095,32,83.33333333333333,
YVSY0203,8,inv,60,pos60_id10_im1.bmp_pos60_id10_im17.bmp,['Im_ElijahWood.png', 'Im_BenStiller.png', 'Im_RobertPattinson.png', 'Im_PatrickDempsey.png', 'Im_JustinTimberlake.png', 'Im_LeonardoDiCaprio.png', 'Im_DanielRadcliffe.png', 'Im_HughJackman.png', 'Im_KeanuReeves.png', 'Im_GeorgeClooney.png'],same,1,0.533596000000216,33,83.33333333333333,
YVSY0203,8,inv,30,pos30_id17_im8.bmp_pos30_id10_im17.bmp,['Im_ElijahWood.png', 'Im_BenStiller.png', 'Im_RobertPattinson.png', 'Im_PatrickDempsey.png', 'Im_JustinTimberlake.png', 'Im_LeonardoDiCaprio.png', 'Im_DanielRadcliffe.png', 'Im_HughJackman.png', 'Im_KeanuReeves.png', 'Im_GeorgeClooney.png'],same,0,0.6584162999997716,33,83.33333333333333,
YVSY0203,8,inv,0,pos0_id19_im8.bmp_pos0_id13_im29.bmp,['Im_ElijahWood.png', 'Im_BenStiller.png', 'Im_RobertPattinson.png', 'Im_PatrickDempsey.png', 'Im_JustinTimberlake.png', 'Im_LeonardoDiCaprio.png', 'Im_DanielRadcliffe.png', 'Im_HughJackman.png', 'Im_KeanuReeves.png', 'Im_GeorgeClooney.png'],diff,1,0.4417920000005324,34,83.33333333333333,
YVSY0203,9,inv,0,pos0_id17_im14.bmp_pos0_id17_im9.bmp,['Im_ElijahWood.png', 'Im_BenStiller.png', 'Im_RobertPattinson.png', 'Im_PatrickDempsey.png', 'Im_JustinTimberlake.png', 'Im_LeonardoDiCaprio.png', 'Im_DanielRadcliffe.png', 'Im_HughJackman.png', 'Im_KeanuReeves.png', 'Im_GeorgeClooney.png'],same,1,0.5334414999997534,1,80.95238095238095,
YVSY0203,9,inv,60,pos60_id5_im10.bmp_pos60_id5_im1.bmp,['Im_ElijahWood.png', 'Im_BenStiller.png', 'Im_RobertPattinson.png', 'Im_PatrickDempsey.png', 'Im_JustinTimberlake.png', 'Im_LeonardoDiCaprio.png', 'Im_DanielRadcliffe.png', 'Im_HughJackman.png', 'Im_KeanuReeves.png', 'Im_GeorgeClooney.png'],same,1,0.4167084000000614,2,80.95238095238095,
YVSY0203,9,inv,60,pos60_id7_im26.bmp_pos60_id2_im2.bmp,['Im_ElijahWood.png', 'Im_BenStiller.png', 'Im_RobertPattinson.png', 'Im_PatrickDempsey.png', 'Im_JustinTimberlake.png', 'Im_LeonardoDiCaprio.png', 'Im_DanielRadcliffe.png', 'Im_HughJackman.png', 'Im_KeanuReeves.png', 'Im_GeorgeClooney.png'],same,0,0.4167192000004434,2,80.95238095238095,
YVSY0203,9,inv,fs,posfs_id5_im20.bmp_posfs_id5_im10.bmp,['Im_ElijahWood.png', 'Im_BenStiller.png', 'Im_RobertPattinson.png', 'Im_PatrickDempsey.png', 'Im_JustinTimberlake.png', 'Im_LeonardoDiCaprio.png', 'Im_DanielRadcliffe.png', 'Im_HughJackman.png', 'Im_KeanuReeves.png', 'Im_GeorgeClooney.png'],same,1,0.4167243999991115,3,80.95238095238095,
YVSY0203,9,inv,30,pos30_id8_im20.bmp_pos30_id8_im21.bmp,['Im_ElijahWood.png', 'Im_BenStiller.png', 'Im_RobertPattinson.png', 'Im_PatrickDempsey.png', 'Im_JustinTimberlake.png', 'Im_LeonardoDiCaprio.png', 'Im_DanielRadcliffe.png', 'Im_HughJackman.png', 'Im_KeanuReeves.png', 'Im_GeorgeClooney.png'],same,1,0.8667341999998825,4,80.95238095238095,
YVSY0203,9,inv,150,pos150_id17_im8.bmp_pos150_id17_im9.bmp,['Im_ElijahWood.png', 'Im_BenStiller.png', 'Im_RobertPattinson.png', 'Im_PatrickDempsey.png', 'Im_JustinTimberlake.png', 'Im_LeonardoDiCaprio.png', 'Im_DanielRadcliffe.png', 'Im_HughJackman.png', 'Im_KeanuReeves.png', 'Im_GeorgeClooney.png'],same,1,0.6669152000004033,5,80.95238095238095,
YVSY0203,9,inv,fs,posfs_id2_im3.bmp_posfs_id6_im18.bmp,['Im_ElijahWood.png', 'Im_BenStiller.png', 'Im_RobertPattinson.png', 'Im_PatrickDempsey.png', 'Im_JustinTimberlake.png', 'Im_LeonardoDiCaprio.png', 'Im_DanielRadcliffe.png', 'Im_HughJackman.png', 'Im_KeanuReeves.png', 'Im_GeorgeClooney.png'],diff,1,0.4166647000001831,6,80.95238095238095,
YVSY0203,9,inv,150,pos150_id2_im16.bmp_pos150_id2_im3.bmp,['Im_ElijahWood.png', 'Im_BenStiller.png', 'Im_RobertPattinson.png', 'Im_PatrickDempsey.png', 'Im_JustinTimberlake.png', 'Im_LeonardoDiCaprio.png', 'Im_DanielRadcliffe.png', 'Im_HughJackman.png', 'Im_KeanuReeves.png', 'Im_GeorgeClooney.png'],diff,0,0.4081696999992346,6,80.95238095238095,
YVSY0203,9,inv,120,pos120_id19_im8.bmp_pos120_id13_im29.bmp,['Im_ElijahWood.png', 'Im_BenStiller.png', 'Im_RobertPattinson.png', 'Im_PatrickDempsey.png', 'Im_JustinTimberlake.png', 'Im_LeonardoDiCaprio.png', 'Im_DanielRadcliffe.png', 'Im_HughJackman.png', 'Im_KeanuReeves.png', 'Im_GeorgeClooney.png'],same,0,0.4250870000005307,6,80.95238095238095,
YVSY0203,9,inv,0,pos0_id19_im4.bmp_pos0_id8_im20.bmp,['Im_ElijahWood.png', 'Im_BenStiller.png', 'Im_RobertPattinson.png', 'Im_PatrickDempsey.png', 'Im_JustinTimberlake.png', 'Im_LeonardoDiCaprio.png', 'Im_DanielRadcliffe.png', 'Im_HughJackman.png', 'Im_KeanuReeves.png', 'Im_GeorgeClooney.png'],diff,1,0.6082569000000149,7,80.95238095238095,
YVSY0203,9,inv,30,pos30_id17_im14.bmp_pos30_id5_im20.bmp,['Im_ElijahWood.png', 'Im_BenStiller.png', 'Im_RobertPattinson.png', 'Im_PatrickDempsey.png', 'Im_JustinTimberlake.png', 'Im_LeonardoDiCaprio.png', 'Im_DanielRadcliffe.png', 'Im_HughJackman.png', 'Im_KeanuReeves.png', 'Im_GeorgeClooney.png'],diff,1,0.4834776999996393,8,80.95238095238095,
YVSY0203,9,inv,90,pos90_id17_im9.bmp_pos90_id6_im19.bmp,['Im_ElijahWood.png', 'Im_BenStiller.png', 'Im_RobertPattinson.png', 'Im_PatrickDempsey.png', 'Im_JustinTimberlake.png', 'Im_LeonardoDiCaprio.png', 'Im_DanielRadcliffe.png', 'Im_HughJackman.png', 'Im_KeanuReeves.png', 'Im_GeorgeClooney.png'],same,0,0.4167648000002373,8,80.95238095238095,
YVSY0203,9,inv,90,pos90_id10_im18.bmp_pos90_id10_im1.bmp,['Im_ElijahWood.png', 'Im_BenStiller.png', 'Im_RobertPattinson.png', 'Im_PatrickDempsey.png', 'Im_JustinTimberlake.png', 'Im_LeonardoDiCaprio.png', 'Im_DanielRadcliffe.png', 'Im_HughJackman.png', 'Im_KeanuReeves.png', 'Im_GeorgeClooney.png'],same,1,0.41678349999983766,9,80.95238095238095,
YVSY0203,9,inv,120,pos120_id8_im20.bmp_pos120_id8_im13.bmp,['Im_ElijahWood.png', 'Im_BenStiller.png', 'Im_RobertPattinson.png', 'Im_PatrickDempsey.png', 'Im_JustinTimberlake.png', 'Im_LeonardoDiCaprio.png', 'Im_DanielRadcliffe.png', 'Im_HughJackman.png', 'Im_KeanuReeves.png', 'Im_GeorgeClooney.png'],same,1,1.0835565999996106,10,80.95238095238095,
YVSY0203,10,neg,60,neg60_id6_im18.bmp_neg60_id6_im12.bmp,['Im_ElijahWood.png', 'Im_BenStiller.png', 'Im_RobertPattinson.png', 'Im_PatrickDempsey.png', 'Im_JustinTimberlake.png', 'Im_LeonardoDiCaprio.png', 'Im_DanielRadcliffe.png', 'Im_HughJackman.png', 'Im_KeanuReeves.png', 'Im_GeorgeClooney.png'],same,1,0.775559699999576,11,80.95238095238095,
YVSY0203,10,neg,30,neg30_id2_im2.bmp_neg30_id2_im3.bmp,['Im_ElijahWood.png', 'Im_BenStiller.png', 'Im_RobertPattinson.png', 'Im_PatrickDempsey.png', 'Im_JustinTimberlake.png', 'Im_LeonardoDiCaprio.png', 'Im_DanielRadcliffe.png', 'Im_HughJackman.png', 'Im_KeanuReeves.png', 'Im_GeorgeClooney.png'],same,1,0.4249102000003404,12,80.95238095238095,
YVSY0203,10,neg,0,neg0_id19_im27.bmp_neg0_id19_im4.bmp,['Im_ElijahWood.png', 'Im_BenStiller.png', 'Im_RobertPattinson.png', 'Im_PatrickDempsey.png', 'Im_JustinTimberlake.png', 'Im_LeonardoDiCaprio.png', 'Im_DanielRadcliffe.png', 'Im_HughJackman.png', 'Im_KeanuReeves.png', 'Im_GeorgeClooney.png'],same,1,0.4251508000006652,13,80.95238095238095,
YVSY0203,10,neg,90,neg90_id7_im15.bmp_neg90_id13_im15.bmp,['Im_ElijahWood.png', 'Im_BenStiller.png', 'Im_RobertPattinson.png', 'Im_PatrickDempsey.png', 'Im_JustinTimberlake.png', 'Im_LeonardoDiCaprio.png', 'Im_DanielRadcliffe.png', 'Im_HughJackman.png', 'Im_KeanuReeves.png', 'Im_GeorgeClooney.png'],diff,1,0.42504530000041996,14,80.95238095238095,
YVSY0203,10,neg,60,neg60_id7_im26.bmp_neg60_id7_im15.bmp,['Im_ElijahWood.png', 'Im_BenStiller.png', 'Im_RobertPattinson.png', 'Im_PatrickDempsey.png', 'Im_JustinTimberlake.png', 'Im_LeonardoDiCaprio.png', 'Im_DanielRadcliffe.png', 'Im_HughJackman.png', 'Im_KeanuReeves.png', 'Im_GeorgeClooney.png'],same,1,0.5918693999992684,15,80.95238095238095,
YVSY0203,10,neg,150,neg150_id17_im8.bmp_neg150_id6_im19.bmp,['Im_ElijahWood.png', 'Im_BenStiller.png', 'Im_RobertPattinson.png', 'Im_PatrickDempsey.png', 'Im_JustinTimberlake.png', 'Im_LeonardoDiCaprio.png', 'Im_DanielRadcliffe.png', 'Im_HughJackman.png', 'Im_KeanuReeves.png', 'Im_GeorgeClooney.png'],diff,1,0.4084984999999506,16,80.95238095238095,
YVSY0203,10,neg,150,neg150_id5_im20.bmp_neg150_id5_im1.bmp,['Im_ElijahWood.png', 'Im_BenStiller.png', 'Im_RobertPattinson.png', 'Im_PatrickDempsey.png', 'Im_JustinTimberlake.png', 'Im_LeonardoDiCaprio.png', 'Im_DanielRadcliffe.png', 'Im_HughJackman.png', 'Im_KeanuReeves.png', 'Im_GeorgeClooney.png'],diff,0,0.8418533999993087,16,80.95238095238095,
YVSY0203,10,neg,120,neg120_id11_im10.bmp_neg120_id19_im27.bmp,['Im_ElijahWood.png', 'Im_BenStiller.png', 'Im_RobertPattinson.png', 'Im_PatrickDempsey.png', 'Im_JustinTimberlake.png', 'Im_LeonardoDiCaprio.png', 'Im_DanielRadcliffe.png', 'Im_HughJackman.png', 'Im_KeanuReeves.png', 'Im_GeorgeClooney.png'],diff,1,0.4250402999996368,17,80.95238095238095,
YVSY0203,10,neg,fs,negfs_id13_im15.bmp_negfs_id13_im29.bmp,['Im_ElijahWood.png', 'Im_BenStiller.png', 'Im_RobertPattinson.png', 'Im_PatrickDempsey.png', 'Im_JustinTimberlake.png', 'Im_LeonardoDiCaprio.png', 'Im_DanielRadcliffe.png', 'Im_HughJackman.png', 'Im_KeanuReeves.png', 'Im_GeorgeClooney.png'],same,1,1.4835689000001366,18,80.95238095238095,
YVSY0203,10,neg,0,neg0_id8_im20.bmp_neg0_id19_im4.bmp,['Im_ElijahWood.png', 'Im_BenStiller.png', 'Im_RobertPattinson.png', 'Im_PatrickDempsey.png', 'Im_JustinTimberlake.png', 'Im_LeonardoDiCaprio.png', 'Im_DanielRadcliffe.png', 'Im_HughJackman.png', 'Im_KeanuReeves.png', 'Im_GeorgeClooney.png'],same,0,0.7085207999998602,18,80.95238095238095,
YVSY0203,10,neg,fs,negfs_id6_im18.bmp_negfs_id6_im12.bmp,['Im_ElijahWood.png', 'Im_BenStiller.png', 'Im_RobertPattinson.png', 'Im_PatrickDempsey.png', 'Im_JustinTimberlake.png', 'Im_LeonardoDiCaprio.png', 'Im_DanielRadcliffe.png', 'Im_HughJackman.png', 'Im_KeanuReeves.png', 'Im_GeorgeClooney.png'],same,1,0.4501882000004116,19,80.95238095238095,
YVSY0203,10,neg,120,neg120_id11_im1.bmp_neg120_id13_im15.bmp,['Im_ElijahWood.png', 'Im_BenStiller.png', 'Im_RobertPattinson.png', 'Im_PatrickDempsey.png', 'Im_JustinTimberlake.png', 'Im_LeonardoDiCaprio.png', 'Im_DanielRadcliffe.png', 'Im_HughJackman.png', 'Im_KeanuReeves.png', 'Im_GeorgeClooney.png'],diff,1,0.43353920000026847,20,80.95238095238095,
YVSY0203,10,neg,30,neg30_id6_im19.bmp_neg30_id6_im12.bmp,['Im_ElijahWood.png', 'Im_BenStiller.png', 'Im_RobertPattinson.png', 'Im_PatrickDempsey.png', 'Im_JustinTimberlake.png', 'Im_LeonardoDiCaprio.png', 'Im_DanielRadcliffe.png', 'Im_HughJackman.png', 'Im_KeanuReeves.png', 'Im_GeorgeClooney.png'],same,1,0.4251017000005959,21,80.95238095238095,
YVSY0203,10,neg,90,neg90_id11_im2.bmp_neg90_id10_im18.bmp,['Im_ElijahWood.png', 'Im_BenStiller.png', 'Im_RobertPattinson.png', 'Im_PatrickDempsey.png', 'Im_JustinTimberlake.png', 'Im_LeonardoDiCaprio.png', 'Im_DanielRadcliffe.png', 'Im_HughJackman.png', 'Im_KeanuReeves.png', 'Im_GeorgeClooney.png'],same,0,0.41674590000002354,21,80.95238095238095,
YVSY0203,11,pos,fs,posfs_id2_im16.bmp_posfs_id8_im20.bmp,['Im_ElijahWood.png', 'Im_BenStiller.png', 'Im_RobertPattinson.png', 'Im_PatrickDempsey.png', 'Im_JustinTimberlake.png', 'Im_LeonardoDiCaprio.png', 'Im_DanielRadcliffe.png', 'Im_HughJackman.png', 'Im_KeanuReeves.png', 'Im_GeorgeClooney.png'],same,0,0.9836076000001412,21,80.95238095238095,
YVSY0203,11,pos,90,pos90_id17_im14.bmp_pos90_id11_im10.bmp,['Im_ElijahWood.png', 'Im_BenStiller.png', 'Im_RobertPattinson.png', 'Im_PatrickDempsey.png', 'Im_JustinTimberlake.png', 'Im_LeonardoDiCaprio.png', 'Im_DanielRadcliffe.png', 'Im_HughJackman.png', 'Im_KeanuReeves.png', 'Im_GeorgeClooney.png'],diff,1,0.5167527000003247,22,80.95238095238095,
YVSY0203,11,pos,fs,posfs_id19_im27.bmp_posfs_id6_im12.bmp,['Im_ElijahWood.png', 'Im_BenStiller.png', 'Im_RobertPattinson.png', 'Im_PatrickDempsey.png', 'Im_JustinTimberlake.png', 'Im_LeonardoDiCaprio.png', 'Im_DanielRadcliffe.png', 'Im_HughJackman.png', 'Im_KeanuReeves.png', 'Im_GeorgeClooney.png'],diff,1,0.42494489999990037,23,80.95238095238095,
YVSY0203,11,pos,150,pos150_id7_im15.bmp_pos150_id7_im14.bmp,['Im_ElijahWood.png', 'Im_BenStiller.png', 'Im_RobertPattinson.png', 'Im_PatrickDempsey.png', 'Im_JustinTimberlake.png', 'Im_LeonardoDiCaprio.png', 'Im_DanielRadcliffe.png', 'Im_HughJackman.png', 'Im_KeanuReeves.png', 'Im_GeorgeClooney.png'],same,1,0.7086945000000924,24,80.95238095238095,
YVSY0203,11,pos,30,pos30_id13_im10.bmp_pos30_id7_im26.bmp,['Im_ElijahWood.png', 'Im_BenStiller.png', 'Im_RobertPattinson.png', 'Im_PatrickDempsey.png', 'Im_JustinTimberlake.png', 'Im_LeonardoDiCaprio.png', 'Im_DanielRadcliffe.png', 'Im_HughJackman.png', 'Im_KeanuReeves.png', 'Im_GeorgeClooney.png'],diff,1,0.4249303999995391,25,80.95238095238095,
YVSY0203,11,pos,90,pos90_id13_im10.bmp_pos90_id13_im15.bmp,['Im_ElijahWood.png', 'Im_BenStiller.png', 'Im_RobertPattinson.png', 'Im_PatrickDempsey.png', 'Im_JustinTimberlake.png', 'Im_LeonardoDiCaprio.png', 'Im_DanielRadcliffe.png', 'Im_HughJackman.png', 'Im_KeanuReeves.png', 'Im_GeorgeClooney.png'],same,1,0.8000506999997015,26,80.95238095238095,
YVSY0203,11,pos,120,pos120_id8_im21.bmp_pos120_id8_im20.bmp,['Im_ElijahWood.png', 'Im_BenStiller.png', 'Im_RobertPattinson.png', 'Im_PatrickDempsey.png', 'Im_JustinTimberlake.png', 'Im_LeonardoDiCaprio.png', 'Im_DanielRadcliffe.png', 'Im_HughJackman.png', 'Im_KeanuReeves.png', 'Im_GeorgeClooney.png'],same,1,0.4250449999999546,27,80.95238095238095,
YVSY0203,11,pos,150,pos150_id8_im20.bmp_pos150_id19_im4.bmp,['Im_ElijahWood.png', 'Im_BenStiller.png', 'Im_RobertPattinson.png', 'Im_PatrickDempsey.png', 'Im_JustinTimberlake.png', 'Im_LeonardoDiCaprio.png', 'Im_DanielRadcliffe.png', 'Im_HughJackman.png', 'Im_KeanuReeves.png', 'Im_GeorgeClooney.png'],diff,1,0.425183699999252,28,80.95238095238095,
YVSY0203,11,pos,0,pos0_id2_im3.bmp_pos0_id2_im16.bmp,['Im_ElijahWood.png', 'Im_BenStiller.png', 'Im_RobertPattinson.png', 'Im_PatrickDempsey.png', 'Im_JustinTimberlake.png', 'Im_LeonardoDiCaprio.png', 'Im_DanielRadcliffe.png', 'Im_HughJackman.png', 'Im_KeanuReeves.png', 'Im_GeorgeClooney.png'],same,1,0.4249814000004335,29,80.95238095238095,
